meta,sender,sender_type,sender_id,response,ended_on,instrCount,time_run,time_render,time_show,time_end,duration,time_commit,timestamp,time_switch,openLabId,type,task,project,move,trialN,blockN_Train,blockN,moveCount,currPP,points,movesTrial,visitedFields,diff,reward,Strategie,Zweck,Probleme
[object Object],Screen_1,canvas.Screen,0_0_0_0,cont,response,1,621,635,669,29707,29072,29709,2021-10-23T06:59:33.987Z,29865,1634972334,incremental,ni_sequenzen,NI_Sequenzen,,,,,,,,,,,,,,
,Screen_2,canvas.Screen,0_0_0_1,cont,response,1,29832,29837,29865,48972,19135,48973,2021-10-23T06:59:53.251Z,49129,1634972334,incremental,ni_sequenzen,NI_Sequenzen,,,,,,,,,,,,,,
,Screen_3,canvas.Screen,0_0_0_2,cont,response,1,49073,49079,49129,70032,20953,70033,2021-10-23T07:00:14.311Z,70099,1634972334,incremental,ni_sequenzen,NI_Sequenzen,,,,,,,,,,,,,,
,Screen_4,canvas.Screen,0_0_0_3,cont,response,1,70047,70062,70099,80287,10225,80288,2021-10-23T07:00:24.566Z,80474,1634972334,incremental,ni_sequenzen,NI_Sequenzen,,,,,,,,,,,,,,
,Sequence,flow.Sequence,0_0_0,,completion,1,566.0000000000001,635,669,80287,79618,80291,2021-10-23T07:00:24.569Z,80474,1634972334,incremental,ni_sequenzen,NI_Sequenzen,,,,,,,,,,,,,,
,Screen_1,canvas.Screen,0_0_1_0,,skipped,2,80300,,,80300,,80300,2021-10-23T07:00:24.578Z,80474,1634972334,incremental,ni_sequenzen,NI_Sequenzen,,,,,,,,,,,,,,
,Screen_2,canvas.Screen,0_0_1_1,,skipped,2,80303,,,80300,,80304,2021-10-23T07:00:24.582Z,80474,1634972334,incremental,ni_sequenzen,NI_Sequenzen,,,,,,,,,,,,,,
,Screen_3,canvas.Screen,0_0_1_2,,skipped,2,80309,,,80300,,80309,2021-10-23T07:00:24.587Z,80474,1634972334,incremental,ni_sequenzen,NI_Sequenzen,,,,,,,,,,,,,,
,Screen_4,canvas.Screen,0_0_1_3,,skipped,2,80313,,,80300,,80314,2021-10-23T07:00:24.591Z,80474,1634972334,incremental,ni_sequenzen,NI_Sequenzen,,,,,,,,,,,,,,
,Sequence,flow.Sequence,0_0_1,,completion,2,80295,,,80300,,80314,2021-10-23T07:00:24.592Z,80474,1634972334,incremental,ni_sequenzen,NI_Sequenzen,,,,,,,,,,,,,,
,Screen_1,canvas.Screen,0_0_2_0,,skipped,3,80320.00000000001,,,80320.00000000001,,80320.00000000001,2021-10-23T07:00:24.598Z,80474,1634972334,incremental,ni_sequenzen,NI_Sequenzen,,,,,,,,,,,,,,
,Screen_2,canvas.Screen,0_0_2_1,,skipped,3,80323.00000000001,,,80320.00000000001,,80324,2021-10-23T07:00:24.602Z,80474,1634972334,incremental,ni_sequenzen,NI_Sequenzen,,,,,,,,,,,,,,
,Screen_3,canvas.Screen,0_0_2_2,,skipped,3,80327,,,80320.00000000001,,80327,2021-10-23T07:00:24.605Z,80474,1634972334,incremental,ni_sequenzen,NI_Sequenzen,,,,,,,,,,,,,,
,Screen_4,canvas.Screen,0_0_2_3,,skipped,3,80332.00000000001,,,80320.00000000001,,80332.00000000001,2021-10-23T07:00:24.610Z,80474,1634972334,incremental,ni_sequenzen,NI_Sequenzen,,,,,,,,,,,,,,
,Sequence,flow.Sequence,0_0_2,,completion,3,80316,,,80320.00000000001,,80333,2021-10-23T07:00:24.611Z,80474,1634972334,incremental,ni_sequenzen,NI_Sequenzen,,,,,,,,,,,,,,
,Screen_1,canvas.Screen,0_0_3_0,,skipped,4,80337,,,80337,,80337,2021-10-23T07:00:24.615Z,80474,1634972334,incremental,ni_sequenzen,NI_Sequenzen,,,,,,,,,,,,,,
,Screen_2,canvas.Screen,0_0_3_1,,skipped,4,80339,,,80337,,80339,2021-10-23T07:00:24.617Z,80474,1634972334,incremental,ni_sequenzen,NI_Sequenzen,,,,,,,,,,,,,,
,Screen_3,canvas.Screen,0_0_3_2,,skipped,4,80341.00000000001,,,80337,,80341.00000000001,2021-10-23T07:00:24.619Z,80474,1634972334,incremental,ni_sequenzen,NI_Sequenzen,,,,,,,,,,,,,,
,Screen_4,canvas.Screen,0_0_3_3,,skipped,4,80344.00000000001,,,80337,,80344.00000000001,2021-10-23T07:00:24.622Z,80474,1634972334,incremental,ni_sequenzen,NI_Sequenzen,,,,,,,,,,,,,,
,Sequence,flow.Sequence,0_0_3,,completion,4,80335.00000000001,,,80337,,80344.00000000001,2021-10-23T07:00:24.622Z,80474,1634972334,incremental,ni_sequenzen,NI_Sequenzen,,,,,,,,,,,,,,
,Screen_1,canvas.Screen,0_0_4_0,,skipped,5,80347.00000000001,,,80347.00000000001,,80348,2021-10-23T07:00:24.625Z,80474,1634972334,incremental,ni_sequenzen,NI_Sequenzen,,,,,,,,,,,,,,
,Screen_2,canvas.Screen,0_0_4_1,,skipped,5,80350.00000000001,,,80347.00000000001,,80350.00000000001,2021-10-23T07:00:24.628Z,80474,1634972334,incremental,ni_sequenzen,NI_Sequenzen,,,,,,,,,,,,,,
,Screen_3,canvas.Screen,0_0_4_2,,skipped,5,80352,,,80347.00000000001,,80352,2021-10-23T07:00:24.630Z,80474,1634972334,incremental,ni_sequenzen,NI_Sequenzen,,,,,,,,,,,,,,
,Screen_4,canvas.Screen,0_0_4_3,,skipped,5,80354,,,80347.00000000001,,80354,2021-10-23T07:00:24.632Z,80474,1634972334,incremental,ni_sequenzen,NI_Sequenzen,,,,,,,,,,,,,,
,Sequence,flow.Sequence,0_0_4,,completion,5,80345,,,80347.00000000001,,80354,2021-10-23T07:00:24.632Z,80474,1634972334,incremental,ni_sequenzen,NI_Sequenzen,,,,,,,,,,,,,,
,Screen_1,canvas.Screen,0_0_5_0,,skipped,6,80357,,,80357,,80357,2021-10-23T07:00:24.635Z,80474,1634972334,incremental,ni_sequenzen,NI_Sequenzen,,,,,,,,,,,,,,
,Screen_2,canvas.Screen,0_0_5_1,,skipped,6,80359,,,80357,,80359,2021-10-23T07:00:24.637Z,80474,1634972334,incremental,ni_sequenzen,NI_Sequenzen,,,,,,,,,,,,,,
,Screen_3,canvas.Screen,0_0_5_2,,skipped,6,80361,,,80357,,80361,2021-10-23T07:00:24.639Z,80474,1634972334,incremental,ni_sequenzen,NI_Sequenzen,,,,,,,,,,,,,,
,Screen_4,canvas.Screen,0_0_5_3,,skipped,6,80362,,,80357,,80362,2021-10-23T07:00:24.640Z,80474,1634972334,incremental,ni_sequenzen,NI_Sequenzen,,,,,,,,,,,,,,
,Sequence,flow.Sequence,0_0_5,,completion,6,80356.00000000001,,,80357,,80363,2021-10-23T07:00:24.641Z,80474,1634972334,incremental,ni_sequenzen,NI_Sequenzen,,,,,,,,,,,,,,
,Screen_1,canvas.Screen,0_0_6_0,,skipped,7,80365,,,80365,,80365,2021-10-23T07:00:24.643Z,80474,1634972334,incremental,ni_sequenzen,NI_Sequenzen,,,,,,,,,,,,,,
,Screen_2,canvas.Screen,0_0_6_1,,skipped,7,80367,,,80365,,80368,2021-10-23T07:00:24.646Z,80474,1634972334,incremental,ni_sequenzen,NI_Sequenzen,,,,,,,,,,,,,,
,Screen_3,canvas.Screen,0_0_6_2,,skipped,7,80369,,,80365,,80369,2021-10-23T07:00:24.647Z,80474,1634972334,incremental,ni_sequenzen,NI_Sequenzen,,,,,,,,,,,,,,
,Screen_4,canvas.Screen,0_0_6_3,,skipped,7,80370,,,80365,,80371,2021-10-23T07:00:24.648Z,80474,1634972334,incremental,ni_sequenzen,NI_Sequenzen,,,,,,,,,,,,,,
,Sequence,flow.Sequence,0_0_6,,completion,7,80364,,,80365,,80371,2021-10-23T07:00:24.649Z,80474,1634972334,incremental,ni_sequenzen,NI_Sequenzen,,,,,,,,,,,,,,
,Screen_1,canvas.Screen,0_0_7_0,,skipped,8,80373,,,80373,,80373,2021-10-23T07:00:24.651Z,80474,1634972334,incremental,ni_sequenzen,NI_Sequenzen,,,,,,,,,,,,,,
,Screen_2,canvas.Screen,0_0_7_1,,skipped,8,80374,,,80373,,80374,2021-10-23T07:00:24.652Z,80474,1634972334,incremental,ni_sequenzen,NI_Sequenzen,,,,,,,,,,,,,,
,Screen_3,canvas.Screen,0_0_7_2,,skipped,8,80376,,,80373,,80376,2021-10-23T07:00:24.654Z,80474,1634972334,incremental,ni_sequenzen,NI_Sequenzen,,,,,,,,,,,,,,
,Screen_4,canvas.Screen,0_0_7_3,,skipped,8,80378,,,80373,,80378,2021-10-23T07:00:24.656Z,80474,1634972334,incremental,ni_sequenzen,NI_Sequenzen,,,,,,,,,,,,,,
,Sequence,flow.Sequence,0_0_7,,completion,8,80372,,,80373,,80378,2021-10-23T07:00:24.656Z,80474,1634972334,incremental,ni_sequenzen,NI_Sequenzen,,,,,,,,,,,,,,
,Screen_1,canvas.Screen,0_0_8_0,,skipped,9,80380,,,80380,,80381,2021-10-23T07:00:24.658Z,80474,1634972334,incremental,ni_sequenzen,NI_Sequenzen,,,,,,,,,,,,,,
,Screen_2,canvas.Screen,0_0_8_1,,skipped,9,80382,,,80380,,80382,2021-10-23T07:00:24.660Z,80474,1634972334,incremental,ni_sequenzen,NI_Sequenzen,,,,,,,,,,,,,,
,Screen_3,canvas.Screen,0_0_8_2,,skipped,9,80383,,,80380,,80383,2021-10-23T07:00:24.661Z,80474,1634972334,incremental,ni_sequenzen,NI_Sequenzen,,,,,,,,,,,,,,
,Screen_4,canvas.Screen,0_0_8_3,,skipped,9,80384,,,80380,,80384,2021-10-23T07:00:24.662Z,80474,1634972334,incremental,ni_sequenzen,NI_Sequenzen,,,,,,,,,,,,,,
,Sequence,flow.Sequence,0_0_8,,completion,9,80379,,,80380,,80384,2021-10-23T07:00:24.662Z,80474,1634972334,incremental,ni_sequenzen,NI_Sequenzen,,,,,,,,,,,,,,
,Screen_1,canvas.Screen,0_0_9_0,,skipped,10,80385,,,80385,,80385,2021-10-23T07:00:24.663Z,80474,1634972334,incremental,ni_sequenzen,NI_Sequenzen,,,,,,,,,,,,,,
,Screen_2,canvas.Screen,0_0_9_1,,skipped,10,80386,,,80385,,80386,2021-10-23T07:00:24.664Z,80474,1634972334,incremental,ni_sequenzen,NI_Sequenzen,,,,,,,,,,,,,,
,Screen_3,canvas.Screen,0_0_9_2,,skipped,10,80387,,,80385,,80388,2021-10-23T07:00:24.665Z,80474,1634972334,incremental,ni_sequenzen,NI_Sequenzen,,,,,,,,,,,,,,
,Screen_4,canvas.Screen,0_0_9_3,,skipped,10,80389,,,80385,,80389,2021-10-23T07:00:24.667Z,80474,1634972334,incremental,ni_sequenzen,NI_Sequenzen,,,,,,,,,,,,,,
,Sequence,flow.Sequence,0_0_9,,completion,10,80384,,,80385,,80389,2021-10-23T07:00:24.667Z,80474,1634972334,incremental,ni_sequenzen,NI_Sequenzen,,,,,,,,,,,,,,
,Screen_1,canvas.Screen,0_0_10_0,,skipped,11,80390,,,80390,,80390,2021-10-23T07:00:24.668Z,80474,1634972334,incremental,ni_sequenzen,NI_Sequenzen,,,,,,,,,,,,,,
,Screen_2,canvas.Screen,0_0_10_1,,skipped,11,80392,,,80390,,80392,2021-10-23T07:00:24.670Z,80474,1634972334,incremental,ni_sequenzen,NI_Sequenzen,,,,,,,,,,,,,,
,Screen_3,canvas.Screen,0_0_10_2,,skipped,11,80393,,,80390,,80393,2021-10-23T07:00:24.671Z,80474,1634972334,incremental,ni_sequenzen,NI_Sequenzen,,,,,,,,,,,,,,
,Screen_4,canvas.Screen,0_0_10_3,,skipped,11,80394,,,80390,,80394,2021-10-23T07:00:24.672Z,80474,1634972334,incremental,ni_sequenzen,NI_Sequenzen,,,,,,,,,,,,,,
,Sequence,flow.Sequence,0_0_10,,completion,11,80389,,,80390,,80394,2021-10-23T07:00:24.672Z,80474,1634972334,incremental,ni_sequenzen,NI_Sequenzen,,,,,,,,,,,,,,
,Screen_1,canvas.Screen,0_0_11_0,,skipped,12,80395,,,80395,,80396,2021-10-23T07:00:24.673Z,80474,1634972334,incremental,ni_sequenzen,NI_Sequenzen,,,,,,,,,,,,,,
,Screen_2,canvas.Screen,0_0_11_1,,skipped,12,80398,,,80395,,80398,2021-10-23T07:00:24.676Z,80474,1634972334,incremental,ni_sequenzen,NI_Sequenzen,,,,,,,,,,,,,,
,Screen_3,canvas.Screen,0_0_11_2,,skipped,12,80400,,,80395,,80401,2021-10-23T07:00:24.678Z,80474,1634972334,incremental,ni_sequenzen,NI_Sequenzen,,,,,,,,,,,,,,
,Screen_4,canvas.Screen,0_0_11_3,,skipped,12,80403,,,80395,,80403,2021-10-23T07:00:24.681Z,80474,1634972334,incremental,ni_sequenzen,NI_Sequenzen,,,,,,,,,,,,,,
,Sequence,flow.Sequence,0_0_11,,completion,12,80395,,,80395,,80404,2021-10-23T07:00:24.682Z,80474,1634972334,incremental,ni_sequenzen,NI_Sequenzen,,,,,,,,,,,,,,
,Screen_1,canvas.Screen,0_0_12_0,,skipped,13,80406,,,80406,,80406,2021-10-23T07:00:24.684Z,80474,1634972334,incremental,ni_sequenzen,NI_Sequenzen,,,,,,,,,,,,,,
,Screen_2,canvas.Screen,0_0_12_1,,skipped,13,80407,,,80406,,80407,2021-10-23T07:00:24.685Z,80474,1634972334,incremental,ni_sequenzen,NI_Sequenzen,,,,,,,,,,,,,,
,Screen_3,canvas.Screen,0_0_12_2,,skipped,13,80408,,,80406,,80409,2021-10-23T07:00:24.686Z,80474,1634972334,incremental,ni_sequenzen,NI_Sequenzen,,,,,,,,,,,,,,
,Screen_4,canvas.Screen,0_0_12_3,,skipped,13,80410,,,80406,,80410,2021-10-23T07:00:24.688Z,80474,1634972334,incremental,ni_sequenzen,NI_Sequenzen,,,,,,,,,,,,,,
,Sequence,flow.Sequence,0_0_12,,completion,13,80405,,,80406,,80410,2021-10-23T07:00:24.688Z,80474,1634972334,incremental,ni_sequenzen,NI_Sequenzen,,,,,,,,,,,,,,
,Screen_1,canvas.Screen,0_0_13_0,,skipped,14,80411,,,80411,,80412,2021-10-23T07:00:24.689Z,80474,1634972334,incremental,ni_sequenzen,NI_Sequenzen,,,,,,,,,,,,,,
,Screen_2,canvas.Screen,0_0_13_1,,skipped,14,80413,,,80411,,80413,2021-10-23T07:00:24.691Z,80474,1634972334,incremental,ni_sequenzen,NI_Sequenzen,,,,,,,,,,,,,,
,Screen_3,canvas.Screen,0_0_13_2,,skipped,14,80414,,,80411,,80414,2021-10-23T07:00:24.692Z,80474,1634972334,incremental,ni_sequenzen,NI_Sequenzen,,,,,,,,,,,,,,
,Screen_4,canvas.Screen,0_0_13_3,,skipped,14,80415,,,80411,,80415,2021-10-23T07:00:24.693Z,80474,1634972334,incremental,ni_sequenzen,NI_Sequenzen,,,,,,,,,,,,,,
,Sequence,flow.Sequence,0_0_13,,completion,14,80411,,,80411,,80415,2021-10-23T07:00:24.693Z,80474,1634972334,incremental,ni_sequenzen,NI_Sequenzen,,,,,,,,,,,,,,
,Screen_1,canvas.Screen,0_0_14_0,,skipped,15,80417,,,80417,,80417,2021-10-23T07:00:24.695Z,80474,1634972334,incremental,ni_sequenzen,NI_Sequenzen,,,,,,,,,,,,,,
,Screen_2,canvas.Screen,0_0_14_1,,skipped,15,80418,,,80417,,80418,2021-10-23T07:00:24.696Z,80474,1634972334,incremental,ni_sequenzen,NI_Sequenzen,,,,,,,,,,,,,,
,Screen_3,canvas.Screen,0_0_14_2,,skipped,15,80419,,,80417,,80419,2021-10-23T07:00:24.697Z,80474,1634972334,incremental,ni_sequenzen,NI_Sequenzen,,,,,,,,,,,,,,
,Screen_4,canvas.Screen,0_0_14_3,,skipped,15,80420,,,80417,,80420,2021-10-23T07:00:24.698Z,80474,1634972334,incremental,ni_sequenzen,NI_Sequenzen,,,,,,,,,,,,,,
,Sequence,flow.Sequence,0_0_14,,completion,15,80416,,,80417,,80421,2021-10-23T07:00:24.698Z,80474,1634972334,incremental,ni_sequenzen,NI_Sequenzen,,,,,,,,,,,,,,
,Screen_1,canvas.Screen,0_0_15_0,,skipped,16,80422,,,80422,,80422,2021-10-23T07:00:24.700Z,80474,1634972334,incremental,ni_sequenzen,NI_Sequenzen,,,,,,,,,,,,,,
,Screen_2,canvas.Screen,0_0_15_1,,skipped,16,80423,,,80422,,80423,2021-10-23T07:00:24.701Z,80474,1634972334,incremental,ni_sequenzen,NI_Sequenzen,,,,,,,,,,,,,,
,Screen_3,canvas.Screen,0_0_15_2,,skipped,16,80425,,,80422,,80425,2021-10-23T07:00:24.703Z,80474,1634972334,incremental,ni_sequenzen,NI_Sequenzen,,,,,,,,,,,,,,
,Screen_4,canvas.Screen,0_0_15_3,,skipped,16,80426,,,80422,,80426,2021-10-23T07:00:24.704Z,80474,1634972334,incremental,ni_sequenzen,NI_Sequenzen,,,,,,,,,,,,,,
,Sequence,flow.Sequence,0_0_15,,completion,16,80421,,,80422,,80426,2021-10-23T07:00:24.704Z,80474,1634972334,incremental,ni_sequenzen,NI_Sequenzen,,,,,,,,,,,,,,
,Screen_1,canvas.Screen,0_0_16_0,,skipped,17,80428,,,80428,,80428,2021-10-23T07:00:24.706Z,80474,1634972334,incremental,ni_sequenzen,NI_Sequenzen,,,,,,,,,,,,,,
,Screen_2,canvas.Screen,0_0_16_1,,skipped,17,80429,,,80428,,80429,2021-10-23T07:00:24.707Z,80474,1634972334,incremental,ni_sequenzen,NI_Sequenzen,,,,,,,,,,,,,,
,Screen_3,canvas.Screen,0_0_16_2,,skipped,17,80430,,,80428,,80430,2021-10-23T07:00:24.708Z,80474,1634972334,incremental,ni_sequenzen,NI_Sequenzen,,,,,,,,,,,,,,
,Screen_4,canvas.Screen,0_0_16_3,,skipped,17,80431,,,80428,,80431,2021-10-23T07:00:24.709Z,80474,1634972334,incremental,ni_sequenzen,NI_Sequenzen,,,,,,,,,,,,,,
,Sequence,flow.Sequence,0_0_16,,completion,17,80427,,,80428,,80431,2021-10-23T07:00:24.709Z,80474,1634972334,incremental,ni_sequenzen,NI_Sequenzen,,,,,,,,,,,,,,
,Screen_1,canvas.Screen,0_0_17_0,,skipped,18,80433,,,80433,,80433,2021-10-23T07:00:24.711Z,80474,1634972334,incremental,ni_sequenzen,NI_Sequenzen,,,,,,,,,,,,,,
,Screen_2,canvas.Screen,0_0_17_1,,skipped,18,80434,,,80433,,80434,2021-10-23T07:00:24.712Z,80474,1634972334,incremental,ni_sequenzen,NI_Sequenzen,,,,,,,,,,,,,,
,Screen_3,canvas.Screen,0_0_17_2,,skipped,18,80435,,,80433,,80435,2021-10-23T07:00:24.713Z,80474,1634972334,incremental,ni_sequenzen,NI_Sequenzen,,,,,,,,,,,,,,
,Screen_4,canvas.Screen,0_0_17_3,,skipped,18,80436,,,80433,,80436,2021-10-23T07:00:24.714Z,80474,1634972334,incremental,ni_sequenzen,NI_Sequenzen,,,,,,,,,,,,,,
,Sequence,flow.Sequence,0_0_17,,completion,18,80432,,,80433,,80436,2021-10-23T07:00:24.714Z,80474,1634972334,incremental,ni_sequenzen,NI_Sequenzen,,,,,,,,,,,,,,
,Screen_1,canvas.Screen,0_0_18_0,,skipped,19,80437,,,80437,,80437,2021-10-23T07:00:24.715Z,80474,1634972334,incremental,ni_sequenzen,NI_Sequenzen,,,,,,,,,,,,,,
,Screen_2,canvas.Screen,0_0_18_1,,skipped,19,80438,,,80437,,80438,2021-10-23T07:00:24.716Z,80474,1634972334,incremental,ni_sequenzen,NI_Sequenzen,,,,,,,,,,,,,,
,Screen_3,canvas.Screen,0_0_18_2,,skipped,19,80439,,,80437,,80439,2021-10-23T07:00:24.717Z,80474,1634972334,incremental,ni_sequenzen,NI_Sequenzen,,,,,,,,,,,,,,
,Screen_4,canvas.Screen,0_0_18_3,,skipped,19,80440,,,80437,,80440,2021-10-23T07:00:24.718Z,80474,1634972334,incremental,ni_sequenzen,NI_Sequenzen,,,,,,,,,,,,,,
,Sequence,flow.Sequence,0_0_18,,completion,19,80436,,,80437,,80440,2021-10-23T07:00:24.718Z,80474,1634972334,incremental,ni_sequenzen,NI_Sequenzen,,,,,,,,,,,,,,
,Screen_1,canvas.Screen,0_0_19_0,,skipped,20,80441,,,80441,,80441,2021-10-23T07:00:24.719Z,80474,1634972334,incremental,ni_sequenzen,NI_Sequenzen,,,,,,,,,,,,,,
,Screen_2,canvas.Screen,0_0_19_1,,skipped,20,80442,,,80441,,80442,2021-10-23T07:00:24.720Z,80474,1634972334,incremental,ni_sequenzen,NI_Sequenzen,,,,,,,,,,,,,,
,Screen_3,canvas.Screen,0_0_19_2,,skipped,20,80443,,,80441,,80443,2021-10-23T07:00:24.721Z,80474,1634972334,incremental,ni_sequenzen,NI_Sequenzen,,,,,,,,,,,,,,
,Screen_4,canvas.Screen,0_0_19_3,,skipped,20,80443,,,80441,,80443,2021-10-23T07:00:24.721Z,80474,1634972334,incremental,ni_sequenzen,NI_Sequenzen,,,,,,,,,,,,,,
,Sequence,flow.Sequence,0_0_19,,completion,20,80440,,,80441,,80444,2021-10-23T07:00:24.721Z,80474,1634972334,incremental,ni_sequenzen,NI_Sequenzen,,,,,,,,,,,,,,
,Instructions_I,flow.Loop,0_0,,completion,,565.0000000000001,635,669,80441,79772,80444,2021-10-23T07:00:24.722Z,80474,1634972334,incremental,ni_sequenzen,NI_Sequenzen,,,,,,,,,,,,,,
,Move,canvas.Screen,0_1_0_0,left,response,,80454.00000000001,80458,80474,81820.00000000001,1362.0000000000146,81822,2021-10-23T07:00:26.100Z,81870,1634972334,incremental,ni_sequenzen,NI_Sequenzen,1,,,,,,,,,,,,,
,Move,canvas.Screen,0_1_0_1,right,response,,81834,81841,81870,83260,1419,83263,2021-10-23T07:00:27.541Z,83301,1634972334,incremental,ni_sequenzen,NI_Sequenzen,2,,,,,,,,,,,,,
,Move,canvas.Screen,0_1_0_2,down,response,,83270,83275,83301,87622,4347,87623,2021-10-23T07:00:31.900Z,87668,1634972334,incremental,ni_sequenzen,NI_Sequenzen,3,,,,,,,,,,,,,
,Move,canvas.Screen,0_1_0_3,down,response,,87630,87637,87668,88119,482,88119,2021-10-23T07:00:32.397Z,88164,1634972334,incremental,ni_sequenzen,NI_Sequenzen,4,,,,,,,,,,,,,
,Move,canvas.Screen,0_1_0_4,left,response,,88131,88136,88164,89019,883,89020,2021-10-23T07:00:33.298Z,89066,1634972334,incremental,ni_sequenzen,NI_Sequenzen,5,,,,,,,,,,,,,
,Move,canvas.Screen,0_1_0_5,left,response,,89030,89035,89066,89695.00000000001,660.0000000000146,89696,2021-10-23T07:00:33.974Z,89734,1634972334,incremental,ni_sequenzen,NI_Sequenzen,6,,,,,,,,,,,,,
,Move,canvas.Screen,0_1_0_6,down,response,,89705,89713,89734,90468,755,90468,2021-10-23T07:00:34.746Z,90508,1634972334,incremental,ni_sequenzen,NI_Sequenzen,7,,,,,,,,,,,,,
,Move,canvas.Screen,0_1_0_7,down,response,,90477,90484,90508,91946,1462,91947,2021-10-23T07:00:36.224Z,91998,1634972334,incremental,ni_sequenzen,NI_Sequenzen,8,,,,,,,,,,,,,
,Move,canvas.Screen,0_1_0_8,right,response,,91969.00000000001,91975,91998,93030,1055,93032,2021-10-23T07:00:37.309Z,93075,1634972334,incremental,ni_sequenzen,NI_Sequenzen,9,,,,,,,,,,,,,
,Move,canvas.Screen,0_1_0_9,right,response,,93042,93049,93075,94873,1824,94874,2021-10-23T07:00:39.151Z,94922,1634972334,incremental,ni_sequenzen,NI_Sequenzen,10,,,,,,,,,,,,,
,Move,canvas.Screen,0_1_0_10,down,response,,94883,94892,94922,95271,379,95272,2021-10-23T07:00:39.549Z,95303,1634972334,incremental,ni_sequenzen,NI_Sequenzen,11,,,,,,,,,,,,,
,Move,canvas.Screen,0_1_0_11,down,response,,95277,95283,95303,95811,528,95811,2021-10-23T07:00:40.089Z,95840,1634972334,incremental,ni_sequenzen,NI_Sequenzen,12,,,,,,,,,,,,,
,Move,canvas.Screen,0_1_0_12,down,response,,95815,95821,95840,96224,403,96226,2021-10-23T07:00:40.504Z,96273,1634972334,incremental,ni_sequenzen,NI_Sequenzen,13,,,,,,,,,,,,,
,Move,canvas.Screen,0_1_0_13,left,response,,96241,96247,96273,96898,651,96899,2021-10-23T07:00:41.177Z,96931,1634972334,incremental,ni_sequenzen,NI_Sequenzen,14,,,,,,,,,,,,,
,Move,canvas.Screen,0_1_0_14,right,response,,96905,96910,96931,97793,883,97794,2021-10-23T07:00:42.071Z,97826,1634972334,incremental,ni_sequenzen,NI_Sequenzen,15,,,,,,,,,,,,,
,Move,canvas.Screen,0_1_0_15,left,response,,97799,97804,97826,98248,444,98249,2021-10-23T07:00:42.526Z,98290,1634972334,incremental,ni_sequenzen,NI_Sequenzen,16,,,,,,,,,,,,,
,Move,canvas.Screen,0_1_0_16,down,response,,98258,98263,98290,99009,746,99010,2021-10-23T07:00:43.287Z,99045,1634972334,incremental,ni_sequenzen,NI_Sequenzen,17,,,,,,,,,,,,,
,Move,canvas.Screen,0_1_0_17,down,response,,99017,99023,99045,99322,299,99322,2021-10-23T07:00:43.600Z,99356,1634972334,incremental,ni_sequenzen,NI_Sequenzen,18,,,,,,,,,,,,,
,Move,canvas.Screen,0_1_0_18,down,response,,99328,99334,99356,99543,209,99544,2021-10-23T07:00:43.821Z,99563,1634972334,incremental,ni_sequenzen,NI_Sequenzen,19,,,,,,,,,,,,,
,Move,canvas.Screen,0_1_0_19,down,response,,99546,99549,99563,99722.00000000001,173.00000000001455,99723,2021-10-23T07:00:44.000Z,99738,1634972334,incremental,ni_sequenzen,NI_Sequenzen,20,,,,,,,,,,,,,
,Move,canvas.Screen,0_1_0_20,down,response,,99725.00000000001,99727,99738,99951.00000000001,224.00000000001455,99952,2021-10-23T07:00:44.230Z,99973,1634972334,incremental,ni_sequenzen,NI_Sequenzen,21,,,,,,,,,,,,,
,Move,canvas.Screen,0_1_0_21,left,response,,99957.00000000001,99960,99973,100671,711,100672,2021-10-23T07:00:44.950Z,100702,1634972334,incremental,ni_sequenzen,NI_Sequenzen,22,,,,,,,,,,,,,
,Move,canvas.Screen,0_1_0_22,right,response,,100677,100682,100702,101304,622,101305,2021-10-23T07:00:45.582Z,101349,1634972334,incremental,ni_sequenzen,NI_Sequenzen,23,,,,,,,,,,,,,
,Move,canvas.Screen,0_1_0_23,left,response,,101313,101321,101349,101841.00000000001,520.0000000000146,101841.00000000001,2021-10-23T07:00:46.119Z,101871,1634972334,incremental,ni_sequenzen,NI_Sequenzen,24,,,,,,,,,,,,,
,Move,canvas.Screen,0_1_0_24,right,response,,101847.00000000001,101853,101871,102204.00000000001,351.00000000001455,102205,2021-10-23T07:00:46.482Z,102231,1634972334,incremental,ni_sequenzen,NI_Sequenzen,25,,,,,,,,,,,,,
,Move,canvas.Screen,0_1_0_25,down,response,,102210.00000000001,102214,102231,102882,668,102884,2021-10-23T07:00:47.161Z,102920,1634972334,incremental,ni_sequenzen,NI_Sequenzen,26,,,,,,,,,,,,,
,Move,canvas.Screen,0_1_0_26,down,response,,102891,102897,102920,103914,1017,103914,2021-10-23T07:00:48.192Z,103960,1634972334,incremental,ni_sequenzen,NI_Sequenzen,27,,,,,,,,,,,,,
,Move,canvas.Screen,0_1_0_27,down,response,,103924,103930,103960,104183,253,104184,2021-10-23T07:00:48.461Z,104209,1634972334,incremental,ni_sequenzen,NI_Sequenzen,28,,,,,,,,,,,,,
,Move,canvas.Screen,0_1_0_28,down,response,,104188,104192,104209,104453,261,104454.00000000001,2021-10-23T07:00:48.732Z,104516,1634972334,incremental,ni_sequenzen,NI_Sequenzen,29,,,,,,,,,,,,,
,Move,canvas.Screen,0_1_0_29,right,response,,104462,104499,104516,104909,410,104911,2021-10-23T07:00:49.188Z,105038,1634972334,incremental,ni_sequenzen,NI_Sequenzen,30,,,,,,,,,,,,,
,Loop,flow.Loop,0_1_0,-999,completion,,80451.00000000001,80458,80474,104909,24435,104912,2021-10-23T07:00:49.190Z,105038,1634972334,incremental,ni_sequenzen,NI_Sequenzen,,,,,,,,,,,,,,
,Training_I,flow.Sequence,0_1,,completion,,80445.00000000001,80458,80474,104909,24435,104913,2021-10-23T07:00:49.191Z,105038,1634972334,incremental,ni_sequenzen,NI_Sequenzen,,,,,,,,,,,,,,
,Screen_1,canvas.Screen,0_2_0_0,cont,response,1,105019,105022,105038,105213.00000000001,191.00000000001455,105214,2021-10-23T07:00:49.492Z,105365,1634972334,incremental,ni_sequenzen,NI_Sequenzen,,,,,,,,,,,,,,
,Screen_2,canvas.Screen,0_2_0_1,back,response,1,105339,105346,105365,106351,1005,106352,2021-10-23T07:00:50.629Z,106560,1634972334,incremental,ni_sequenzen,NI_Sequenzen,,,,,,,,,,,,,,
,Screen_3,canvas.Screen,0_2_0_2,,skipped,1,106357,,,106351,,106358,2021-10-23T07:00:50.635Z,106560,1634972334,incremental,ni_sequenzen,NI_Sequenzen,,,,,,,,,,,,,,
,Screen_4,canvas.Screen,0_2_0_3,,skipped,1,106451.00000000001,,,106351,,106452,2021-10-23T07:00:50.729Z,106560,1634972334,incremental,ni_sequenzen,NI_Sequenzen,,,,,,,,,,,,,,
,Screen_5,canvas.Screen,0_2_0_4,,skipped,1,106457.00000000001,,,106351,,106457.00000000001,2021-10-23T07:00:50.734Z,106560,1634972334,incremental,ni_sequenzen,NI_Sequenzen,,,,,,,,,,,,,,
,Screen_6,canvas.Screen,0_2_0_5,,skipped,1,106513,,,106351,,106517,2021-10-23T07:00:50.794Z,106560,1634972334,incremental,ni_sequenzen,NI_Sequenzen,,,,,,,,,,,,,,
,Sequence,flow.Sequence,0_2_0,,completion,1,105013,105022,105038,106351,1313,106518,2021-10-23T07:00:50.796Z,106560,1634972334,incremental,ni_sequenzen,NI_Sequenzen,,,,,,,,,,,,,,
,Screen_1,canvas.Screen,0_2_1_0,cont,response,2,106526,106533,106560,130282.00000000001,23749.000000000015,130283.00000000001,2021-10-23T07:01:14.560Z,130335,1634972334,incremental,ni_sequenzen,NI_Sequenzen,,,,,,,,,,,,,,
,Screen_2,canvas.Screen,0_2_1_1,cont,response,2,130288.00000000001,130292,130335,134066,3774,134067,2021-10-23T07:01:18.344Z,134101,1634972334,incremental,ni_sequenzen,NI_Sequenzen,,,,,,,,,,,,,,
[object Object],Screen_1,canvas.Screen,0_0_0_0,cont,response,1,510.80000001192093,510.676,527.385,3392.5,2865.115,3393.199999988079,2021-10-23T07:06:20.694Z,3518.984,1634972334,incremental,ni_sequenzen,NI_Sequenzen,,,,,,,,,,,,,,
,Screen_2,canvas.Screen,0_0_0_1,cont,response,1,3511,3510.646,3518.984,4549.199999988079,1030.2159999880791,4549.5,2021-10-23T07:06:21.850Z,4643.952,1634972334,incremental,ni_sequenzen,NI_Sequenzen,,,,,,,,,,,,,,
,Screen_3,canvas.Screen,0_0_0_2,cont,response,1,4636.899999976158,4635.597,4643.952,5113.199999988079,469.24799998807885,5113.5,2021-10-23T07:06:22.414Z,5118.959,1634972334,incremental,ni_sequenzen,NI_Sequenzen,,,,,,,,,,,,,,
,Screen_4,canvas.Screen,0_0_0_3,cont,response,1,5114.399999976158,5110.617,5118.959,5455.300000011921,336.3410000119211,5455.699999988079,2021-10-23T07:06:22.756Z,5510.59,1634972334,incremental,ni_sequenzen,NI_Sequenzen,,,,,,,,,,,,,,
,Sequence,flow.Sequence,0_0_0,,completion,1,462.69999998807907,510.676,527.385,5455.300000011921,4927.915000011921,5455.800000011921,2021-10-23T07:06:22.756Z,5510.59,1634972334,incremental,ni_sequenzen,NI_Sequenzen,,,,,,,,,,,,,,
,Screen_1,canvas.Screen,0_0_1_0,,skipped,2,5457,,,5457,,5457.100000023842,2021-10-23T07:06:22.757Z,5510.59,1634972334,incremental,ni_sequenzen,NI_Sequenzen,,,,,,,,,,,,,,
,Screen_2,canvas.Screen,0_0_1_1,,skipped,2,5457.699999988079,,,5457,,5457.699999988079,2021-10-23T07:06:22.758Z,5510.59,1634972334,incremental,ni_sequenzen,NI_Sequenzen,,,,,,,,,,,,,,
,Screen_3,canvas.Screen,0_0_1_2,,skipped,2,5458.399999976158,,,5457,,5458.5,2021-10-23T07:06:22.759Z,5510.59,1634972334,incremental,ni_sequenzen,NI_Sequenzen,,,,,,,,,,,,,,
,Screen_4,canvas.Screen,0_0_1_3,,skipped,2,5459.100000023842,,,5457,,5459.100000023842,2021-10-23T07:06:22.759Z,5510.59,1634972334,incremental,ni_sequenzen,NI_Sequenzen,,,,,,,,,,,,,,
,Sequence,flow.Sequence,0_0_1,,completion,2,5456.300000011921,,,5457,,5459.199999988079,2021-10-23T07:06:22.760Z,5510.59,1634972334,incremental,ni_sequenzen,NI_Sequenzen,,,,,,,,,,,,,,
,Screen_1,canvas.Screen,0_0_2_0,,skipped,3,5459.899999976158,,,5459.899999976158,,5459.899999976158,2021-10-23T07:06:22.760Z,5510.59,1634972334,incremental,ni_sequenzen,NI_Sequenzen,,,,,,,,,,,,,,
,Screen_2,canvas.Screen,0_0_2_1,,skipped,3,5460.399999976158,,,5459.899999976158,,5460.399999976158,2021-10-23T07:06:22.761Z,5510.59,1634972334,incremental,ni_sequenzen,NI_Sequenzen,,,,,,,,,,,,,,
,Screen_3,canvas.Screen,0_0_2_2,,skipped,3,5461,,,5459.899999976158,,5461.100000023842,2021-10-23T07:06:22.761Z,5510.59,1634972334,incremental,ni_sequenzen,NI_Sequenzen,,,,,,,,,,,,,,
,Screen_4,canvas.Screen,0_0_2_3,,skipped,3,5461.5,,,5459.899999976158,,5461.5,2021-10-23T07:06:22.762Z,5510.59,1634972334,incremental,ni_sequenzen,NI_Sequenzen,,,,,,,,,,,,,,
,Sequence,flow.Sequence,0_0_2,,completion,3,5459.5,,,5459.899999976158,,5461.600000023842,2021-10-23T07:06:22.762Z,5510.59,1634972334,incremental,ni_sequenzen,NI_Sequenzen,,,,,,,,,,,,,,
,Screen_1,canvas.Screen,0_0_3_0,,skipped,4,5462.199999988079,,,5462.199999988079,,5462.199999988079,2021-10-23T07:06:22.763Z,5510.59,1634972334,incremental,ni_sequenzen,NI_Sequenzen,,,,,,,,,,,,,,
,Screen_2,canvas.Screen,0_0_3_1,,skipped,4,5462.699999988079,,,5462.199999988079,,5462.699999988079,2021-10-23T07:06:22.763Z,5510.59,1634972334,incremental,ni_sequenzen,NI_Sequenzen,,,,,,,,,,,,,,
,Screen_3,canvas.Screen,0_0_3_2,,skipped,4,5463.100000023842,,,5462.199999988079,,5463.100000023842,2021-10-23T07:06:22.763Z,5510.59,1634972334,incremental,ni_sequenzen,NI_Sequenzen,,,,,,,,,,,,,,
,Screen_4,canvas.Screen,0_0_3_3,,skipped,4,5463.600000023842,,,5462.199999988079,,5463.699999988079,2021-10-23T07:06:22.764Z,5510.59,1634972334,incremental,ni_sequenzen,NI_Sequenzen,,,,,,,,,,,,,,
,Sequence,flow.Sequence,0_0_3,,completion,4,5461.800000011921,,,5462.199999988079,,5463.800000011921,2021-10-23T07:06:22.764Z,5510.59,1634972334,incremental,ni_sequenzen,NI_Sequenzen,,,,,,,,,,,,,,
,Screen_1,canvas.Screen,0_0_4_0,,skipped,5,5464.300000011921,,,5464.300000011921,,5464.300000011921,2021-10-23T07:06:22.765Z,5510.59,1634972334,incremental,ni_sequenzen,NI_Sequenzen,,,,,,,,,,,,,,
,Screen_2,canvas.Screen,0_0_4_1,,skipped,5,5464.699999988079,,,5464.300000011921,,5464.699999988079,2021-10-23T07:06:22.765Z,5510.59,1634972334,incremental,ni_sequenzen,NI_Sequenzen,,,,,,,,,,,,,,
,Screen_3,canvas.Screen,0_0_4_2,,skipped,5,5465.199999988079,,,5464.300000011921,,5465.199999988079,2021-10-23T07:06:22.765Z,5510.59,1634972334,incremental,ni_sequenzen,NI_Sequenzen,,,,,,,,,,,,,,
,Screen_4,canvas.Screen,0_0_4_3,,skipped,5,5465.600000023842,,,5464.300000011921,,5465.600000023842,2021-10-23T07:06:22.766Z,5510.59,1634972334,incremental,ni_sequenzen,NI_Sequenzen,,,,,,,,,,,,,,
,Sequence,flow.Sequence,0_0_4,,completion,5,5463.899999976158,,,5464.300000011921,,5465.699999988079,2021-10-23T07:06:22.766Z,5510.59,1634972334,incremental,ni_sequenzen,NI_Sequenzen,,,,,,,,,,,,,,
,Screen_1,canvas.Screen,0_0_5_0,,skipped,6,5466.399999976158,,,5466.399999976158,,5466.399999976158,2021-10-23T07:06:22.767Z,5510.59,1634972334,incremental,ni_sequenzen,NI_Sequenzen,,,,,,,,,,,,,,
,Screen_2,canvas.Screen,0_0_5_1,,skipped,6,5466.800000011921,,,5466.399999976158,,5466.800000011921,2021-10-23T07:06:22.767Z,5510.59,1634972334,incremental,ni_sequenzen,NI_Sequenzen,,,,,,,,,,,,,,
,Screen_3,canvas.Screen,0_0_5_2,,skipped,6,5467.300000011921,,,5466.399999976158,,5467.399999976158,2021-10-23T07:06:22.768Z,5510.59,1634972334,incremental,ni_sequenzen,NI_Sequenzen,,,,,,,,,,,,,,
,Screen_4,canvas.Screen,0_0_5_3,,skipped,6,5467.800000011921,,,5466.399999976158,,5467.899999976158,2021-10-23T07:06:22.768Z,5510.59,1634972334,incremental,ni_sequenzen,NI_Sequenzen,,,,,,,,,,,,,,
,Sequence,flow.Sequence,0_0_5,,completion,6,5465.899999976158,,,5466.399999976158,,5467.899999976158,2021-10-23T07:06:22.768Z,5510.59,1634972334,incremental,ni_sequenzen,NI_Sequenzen,,,,,,,,,,,,,,
,Screen_1,canvas.Screen,0_0_6_0,,skipped,7,5468.5,,,5468.5,,5468.5,2021-10-23T07:06:22.769Z,5510.59,1634972334,incremental,ni_sequenzen,NI_Sequenzen,,,,,,,,,,,,,,
,Screen_2,canvas.Screen,0_0_6_1,,skipped,7,5469,,,5468.5,,5469.100000023842,2021-10-23T07:06:22.769Z,5510.59,1634972334,incremental,ni_sequenzen,NI_Sequenzen,,,,,,,,,,,,,,
,Screen_3,canvas.Screen,0_0_6_2,,skipped,7,5469.5,,,5468.5,,5469.5,2021-10-23T07:06:22.770Z,5510.59,1634972334,incremental,ni_sequenzen,NI_Sequenzen,,,,,,,,,,,,,,
,Screen_4,canvas.Screen,0_0_6_3,,skipped,7,5469.899999976158,,,5468.5,,5470,2021-10-23T07:06:22.770Z,5510.59,1634972334,incremental,ni_sequenzen,NI_Sequenzen,,,,,,,,,,,,,,
,Sequence,flow.Sequence,0_0_6,,completion,7,5468.199999988079,,,5468.5,,5470,2021-10-23T07:06:22.770Z,5510.59,1634972334,incremental,ni_sequenzen,NI_Sequenzen,,,,,,,,,,,,,,
,Screen_1,canvas.Screen,0_0_7_0,,skipped,8,5470.600000023842,,,5470.600000023842,,5470.600000023842,2021-10-23T07:06:22.771Z,5510.59,1634972334,incremental,ni_sequenzen,NI_Sequenzen,,,,,,,,,,,,,,
,Screen_2,canvas.Screen,0_0_7_1,,skipped,8,5471,,,5470.600000023842,,5471.100000023842,2021-10-23T07:06:22.771Z,5510.59,1634972334,incremental,ni_sequenzen,NI_Sequenzen,,,,,,,,,,,,,,
,Screen_3,canvas.Screen,0_0_7_2,,skipped,8,5471.5,,,5470.600000023842,,5471.5,2021-10-23T07:06:22.772Z,5510.59,1634972334,incremental,ni_sequenzen,NI_Sequenzen,,,,,,,,,,,,,,
,Screen_4,canvas.Screen,0_0_7_3,,skipped,8,5472,,,5470.600000023842,,5472,2021-10-23T07:06:22.772Z,5510.59,1634972334,incremental,ni_sequenzen,NI_Sequenzen,,,,,,,,,,,,,,
,Sequence,flow.Sequence,0_0_7,,completion,8,5470.199999988079,,,5470.600000023842,,5472.100000023842,2021-10-23T07:06:22.772Z,5510.59,1634972334,incremental,ni_sequenzen,NI_Sequenzen,,,,,,,,,,,,,,
,Screen_1,canvas.Screen,0_0_8_0,,skipped,9,5473,,,5473,,5473,2021-10-23T07:06:22.773Z,5510.59,1634972334,incremental,ni_sequenzen,NI_Sequenzen,,,,,,,,,,,,,,
,Screen_2,canvas.Screen,0_0_8_1,,skipped,9,5473.5,,,5473,,5473.5,2021-10-23T07:06:22.774Z,5510.59,1634972334,incremental,ni_sequenzen,NI_Sequenzen,,,,,,,,,,,,,,
,Screen_3,canvas.Screen,0_0_8_2,,skipped,9,5473.899999976158,,,5473,,5473.899999976158,2021-10-23T07:06:22.774Z,5510.59,1634972334,incremental,ni_sequenzen,NI_Sequenzen,,,,,,,,,,,,,,
,Screen_4,canvas.Screen,0_0_8_3,,skipped,9,5474.300000011921,,,5473,,5474.300000011921,2021-10-23T07:06:22.775Z,5510.59,1634972334,incremental,ni_sequenzen,NI_Sequenzen,,,,,,,,,,,,,,
,Sequence,flow.Sequence,0_0_8,,completion,9,5472.600000023842,,,5473,,5474.399999976158,2021-10-23T07:06:22.775Z,5510.59,1634972334,incremental,ni_sequenzen,NI_Sequenzen,,,,,,,,,,,,,,
,Screen_1,canvas.Screen,0_0_9_0,,skipped,10,5475,,,5475,,5475,2021-10-23T07:06:22.775Z,5510.59,1634972334,incremental,ni_sequenzen,NI_Sequenzen,,,,,,,,,,,,,,
,Screen_2,canvas.Screen,0_0_9_1,,skipped,10,5475.5,,,5475,,5475.600000023842,2021-10-23T07:06:22.776Z,5510.59,1634972334,incremental,ni_sequenzen,NI_Sequenzen,,,,,,,,,,,,,,
,Screen_3,canvas.Screen,0_0_9_2,,skipped,10,5476,,,5475,,5476.100000023842,2021-10-23T07:06:22.776Z,5510.59,1634972334,incremental,ni_sequenzen,NI_Sequenzen,,,,,,,,,,,,,,
,Screen_4,canvas.Screen,0_0_9_3,,skipped,10,5476.5,,,5475,,5476.600000023842,2021-10-23T07:06:22.777Z,5510.59,1634972334,incremental,ni_sequenzen,NI_Sequenzen,,,,,,,,,,,,,,
,Sequence,flow.Sequence,0_0_9,,completion,10,5474.600000023842,,,5475,,5476.600000023842,2021-10-23T07:06:22.777Z,5510.59,1634972334,incremental,ni_sequenzen,NI_Sequenzen,,,,,,,,,,,,,,
,Screen_1,canvas.Screen,0_0_10_0,,skipped,11,5477.199999988079,,,5477.199999988079,,5477.199999988079,2021-10-23T07:06:22.778Z,5510.59,1634972334,incremental,ni_sequenzen,NI_Sequenzen,,,,,,,,,,,,,,
,Screen_2,canvas.Screen,0_0_10_1,,skipped,11,5477.699999988079,,,5477.199999988079,,5477.699999988079,2021-10-23T07:06:22.778Z,5510.59,1634972334,incremental,ni_sequenzen,NI_Sequenzen,,,,,,,,,,,,,,
,Screen_3,canvas.Screen,0_0_10_2,,skipped,11,5478.199999988079,,,5477.199999988079,,5478.199999988079,2021-10-23T07:06:22.778Z,5510.59,1634972334,incremental,ni_sequenzen,NI_Sequenzen,,,,,,,,,,,,,,
,Screen_4,canvas.Screen,0_0_10_3,,skipped,11,5478.600000023842,,,5477.199999988079,,5478.600000023842,2021-10-23T07:06:22.779Z,5510.59,1634972334,incremental,ni_sequenzen,NI_Sequenzen,,,,,,,,,,,,,,
,Sequence,flow.Sequence,0_0_10,,completion,11,5476.800000011921,,,5477.199999988079,,5478.699999988079,2021-10-23T07:06:22.779Z,5510.59,1634972334,incremental,ni_sequenzen,NI_Sequenzen,,,,,,,,,,,,,,
,Screen_1,canvas.Screen,0_0_11_0,,skipped,12,5480,,,5480,,5480.399999976158,2021-10-23T07:06:22.781Z,5510.59,1634972334,incremental,ni_sequenzen,NI_Sequenzen,,,,,,,,,,,,,,
,Screen_2,canvas.Screen,0_0_11_1,,skipped,12,5481,,,5480,,5481,2021-10-23T07:06:22.781Z,5510.59,1634972334,incremental,ni_sequenzen,NI_Sequenzen,,,,,,,,,,,,,,
,Screen_3,canvas.Screen,0_0_11_2,,skipped,12,5481.399999976158,,,5480,,5481.399999976158,2021-10-23T07:06:22.782Z,5510.59,1634972334,incremental,ni_sequenzen,NI_Sequenzen,,,,,,,,,,,,,,
,Screen_4,canvas.Screen,0_0_11_3,,skipped,12,5481.800000011921,,,5480,,5481.899999976158,2021-10-23T07:06:22.782Z,5510.59,1634972334,incremental,ni_sequenzen,NI_Sequenzen,,,,,,,,,,,,,,
,Sequence,flow.Sequence,0_0_11,,completion,12,5479.600000023842,,,5480,,5481.899999976158,2021-10-23T07:06:22.782Z,5510.59,1634972334,incremental,ni_sequenzen,NI_Sequenzen,,,,,,,,,,,,,,
,Screen_1,canvas.Screen,0_0_12_0,,skipped,13,5482.5,,,5482.5,,5482.5,2021-10-23T07:06:22.783Z,5510.59,1634972334,incremental,ni_sequenzen,NI_Sequenzen,,,,,,,,,,,,,,
,Screen_2,canvas.Screen,0_0_12_1,,skipped,13,5482.899999976158,,,5482.5,,5482.899999976158,2021-10-23T07:06:22.783Z,5510.59,1634972334,incremental,ni_sequenzen,NI_Sequenzen,,,,,,,,,,,,,,
,Screen_3,canvas.Screen,0_0_12_2,,skipped,13,5483.399999976158,,,5482.5,,5483.399999976158,2021-10-23T07:06:22.784Z,5510.59,1634972334,incremental,ni_sequenzen,NI_Sequenzen,,,,,,,,,,,,,,
,Screen_4,canvas.Screen,0_0_12_3,,skipped,13,5483.800000011921,,,5482.5,,5483.899999976158,2021-10-23T07:06:22.784Z,5510.59,1634972334,incremental,ni_sequenzen,NI_Sequenzen,,,,,,,,,,,,,,
,Sequence,flow.Sequence,0_0_12,,completion,13,5482.100000023842,,,5482.5,,5483.899999976158,2021-10-23T07:06:22.784Z,5510.59,1634972334,incremental,ni_sequenzen,NI_Sequenzen,,,,,,,,,,,,,,
,Screen_1,canvas.Screen,0_0_13_0,,skipped,14,5484.5,,,5484.5,,5484.5,2021-10-23T07:06:22.785Z,5510.59,1634972334,incremental,ni_sequenzen,NI_Sequenzen,,,,,,,,,,,,,,
,Screen_2,canvas.Screen,0_0_13_1,,skipped,14,5484.899999976158,,,5484.5,,5485,2021-10-23T07:06:22.785Z,5510.59,1634972334,incremental,ni_sequenzen,NI_Sequenzen,,,,,,,,,,,,,,
,Screen_3,canvas.Screen,0_0_13_2,,skipped,14,5485.300000011921,,,5484.5,,5485.300000011921,2021-10-23T07:06:22.786Z,5510.59,1634972334,incremental,ni_sequenzen,NI_Sequenzen,,,,,,,,,,,,,,
,Screen_4,canvas.Screen,0_0_13_3,,skipped,14,5485.800000011921,,,5484.5,,5485.800000011921,2021-10-23T07:06:22.786Z,5510.59,1634972334,incremental,ni_sequenzen,NI_Sequenzen,,,,,,,,,,,,,,
,Sequence,flow.Sequence,0_0_13,,completion,14,5484.100000023842,,,5484.5,,5485.899999976158,2021-10-23T07:06:22.786Z,5510.59,1634972334,incremental,ni_sequenzen,NI_Sequenzen,,,,,,,,,,,,,,
,Screen_1,canvas.Screen,0_0_14_0,,skipped,15,5486.399999976158,,,5486.399999976158,,5486.5,2021-10-23T07:06:22.787Z,5510.59,1634972334,incremental,ni_sequenzen,NI_Sequenzen,,,,,,,,,,,,,,
,Screen_2,canvas.Screen,0_0_14_1,,skipped,15,5486.800000011921,,,5486.399999976158,,5487.199999988079,2021-10-23T07:06:22.787Z,5510.59,1634972334,incremental,ni_sequenzen,NI_Sequenzen,,,,,,,,,,,,,,
,Screen_3,canvas.Screen,0_0_14_2,,skipped,15,5487.600000023842,,,5486.399999976158,,5487.699999988079,2021-10-23T07:06:22.788Z,5510.59,1634972334,incremental,ni_sequenzen,NI_Sequenzen,,,,,,,,,,,,,,
,Screen_4,canvas.Screen,0_0_14_3,,skipped,15,5488.100000023842,,,5486.399999976158,,5488.199999988079,2021-10-23T07:06:22.788Z,5510.59,1634972334,incremental,ni_sequenzen,NI_Sequenzen,,,,,,,,,,,,,,
,Sequence,flow.Sequence,0_0_14,,completion,15,5486,,,5486.399999976158,,5488.300000011921,2021-10-23T07:06:22.789Z,5510.59,1634972334,incremental,ni_sequenzen,NI_Sequenzen,,,,,,,,,,,,,,
,Screen_1,canvas.Screen,0_0_15_0,,skipped,16,5488.699999988079,,,5488.699999988079,,5488.800000011921,2021-10-23T07:06:22.789Z,5510.59,1634972334,incremental,ni_sequenzen,NI_Sequenzen,,,,,,,,,,,,,,
,Screen_2,canvas.Screen,0_0_15_1,,skipped,16,5489.399999976158,,,5488.699999988079,,5489.399999976158,2021-10-23T07:06:22.790Z,5510.59,1634972334,incremental,ni_sequenzen,NI_Sequenzen,,,,,,,,,,,,,,
,Screen_3,canvas.Screen,0_0_15_2,,skipped,16,5489.800000011921,,,5488.699999988079,,5490.399999976158,2021-10-23T07:06:22.791Z,5510.59,1634972334,incremental,ni_sequenzen,NI_Sequenzen,,,,,,,,,,,,,,
,Screen_4,canvas.Screen,0_0_15_3,,skipped,16,5490.800000011921,,,5488.699999988079,,5490.899999976158,2021-10-23T07:06:22.791Z,5510.59,1634972334,incremental,ni_sequenzen,NI_Sequenzen,,,,,,,,,,,,,,
,Sequence,flow.Sequence,0_0_15,,completion,16,5488.399999976158,,,5488.699999988079,,5490.899999976158,2021-10-23T07:06:22.791Z,5510.59,1634972334,incremental,ni_sequenzen,NI_Sequenzen,,,,,,,,,,,,,,
,Screen_1,canvas.Screen,0_0_16_0,,skipped,17,5491.399999976158,,,5491.399999976158,,5491.5,2021-10-23T07:06:22.792Z,5510.59,1634972334,incremental,ni_sequenzen,NI_Sequenzen,,,,,,,,,,,,,,
,Screen_2,canvas.Screen,0_0_16_1,,skipped,17,5491.800000011921,,,5491.399999976158,,5491.800000011921,2021-10-23T07:06:22.792Z,5510.59,1634972334,incremental,ni_sequenzen,NI_Sequenzen,,,,,,,,,,,,,,
,Screen_3,canvas.Screen,0_0_16_2,,skipped,17,5492.5,,,5491.399999976158,,5492.5,2021-10-23T07:06:22.793Z,5510.59,1634972334,incremental,ni_sequenzen,NI_Sequenzen,,,,,,,,,,,,,,
,Screen_4,canvas.Screen,0_0_16_3,,skipped,17,5493.100000023842,,,5491.399999976158,,5493.199999988079,2021-10-23T07:06:22.794Z,5510.59,1634972334,incremental,ni_sequenzen,NI_Sequenzen,,,,,,,,,,,,,,
,Sequence,flow.Sequence,0_0_16,,completion,17,5491.199999988079,,,5491.399999976158,,5493.300000011921,2021-10-23T07:06:22.794Z,5510.59,1634972334,incremental,ni_sequenzen,NI_Sequenzen,,,,,,,,,,,,,,
,Screen_1,canvas.Screen,0_0_17_0,,skipped,18,5494.100000023842,,,5494.199999988079,,5494.199999988079,2021-10-23T07:06:22.794Z,5510.59,1634972334,incremental,ni_sequenzen,NI_Sequenzen,,,,,,,,,,,,,,
,Screen_2,canvas.Screen,0_0_17_1,,skipped,18,5494.800000011921,,,5494.199999988079,,5494.800000011921,2021-10-23T07:06:22.795Z,5510.59,1634972334,incremental,ni_sequenzen,NI_Sequenzen,,,,,,,,,,,,,,
,Screen_3,canvas.Screen,0_0_17_2,,skipped,18,5495.5,,,5494.199999988079,,5495.5,2021-10-23T07:06:22.796Z,5510.59,1634972334,incremental,ni_sequenzen,NI_Sequenzen,,,,,,,,,,,,,,
,Screen_4,canvas.Screen,0_0_17_3,,skipped,18,5495.899999976158,,,5494.199999988079,,5495.899999976158,2021-10-23T07:06:22.796Z,5510.59,1634972334,incremental,ni_sequenzen,NI_Sequenzen,,,,,,,,,,,,,,
,Sequence,flow.Sequence,0_0_17,,completion,18,5493.5,,,5494.199999988079,,5496.399999976158,2021-10-23T07:06:22.797Z,5510.59,1634972334,incremental,ni_sequenzen,NI_Sequenzen,,,,,,,,,,,,,,
,Screen_1,canvas.Screen,0_0_18_0,,skipped,19,5497,,,5497,,5497,2021-10-23T07:06:22.797Z,5510.59,1634972334,incremental,ni_sequenzen,NI_Sequenzen,,,,,,,,,,,,,,
,Screen_2,canvas.Screen,0_0_18_1,,skipped,19,5497.399999976158,,,5497,,5497.399999976158,2021-10-23T07:06:22.798Z,5510.59,1634972334,incremental,ni_sequenzen,NI_Sequenzen,,,,,,,,,,,,,,
,Screen_3,canvas.Screen,0_0_18_2,,skipped,19,5497.800000011921,,,5497,,5497.899999976158,2021-10-23T07:06:22.798Z,5510.59,1634972334,incremental,ni_sequenzen,NI_Sequenzen,,,,,,,,,,,,,,
,Screen_4,canvas.Screen,0_0_18_3,,skipped,19,5498.300000011921,,,5497,,5498.300000011921,2021-10-23T07:06:22.799Z,5510.59,1634972334,incremental,ni_sequenzen,NI_Sequenzen,,,,,,,,,,,,,,
,Sequence,flow.Sequence,0_0_18,,completion,19,5496.600000023842,,,5497,,5498.300000011921,2021-10-23T07:06:22.799Z,5510.59,1634972334,incremental,ni_sequenzen,NI_Sequenzen,,,,,,,,,,,,,,
,Screen_1,canvas.Screen,0_0_19_0,,skipped,20,5498.800000011921,,,5498.800000011921,,5498.899999976158,2021-10-23T07:06:22.799Z,5510.59,1634972334,incremental,ni_sequenzen,NI_Sequenzen,,,,,,,,,,,,,,
,Screen_2,canvas.Screen,0_0_19_1,,skipped,20,5499.100000023842,,,5498.800000011921,,5499.199999988079,2021-10-23T07:06:22.799Z,5510.59,1634972334,incremental,ni_sequenzen,NI_Sequenzen,,,,,,,,,,,,,,
,Screen_3,canvas.Screen,0_0_19_2,,skipped,20,5499.600000023842,,,5498.800000011921,,5499.600000023842,2021-10-23T07:06:22.800Z,5510.59,1634972334,incremental,ni_sequenzen,NI_Sequenzen,,,,,,,,,,,,,,
,Screen_4,canvas.Screen,0_0_19_3,,skipped,20,5500,,,5498.800000011921,,5500,2021-10-23T07:06:22.800Z,5510.59,1634972334,incremental,ni_sequenzen,NI_Sequenzen,,,,,,,,,,,,,,
,Sequence,flow.Sequence,0_0_19,,completion,20,5498.5,,,5498.800000011921,,5500.100000023842,2021-10-23T07:06:22.800Z,5510.59,1634972334,incremental,ni_sequenzen,NI_Sequenzen,,,,,,,,,,,,,,
,Instructions_I,flow.Loop,0_0,,completion,,462.30000001192093,510.676,527.385,5498.800000011921,4971.415000011921,5500.199999988079,2021-10-23T07:06:22.800Z,5510.59,1634972334,incremental,ni_sequenzen,NI_Sequenzen,,,,,,,,,,,,,,
,Move,canvas.Screen,0_1_0_0,left,response,,5507,5502.26,5510.59,6463.800000011921,953.2100000119208,6464.199999988079,2021-10-23T07:06:23.765Z,6468.935,1634972334,incremental,ni_sequenzen,NI_Sequenzen,1,,,,,,,,,,,,,
,Move,canvas.Screen,0_1_0_1,right,response,,6465.300000011921,6460.57,6468.935,6800.5,331.5649999999996,6800.699999988079,2021-10-23T07:06:24.101Z,6810.611,1634972334,incremental,ni_sequenzen,NI_Sequenzen,2,,,,,,,,,,,,,
,Move,canvas.Screen,0_1_0_2,down,response,,6802.600000023842,6802.249,6810.611,7234.600000023842,423.989000023842,7234.800000011921,2021-10-23T07:06:24.535Z,7243.907,1634972334,incremental,ni_sequenzen,NI_Sequenzen,3,,,,,,,,,,,,,
,Move,canvas.Screen,0_1_0_3,down,response,,7235.699999988079,7235.537,7243.907,7542.399999976158,298.492999976158,7542.800000011921,2021-10-23T07:06:24.843Z,7559.586,1634972334,incremental,ni_sequenzen,NI_Sequenzen,4,,,,,,,,,,,,,
,Move,canvas.Screen,0_1_0_4,down,response,,7543.5,7535.578,7559.586,7775.899999976158,216.3139999761579,7776.300000011921,2021-10-23T07:06:25.077Z,7793.902,1634972334,incremental,ni_sequenzen,NI_Sequenzen,5,,,,,,,,,,,,,
,Move,canvas.Screen,0_1_0_5,right,response,,7777,7785.562,7793.902,8081.5,287.59799999999996,8081.699999988079,2021-10-23T07:06:25.382Z,8085.53,1634972334,incremental,ni_sequenzen,NI_Sequenzen,6,,,,,,,,,,,,,
,Move,canvas.Screen,0_1_0_6,right,response,,8082.5,8077.213,8085.53,8830.300000011921,744.7700000119212,8830.600000023842,2021-10-23T07:06:26.131Z,8835.561,1634972334,incremental,ni_sequenzen,NI_Sequenzen,7,,,,,,,,,,,,,
,Move,canvas.Screen,0_1_0_7,down,response,,8831.5,8827.18,8835.561,9291.300000011921,455.73900001192123,9291.699999988079,2021-10-23T07:06:26.592Z,9293.843,1634972334,incremental,ni_sequenzen,NI_Sequenzen,8,,,,,,,,,,,,,
,Move,canvas.Screen,0_1_0_8,left,response,,9292.600000023842,9285.556,9293.843,9926.899999976158,633.0569999761574,9927.399999976158,2021-10-23T07:06:27.228Z,9935.525,1634972334,incremental,ni_sequenzen,NI_Sequenzen,9,,,,,,,,,,,,,
,Move,canvas.Screen,0_1_0_9,left,response,,9928,9927.205,9935.525,10306.899999976158,371.3749999761585,10307.199999988079,2021-10-23T07:06:27.607Z,10310.521,1634972334,incremental,ni_sequenzen,NI_Sequenzen,10,,,,,,,,,,,,,
,Move,canvas.Screen,0_1_0_10,right,response,,10308,10302.173,10310.521,10787.800000011921,477.2790000119203,10788.100000023842,2021-10-23T07:06:28.088Z,10793.807,1634972334,incremental,ni_sequenzen,NI_Sequenzen,11,,,,,,,,,,,,,
,Move,canvas.Screen,0_1_0_11,down,response,,10788.899999976158,10785.495,10793.807,11315.199999988079,521.3929999880784,11315.800000011921,2021-10-23T07:06:28.616Z,11318.799,1634972334,incremental,ni_sequenzen,NI_Sequenzen,12,,,,,,,,,,,,,
,Move,canvas.Screen,0_1_0_12,down,response,,11317.100000023842,11310.489,11318.799,11560.5,241.7009999999991,11560.800000011921,2021-10-23T07:06:28.861Z,11568.812,1634972334,incremental,ni_sequenzen,NI_Sequenzen,13,,,,,,,,,,,,,
,Move,canvas.Screen,0_1_0_13,down,response,,11561.800000011921,11560.484,11568.812,11767.199999988079,198.38799998807917,11767.5,2021-10-23T07:06:29.068Z,11791.272,1634972334,incremental,ni_sequenzen,NI_Sequenzen,14,,,,,,,,,,,,,
,Move,canvas.Screen,0_1_0_14,down,response,,11768.100000023842,11760.452,11791.272,11922.600000023842,131.328000023841,11922.899999976158,2021-10-23T07:06:29.223Z,11927.214,1634972334,incremental,ni_sequenzen,NI_Sequenzen,15,,,,,,,,,,,,,
,Move,canvas.Screen,0_1_0_15,right,response,,11923.800000011921,11918.824,11927.214,12253.399999976158,326.1859999761582,12253.699999988079,2021-10-23T07:06:29.554Z,12260.491,1634972334,incremental,ni_sequenzen,NI_Sequenzen,16,,,,,,,,,,,,,
,Move,canvas.Screen,0_1_0_16,left,response,,12254.800000011921,12252.142,12260.491,14578,2317.509,14578.300000011921,2021-10-23T07:06:31.879Z,14585.426,1634972334,incremental,ni_sequenzen,NI_Sequenzen,17,,,,,,,,,,,,,
,Move,canvas.Screen,0_1_0_17,left,response,,14579.100000023842,14577.057,14585.426,15033.199999988079,447.7739999880796,15033.399999976158,2021-10-23T07:06:32.334Z,15035.401,1634972334,incremental,ni_sequenzen,NI_Sequenzen,18,,,,,,,,,,,,,
,Move,canvas.Screen,0_1_0_18,right,response,,15034.199999988079,15027.065,15035.401,15740.399999976158,704.9989999761583,15740.699999988079,2021-10-23T07:06:33.041Z,15743.725,1634972334,incremental,ni_sequenzen,NI_Sequenzen,19,,,,,,,,,,,,,
,Move,canvas.Screen,0_1_0_19,down,response,,15741.5,15735.406,15743.725,16195.800000011921,452.07500001192057,16196.100000023842,2021-10-23T07:06:33.496Z,16202.093,1634972334,incremental,ni_sequenzen,NI_Sequenzen,20,,,,,,,,,,,,,
,Move,canvas.Screen,0_1_0_20,down,response,,16196.899999976158,16193.748,16202.093,16551.69999998808,349.6069999880783,16551.899999976158,2021-10-23T07:06:33.852Z,16560.4,1634972334,incremental,ni_sequenzen,NI_Sequenzen,21,,,,,,,,,,,,,
,Move,canvas.Screen,0_1_0_21,down,response,,16552.69999998808,16552.068,16560.4,16947.5,387.09999999999854,16947.899999976158,2021-10-23T07:06:34.248Z,16952.039,1634972334,incremental,ni_sequenzen,NI_Sequenzen,22,,,,,,,,,,,,,
,Move,canvas.Screen,0_1_0_22,down,response,,16948.600000023842,16943.719,16952.039,17300.30000001192,348.26100001192026,17300.600000023842,2021-10-23T07:06:34.601Z,17326.474,1634972334,incremental,ni_sequenzen,NI_Sequenzen,23,,,,,,,,,,,,,
,Move,canvas.Screen,0_1_0_23,right,response,,17301.600000023842,17293.718,17326.474,17787.399999976158,460.9259999761598,17787.69999998808,2021-10-23T07:06:35.088Z,17793.728,1634972334,incremental,ni_sequenzen,NI_Sequenzen,24,,,,,,,,,,,,,
,Move,canvas.Screen,0_1_0_24,left,response,,17788.600000023842,17785.372,17793.728,18537.5,743.7720000000008,18537.69999998808,2021-10-23T07:06:35.838Z,18543.741,1634972334,incremental,ni_sequenzen,NI_Sequenzen,25,,,,,,,,,,,,,
,Move,canvas.Screen,0_1_0_25,right,response,,18538.5,18535.349,18543.741,19102.80000001192,559.0590000119191,19103,2021-10-23T07:06:36.404Z,19110.375,1634972334,incremental,ni_sequenzen,NI_Sequenzen,26,,,,,,,,,,,,,
,Move,canvas.Screen,0_1_0_26,left,response,,19103.69999998808,19102.018,19110.375,19654.19999998808,543.8249999880791,19654.5,2021-10-23T07:06:36.955Z,19660.362,1634972334,incremental,ni_sequenzen,NI_Sequenzen,27,,,,,,,,,,,,,
,Move,canvas.Screen,0_1_0_27,down,response,,19655.600000023842,19652.012,19660.362,20270.399999976158,610.0379999761572,20270.600000023842,2021-10-23T07:06:37.571Z,20277.024,1634972334,incremental,ni_sequenzen,NI_Sequenzen,28,,,,,,,,,,,,,
,Move,canvas.Screen,0_1_0_28,down,response,,20271.5,20268.659,20277.024,20711.69999998808,434.6759999880778,20712,2021-10-23T07:06:38.013Z,20718.658,1634972334,incremental,ni_sequenzen,NI_Sequenzen,29,,,,,,,,,,,,,
,Move,canvas.Screen,0_1_0_29,down,response,,20713,20710.327,20718.658,20942,223.34200000000055,20942.30000001192,2021-10-23T07:06:38.243Z,20976.978,1634972334,incremental,ni_sequenzen,NI_Sequenzen,30,,,,,,,,,,,,,
,Loop,flow.Loop,0_1_0,-999,completion,,5505.899999976158,5502.26,5510.59,20942,15431.41,20942.5,2021-10-23T07:06:38.243Z,20976.978,1634972334,incremental,ni_sequenzen,NI_Sequenzen,,,,,,,,,,,,,,
,Training_I,flow.Sequence,0_1,,completion,,5500.399999976158,5502.26,5510.59,20942,15431.41,20942.600000023842,2021-10-23T07:06:38.243Z,20976.978,1634972334,incremental,ni_sequenzen,NI_Sequenzen,,,,,,,,,,,,,,
,Screen_1,canvas.Screen,0_2_0_0,cont,response,1,20970,20968.65,20976.978,24011.30000001192,3034.322000011922,24011.5,2021-10-23T07:06:41.312Z,24135.243,1634972334,incremental,ni_sequenzen,NI_Sequenzen,,,,,,,,,,,,,,
,Screen_2,canvas.Screen,0_2_0_1,cont,response,1,24132.69999998808,24126.85,24135.243,24981.899999976158,846.6569999761596,24982.19999998808,2021-10-23T07:06:42.283Z,24985.222,1634972334,incremental,ni_sequenzen,NI_Sequenzen,,,,,,,,,,,,,,
,Screen_3,canvas.Screen,0_2_0_2,cont,response,1,24982.899999976158,24976.911,24985.222,25517.80000001192,532.5780000119194,25518.100000023842,2021-10-23T07:06:42.819Z,25601.926,1634972334,incremental,ni_sequenzen,NI_Sequenzen,,,,,,,,,,,,,,
,Screen_4,canvas.Screen,0_2_0_3,cont,response,1,25595.19999998808,25593.561,25601.926,31487.30000001192,5885.374000011921,31487.600000023842,2021-10-23T07:06:48.788Z,31493.478,1634972334,incremental,ni_sequenzen,NI_Sequenzen,,,,,,,,,,,,,,
,Screen_5,canvas.Screen,0_2_0_4,cont,response,1,31489,31485.009,31493.478,32548.899999976158,1055.421999976159,32549.100000023842,2021-10-23T07:06:49.850Z,32635.111,1634972334,incremental,ni_sequenzen,NI_Sequenzen,,,,,,,,,,,,,,
,Screen_6,canvas.Screen,0_2_0_5,back,response,1,32630.899999976158,32626.765,32635.111,40038.19999998808,7403.088999988078,40038.5,2021-10-23T07:06:57.339Z,40051.615,1634972334,incremental,ni_sequenzen,NI_Sequenzen,,,,,,,,,,,,,,
,Sequence,flow.Sequence,0_2_0,,completion,1,20968.80000001192,20968.65,20976.978,40038.19999998808,19061.22199998808,40039.19999998808,2021-10-23T07:06:57.340Z,40051.615,1634972334,incremental,ni_sequenzen,NI_Sequenzen,,,,,,,,,,,,,,
,Screen_1,canvas.Screen,0_2_1_0,,skipped,2,40041,,,40041,,40041.10000002384,2021-10-23T07:06:57.342Z,40051.615,1634972334,incremental,ni_sequenzen,NI_Sequenzen,,,,,,,,,,,,,,
,Screen_2,canvas.Screen,0_2_1_1,,skipped,2,40041.80000001192,,,40041,,40041.89999997616,2021-10-23T07:06:57.343Z,40051.615,1634972334,incremental,ni_sequenzen,NI_Sequenzen,,,,,,,,,,,,,,
,Screen_3,canvas.Screen,0_2_1_2,,skipped,2,40042.39999997616,,,40041,,40042.5,2021-10-23T07:06:57.343Z,40051.615,1634972334,incremental,ni_sequenzen,NI_Sequenzen,,,,,,,,,,,,,,
,Screen_4,canvas.Screen,0_2_1_3,,skipped,2,40043,,,40041,,40043,2021-10-23T07:06:57.344Z,40051.615,1634972334,incremental,ni_sequenzen,NI_Sequenzen,,,,,,,,,,,,,,
,Screen_5,canvas.Screen,0_2_1_4,cont,response,2,40043.5,40043.166,40051.615,42556.10000002384,2504.485000023844,42556.39999997616,2021-10-23T07:06:59.857Z,42559.943,1634972334,incremental,ni_sequenzen,NI_Sequenzen,,,,,,,,,,,,,,
,Screen_6,canvas.Screen,0_2_1_5,cont,response,2,42557,42551.522,42559.943,49310.69999998808,6750.75699998808,49311.10000002384,2021-10-23T07:07:06.612Z,49418.151,1634972334,incremental,ni_sequenzen,NI_Sequenzen,,,,,,,,,,,,,,
,Sequence,flow.Sequence,0_2_1,,completion,2,40040.30000001192,40043.166,40051.615,49310.69999998808,9259.084999988081,49311.19999998808,2021-10-23T07:07:06.612Z,49418.151,1634972334,incremental,ni_sequenzen,NI_Sequenzen,,,,,,,,,,,,,,
,Screen_1,canvas.Screen,0_2_2_0,,skipped,3,49312.30000001192,,,49312.39999997616,,49312.5,2021-10-23T07:07:06.613Z,49418.151,1634972334,incremental,ni_sequenzen,NI_Sequenzen,,,,,,,,,,,,,,
,Screen_2,canvas.Screen,0_2_2_1,,skipped,3,49315.69999998808,,,49312.39999997616,,49315.69999998808,2021-10-23T07:07:06.617Z,49418.151,1634972334,incremental,ni_sequenzen,NI_Sequenzen,,,,,,,,,,,,,,
,Screen_3,canvas.Screen,0_2_2_2,,skipped,3,49316.30000001192,,,49312.39999997616,,49316.39999997616,2021-10-23T07:07:06.617Z,49418.151,1634972334,incremental,ni_sequenzen,NI_Sequenzen,,,,,,,,,,,,,,
,Screen_4,canvas.Screen,0_2_2_3,,skipped,3,49316.80000001192,,,49312.39999997616,,49316.80000001192,2021-10-23T07:07:06.618Z,49418.151,1634972334,incremental,ni_sequenzen,NI_Sequenzen,,,,,,,,,,,,,,
,Screen_5,canvas.Screen,0_2_2_4,,skipped,3,49317.30000001192,,,49312.39999997616,,49317.30000001192,2021-10-23T07:07:06.618Z,49418.151,1634972334,incremental,ni_sequenzen,NI_Sequenzen,,,,,,,,,,,,,,
,Screen_6,canvas.Screen,0_2_2_5,,skipped,3,49317.60000002384,,,49312.39999997616,,49317.69999998808,2021-10-23T07:07:06.618Z,49418.151,1634972334,incremental,ni_sequenzen,NI_Sequenzen,,,,,,,,,,,,,,
,Sequence,flow.Sequence,0_2_2,,completion,3,49311.89999997616,,,49312.39999997616,,49317.80000001192,2021-10-23T07:07:06.619Z,49418.151,1634972334,incremental,ni_sequenzen,NI_Sequenzen,,,,,,,,,,,,,,
,Screen_1,canvas.Screen,0_2_3_0,,skipped,4,49318.30000001192,,,49318.30000001192,,49318.5,2021-10-23T07:07:06.619Z,49418.151,1634972334,incremental,ni_sequenzen,NI_Sequenzen,,,,,,,,,,,,,,
,Screen_2,canvas.Screen,0_2_3_1,,skipped,4,49318.80000001192,,,49318.30000001192,,49318.89999997616,2021-10-23T07:07:06.620Z,49418.151,1634972334,incremental,ni_sequenzen,NI_Sequenzen,,,,,,,,,,,,,,
,Screen_3,canvas.Screen,0_2_3_2,,skipped,4,49319.30000001192,,,49318.30000001192,,49319.30000001192,2021-10-23T07:07:06.620Z,49418.151,1634972334,incremental,ni_sequenzen,NI_Sequenzen,,,,,,,,,,,,,,
,Screen_4,canvas.Screen,0_2_3_3,,skipped,4,49319.60000002384,,,49318.30000001192,,49319.60000002384,2021-10-23T07:07:06.620Z,49418.151,1634972334,incremental,ni_sequenzen,NI_Sequenzen,,,,,,,,,,,,,,
,Screen_5,canvas.Screen,0_2_3_4,,skipped,4,49320,,,49318.30000001192,,49320.10000002384,2021-10-23T07:07:06.621Z,49418.151,1634972334,incremental,ni_sequenzen,NI_Sequenzen,,,,,,,,,,,,,,
,Screen_6,canvas.Screen,0_2_3_5,,skipped,4,49320.5,,,49318.30000001192,,49320.5,2021-10-23T07:07:06.621Z,49418.151,1634972334,incremental,ni_sequenzen,NI_Sequenzen,,,,,,,,,,,,,,
,Sequence,flow.Sequence,0_2_3,,completion,4,49317.89999997616,,,49318.30000001192,,49320.60000002384,2021-10-23T07:07:06.621Z,49418.151,1634972334,incremental,ni_sequenzen,NI_Sequenzen,,,,,,,,,,,,,,
,Screen_1,canvas.Screen,0_2_4_0,,skipped,5,49321.19999998808,,,49321.19999998808,,49321.19999998808,2021-10-23T07:07:06.622Z,49418.151,1634972334,incremental,ni_sequenzen,NI_Sequenzen,,,,,,,,,,,,,,
,Screen_2,canvas.Screen,0_2_4_1,,skipped,5,49321.60000002384,,,49321.19999998808,,49321.60000002384,2021-10-23T07:07:06.622Z,49418.151,1634972334,incremental,ni_sequenzen,NI_Sequenzen,,,,,,,,,,,,,,
,Screen_3,canvas.Screen,0_2_4_2,,skipped,5,49322,,,49321.19999998808,,49322,2021-10-23T07:07:06.623Z,49418.151,1634972334,incremental,ni_sequenzen,NI_Sequenzen,,,,,,,,,,,,,,
,Screen_4,canvas.Screen,0_2_4_3,,skipped,5,49322.39999997616,,,49321.19999998808,,49322.39999997616,2021-10-23T07:07:06.623Z,49418.151,1634972334,incremental,ni_sequenzen,NI_Sequenzen,,,,,,,,,,,,,,
,Screen_5,canvas.Screen,0_2_4_4,,skipped,5,49322.89999997616,,,49321.19999998808,,49322.89999997616,2021-10-23T07:07:06.624Z,49418.151,1634972334,incremental,ni_sequenzen,NI_Sequenzen,,,,,,,,,,,,,,
,Screen_6,canvas.Screen,0_2_4_5,,skipped,5,49323.30000001192,,,49321.19999998808,,49323.30000001192,2021-10-23T07:07:06.624Z,49418.151,1634972334,incremental,ni_sequenzen,NI_Sequenzen,,,,,,,,,,,,,,
,Sequence,flow.Sequence,0_2_4,,completion,5,49320.80000001192,,,49321.19999998808,,49323.30000001192,2021-10-23T07:07:06.624Z,49418.151,1634972334,incremental,ni_sequenzen,NI_Sequenzen,,,,,,,,,,,,,,
,Screen_1,canvas.Screen,0_2_5_0,,skipped,6,49324.39999997616,,,49324.39999997616,,49324.39999997616,2021-10-23T07:07:06.625Z,49418.151,1634972334,incremental,ni_sequenzen,NI_Sequenzen,,,,,,,,,,,,,,
,Screen_2,canvas.Screen,0_2_5_1,,skipped,6,49324.80000001192,,,49324.39999997616,,49324.89999997616,2021-10-23T07:07:06.626Z,49418.151,1634972334,incremental,ni_sequenzen,NI_Sequenzen,,,,,,,,,,,,,,
,Screen_3,canvas.Screen,0_2_5_2,,skipped,6,49325.30000001192,,,49324.39999997616,,49325.30000001192,2021-10-23T07:07:06.626Z,49418.151,1634972334,incremental,ni_sequenzen,NI_Sequenzen,,,,,,,,,,,,,,
,Screen_4,canvas.Screen,0_2_5_3,,skipped,6,49325.60000002384,,,49324.39999997616,,49325.60000002384,2021-10-23T07:07:06.626Z,49418.151,1634972334,incremental,ni_sequenzen,NI_Sequenzen,,,,,,,,,,,,,,
,Screen_5,canvas.Screen,0_2_5_4,,skipped,6,49326,,,49324.39999997616,,49326.10000002384,2021-10-23T07:07:06.627Z,49418.151,1634972334,incremental,ni_sequenzen,NI_Sequenzen,,,,,,,,,,,,,,
,Screen_6,canvas.Screen,0_2_5_5,,skipped,6,49326.39999997616,,,49324.39999997616,,49326.39999997616,2021-10-23T07:07:06.627Z,49418.151,1634972334,incremental,ni_sequenzen,NI_Sequenzen,,,,,,,,,,,,,,
,Sequence,flow.Sequence,0_2_5,,completion,6,49323.60000002384,,,49324.39999997616,,49326.5,2021-10-23T07:07:06.627Z,49418.151,1634972334,incremental,ni_sequenzen,NI_Sequenzen,,,,,,,,,,,,,,
,Screen_1,canvas.Screen,0_2_6_0,,skipped,7,49327.10000002384,,,49327.10000002384,,49327.19999998808,2021-10-23T07:07:06.628Z,49418.151,1634972334,incremental,ni_sequenzen,NI_Sequenzen,,,,,,,,,,,,,,
,Screen_2,canvas.Screen,0_2_6_1,,skipped,7,49327.5,,,49327.10000002384,,49327.5,2021-10-23T07:07:06.628Z,49418.151,1634972334,incremental,ni_sequenzen,NI_Sequenzen,,,,,,,,,,,,,,
,Screen_3,canvas.Screen,0_2_6_2,,skipped,7,49327.80000001192,,,49327.10000002384,,49327.89999997616,2021-10-23T07:07:06.629Z,49418.151,1634972334,incremental,ni_sequenzen,NI_Sequenzen,,,,,,,,,,,,,,
,Screen_4,canvas.Screen,0_2_6_3,,skipped,7,49328.30000001192,,,49327.10000002384,,49328.30000001192,2021-10-23T07:07:06.629Z,49418.151,1634972334,incremental,ni_sequenzen,NI_Sequenzen,,,,,,,,,,,,,,
,Screen_5,canvas.Screen,0_2_6_4,,skipped,7,49328.80000001192,,,49327.10000002384,,49328.80000001192,2021-10-23T07:07:06.630Z,49418.151,1634972334,incremental,ni_sequenzen,NI_Sequenzen,,,,,,,,,,,,,,
,Screen_6,canvas.Screen,0_2_6_5,,skipped,7,49329.19999998808,,,49327.10000002384,,49329.30000001192,2021-10-23T07:07:06.630Z,49418.151,1634972334,incremental,ni_sequenzen,NI_Sequenzen,,,,,,,,,,,,,,
,Sequence,flow.Sequence,0_2_6,,completion,7,49326.80000001192,,,49327.10000002384,,49329.30000001192,2021-10-23T07:07:06.630Z,49418.151,1634972334,incremental,ni_sequenzen,NI_Sequenzen,,,,,,,,,,,,,,
,Screen_1,canvas.Screen,0_2_7_0,,skipped,8,49329.80000001192,,,49329.80000001192,,49329.89999997616,2021-10-23T07:07:06.631Z,49418.151,1634972334,incremental,ni_sequenzen,NI_Sequenzen,,,,,,,,,,,,,,
,Screen_2,canvas.Screen,0_2_7_1,,skipped,8,49330.19999998808,,,49329.80000001192,,49330.19999998808,2021-10-23T07:07:06.631Z,49418.151,1634972334,incremental,ni_sequenzen,NI_Sequenzen,,,,,,,,,,,,,,
,Screen_3,canvas.Screen,0_2_7_2,,skipped,8,49330.60000002384,,,49329.80000001192,,49330.60000002384,2021-10-23T07:07:06.631Z,49418.151,1634972334,incremental,ni_sequenzen,NI_Sequenzen,,,,,,,,,,,,,,
,Screen_4,canvas.Screen,0_2_7_3,,skipped,8,49331.60000002384,,,49329.80000001192,,49331.60000002384,2021-10-23T07:07:06.632Z,49418.151,1634972334,incremental,ni_sequenzen,NI_Sequenzen,,,,,,,,,,,,,,
,Screen_5,canvas.Screen,0_2_7_4,,skipped,8,49332,,,49329.80000001192,,49332,2021-10-23T07:07:06.633Z,49418.151,1634972334,incremental,ni_sequenzen,NI_Sequenzen,,,,,,,,,,,,,,
,Screen_6,canvas.Screen,0_2_7_5,,skipped,8,49332.5,,,49329.80000001192,,49332.5,2021-10-23T07:07:06.633Z,49418.151,1634972334,incremental,ni_sequenzen,NI_Sequenzen,,,,,,,,,,,,,,
,Sequence,flow.Sequence,0_2_7,,completion,8,49329.5,,,49329.80000001192,,49332.5,2021-10-23T07:07:06.633Z,49418.151,1634972334,incremental,ni_sequenzen,NI_Sequenzen,,,,,,,,,,,,,,
,Screen_1,canvas.Screen,0_2_8_0,,skipped,9,49333,,,49333,,49333.10000002384,2021-10-23T07:07:06.634Z,49418.151,1634972334,incremental,ni_sequenzen,NI_Sequenzen,,,,,,,,,,,,,,
,Screen_2,canvas.Screen,0_2_8_1,,skipped,9,49333.69999998808,,,49333,,49333.69999998808,2021-10-23T07:07:06.634Z,49418.151,1634972334,incremental,ni_sequenzen,NI_Sequenzen,,,,,,,,,,,,,,
,Screen_3,canvas.Screen,0_2_8_2,,skipped,9,49334.10000002384,,,49333,,49334.19999998808,2021-10-23T07:07:06.635Z,49418.151,1634972334,incremental,ni_sequenzen,NI_Sequenzen,,,,,,,,,,,,,,
,Screen_4,canvas.Screen,0_2_8_3,,skipped,9,49337,,,49333,,49337.10000002384,2021-10-23T07:07:06.638Z,49418.151,1634972334,incremental,ni_sequenzen,NI_Sequenzen,,,,,,,,,,,,,,
,Screen_5,canvas.Screen,0_2_8_4,,skipped,9,49337.5,,,49333,,49337.5,2021-10-23T07:07:06.638Z,49418.151,1634972334,incremental,ni_sequenzen,NI_Sequenzen,,,,,,,,,,,,,,
,Screen_6,canvas.Screen,0_2_8_5,,skipped,9,49337.89999997616,,,49333,,49338,2021-10-23T07:07:06.639Z,49418.151,1634972334,incremental,ni_sequenzen,NI_Sequenzen,,,,,,,,,,,,,,
,Sequence,flow.Sequence,0_2_8,,completion,9,49332.69999998808,,,49333,,49338.10000002384,2021-10-23T07:07:06.639Z,49418.151,1634972334,incremental,ni_sequenzen,NI_Sequenzen,,,,,,,,,,,,,,
,Screen_1,canvas.Screen,0_2_9_0,,skipped,10,49338.60000002384,,,49338.60000002384,,49338.69999998808,2021-10-23T07:07:06.639Z,49418.151,1634972334,incremental,ni_sequenzen,NI_Sequenzen,,,,,,,,,,,,,,
,Screen_2,canvas.Screen,0_2_9_1,,skipped,10,49339,,,49338.60000002384,,49339,2021-10-23T07:07:06.640Z,49418.151,1634972334,incremental,ni_sequenzen,NI_Sequenzen,,,,,,,,,,,,,,
,Screen_3,canvas.Screen,0_2_9_2,,skipped,10,49339.30000001192,,,49338.60000002384,,49339.39999997616,2021-10-23T07:07:06.640Z,49418.151,1634972334,incremental,ni_sequenzen,NI_Sequenzen,,,,,,,,,,,,,,
,Screen_4,canvas.Screen,0_2_9_3,,skipped,10,49339.80000001192,,,49338.60000002384,,49339.80000001192,2021-10-23T07:07:06.641Z,49418.151,1634972334,incremental,ni_sequenzen,NI_Sequenzen,,,,,,,,,,,,,,
,Screen_5,canvas.Screen,0_2_9_4,,skipped,10,49340.19999998808,,,49338.60000002384,,49340.30000001192,2021-10-23T07:07:06.641Z,49418.151,1634972334,incremental,ni_sequenzen,NI_Sequenzen,,,,,,,,,,,,,,
,Screen_6,canvas.Screen,0_2_9_5,,skipped,10,49340.69999998808,,,49338.60000002384,,49340.80000001192,2021-10-23T07:07:06.642Z,49418.151,1634972334,incremental,ni_sequenzen,NI_Sequenzen,,,,,,,,,,,,,,
,Sequence,flow.Sequence,0_2_9,,completion,10,49338.19999998808,,,49338.60000002384,,49340.80000001192,2021-10-23T07:07:06.642Z,49418.151,1634972334,incremental,ni_sequenzen,NI_Sequenzen,,,,,,,,,,,,,,
,Screen_1,canvas.Screen,0_2_10_0,,skipped,11,49341.39999997616,,,49341.39999997616,,49341.5,2021-10-23T07:07:06.642Z,49418.151,1634972334,incremental,ni_sequenzen,NI_Sequenzen,,,,,,,,,,,,,,
,Screen_2,canvas.Screen,0_2_10_1,,skipped,11,49342.39999997616,,,49341.39999997616,,49342.60000002384,2021-10-23T07:07:06.643Z,49418.151,1634972334,incremental,ni_sequenzen,NI_Sequenzen,,,,,,,,,,,,,,
,Screen_3,canvas.Screen,0_2_10_2,,skipped,11,49342.89999997616,,,49341.39999997616,,49342.89999997616,2021-10-23T07:07:06.644Z,49418.151,1634972334,incremental,ni_sequenzen,NI_Sequenzen,,,,,,,,,,,,,,
,Screen_4,canvas.Screen,0_2_10_3,,skipped,11,49343.5,,,49341.39999997616,,49343.5,2021-10-23T07:07:06.644Z,49418.151,1634972334,incremental,ni_sequenzen,NI_Sequenzen,,,,,,,,,,,,,,
,Screen_5,canvas.Screen,0_2_10_4,,skipped,11,49343.89999997616,,,49341.39999997616,,49343.89999997616,2021-10-23T07:07:06.645Z,49418.151,1634972334,incremental,ni_sequenzen,NI_Sequenzen,,,,,,,,,,,,,,
,Screen_6,canvas.Screen,0_2_10_5,,skipped,11,49344.30000001192,,,49341.39999997616,,49344.39999997616,2021-10-23T07:07:06.645Z,49418.151,1634972334,incremental,ni_sequenzen,NI_Sequenzen,,,,,,,,,,,,,,
,Sequence,flow.Sequence,0_2_10,,completion,11,49341,,,49341.39999997616,,49344.39999997616,2021-10-23T07:07:06.645Z,49418.151,1634972334,incremental,ni_sequenzen,NI_Sequenzen,,,,,,,,,,,,,,
,Screen_1,canvas.Screen,0_2_11_0,,skipped,12,49345,,,49345,,49345.10000002384,2021-10-23T07:07:06.646Z,49418.151,1634972334,incremental,ni_sequenzen,NI_Sequenzen,,,,,,,,,,,,,,
,Screen_2,canvas.Screen,0_2_11_1,,skipped,12,49345.5,,,49345,,49345.5,2021-10-23T07:07:06.646Z,49418.151,1634972334,incremental,ni_sequenzen,NI_Sequenzen,,,,,,,,,,,,,,
,Screen_3,canvas.Screen,0_2_11_2,,skipped,12,49345.89999997616,,,49345,,49345.89999997616,2021-10-23T07:07:06.647Z,49418.151,1634972334,incremental,ni_sequenzen,NI_Sequenzen,,,,,,,,,,,,,,
,Screen_4,canvas.Screen,0_2_11_3,,skipped,12,49346.19999998808,,,49345,,49346.19999998808,2021-10-23T07:07:06.647Z,49418.151,1634972334,incremental,ni_sequenzen,NI_Sequenzen,,,,,,,,,,,,,,
,Screen_5,canvas.Screen,0_2_11_4,,skipped,12,49346.60000002384,,,49345,,49346.60000002384,2021-10-23T07:07:06.647Z,49418.151,1634972334,incremental,ni_sequenzen,NI_Sequenzen,,,,,,,,,,,,,,
,Screen_6,canvas.Screen,0_2_11_5,,skipped,12,49347,,,49345,,49347.10000002384,2021-10-23T07:07:06.648Z,49418.151,1634972334,incremental,ni_sequenzen,NI_Sequenzen,,,,,,,,,,,,,,
,Sequence,flow.Sequence,0_2_11,,completion,12,49344.60000002384,,,49345,,49347.10000002384,2021-10-23T07:07:06.648Z,49418.151,1634972334,incremental,ni_sequenzen,NI_Sequenzen,,,,,,,,,,,,,,
,Screen_1,canvas.Screen,0_2_12_0,,skipped,13,49347.69999998808,,,49347.69999998808,,49347.69999998808,2021-10-23T07:07:06.649Z,49418.151,1634972334,incremental,ni_sequenzen,NI_Sequenzen,,,,,,,,,,,,,,
,Screen_2,canvas.Screen,0_2_12_1,,skipped,13,49348.10000002384,,,49347.69999998808,,49348.19999998808,2021-10-23T07:07:06.649Z,49418.151,1634972334,incremental,ni_sequenzen,NI_Sequenzen,,,,,,,,,,,,,,
,Screen_3,canvas.Screen,0_2_12_2,,skipped,13,49348.5,,,49347.69999998808,,49348.5,2021-10-23T07:07:06.649Z,49418.151,1634972334,incremental,ni_sequenzen,NI_Sequenzen,,,,,,,,,,,,,,
,Screen_4,canvas.Screen,0_2_12_3,,skipped,13,49348.89999997616,,,49347.69999998808,,49348.89999997616,2021-10-23T07:07:06.650Z,49418.151,1634972334,incremental,ni_sequenzen,NI_Sequenzen,,,,,,,,,,,,,,
,Screen_5,canvas.Screen,0_2_12_4,,skipped,13,49349.80000001192,,,49347.69999998808,,49349.80000001192,2021-10-23T07:07:06.651Z,49418.151,1634972334,incremental,ni_sequenzen,NI_Sequenzen,,,,,,,,,,,,,,
,Screen_6,canvas.Screen,0_2_12_5,,skipped,13,49350.19999998808,,,49347.69999998808,,49350.30000001192,2021-10-23T07:07:06.651Z,49418.151,1634972334,incremental,ni_sequenzen,NI_Sequenzen,,,,,,,,,,,,,,
,Sequence,flow.Sequence,0_2_12,,completion,13,49347.30000001192,,,49347.69999998808,,49350.30000001192,2021-10-23T07:07:06.651Z,49418.151,1634972334,incremental,ni_sequenzen,NI_Sequenzen,,,,,,,,,,,,,,
,Screen_1,canvas.Screen,0_2_13_0,,skipped,14,49350.89999997616,,,49350.89999997616,,49351,2021-10-23T07:07:06.652Z,49418.151,1634972334,incremental,ni_sequenzen,NI_Sequenzen,,,,,,,,,,,,,,
,Screen_2,canvas.Screen,0_2_13_1,,skipped,14,49351.5,,,49350.89999997616,,49351.5,2021-10-23T07:07:06.652Z,49418.151,1634972334,incremental,ni_sequenzen,NI_Sequenzen,,,,,,,,,,,,,,
,Screen_3,canvas.Screen,0_2_13_2,,skipped,14,49351.89999997616,,,49350.89999997616,,49352,2021-10-23T07:07:06.653Z,49418.151,1634972334,incremental,ni_sequenzen,NI_Sequenzen,,,,,,,,,,,,,,
,Screen_4,canvas.Screen,0_2_13_3,,skipped,14,49352.30000001192,,,49350.89999997616,,49352.39999997616,2021-10-23T07:07:06.653Z,49418.151,1634972334,incremental,ni_sequenzen,NI_Sequenzen,,,,,,,,,,,,,,
,Screen_5,canvas.Screen,0_2_13_4,,skipped,14,49352.80000001192,,,49350.89999997616,,49352.80000001192,2021-10-23T07:07:06.654Z,49418.151,1634972334,incremental,ni_sequenzen,NI_Sequenzen,,,,,,,,,,,,,,
,Screen_6,canvas.Screen,0_2_13_5,,skipped,14,49353.10000002384,,,49350.89999997616,,49353.19999998808,2021-10-23T07:07:06.654Z,49418.151,1634972334,incremental,ni_sequenzen,NI_Sequenzen,,,,,,,,,,,,,,
,Sequence,flow.Sequence,0_2_13,,completion,14,49350.60000002384,,,49350.89999997616,,49353.19999998808,2021-10-23T07:07:06.654Z,49418.151,1634972334,incremental,ni_sequenzen,NI_Sequenzen,,,,,,,,,,,,,,
,Screen_1,canvas.Screen,0_2_14_0,,skipped,15,49353.69999998808,,,49353.69999998808,,49353.80000001192,2021-10-23T07:07:06.655Z,49418.151,1634972334,incremental,ni_sequenzen,NI_Sequenzen,,,,,,,,,,,,,,
,Screen_2,canvas.Screen,0_2_14_1,,skipped,15,49354.10000002384,,,49353.69999998808,,49354.19999998808,2021-10-23T07:07:06.655Z,49418.151,1634972334,incremental,ni_sequenzen,NI_Sequenzen,,,,,,,,,,,,,,
,Screen_3,canvas.Screen,0_2_14_2,,skipped,15,49354.5,,,49353.69999998808,,49354.60000002384,2021-10-23T07:07:06.655Z,49418.151,1634972334,incremental,ni_sequenzen,NI_Sequenzen,,,,,,,,,,,,,,
,Screen_4,canvas.Screen,0_2_14_3,,skipped,15,49355,,,49353.69999998808,,49355,2021-10-23T07:07:06.656Z,49418.151,1634972334,incremental,ni_sequenzen,NI_Sequenzen,,,,,,,,,,,,,,
,Screen_5,canvas.Screen,0_2_14_4,,skipped,15,49355.5,,,49353.69999998808,,49355.5,2021-10-23T07:07:06.656Z,49418.151,1634972334,incremental,ni_sequenzen,NI_Sequenzen,,,,,,,,,,,,,,
,Screen_6,canvas.Screen,0_2_14_5,,skipped,15,49355.80000001192,,,49353.69999998808,,49355.89999997616,2021-10-23T07:07:06.657Z,49418.151,1634972334,incremental,ni_sequenzen,NI_Sequenzen,,,,,,,,,,,,,,
,Sequence,flow.Sequence,0_2_14,,completion,15,49353.39999997616,,,49353.69999998808,,49355.89999997616,2021-10-23T07:07:06.657Z,49418.151,1634972334,incremental,ni_sequenzen,NI_Sequenzen,,,,,,,,,,,,,,
,Screen_1,canvas.Screen,0_2_15_0,,skipped,16,49356.89999997616,,,49356.89999997616,,49357,2021-10-23T07:07:06.658Z,49418.151,1634972334,incremental,ni_sequenzen,NI_Sequenzen,,,,,,,,,,,,,,
,Screen_2,canvas.Screen,0_2_15_1,,skipped,16,49357.39999997616,,,49356.89999997616,,49357.5,2021-10-23T07:07:06.658Z,49418.151,1634972334,incremental,ni_sequenzen,NI_Sequenzen,,,,,,,,,,,,,,
,Screen_3,canvas.Screen,0_2_15_2,,skipped,16,49357.80000001192,,,49356.89999997616,,49357.89999997616,2021-10-23T07:07:06.659Z,49418.151,1634972334,incremental,ni_sequenzen,NI_Sequenzen,,,,,,,,,,,,,,
,Screen_4,canvas.Screen,0_2_15_3,,skipped,16,49358.19999998808,,,49356.89999997616,,49358.19999998808,2021-10-23T07:07:06.659Z,49418.151,1634972334,incremental,ni_sequenzen,NI_Sequenzen,,,,,,,,,,,,,,
,Screen_5,canvas.Screen,0_2_15_4,,skipped,16,49358.60000002384,,,49356.89999997616,,49358.69999998808,2021-10-23T07:07:06.659Z,49418.151,1634972334,incremental,ni_sequenzen,NI_Sequenzen,,,,,,,,,,,,,,
,Screen_6,canvas.Screen,0_2_15_5,,skipped,16,49359,,,49356.89999997616,,49359,2021-10-23T07:07:06.660Z,49418.151,1634972334,incremental,ni_sequenzen,NI_Sequenzen,,,,,,,,,,,,,,
,Sequence,flow.Sequence,0_2_15,,completion,16,49356.10000002384,,,49356.89999997616,,49359.10000002384,2021-10-23T07:07:06.660Z,49418.151,1634972334,incremental,ni_sequenzen,NI_Sequenzen,,,,,,,,,,,,,,
,Screen_1,canvas.Screen,0_2_16_0,,skipped,17,49359.5,,,49359.60000002384,,49359.60000002384,2021-10-23T07:07:06.660Z,49418.151,1634972334,incremental,ni_sequenzen,NI_Sequenzen,,,,,,,,,,,,,,
,Screen_2,canvas.Screen,0_2_16_1,,skipped,17,49360.10000002384,,,49359.60000002384,,49360.10000002384,2021-10-23T07:07:06.661Z,49418.151,1634972334,incremental,ni_sequenzen,NI_Sequenzen,,,,,,,,,,,,,,
,Screen_3,canvas.Screen,0_2_16_2,,skipped,17,49360.39999997616,,,49359.60000002384,,49360.5,2021-10-23T07:07:06.661Z,49418.151,1634972334,incremental,ni_sequenzen,NI_Sequenzen,,,,,,,,,,,,,,
,Screen_4,canvas.Screen,0_2_16_3,,skipped,17,49360.89999997616,,,49359.60000002384,,49360.89999997616,2021-10-23T07:07:06.662Z,49418.151,1634972334,incremental,ni_sequenzen,NI_Sequenzen,,,,,,,,,,,,,,
,Screen_5,canvas.Screen,0_2_16_4,,skipped,17,49361.19999998808,,,49359.60000002384,,49361.19999998808,2021-10-23T07:07:06.662Z,49418.151,1634972334,incremental,ni_sequenzen,NI_Sequenzen,,,,,,,,,,,,,,
,Screen_6,canvas.Screen,0_2_16_5,,skipped,17,49361.60000002384,,,49359.60000002384,,49361.60000002384,2021-10-23T07:07:06.662Z,49418.151,1634972334,incremental,ni_sequenzen,NI_Sequenzen,,,,,,,,,,,,,,
,Sequence,flow.Sequence,0_2_16,,completion,17,49359.19999998808,,,49359.60000002384,,49361.60000002384,2021-10-23T07:07:06.662Z,49418.151,1634972334,incremental,ni_sequenzen,NI_Sequenzen,,,,,,,,,,,,,,
,Screen_1,canvas.Screen,0_2_17_0,,skipped,18,49362.19999998808,,,49362.19999998808,,49362.19999998808,2021-10-23T07:07:06.663Z,49418.151,1634972334,incremental,ni_sequenzen,NI_Sequenzen,,,,,,,,,,,,,,
,Screen_2,canvas.Screen,0_2_17_1,,skipped,18,49362.60000002384,,,49362.19999998808,,49362.69999998808,2021-10-23T07:07:06.663Z,49418.151,1634972334,incremental,ni_sequenzen,NI_Sequenzen,,,,,,,,,,,,,,
,Screen_3,canvas.Screen,0_2_17_2,,skipped,18,49363.30000001192,,,49362.19999998808,,49363.39999997616,2021-10-23T07:07:06.664Z,49418.151,1634972334,incremental,ni_sequenzen,NI_Sequenzen,,,,,,,,,,,,,,
,Screen_4,canvas.Screen,0_2_17_3,,skipped,18,49363.69999998808,,,49362.19999998808,,49363.80000001192,2021-10-23T07:07:06.665Z,49418.151,1634972334,incremental,ni_sequenzen,NI_Sequenzen,,,,,,,,,,,,,,
,Screen_5,canvas.Screen,0_2_17_4,,skipped,18,49364.19999998808,,,49362.19999998808,,49364.19999998808,2021-10-23T07:07:06.665Z,49418.151,1634972334,incremental,ni_sequenzen,NI_Sequenzen,,,,,,,,,,,,,,
,Screen_6,canvas.Screen,0_2_17_5,,skipped,18,49364.69999998808,,,49362.19999998808,,49364.69999998808,2021-10-23T07:07:06.665Z,49418.151,1634972334,incremental,ni_sequenzen,NI_Sequenzen,,,,,,,,,,,,,,
,Sequence,flow.Sequence,0_2_17,,completion,18,49361.80000001192,,,49362.19999998808,,49364.80000001192,2021-10-23T07:07:06.666Z,49418.151,1634972334,incremental,ni_sequenzen,NI_Sequenzen,,,,,,,,,,,,,,
,Screen_1,canvas.Screen,0_2_18_0,,skipped,19,49365.30000001192,,,49365.30000001192,,49365.30000001192,2021-10-23T07:07:06.666Z,49418.151,1634972334,incremental,ni_sequenzen,NI_Sequenzen,,,,,,,,,,,,,,
,Screen_2,canvas.Screen,0_2_18_1,,skipped,19,49365.69999998808,,,49365.30000001192,,49365.80000001192,2021-10-23T07:07:06.667Z,49418.151,1634972334,incremental,ni_sequenzen,NI_Sequenzen,,,,,,,,,,,,,,
,Screen_3,canvas.Screen,0_2_18_2,,skipped,19,49366.10000002384,,,49365.30000001192,,49366.19999998808,2021-10-23T07:07:06.667Z,49418.151,1634972334,incremental,ni_sequenzen,NI_Sequenzen,,,,,,,,,,,,,,
,Screen_4,canvas.Screen,0_2_18_3,,skipped,19,49366.60000002384,,,49365.30000001192,,49366.60000002384,2021-10-23T07:07:06.667Z,49418.151,1634972334,incremental,ni_sequenzen,NI_Sequenzen,,,,,,,,,,,,,,
,Screen_5,canvas.Screen,0_2_18_4,,skipped,19,49367,,,49365.30000001192,,49367,2021-10-23T07:07:06.668Z,49418.151,1634972334,incremental,ni_sequenzen,NI_Sequenzen,,,,,,,,,,,,,,
,Screen_6,canvas.Screen,0_2_18_5,,skipped,19,49367.39999997616,,,49365.30000001192,,49367.39999997616,2021-10-23T07:07:06.668Z,49418.151,1634972334,incremental,ni_sequenzen,NI_Sequenzen,,,,,,,,,,,,,,
,Sequence,flow.Sequence,0_2_18,,completion,19,49364.89999997616,,,49365.30000001192,,49367.5,2021-10-23T07:07:06.668Z,49418.151,1634972334,incremental,ni_sequenzen,NI_Sequenzen,,,,,,,,,,,,,,
,Screen_1,canvas.Screen,0_2_19_0,,skipped,20,49368,,,49368,,49368,2021-10-23T07:07:06.669Z,49418.151,1634972334,incremental,ni_sequenzen,NI_Sequenzen,,,,,,,,,,,,,,
,Screen_2,canvas.Screen,0_2_19_1,,skipped,20,49368.5,,,49368,,49368.5,2021-10-23T07:07:06.669Z,49418.151,1634972334,incremental,ni_sequenzen,NI_Sequenzen,,,,,,,,,,,,,,
,Screen_3,canvas.Screen,0_2_19_2,,skipped,20,49368.89999997616,,,49368,,49368.89999997616,2021-10-23T07:07:06.670Z,49418.151,1634972334,incremental,ni_sequenzen,NI_Sequenzen,,,,,,,,,,,,,,
,Screen_4,canvas.Screen,0_2_19_3,,skipped,20,49369.69999998808,,,49368,,49369.80000001192,2021-10-23T07:07:06.671Z,49418.151,1634972334,incremental,ni_sequenzen,NI_Sequenzen,,,,,,,,,,,,,,
,Screen_5,canvas.Screen,0_2_19_4,,skipped,20,49370.19999998808,,,49368,,49370.30000001192,2021-10-23T07:07:06.671Z,49418.151,1634972334,incremental,ni_sequenzen,NI_Sequenzen,,,,,,,,,,,,,,
,Screen_6,canvas.Screen,0_2_19_5,,skipped,20,49370.60000002384,,,49368,,49370.60000002384,2021-10-23T07:07:06.671Z,49418.151,1634972334,incremental,ni_sequenzen,NI_Sequenzen,,,,,,,,,,,,,,
,Sequence,flow.Sequence,0_2_19,,completion,20,49367.69999998808,,,49368,,49370.69999998808,2021-10-23T07:07:06.671Z,49418.151,1634972334,incremental,ni_sequenzen,NI_Sequenzen,,,,,,,,,,,,,,
,Screen_1,canvas.Screen,0_2_20_0,,skipped,21,49371.19999998808,,,49371.19999998808,,49371.30000001192,2021-10-23T07:07:06.672Z,49418.151,1634972334,incremental,ni_sequenzen,NI_Sequenzen,,,,,,,,,,,,,,
,Screen_2,canvas.Screen,0_2_20_1,,skipped,21,49371.60000002384,,,49371.19999998808,,49371.69999998808,2021-10-23T07:07:06.672Z,49418.151,1634972334,incremental,ni_sequenzen,NI_Sequenzen,,,,,,,,,,,,,,
,Screen_3,canvas.Screen,0_2_20_2,,skipped,21,49372,,,49371.19999998808,,49372,2021-10-23T07:07:06.673Z,49418.151,1634972334,incremental,ni_sequenzen,NI_Sequenzen,,,,,,,,,,,,,,
,Screen_4,canvas.Screen,0_2_20_3,,skipped,21,49372.39999997616,,,49371.19999998808,,49372.39999997616,2021-10-23T07:07:06.673Z,49418.151,1634972334,incremental,ni_sequenzen,NI_Sequenzen,,,,,,,,,,,,,,
,Screen_5,canvas.Screen,0_2_20_4,,skipped,21,49372.80000001192,,,49371.19999998808,,49372.80000001192,2021-10-23T07:07:06.674Z,49418.151,1634972334,incremental,ni_sequenzen,NI_Sequenzen,,,,,,,,,,,,,,
,Screen_6,canvas.Screen,0_2_20_5,,skipped,21,49373.19999998808,,,49371.19999998808,,49373.30000001192,2021-10-23T07:07:06.674Z,49418.151,1634972334,incremental,ni_sequenzen,NI_Sequenzen,,,,,,,,,,,,,,
,Sequence,flow.Sequence,0_2_20,,completion,21,49370.80000001192,,,49371.19999998808,,49373.30000001192,2021-10-23T07:07:06.674Z,49418.151,1634972334,incremental,ni_sequenzen,NI_Sequenzen,,,,,,,,,,,,,,
,Screen_1,canvas.Screen,0_2_21_0,,skipped,22,49373.80000001192,,,49373.80000001192,,49373.89999997616,2021-10-23T07:07:06.675Z,49418.151,1634972334,incremental,ni_sequenzen,NI_Sequenzen,,,,,,,,,,,,,,
,Screen_2,canvas.Screen,0_2_21_1,,skipped,22,49374.10000002384,,,49373.80000001192,,49374.19999998808,2021-10-23T07:07:06.675Z,49418.151,1634972334,incremental,ni_sequenzen,NI_Sequenzen,,,,,,,,,,,,,,
,Screen_3,canvas.Screen,0_2_21_2,,skipped,22,49374.60000002384,,,49373.80000001192,,49374.89999997616,2021-10-23T07:07:06.676Z,49418.151,1634972334,incremental,ni_sequenzen,NI_Sequenzen,,,,,,,,,,,,,,
,Screen_4,canvas.Screen,0_2_21_3,,skipped,22,49375.30000001192,,,49373.80000001192,,49375.30000001192,2021-10-23T07:07:06.676Z,49418.151,1634972334,incremental,ni_sequenzen,NI_Sequenzen,,,,,,,,,,,,,,
,Screen_5,canvas.Screen,0_2_21_4,,skipped,22,49375.80000001192,,,49373.80000001192,,49375.80000001192,2021-10-23T07:07:06.677Z,49418.151,1634972334,incremental,ni_sequenzen,NI_Sequenzen,,,,,,,,,,,,,,
,Screen_6,canvas.Screen,0_2_21_5,,skipped,22,49376.19999998808,,,49373.80000001192,,49376.19999998808,2021-10-23T07:07:06.677Z,49418.151,1634972334,incremental,ni_sequenzen,NI_Sequenzen,,,,,,,,,,,,,,
,Sequence,flow.Sequence,0_2_21,,completion,22,49373.5,,,49373.80000001192,,49376.19999998808,2021-10-23T07:07:06.677Z,49418.151,1634972334,incremental,ni_sequenzen,NI_Sequenzen,,,,,,,,,,,,,,
,Screen_1,canvas.Screen,0_2_22_0,,skipped,23,49376.80000001192,,,49376.80000001192,,49376.80000001192,2021-10-23T07:07:06.678Z,49418.151,1634972334,incremental,ni_sequenzen,NI_Sequenzen,,,,,,,,,,,,,,
,Screen_2,canvas.Screen,0_2_22_1,,skipped,23,49377.60000002384,,,49376.80000001192,,49377.60000002384,2021-10-23T07:07:06.678Z,49418.151,1634972334,incremental,ni_sequenzen,NI_Sequenzen,,,,,,,,,,,,,,
,Screen_3,canvas.Screen,0_2_22_2,,skipped,23,49378.19999998808,,,49376.80000001192,,49378.19999998808,2021-10-23T07:07:06.679Z,49418.151,1634972334,incremental,ni_sequenzen,NI_Sequenzen,,,,,,,,,,,,,,
,Screen_4,canvas.Screen,0_2_22_3,,skipped,23,49378.60000002384,,,49376.80000001192,,49378.69999998808,2021-10-23T07:07:06.679Z,49418.151,1634972334,incremental,ni_sequenzen,NI_Sequenzen,,,,,,,,,,,,,,
,Screen_5,canvas.Screen,0_2_22_4,,skipped,23,49379,,,49376.80000001192,,49379.10000002384,2021-10-23T07:07:06.680Z,49418.151,1634972334,incremental,ni_sequenzen,NI_Sequenzen,,,,,,,,,,,,,,
,Screen_6,canvas.Screen,0_2_22_5,,skipped,23,49379.39999997616,,,49376.80000001192,,49379.5,2021-10-23T07:07:06.680Z,49418.151,1634972334,incremental,ni_sequenzen,NI_Sequenzen,,,,,,,,,,,,,,
,Sequence,flow.Sequence,0_2_22,,completion,23,49376.39999997616,,,49376.80000001192,,49379.5,2021-10-23T07:07:06.680Z,49418.151,1634972334,incremental,ni_sequenzen,NI_Sequenzen,,,,,,,,,,,,,,
,Screen_1,canvas.Screen,0_2_23_0,,skipped,24,49379.89999997616,,,49379.89999997616,,49380,2021-10-23T07:07:06.681Z,49418.151,1634972334,incremental,ni_sequenzen,NI_Sequenzen,,,,,,,,,,,,,,
,Screen_2,canvas.Screen,0_2_23_1,,skipped,24,49380.30000001192,,,49379.89999997616,,49380.39999997616,2021-10-23T07:07:06.681Z,49418.151,1634972334,incremental,ni_sequenzen,NI_Sequenzen,,,,,,,,,,,,,,
,Screen_3,canvas.Screen,0_2_23_2,,skipped,24,49380.69999998808,,,49379.89999997616,,49380.69999998808,2021-10-23T07:07:06.682Z,49418.151,1634972334,incremental,ni_sequenzen,NI_Sequenzen,,,,,,,,,,,,,,
,Screen_4,canvas.Screen,0_2_23_3,,skipped,24,49381.10000002384,,,49379.89999997616,,49381.10000002384,2021-10-23T07:07:06.682Z,49418.151,1634972334,incremental,ni_sequenzen,NI_Sequenzen,,,,,,,,,,,,,,
,Screen_5,canvas.Screen,0_2_23_4,,skipped,24,49381.60000002384,,,49379.89999997616,,49381.60000002384,2021-10-23T07:07:06.682Z,49418.151,1634972334,incremental,ni_sequenzen,NI_Sequenzen,,,,,,,,,,,,,,
,Screen_6,canvas.Screen,0_2_23_5,,skipped,24,49382,,,49379.89999997616,,49382,2021-10-23T07:07:06.683Z,49418.151,1634972334,incremental,ni_sequenzen,NI_Sequenzen,,,,,,,,,,,,,,
,Sequence,flow.Sequence,0_2_23,,completion,24,49379.60000002384,,,49379.89999997616,,49382.10000002384,2021-10-23T07:07:06.683Z,49418.151,1634972334,incremental,ni_sequenzen,NI_Sequenzen,,,,,,,,,,,,,,
,Screen_1,canvas.Screen,0_2_24_0,,skipped,25,49382.5,,,49382.5,,49382.60000002384,2021-10-23T07:07:06.683Z,49418.151,1634972334,incremental,ni_sequenzen,NI_Sequenzen,,,,,,,,,,,,,,
,Screen_2,canvas.Screen,0_2_24_1,,skipped,25,49382.89999997616,,,49382.5,,49382.89999997616,2021-10-23T07:07:06.684Z,49418.151,1634972334,incremental,ni_sequenzen,NI_Sequenzen,,,,,,,,,,,,,,
,Screen_3,canvas.Screen,0_2_24_2,,skipped,25,49383.39999997616,,,49382.5,,49383.39999997616,2021-10-23T07:07:06.684Z,49418.151,1634972334,incremental,ni_sequenzen,NI_Sequenzen,,,,,,,,,,,,,,
,Screen_4,canvas.Screen,0_2_24_3,,skipped,25,49383.69999998808,,,49382.5,,49383.80000001192,2021-10-23T07:07:06.685Z,49418.151,1634972334,incremental,ni_sequenzen,NI_Sequenzen,,,,,,,,,,,,,,
,Screen_5,canvas.Screen,0_2_24_4,,skipped,25,49384.5,,,49382.5,,49384.60000002384,2021-10-23T07:07:06.685Z,49418.151,1634972334,incremental,ni_sequenzen,NI_Sequenzen,,,,,,,,,,,,,,
,Screen_6,canvas.Screen,0_2_24_5,,skipped,25,49385,,,49382.5,,49385,2021-10-23T07:07:06.686Z,49418.151,1634972334,incremental,ni_sequenzen,NI_Sequenzen,,,,,,,,,,,,,,
,Sequence,flow.Sequence,0_2_24,,completion,25,49382.30000001192,,,49382.5,,49385,2021-10-23T07:07:06.686Z,49418.151,1634972334,incremental,ni_sequenzen,NI_Sequenzen,,,,,,,,,,,,,,
,Screen_1,canvas.Screen,0_2_25_0,,skipped,26,49385.60000002384,,,49385.60000002384,,49385.60000002384,2021-10-23T07:07:06.686Z,49418.151,1634972334,incremental,ni_sequenzen,NI_Sequenzen,,,,,,,,,,,,,,
,Screen_2,canvas.Screen,0_2_25_1,,skipped,26,49385.89999997616,,,49385.60000002384,,49385.89999997616,2021-10-23T07:07:06.687Z,49418.151,1634972334,incremental,ni_sequenzen,NI_Sequenzen,,,,,,,,,,,,,,
,Screen_3,canvas.Screen,0_2_25_2,,skipped,26,49386.30000001192,,,49385.60000002384,,49386.39999997616,2021-10-23T07:07:06.687Z,49418.151,1634972334,incremental,ni_sequenzen,NI_Sequenzen,,,,,,,,,,,,,,
,Screen_4,canvas.Screen,0_2_25_3,,skipped,26,49386.69999998808,,,49385.60000002384,,49386.69999998808,2021-10-23T07:07:06.688Z,49418.151,1634972334,incremental,ni_sequenzen,NI_Sequenzen,,,,,,,,,,,,,,
,Screen_5,canvas.Screen,0_2_25_4,,skipped,26,49387,,,49385.60000002384,,49387.10000002384,2021-10-23T07:07:06.688Z,49418.151,1634972334,incremental,ni_sequenzen,NI_Sequenzen,,,,,,,,,,,,,,
,Screen_6,canvas.Screen,0_2_25_5,,skipped,26,49387.5,,,49385.60000002384,,49387.5,2021-10-23T07:07:06.688Z,49418.151,1634972334,incremental,ni_sequenzen,NI_Sequenzen,,,,,,,,,,,,,,
,Sequence,flow.Sequence,0_2_25,,completion,26,49385.19999998808,,,49385.60000002384,,49387.5,2021-10-23T07:07:06.688Z,49418.151,1634972334,incremental,ni_sequenzen,NI_Sequenzen,,,,,,,,,,,,,,
,Screen_1,canvas.Screen,0_2_26_0,,skipped,27,49388.19999998808,,,49388.19999998808,,49388.19999998808,2021-10-23T07:07:06.689Z,49418.151,1634972334,incremental,ni_sequenzen,NI_Sequenzen,,,,,,,,,,,,,,
,Screen_2,canvas.Screen,0_2_26_1,,skipped,27,49388.5,,,49388.19999998808,,49388.60000002384,2021-10-23T07:07:06.689Z,49418.151,1634972334,incremental,ni_sequenzen,NI_Sequenzen,,,,,,,,,,,,,,
,Screen_3,canvas.Screen,0_2_26_2,,skipped,27,49388.89999997616,,,49388.19999998808,,49388.89999997616,2021-10-23T07:07:06.690Z,49418.151,1634972334,incremental,ni_sequenzen,NI_Sequenzen,,,,,,,,,,,,,,
,Screen_4,canvas.Screen,0_2_26_3,,skipped,27,49389.30000001192,,,49388.19999998808,,49389.30000001192,2021-10-23T07:07:06.690Z,49418.151,1634972334,incremental,ni_sequenzen,NI_Sequenzen,,,,,,,,,,,,,,
,Screen_5,canvas.Screen,0_2_26_4,,skipped,27,49389.69999998808,,,49388.19999998808,,49389.69999998808,2021-10-23T07:07:06.690Z,49418.151,1634972334,incremental,ni_sequenzen,NI_Sequenzen,,,,,,,,,,,,,,
,Screen_6,canvas.Screen,0_2_26_5,,skipped,27,49390.10000002384,,,49388.19999998808,,49390.10000002384,2021-10-23T07:07:06.691Z,49418.151,1634972334,incremental,ni_sequenzen,NI_Sequenzen,,,,,,,,,,,,,,
,Sequence,flow.Sequence,0_2_26,,completion,27,49387.69999998808,,,49388.19999998808,,49390.10000002384,2021-10-23T07:07:06.691Z,49418.151,1634972334,incremental,ni_sequenzen,NI_Sequenzen,,,,,,,,,,,,,,
,Screen_1,canvas.Screen,0_2_27_0,,skipped,28,49390.60000002384,,,49390.60000002384,,49390.60000002384,2021-10-23T07:07:06.691Z,49418.151,1634972334,incremental,ni_sequenzen,NI_Sequenzen,,,,,,,,,,,,,,
,Screen_2,canvas.Screen,0_2_27_1,,skipped,28,49391.39999997616,,,49390.60000002384,,49391.5,2021-10-23T07:07:06.692Z,49418.151,1634972334,incremental,ni_sequenzen,NI_Sequenzen,,,,,,,,,,,,,,
,Screen_3,canvas.Screen,0_2_27_2,,skipped,28,49391.80000001192,,,49390.60000002384,,49391.80000001192,2021-10-23T07:07:06.693Z,49418.151,1634972334,incremental,ni_sequenzen,NI_Sequenzen,,,,,,,,,,,,,,
,Screen_4,canvas.Screen,0_2_27_3,,skipped,28,49392.19999998808,,,49390.60000002384,,49392.30000001192,2021-10-23T07:07:06.693Z,49418.151,1634972334,incremental,ni_sequenzen,NI_Sequenzen,,,,,,,,,,,,,,
,Screen_5,canvas.Screen,0_2_27_4,,skipped,28,49392.60000002384,,,49390.60000002384,,49392.60000002384,2021-10-23T07:07:06.693Z,49418.151,1634972334,incremental,ni_sequenzen,NI_Sequenzen,,,,,,,,,,,,,,
,Screen_6,canvas.Screen,0_2_27_5,,skipped,28,49392.89999997616,,,49390.60000002384,,49393.10000002384,2021-10-23T07:07:06.694Z,49418.151,1634972334,incremental,ni_sequenzen,NI_Sequenzen,,,,,,,,,,,,,,
,Sequence,flow.Sequence,0_2_27,,completion,28,49390.39999997616,,,49390.60000002384,,49393.10000002384,2021-10-23T07:07:06.694Z,49418.151,1634972334,incremental,ni_sequenzen,NI_Sequenzen,,,,,,,,,,,,,,
,Screen_1,canvas.Screen,0_2_28_0,,skipped,29,49393.60000002384,,,49393.60000002384,,49393.60000002384,2021-10-23T07:07:06.694Z,49418.151,1634972334,incremental,ni_sequenzen,NI_Sequenzen,,,,,,,,,,,,,,
,Screen_2,canvas.Screen,0_2_28_1,,skipped,29,49394,,,49393.60000002384,,49394.10000002384,2021-10-23T07:07:06.695Z,49418.151,1634972334,incremental,ni_sequenzen,NI_Sequenzen,,,,,,,,,,,,,,
,Screen_3,canvas.Screen,0_2_28_2,,skipped,29,49394.39999997616,,,49393.60000002384,,49394.39999997616,2021-10-23T07:07:06.695Z,49418.151,1634972334,incremental,ni_sequenzen,NI_Sequenzen,,,,,,,,,,,,,,
,Screen_4,canvas.Screen,0_2_28_3,,skipped,29,49394.80000001192,,,49393.60000002384,,49394.80000001192,2021-10-23T07:07:06.696Z,49418.151,1634972334,incremental,ni_sequenzen,NI_Sequenzen,,,,,,,,,,,,,,
,Screen_5,canvas.Screen,0_2_28_4,,skipped,29,49395.10000002384,,,49393.60000002384,,49395.19999998808,2021-10-23T07:07:06.696Z,49418.151,1634972334,incremental,ni_sequenzen,NI_Sequenzen,,,,,,,,,,,,,,
,Screen_6,canvas.Screen,0_2_28_5,,skipped,29,49395.5,,,49393.60000002384,,49395.60000002384,2021-10-23T07:07:06.696Z,49418.151,1634972334,incremental,ni_sequenzen,NI_Sequenzen,,,,,,,,,,,,,,
,Sequence,flow.Sequence,0_2_28,,completion,29,49393.30000001192,,,49393.60000002384,,49395.60000002384,2021-10-23T07:07:06.696Z,49418.151,1634972334,incremental,ni_sequenzen,NI_Sequenzen,,,,,,,,,,,,,,
,Screen_1,canvas.Screen,0_2_29_0,,skipped,30,49396.10000002384,,,49396.10000002384,,49396.10000002384,2021-10-23T07:07:06.697Z,49418.151,1634972334,incremental,ni_sequenzen,NI_Sequenzen,,,,,,,,,,,,,,
,Screen_2,canvas.Screen,0_2_29_1,,skipped,30,49396.5,,,49396.10000002384,,49396.5,2021-10-23T07:07:06.697Z,49418.151,1634972334,incremental,ni_sequenzen,NI_Sequenzen,,,,,,,,,,,,,,
,Screen_3,canvas.Screen,0_2_29_2,,skipped,30,49397,,,49396.10000002384,,49397.10000002384,2021-10-23T07:07:06.698Z,49418.151,1634972334,incremental,ni_sequenzen,NI_Sequenzen,,,,,,,,,,,,,,
,Screen_4,canvas.Screen,0_2_29_3,,skipped,30,49397.69999998808,,,49396.10000002384,,49397.80000001192,2021-10-23T07:07:06.699Z,49418.151,1634972334,incremental,ni_sequenzen,NI_Sequenzen,,,,,,,,,,,,,,
,Screen_5,canvas.Screen,0_2_29_4,,skipped,30,49398.10000002384,,,49396.10000002384,,49398.19999998808,2021-10-23T07:07:06.699Z,49418.151,1634972334,incremental,ni_sequenzen,NI_Sequenzen,,,,,,,,,,,,,,
,Screen_6,canvas.Screen,0_2_29_5,,skipped,30,49398.5,,,49396.10000002384,,49398.5,2021-10-23T07:07:06.699Z,49418.151,1634972334,incremental,ni_sequenzen,NI_Sequenzen,,,,,,,,,,,,,,
,Sequence,flow.Sequence,0_2_29,,completion,30,49395.80000001192,,,49396.10000002384,,49398.60000002384,2021-10-23T07:07:06.699Z,49418.151,1634972334,incremental,ni_sequenzen,NI_Sequenzen,,,,,,,,,,,,,,
,Instructions_II,flow.Loop,0_2,,completion,,20968.5,20968.65,20976.978,49396.10000002384,28419.122000023843,49398.60000002384,2021-10-23T07:07:06.699Z,49418.151,1634972334,incremental,ni_sequenzen,NI_Sequenzen,,,,,,,,,,,,,,
,Move,canvas.Screen,0_3_0_0_0_0,down,response,,49415.60000002384,49409.67,49418.151,70057.5,20639.349000000002,70057.89999997616,2021-10-23T07:07:27.359Z,70067.773,1634972334,incremental,ni_sequenzen,NI_Sequenzen,1,0,,,,,,,,,,,,
,Move,canvas.Screen,0_3_0_0_0_1,left,response,,70061.30000001192,70058.983,70067.773,70894.60000002384,826.8270000238408,70895.10000002384,2021-10-23T07:07:28.196Z,70901.078,1634972334,incremental,ni_sequenzen,NI_Sequenzen,2,0,,,,,,,,,,,,
,Move,canvas.Screen,0_3_0_0_0_2,down,response,,70897,70892.739,70901.078,71893.19999998808,992.121999988085,71893.5,2021-10-23T07:07:29.194Z,71901.056,1634972334,incremental,ni_sequenzen,NI_Sequenzen,3,0,,,,,,,,,,,,
,Move,canvas.Screen,0_3_0_0_0_3,left,response,,71894.60000002384,71892.72,71901.056,72593.89999997616,692.8439999761613,72594.19999998808,2021-10-23T07:07:29.895Z,72617.751,1634972334,incremental,ni_sequenzen,NI_Sequenzen,4,0,,,,,,,,,,,,
,Move,canvas.Screen,0_3_0_0_0_4,-999,skipped,,72595.5,,,72593.89999997616,,72595.5,2021-10-23T07:07:29.896Z,72617.751,1634972334,incremental,ni_sequenzen,NI_Sequenzen,5,0,,,,,,,,,,,,
,Move,canvas.Screen,0_3_0_0_0_5,-999,skipped,,72596.5,,,72593.89999997616,,72596.60000002384,2021-10-23T07:07:29.897Z,72617.751,1634972334,incremental,ni_sequenzen,NI_Sequenzen,6,0,,,,,,,,,,,,
,Move,canvas.Screen,0_3_0_0_0_6,-999,skipped,,72597.89999997616,,,72593.89999997616,,72597.89999997616,2021-10-23T07:07:29.899Z,72617.751,1634972334,incremental,ni_sequenzen,NI_Sequenzen,7,0,,,,,,,,,,,,
,Move,canvas.Screen,0_3_0_0_0_7,-999,skipped,,72599.60000002384,,,72593.89999997616,,72599.60000002384,2021-10-23T07:07:29.900Z,72617.751,1634972334,incremental,ni_sequenzen,NI_Sequenzen,8,0,,,,,,,,,,,,
,Move,canvas.Screen,0_3_0_0_0_8,-999,skipped,,72600.69999998808,,,72593.89999997616,,72600.80000001192,2021-10-23T07:07:29.902Z,72617.751,1634972334,incremental,ni_sequenzen,NI_Sequenzen,9,0,,,,,,,,,,,,
,Move,canvas.Screen,0_3_0_0_0_9,-999,skipped,,72601.89999997616,,,72593.89999997616,,72601.89999997616,2021-10-23T07:07:29.903Z,72617.751,1634972334,incremental,ni_sequenzen,NI_Sequenzen,10,0,,,,,,,,,,,,
,Move,canvas.Screen,0_3_0_0_0_10,-999,skipped,,72603.19999998808,,,72593.89999997616,,72603.19999998808,2021-10-23T07:07:29.904Z,72617.751,1634972334,incremental,ni_sequenzen,NI_Sequenzen,11,0,,,,,,,,,,,,
,Move,canvas.Screen,0_3_0_0_0_11,-999,skipped,,72604.19999998808,,,72593.89999997616,,72604.19999998808,2021-10-23T07:07:29.905Z,72617.751,1634972334,incremental,ni_sequenzen,NI_Sequenzen,12,0,,,,,,,,,,,,
,Move,canvas.Screen,0_3_0_0_0_12,-999,skipped,,72605.39999997616,,,72593.89999997616,,72605.39999997616,2021-10-23T07:07:29.906Z,72617.751,1634972334,incremental,ni_sequenzen,NI_Sequenzen,13,0,,,,,,,,,,,,
,Move,canvas.Screen,0_3_0_0_0_13,-999,skipped,,72607.30000001192,,,72593.89999997616,,72607.30000001192,2021-10-23T07:07:29.908Z,72617.751,1634972334,incremental,ni_sequenzen,NI_Sequenzen,14,0,,,,,,,,,,,,
,Move,canvas.Screen,0_3_0_0_0_14,-999,skipped,,72608.5,,,72593.89999997616,,72608.60000002384,2021-10-23T07:07:29.909Z,72617.751,1634972334,incremental,ni_sequenzen,NI_Sequenzen,15,0,,,,,,,,,,,,
,Loop,flow.Loop,0_3_0_0_0,-999,completion,,49412.69999998808,49409.67,49418.151,72593.89999997616,23175.74899997616,72608.69999998808,2021-10-23T07:07:29.909Z,72617.751,1634972334,incremental,ni_sequenzen,NI_Sequenzen,,0,,,,,,,,,,,,
,Feedback,canvas.Screen,0_3_0_0_1,,timeout,,72609.60000002384,72609.372,72617.751,76609.311,3999.9060000000027,76609.60000002384,2021-10-23T07:07:33.910Z,76617.657,1634972334,incremental,ni_sequenzen,NI_Sequenzen,,0,,,,,,,,,,,,
,Trial,flow.Sequence,0_3_0_0,,completion,,49406.89999997616,49409.67,49418.151,76609.311,27191.160000000003,76609.69999998808,2021-10-23T07:07:33.910Z,76625.957,1634972334,incremental,ni_sequenzen,NI_Sequenzen,,0,,,,,,,,,,,,
,Move,canvas.Screen,0_3_0_1_0_0,down,response,,76615.69999998808,76617.657,76625.957,76904.80000001192,278.84300001192605,76905.10000002384,2021-10-23T07:07:34.206Z,76909.297,1634972334,incremental,ni_sequenzen,NI_Sequenzen,1,1,,,,,,,,,,,,
,Move,canvas.Screen,0_3_0_1_0_1,right,response,,76906.5,76900.975,76909.297,83581.69999998808,6672.402999988073,83582.10000002384,2021-10-23T07:07:40.883Z,83600.368,1634972334,incremental,ni_sequenzen,NI_Sequenzen,2,1,,,,,,,,,,,,
,Move,canvas.Screen,0_3_0_1_0_2,right,response,,83583.30000001192,83575.718,83600.368,84875.80000001192,1275.4320000119187,84876.10000002384,2021-10-23T07:07:42.177Z,84884.174,1634972334,incremental,ni_sequenzen,NI_Sequenzen,3,1,,,,,,,,,,,,
,Move,canvas.Screen,0_3_0_1_0_3,down,response,,84877.19999998808,84875.801,84884.174,85416.19999998808,532.02599998808,85416.5,2021-10-23T07:07:42.718Z,85442.549,1634972334,incremental,ni_sequenzen,NI_Sequenzen,4,1,,,,,,,,,,,,
,Move,canvas.Screen,0_3_0_1_0_4,-999,skipped,,85418,,,85416.19999998808,,85418.10000002384,2021-10-23T07:07:42.719Z,85442.549,1634972334,incremental,ni_sequenzen,NI_Sequenzen,5,1,,,,,,,,,,,,
,Move,canvas.Screen,0_3_0_1_0_5,-999,skipped,,85419.80000001192,,,85416.19999998808,,85419.89999997616,2021-10-23T07:07:42.721Z,85442.549,1634972334,incremental,ni_sequenzen,NI_Sequenzen,6,1,,,,,,,,,,,,
,Move,canvas.Screen,0_3_0_1_0_6,-999,skipped,,85421.30000001192,,,85416.19999998808,,85421.39999997616,2021-10-23T07:07:42.722Z,85442.549,1634972334,incremental,ni_sequenzen,NI_Sequenzen,7,1,,,,,,,,,,,,
,Move,canvas.Screen,0_3_0_1_0_7,-999,skipped,,85423.30000001192,,,85416.19999998808,,85423.30000001192,2021-10-23T07:07:42.724Z,85442.549,1634972334,incremental,ni_sequenzen,NI_Sequenzen,8,1,,,,,,,,,,,,
,Move,canvas.Screen,0_3_0_1_0_8,-999,skipped,,85424.80000001192,,,85416.19999998808,,85424.80000001192,2021-10-23T07:07:42.726Z,85442.549,1634972334,incremental,ni_sequenzen,NI_Sequenzen,9,1,,,,,,,,,,,,
,Move,canvas.Screen,0_3_0_1_0_9,-999,skipped,,85426.60000002384,,,85416.19999998808,,85426.69999998808,2021-10-23T07:07:42.728Z,85442.549,1634972334,incremental,ni_sequenzen,NI_Sequenzen,10,1,,,,,,,,,,,,
,Move,canvas.Screen,0_3_0_1_0_10,-999,skipped,,85428.5,,,85416.19999998808,,85428.5,2021-10-23T07:07:42.730Z,85442.549,1634972334,incremental,ni_sequenzen,NI_Sequenzen,11,1,,,,,,,,,,,,
,Move,canvas.Screen,0_3_0_1_0_11,-999,skipped,,85430,,,85416.19999998808,,85430.10000002384,2021-10-23T07:07:42.731Z,85442.549,1634972334,incremental,ni_sequenzen,NI_Sequenzen,12,1,,,,,,,,,,,,
,Move,canvas.Screen,0_3_0_1_0_12,-999,skipped,,85431.5,,,85416.19999998808,,85431.5,2021-10-23T07:07:42.733Z,85442.549,1634972334,incremental,ni_sequenzen,NI_Sequenzen,13,1,,,,,,,,,,,,
,Move,canvas.Screen,0_3_0_1_0_13,-999,skipped,,85433.19999998808,,,85416.19999998808,,85433.19999998808,2021-10-23T07:07:42.734Z,85442.549,1634972334,incremental,ni_sequenzen,NI_Sequenzen,14,1,,,,,,,,,,,,
,Move,canvas.Screen,0_3_0_1_0_14,-999,skipped,,85435.10000002384,,,85416.19999998808,,85435.10000002384,2021-10-23T07:07:42.736Z,85442.549,1634972334,incremental,ni_sequenzen,NI_Sequenzen,15,1,,,,,,,,,,,,
,Loop,flow.Loop,0_3_0_1_0,-999,completion,,76614.60000002384,76617.657,76625.957,85416.19999998808,8790.242999988084,85435.30000001192,2021-10-23T07:07:42.736Z,85442.549,1634972334,incremental,ni_sequenzen,NI_Sequenzen,,1,,,,,,,,,,,,
,Feedback,canvas.Screen,0_3_0_1_1,,timeout,,85436.5,85434.14,85442.549,89434.078,3999.873999999996,89434.30000001192,2021-10-23T07:07:46.735Z,89442.423,1634972334,incremental,ni_sequenzen,NI_Sequenzen,,1,,,,,,,,,,,,
,Trial,flow.Sequence,0_3_0_1,,completion,,76609.80000001192,76617.657,76625.957,89434.078,12808.121,89434.30000001192,2021-10-23T07:07:46.735Z,89450.729,1634972334,incremental,ni_sequenzen,NI_Sequenzen,,1,,,,,,,,,,,,
