meta,sender,sender_type,sender_id,response,ended_on,instrCount,time_run,time_render,time_show,time_end,duration,time_commit,timestamp,time_switch,openLabId,type,task,project,move,trialN,blockN_Train,blockN,moveCount,currPP,points,movesTrial,visitedFields,diff,reward,Strategie,Zweck,Probleme
[object Object],Screen_1,canvas.Screen,0_0_0_0,cont,response,1,2084,2084.14,2106.48,4245,2138.52,4250,2021-10-22T21:00:46.574Z,4439.7,1634936135,full,ni_sequenzen,NI_Sequenzen,,,,,,,,,,,,,,
,Screen_2,canvas.Screen,0_0_0_1,cont,response,1,4436,4435.76,4439.7,13229,8789.3,13233,2021-10-22T21:00:55.557Z,13456.04,1634936135,full,ni_sequenzen,NI_Sequenzen,,,,,,,,,,,,,,
,Screen_3,canvas.Screen,0_0_0_2,cont,response,1,13454,13453.94,13456.04,24868,11411.96,24873,2021-10-22T21:01:07.197Z,24888.68,1634936135,full,ni_sequenzen,NI_Sequenzen,,,,,,,,,,,,,,
,Screen_4,canvas.Screen,0_0_0_3,cont,response,1,24877,24876.84,24888.68,29547,4658.32,29551,2021-10-22T21:01:11.876Z,29672.1,1634936135,full,ni_sequenzen,NI_Sequenzen,,,,,,,,,,,,,,
,Sequence,flow.Sequence,0_0_0,,completion,1,1619,2084.14,2106.48,29547,27440.52,29552,2021-10-22T21:01:11.876Z,29672.1,1634936135,full,ni_sequenzen,NI_Sequenzen,,,,,,,,,,,,,,
,Screen_1,canvas.Screen,0_0_1_0,,skipped,2,29556,,,29556,,29556,2021-10-22T21:01:11.880Z,29672.1,1634936135,full,ni_sequenzen,NI_Sequenzen,,,,,,,,,,,,,,
,Screen_2,canvas.Screen,0_0_1_1,,skipped,2,29558,,,29556,,29558,2021-10-22T21:01:11.882Z,29672.1,1634936135,full,ni_sequenzen,NI_Sequenzen,,,,,,,,,,,,,,
,Screen_3,canvas.Screen,0_0_1_2,,skipped,2,29560,,,29556,,29560,2021-10-22T21:01:11.884Z,29672.1,1634936135,full,ni_sequenzen,NI_Sequenzen,,,,,,,,,,,,,,
,Screen_4,canvas.Screen,0_0_1_3,,skipped,2,29561,,,29556,,29561,2021-10-22T21:01:11.885Z,29672.1,1634936135,full,ni_sequenzen,NI_Sequenzen,,,,,,,,,,,,,,
,Sequence,flow.Sequence,0_0_1,,completion,2,29553,,,29556,,29561,2021-10-22T21:01:11.885Z,29672.1,1634936135,full,ni_sequenzen,NI_Sequenzen,,,,,,,,,,,,,,
,Screen_1,canvas.Screen,0_0_2_0,,skipped,3,29563,,,29563,,29564,2021-10-22T21:01:11.887Z,29672.1,1634936135,full,ni_sequenzen,NI_Sequenzen,,,,,,,,,,,,,,
,Screen_2,canvas.Screen,0_0_2_1,,skipped,3,29565,,,29563,,29565,2021-10-22T21:01:11.888Z,29672.1,1634936135,full,ni_sequenzen,NI_Sequenzen,,,,,,,,,,,,,,
,Screen_3,canvas.Screen,0_0_2_2,,skipped,3,29566,,,29563,,29566,2021-10-22T21:01:11.889Z,29672.1,1634936135,full,ni_sequenzen,NI_Sequenzen,,,,,,,,,,,,,,
,Screen_4,canvas.Screen,0_0_2_3,,skipped,3,29567,,,29563,,29567,2021-10-22T21:01:11.891Z,29672.1,1634936135,full,ni_sequenzen,NI_Sequenzen,,,,,,,,,,,,,,
,Sequence,flow.Sequence,0_0_2,,completion,3,29562,,,29563,,29568,2021-10-22T21:01:11.891Z,29672.1,1634936135,full,ni_sequenzen,NI_Sequenzen,,,,,,,,,,,,,,
,Screen_1,canvas.Screen,0_0_3_0,,skipped,4,29569,,,29569,,29569,2021-10-22T21:01:11.892Z,29672.1,1634936135,full,ni_sequenzen,NI_Sequenzen,,,,,,,,,,,,,,
,Screen_2,canvas.Screen,0_0_3_1,,skipped,4,29570,,,29569,,29570,2021-10-22T21:01:11.894Z,29672.1,1634936135,full,ni_sequenzen,NI_Sequenzen,,,,,,,,,,,,,,
,Screen_3,canvas.Screen,0_0_3_2,,skipped,4,29571,,,29569,,29572,2021-10-22T21:01:11.895Z,29672.1,1634936135,full,ni_sequenzen,NI_Sequenzen,,,,,,,,,,,,,,
,Screen_4,canvas.Screen,0_0_3_3,,skipped,4,29573,,,29569,,29573,2021-10-22T21:01:11.897Z,29672.1,1634936135,full,ni_sequenzen,NI_Sequenzen,,,,,,,,,,,,,,
,Sequence,flow.Sequence,0_0_3,,completion,4,29568,,,29569,,29573,2021-10-22T21:01:11.897Z,29672.1,1634936135,full,ni_sequenzen,NI_Sequenzen,,,,,,,,,,,,,,
,Screen_1,canvas.Screen,0_0_4_0,,skipped,5,29575,,,29575,,29575,2021-10-22T21:01:11.898Z,29672.1,1634936135,full,ni_sequenzen,NI_Sequenzen,,,,,,,,,,,,,,
,Screen_2,canvas.Screen,0_0_4_1,,skipped,5,29576,,,29575,,29576,2021-10-22T21:01:11.899Z,29672.1,1634936135,full,ni_sequenzen,NI_Sequenzen,,,,,,,,,,,,,,
,Screen_3,canvas.Screen,0_0_4_2,,skipped,5,29577,,,29575,,29577,2021-10-22T21:01:11.900Z,29672.1,1634936135,full,ni_sequenzen,NI_Sequenzen,,,,,,,,,,,,,,
,Screen_4,canvas.Screen,0_0_4_3,,skipped,5,29577,,,29575,,29578,2021-10-22T21:01:11.901Z,29672.1,1634936135,full,ni_sequenzen,NI_Sequenzen,,,,,,,,,,,,,,
,Sequence,flow.Sequence,0_0_4,,completion,5,29573,,,29575,,29578,2021-10-22T21:01:11.902Z,29672.1,1634936135,full,ni_sequenzen,NI_Sequenzen,,,,,,,,,,,,,,
,Screen_1,canvas.Screen,0_0_5_0,,skipped,6,29579,,,29579,,29579,2021-10-22T21:01:11.903Z,29672.1,1634936135,full,ni_sequenzen,NI_Sequenzen,,,,,,,,,,,,,,
,Screen_2,canvas.Screen,0_0_5_1,,skipped,6,29581,,,29579,,29581,2021-10-22T21:01:11.904Z,29672.1,1634936135,full,ni_sequenzen,NI_Sequenzen,,,,,,,,,,,,,,
,Screen_3,canvas.Screen,0_0_5_2,,skipped,6,29582,,,29579,,29582,2021-10-22T21:01:11.906Z,29672.1,1634936135,full,ni_sequenzen,NI_Sequenzen,,,,,,,,,,,,,,
,Screen_4,canvas.Screen,0_0_5_3,,skipped,6,29583,,,29579,,29583,2021-10-22T21:01:11.907Z,29672.1,1634936135,full,ni_sequenzen,NI_Sequenzen,,,,,,,,,,,,,,
,Sequence,flow.Sequence,0_0_5,,completion,6,29578,,,29579,,29583,2021-10-22T21:01:11.907Z,29672.1,1634936135,full,ni_sequenzen,NI_Sequenzen,,,,,,,,,,,,,,
,Screen_1,canvas.Screen,0_0_6_0,,skipped,7,29584,,,29584,,29584,2021-10-22T21:01:11.908Z,29672.1,1634936135,full,ni_sequenzen,NI_Sequenzen,,,,,,,,,,,,,,
,Screen_2,canvas.Screen,0_0_6_1,,skipped,7,29585,,,29584,,29585,2021-10-22T21:01:11.909Z,29672.1,1634936135,full,ni_sequenzen,NI_Sequenzen,,,,,,,,,,,,,,
,Screen_3,canvas.Screen,0_0_6_2,,skipped,7,29586,,,29584,,29586,2021-10-22T21:01:11.910Z,29672.1,1634936135,full,ni_sequenzen,NI_Sequenzen,,,,,,,,,,,,,,
,Screen_4,canvas.Screen,0_0_6_3,,skipped,7,29588,,,29584,,29588,2021-10-22T21:01:11.911Z,29672.1,1634936135,full,ni_sequenzen,NI_Sequenzen,,,,,,,,,,,,,,
,Sequence,flow.Sequence,0_0_6,,completion,7,29583,,,29584,,29588,2021-10-22T21:01:11.912Z,29672.1,1634936135,full,ni_sequenzen,NI_Sequenzen,,,,,,,,,,,,,,
,Screen_1,canvas.Screen,0_0_7_0,,skipped,8,29589,,,29589,,29589,2021-10-22T21:01:11.913Z,29672.1,1634936135,full,ni_sequenzen,NI_Sequenzen,,,,,,,,,,,,,,
,Screen_2,canvas.Screen,0_0_7_1,,skipped,8,29590,,,29589,,29590,2021-10-22T21:01:11.913Z,29672.1,1634936135,full,ni_sequenzen,NI_Sequenzen,,,,,,,,,,,,,,
,Screen_3,canvas.Screen,0_0_7_2,,skipped,8,29591,,,29589,,29591,2021-10-22T21:01:11.914Z,29672.1,1634936135,full,ni_sequenzen,NI_Sequenzen,,,,,,,,,,,,,,
,Screen_4,canvas.Screen,0_0_7_3,,skipped,8,29592,,,29589,,29592,2021-10-22T21:01:11.916Z,29672.1,1634936135,full,ni_sequenzen,NI_Sequenzen,,,,,,,,,,,,,,
,Sequence,flow.Sequence,0_0_7,,completion,8,29588,,,29589,,29592,2021-10-22T21:01:11.916Z,29672.1,1634936135,full,ni_sequenzen,NI_Sequenzen,,,,,,,,,,,,,,
,Screen_1,canvas.Screen,0_0_8_0,,skipped,9,29594,,,29594,,29594,2021-10-22T21:01:11.918Z,29672.1,1634936135,full,ni_sequenzen,NI_Sequenzen,,,,,,,,,,,,,,
,Screen_2,canvas.Screen,0_0_8_1,,skipped,9,29594,,,29594,,29595,2021-10-22T21:01:11.918Z,29672.1,1634936135,full,ni_sequenzen,NI_Sequenzen,,,,,,,,,,,,,,
,Screen_3,canvas.Screen,0_0_8_2,,skipped,9,29595,,,29594,,29595,2021-10-22T21:01:11.919Z,29672.1,1634936135,full,ni_sequenzen,NI_Sequenzen,,,,,,,,,,,,,,
,Screen_4,canvas.Screen,0_0_8_3,,skipped,9,29596,,,29594,,29596,2021-10-22T21:01:11.920Z,29672.1,1634936135,full,ni_sequenzen,NI_Sequenzen,,,,,,,,,,,,,,
,Sequence,flow.Sequence,0_0_8,,completion,9,29592,,,29594,,29596,2021-10-22T21:01:11.920Z,29672.1,1634936135,full,ni_sequenzen,NI_Sequenzen,,,,,,,,,,,,,,
,Screen_1,canvas.Screen,0_0_9_0,,skipped,10,29598,,,29598,,29598,2021-10-22T21:01:11.922Z,29672.1,1634936135,full,ni_sequenzen,NI_Sequenzen,,,,,,,,,,,,,,
,Screen_2,canvas.Screen,0_0_9_1,,skipped,10,29599,,,29598,,29599,2021-10-22T21:01:11.923Z,29672.1,1634936135,full,ni_sequenzen,NI_Sequenzen,,,,,,,,,,,,,,
,Screen_3,canvas.Screen,0_0_9_2,,skipped,10,29600,,,29598,,29600,2021-10-22T21:01:11.924Z,29672.1,1634936135,full,ni_sequenzen,NI_Sequenzen,,,,,,,,,,,,,,
,Screen_4,canvas.Screen,0_0_9_3,,skipped,10,29600,,,29598,,29600,2021-10-22T21:01:11.925Z,29672.1,1634936135,full,ni_sequenzen,NI_Sequenzen,,,,,,,,,,,,,,
,Sequence,flow.Sequence,0_0_9,,completion,10,29597,,,29598,,29601,2021-10-22T21:01:11.925Z,29672.1,1634936135,full,ni_sequenzen,NI_Sequenzen,,,,,,,,,,,,,,
,Screen_1,canvas.Screen,0_0_10_0,,skipped,11,29602,,,29602,,29602,2021-10-22T21:01:11.926Z,29672.1,1634936135,full,ni_sequenzen,NI_Sequenzen,,,,,,,,,,,,,,
,Screen_2,canvas.Screen,0_0_10_1,,skipped,11,29603,,,29602,,29603,2021-10-22T21:01:11.927Z,29672.1,1634936135,full,ni_sequenzen,NI_Sequenzen,,,,,,,,,,,,,,
,Screen_3,canvas.Screen,0_0_10_2,,skipped,11,29604,,,29602,,29604,2021-10-22T21:01:11.928Z,29672.1,1634936135,full,ni_sequenzen,NI_Sequenzen,,,,,,,,,,,,,,
,Screen_4,canvas.Screen,0_0_10_3,,skipped,11,29605,,,29602,,29605,2021-10-22T21:01:11.929Z,29672.1,1634936135,full,ni_sequenzen,NI_Sequenzen,,,,,,,,,,,,,,
,Sequence,flow.Sequence,0_0_10,,completion,11,29601,,,29602,,29605,2021-10-22T21:01:11.930Z,29672.1,1634936135,full,ni_sequenzen,NI_Sequenzen,,,,,,,,,,,,,,
,Screen_1,canvas.Screen,0_0_11_0,,skipped,12,29606,,,29606,,29607,2021-10-22T21:01:11.931Z,29672.1,1634936135,full,ni_sequenzen,NI_Sequenzen,,,,,,,,,,,,,,
,Screen_2,canvas.Screen,0_0_11_1,,skipped,12,29608,,,29606,,29608,2021-10-22T21:01:11.932Z,29672.1,1634936135,full,ni_sequenzen,NI_Sequenzen,,,,,,,,,,,,,,
,Screen_3,canvas.Screen,0_0_11_2,,skipped,12,29609,,,29606,,29609,2021-10-22T21:01:11.933Z,29672.1,1634936135,full,ni_sequenzen,NI_Sequenzen,,,,,,,,,,,,,,
,Screen_4,canvas.Screen,0_0_11_3,,skipped,12,29610,,,29606,,29610,2021-10-22T21:01:11.934Z,29672.1,1634936135,full,ni_sequenzen,NI_Sequenzen,,,,,,,,,,,,,,
,Sequence,flow.Sequence,0_0_11,,completion,12,29605,,,29606,,29610,2021-10-22T21:01:11.934Z,29672.1,1634936135,full,ni_sequenzen,NI_Sequenzen,,,,,,,,,,,,,,
,Screen_1,canvas.Screen,0_0_12_0,,skipped,13,29611,,,29611,,29611,2021-10-22T21:01:11.935Z,29672.1,1634936135,full,ni_sequenzen,NI_Sequenzen,,,,,,,,,,,,,,
,Screen_2,canvas.Screen,0_0_12_1,,skipped,13,29612,,,29611,,29612,2021-10-22T21:01:11.936Z,29672.1,1634936135,full,ni_sequenzen,NI_Sequenzen,,,,,,,,,,,,,,
,Screen_3,canvas.Screen,0_0_12_2,,skipped,13,29613,,,29611,,29613,2021-10-22T21:01:11.937Z,29672.1,1634936135,full,ni_sequenzen,NI_Sequenzen,,,,,,,,,,,,,,
,Screen_4,canvas.Screen,0_0_12_3,,skipped,13,29614,,,29611,,29614,2021-10-22T21:01:11.938Z,29672.1,1634936135,full,ni_sequenzen,NI_Sequenzen,,,,,,,,,,,,,,
,Sequence,flow.Sequence,0_0_12,,completion,13,29610,,,29611,,29614,2021-10-22T21:01:11.938Z,29672.1,1634936135,full,ni_sequenzen,NI_Sequenzen,,,,,,,,,,,,,,
,Screen_1,canvas.Screen,0_0_13_0,,skipped,14,29615,,,29615,,29615,2021-10-22T21:01:11.939Z,29672.1,1634936135,full,ni_sequenzen,NI_Sequenzen,,,,,,,,,,,,,,
,Screen_2,canvas.Screen,0_0_13_1,,skipped,14,29616,,,29615,,29616,2021-10-22T21:01:11.940Z,29672.1,1634936135,full,ni_sequenzen,NI_Sequenzen,,,,,,,,,,,,,,
,Screen_3,canvas.Screen,0_0_13_2,,skipped,14,29617,,,29615,,29617,2021-10-22T21:01:11.941Z,29672.1,1634936135,full,ni_sequenzen,NI_Sequenzen,,,,,,,,,,,,,,
,Screen_4,canvas.Screen,0_0_13_3,,skipped,14,29618,,,29615,,29618,2021-10-22T21:01:11.942Z,29672.1,1634936135,full,ni_sequenzen,NI_Sequenzen,,,,,,,,,,,,,,
,Sequence,flow.Sequence,0_0_13,,completion,14,29615,,,29615,,29618,2021-10-22T21:01:11.943Z,29672.1,1634936135,full,ni_sequenzen,NI_Sequenzen,,,,,,,,,,,,,,
,Screen_1,canvas.Screen,0_0_14_0,,skipped,15,29620,,,29620,,29620,2021-10-22T21:01:11.944Z,29672.1,1634936135,full,ni_sequenzen,NI_Sequenzen,,,,,,,,,,,,,,
,Screen_2,canvas.Screen,0_0_14_1,,skipped,15,29621,,,29620,,29621,2021-10-22T21:01:11.945Z,29672.1,1634936135,full,ni_sequenzen,NI_Sequenzen,,,,,,,,,,,,,,
,Screen_3,canvas.Screen,0_0_14_2,,skipped,15,29622,,,29620,,29622,2021-10-22T21:01:11.946Z,29672.1,1634936135,full,ni_sequenzen,NI_Sequenzen,,,,,,,,,,,,,,
,Screen_4,canvas.Screen,0_0_14_3,,skipped,15,29623,,,29620,,29623,2021-10-22T21:01:11.947Z,29672.1,1634936135,full,ni_sequenzen,NI_Sequenzen,,,,,,,,,,,,,,
,Sequence,flow.Sequence,0_0_14,,completion,15,29619,,,29620,,29624,2021-10-22T21:01:11.947Z,29672.1,1634936135,full,ni_sequenzen,NI_Sequenzen,,,,,,,,,,,,,,
,Screen_1,canvas.Screen,0_0_15_0,,skipped,16,29625,,,29625,,29625,2021-10-22T21:01:11.948Z,29672.1,1634936135,full,ni_sequenzen,NI_Sequenzen,,,,,,,,,,,,,,
,Screen_2,canvas.Screen,0_0_15_1,,skipped,16,29626,,,29625,,29626,2021-10-22T21:01:11.949Z,29672.1,1634936135,full,ni_sequenzen,NI_Sequenzen,,,,,,,,,,,,,,
,Screen_3,canvas.Screen,0_0_15_2,,skipped,16,29627,,,29625,,29627,2021-10-22T21:01:11.950Z,29672.1,1634936135,full,ni_sequenzen,NI_Sequenzen,,,,,,,,,,,,,,
,Screen_4,canvas.Screen,0_0_15_3,,skipped,16,29627,,,29625,,29628,2021-10-22T21:01:11.951Z,29672.1,1634936135,full,ni_sequenzen,NI_Sequenzen,,,,,,,,,,,,,,
,Sequence,flow.Sequence,0_0_15,,completion,16,29624,,,29625,,29628,2021-10-22T21:01:11.951Z,29672.1,1634936135,full,ni_sequenzen,NI_Sequenzen,,,,,,,,,,,,,,
,Screen_1,canvas.Screen,0_0_16_0,,skipped,17,29629,,,29629,,29629,2021-10-22T21:01:11.952Z,29672.1,1634936135,full,ni_sequenzen,NI_Sequenzen,,,,,,,,,,,,,,
,Screen_2,canvas.Screen,0_0_16_1,,skipped,17,29630,,,29629,,29630,2021-10-22T21:01:11.953Z,29672.1,1634936135,full,ni_sequenzen,NI_Sequenzen,,,,,,,,,,,,,,
,Screen_3,canvas.Screen,0_0_16_2,,skipped,17,29631,,,29629,,29631,2021-10-22T21:01:11.955Z,29672.1,1634936135,full,ni_sequenzen,NI_Sequenzen,,,,,,,,,,,,,,
,Screen_4,canvas.Screen,0_0_16_3,,skipped,17,29632,,,29629,,29632,2021-10-22T21:01:11.956Z,29672.1,1634936135,full,ni_sequenzen,NI_Sequenzen,,,,,,,,,,,,,,
,Sequence,flow.Sequence,0_0_16,,completion,17,29628,,,29629,,29632,2021-10-22T21:01:11.956Z,29672.1,1634936135,full,ni_sequenzen,NI_Sequenzen,,,,,,,,,,,,,,
,Screen_1,canvas.Screen,0_0_17_0,,skipped,18,29633,,,29633,,29633,2021-10-22T21:01:11.957Z,29672.1,1634936135,full,ni_sequenzen,NI_Sequenzen,,,,,,,,,,,,,,
,Screen_2,canvas.Screen,0_0_17_1,,skipped,18,29634,,,29633,,29634,2021-10-22T21:01:11.958Z,29672.1,1634936135,full,ni_sequenzen,NI_Sequenzen,,,,,,,,,,,,,,
,Screen_3,canvas.Screen,0_0_17_2,,skipped,18,29634,,,29633,,29634,2021-10-22T21:01:11.959Z,29672.1,1634936135,full,ni_sequenzen,NI_Sequenzen,,,,,,,,,,,,,,
,Screen_4,canvas.Screen,0_0_17_3,,skipped,18,29636,,,29633,,29636,2021-10-22T21:01:11.960Z,29672.1,1634936135,full,ni_sequenzen,NI_Sequenzen,,,,,,,,,,,,,,
,Sequence,flow.Sequence,0_0_17,,completion,18,29632,,,29633,,29636,2021-10-22T21:01:11.960Z,29672.1,1634936135,full,ni_sequenzen,NI_Sequenzen,,,,,,,,,,,,,,
,Screen_1,canvas.Screen,0_0_18_0,,skipped,19,29637,,,29637,,29637,2021-10-22T21:01:11.961Z,29672.1,1634936135,full,ni_sequenzen,NI_Sequenzen,,,,,,,,,,,,,,
,Screen_2,canvas.Screen,0_0_18_1,,skipped,19,29637,,,29637,,29637,2021-10-22T21:01:11.962Z,29672.1,1634936135,full,ni_sequenzen,NI_Sequenzen,,,,,,,,,,,,,,
,Screen_3,canvas.Screen,0_0_18_2,,skipped,19,29639,,,29637,,29639,2021-10-22T21:01:11.963Z,29672.1,1634936135,full,ni_sequenzen,NI_Sequenzen,,,,,,,,,,,,,,
,Screen_4,canvas.Screen,0_0_18_3,,skipped,19,29640,,,29637,,29640,2021-10-22T21:01:11.964Z,29672.1,1634936135,full,ni_sequenzen,NI_Sequenzen,,,,,,,,,,,,,,
,Sequence,flow.Sequence,0_0_18,,completion,19,29636,,,29637,,29640,2021-10-22T21:01:11.964Z,29672.1,1634936135,full,ni_sequenzen,NI_Sequenzen,,,,,,,,,,,,,,
,Screen_1,canvas.Screen,0_0_19_0,,skipped,20,29641,,,29641,,29641,2021-10-22T21:01:11.965Z,29672.1,1634936135,full,ni_sequenzen,NI_Sequenzen,,,,,,,,,,,,,,
,Screen_2,canvas.Screen,0_0_19_1,,skipped,20,29642,,,29641,,29642,2021-10-22T21:01:11.966Z,29672.1,1634936135,full,ni_sequenzen,NI_Sequenzen,,,,,,,,,,,,,,
,Screen_3,canvas.Screen,0_0_19_2,,skipped,20,29643,,,29641,,29643,2021-10-22T21:01:11.967Z,29672.1,1634936135,full,ni_sequenzen,NI_Sequenzen,,,,,,,,,,,,,,
,Screen_4,canvas.Screen,0_0_19_3,,skipped,20,29644,,,29641,,29644,2021-10-22T21:01:11.968Z,29672.1,1634936135,full,ni_sequenzen,NI_Sequenzen,,,,,,,,,,,,,,
,Sequence,flow.Sequence,0_0_19,,completion,20,29640,,,29641,,29644,2021-10-22T21:01:11.968Z,29672.1,1634936135,full,ni_sequenzen,NI_Sequenzen,,,,,,,,,,,,,,
,Instructions_I,flow.Loop,0_0,,completion,,1619,2084.14,2106.48,29641,27534.52,29644,2021-10-22T21:01:11.968Z,29672.1,1634936135,full,ni_sequenzen,NI_Sequenzen,,,,,,,,,,,,,,
,Move,canvas.Screen,0_1_0_0,left,response,,29655,29655.12,29672.1,32100,2427.9000000000015,32104,2021-10-22T21:01:14.428Z,32121.68,1634936135,full,ni_sequenzen,NI_Sequenzen,1,,,,,,,,,,,,,
,Move,canvas.Screen,0_1_0_1,left,response,,32109,32109.16,32121.68,32603,481.3199999999997,32608,2021-10-22T21:01:14.931Z,32622,1634936135,full,ni_sequenzen,NI_Sequenzen,2,,,,,,,,,,,,,
,Move,canvas.Screen,0_1_0_2,right,response,,32613,32613.16,32622,34355,1733,34360,2021-10-22T21:01:16.684Z,34371.82,1634936135,full,ni_sequenzen,NI_Sequenzen,3,,,,,,,,,,,,,
,Move,canvas.Screen,0_1_0_3,down,response,,34365,34365.02,34371.82,35707,1335.1800000000003,35712,2021-10-22T21:01:18.036Z,35721.54,1634936135,full,ni_sequenzen,NI_Sequenzen,4,,,,,,,,,,,,,
,Move,canvas.Screen,0_1_0_4,down,response,,35717,35717.24,35721.54,36235,513.4599999999991,36240,2021-10-22T21:01:18.564Z,36254.82,1634936135,full,ni_sequenzen,NI_Sequenzen,5,,,,,,,,,,,,,
,Move,canvas.Screen,0_1_0_5,down,response,,36244,36244.5,36254.82,36675,420.1800000000003,36679,2021-10-22T21:01:19.003Z,36688.24,1634936135,full,ni_sequenzen,NI_Sequenzen,6,,,,,,,,,,,,,
,Move,canvas.Screen,0_1_0_6,down,response,,36684,36683.88,36688.24,37035,346.76000000000204,37040,2021-10-22T21:01:19.364Z,37054.76,1634936135,full,ni_sequenzen,NI_Sequenzen,7,,,,,,,,,,,,,
,Move,canvas.Screen,0_1_0_7,right,response,,37045,37044.36,37054.76,37387,332.23999999999796,37390,2021-10-22T21:01:19.714Z,37404.76,1634936135,full,ni_sequenzen,NI_Sequenzen,8,,,,,,,,,,,,,
,Move,canvas.Screen,0_1_0_8,right,response,,37392,37392.82,37404.76,37691,286.23999999999796,37695,2021-10-22T21:01:20.019Z,37704.78,1634936135,full,ni_sequenzen,NI_Sequenzen,9,,,,,,,,,,,,,
,Move,canvas.Screen,0_1_0_9,right,response,,37701,37700.66,37704.78,37996,291.22000000000116,38000,2021-10-22T21:01:20.323Z,38004.74,1634936135,full,ni_sequenzen,NI_Sequenzen,10,,,,,,,,,,,,,
,Move,canvas.Screen,0_1_0_10,right,response,,38004,38004.28,38004.74,38299,294.26000000000204,38303,2021-10-22T21:01:20.627Z,38321.38,1634936135,full,ni_sequenzen,NI_Sequenzen,11,,,,,,,,,,,,,
,Move,canvas.Screen,0_1_0_11,down,response,,38306,38306.34,38321.38,38570,248.62000000000262,38575,2021-10-22T21:01:20.899Z,38588.06,1634936135,full,ni_sequenzen,NI_Sequenzen,12,,,,,,,,,,,,,
,Move,canvas.Screen,0_1_0_12,down,response,,38579,38579.08,38588.06,38819,230.94000000000233,38823,2021-10-22T21:01:21.147Z,38838.04,1634936135,full,ni_sequenzen,NI_Sequenzen,13,,,,,,,,,,,,,
,Move,canvas.Screen,0_1_0_13,down,response,,38827,38827.44,38838.04,39043,204.95999999999913,39045,2021-10-22T21:01:21.369Z,39054.76,1634936135,full,ni_sequenzen,NI_Sequenzen,14,,,,,,,,,,,,,
,Move,canvas.Screen,0_1_0_14,down,response,,39048,39047.96,39054.76,39315,260.23999999999796,39319,2021-10-22T21:01:21.643Z,39338.06,1634936135,full,ni_sequenzen,NI_Sequenzen,15,,,,,,,,,,,,,
,Move,canvas.Screen,0_1_0_15,left,response,,39323,39322.36,39338.06,39490,151.94000000000233,39493,2021-10-22T21:01:21.818Z,39504.76,1634936135,full,ni_sequenzen,NI_Sequenzen,16,,,,,,,,,,,,,
,Move,canvas.Screen,0_1_0_16,left,response,,39498,39498.46,39504.76,39690,185.23999999999796,39694,2021-10-22T21:01:22.019Z,39704.68,1634936135,full,ni_sequenzen,NI_Sequenzen,17,,,,,,,,,,,,,
,Move,canvas.Screen,0_1_0_17,left,response,,39701,39700.78,39704.68,39899,194.3199999999997,39904,2021-10-22T21:01:22.227Z,39921.34,1634936135,full,ni_sequenzen,NI_Sequenzen,18,,,,,,,,,,,,,
,Move,canvas.Screen,0_1_0_18,left,response,,39910,39910.56,39921.34,40106,184.6600000000035,40110,2021-10-22T21:01:22.434Z,40121.38,1634936135,full,ni_sequenzen,NI_Sequenzen,19,,,,,,,,,,,,,
,Move,canvas.Screen,0_1_0_19,down,response,,40116,40116.46,40121.38,40411,289.6200000000026,40416,2021-10-22T21:01:22.740Z,40438.1,1634936135,full,ni_sequenzen,NI_Sequenzen,20,,,,,,,,,,,,,
,Move,canvas.Screen,0_1_0_20,down,response,,40421,40421.72,40438.1,40619,180.90000000000146,40624,2021-10-22T21:01:22.948Z,40637.96,1634936135,full,ni_sequenzen,NI_Sequenzen,21,,,,,,,,,,,,,
,Move,canvas.Screen,0_1_0_21,down,response,,40630,40629.44,40637.96,40803,165.04000000000087,40806,2021-10-22T21:01:23.130Z,40821.28,1634936135,full,ni_sequenzen,NI_Sequenzen,22,,,,,,,,,,,,,
,Move,canvas.Screen,0_1_0_22,down,response,,40810,40809.98,40821.28,40987,165.72000000000116,40991,2021-10-22T21:01:23.314Z,41004.62,1634936135,full,ni_sequenzen,NI_Sequenzen,23,,,,,,,,,,,,,
,Move,canvas.Screen,0_1_0_23,right,response,,40995,40995.22,41004.62,41147,142.37999999999738,41149,2021-10-22T21:01:23.473Z,41154.6,1634936135,full,ni_sequenzen,NI_Sequenzen,24,,,,,,,,,,,,,
,Move,canvas.Screen,0_1_0_24,right,response,,41152,41152.18,41154.6,41355,200.40000000000146,41359,2021-10-22T21:01:23.683Z,41371.26,1634936135,full,ni_sequenzen,NI_Sequenzen,25,,,,,,,,,,,,,
,Move,canvas.Screen,0_1_0_25,right,response,,41365,41364.74,41371.26,41547,175.73999999999796,41551,2021-10-22T21:01:23.875Z,41571.24,1634936135,full,ni_sequenzen,NI_Sequenzen,26,,,,,,,,,,,,,
,Move,canvas.Screen,0_1_0_26,right,response,,41557,41556.86,41571.24,41723,151.76000000000204,41727,2021-10-22T21:01:24.050Z,41737.98,1634936135,full,ni_sequenzen,NI_Sequenzen,27,,,,,,,,,,,,,
,Move,canvas.Screen,0_1_0_27,down,response,,41731,41730.94,41737.98,41914,176.0199999999968,41917,2021-10-22T21:01:24.240Z,41921.24,1634936135,full,ni_sequenzen,NI_Sequenzen,28,,,,,,,,,,,,,
,Move,canvas.Screen,0_1_0_28,down,response,,41920,41920.14,41921.24,42091,169.76000000000204,42095,2021-10-22T21:01:24.419Z,42104.56,1634936135,full,ni_sequenzen,NI_Sequenzen,29,,,,,,,,,,,,,
,Move,canvas.Screen,0_1_0_29,down,response,,42098,42098.56,42104.56,42283,178.44000000000233,42286,2021-10-22T21:01:24.610Z,42321.22,1634936135,full,ni_sequenzen,NI_Sequenzen,30,,,,,,,,,,,,,
,Loop,flow.Loop,0_1_0,-999,completion,,29653,29655.12,29672.1,42283,12610.900000000001,42286,2021-10-22T21:01:24.610Z,42321.22,1634936135,full,ni_sequenzen,NI_Sequenzen,,,,,,,,,,,,,,
,Training_I,flow.Sequence,0_1,,completion,,29645,29655.12,29672.1,42283,12610.900000000001,42286,2021-10-22T21:01:24.610Z,42321.22,1634936135,full,ni_sequenzen,NI_Sequenzen,,,,,,,,,,,,,,
,Screen_1,canvas.Screen,0_2_0_0,cont,response,1,42313,42312.4,42321.22,49155,6833.779999999999,49160,2021-10-22T21:01:31.483Z,50370.9,1634936135,full,ni_sequenzen,NI_Sequenzen,,,,,,,,,,,,,,
,Screen_2,canvas.Screen,0_2_0_1,cont,response,1,50361,50361.52,50370.9,56644,6273.0999999999985,56649,2021-10-22T21:01:38.973Z,56655.78,1634936135,full,ni_sequenzen,NI_Sequenzen,,,,,,,,,,,,,,
,Screen_3,canvas.Screen,0_2_0_2,cont,response,1,56652,56652.04,56655.78,69039,12383.220000000001,69044,2021-10-22T21:01:51.368Z,69425.36,1634936135,full,ni_sequenzen,NI_Sequenzen,,,,,,,,,,,,,,
,Screen_4,canvas.Screen,0_2_0_3,cont,response,1,69418,69418.36,69425.36,76216,6790.639999999999,76221,2021-10-22T21:01:58.545Z,76226.68,1634936135,full,ni_sequenzen,NI_Sequenzen,,,,,,,,,,,,,,
,Screen_5,canvas.Screen,0_2_0_4,cont,response,1,76224,76224.06,76226.68,81457,5230.320000000007,81462,2021-10-22T21:02:03.785Z,81944.38,1634936135,full,ni_sequenzen,NI_Sequenzen,,,,,,,,,,,,,,
,Screen_6,canvas.Screen,0_2_0_5,cont,response,1,81930,81929.36,81944.38,88418,6473.619999999995,88423,2021-10-22T21:02:10.746Z,88628.72,1634936135,full,ni_sequenzen,NI_Sequenzen,,,,,,,,,,,,,,
,Sequence,flow.Sequence,0_2_0,,completion,1,42312,42312.4,42321.22,88418,46096.78,88423,2021-10-22T21:02:10.747Z,88628.72,1634936135,full,ni_sequenzen,NI_Sequenzen,,,,,,,,,,,,,,
,Screen_1,canvas.Screen,0_2_1_0,,skipped,2,88427,,,88427,,88427,2021-10-22T21:02:10.751Z,88628.72,1634936135,full,ni_sequenzen,NI_Sequenzen,,,,,,,,,,,,,,
,Screen_2,canvas.Screen,0_2_1_1,,skipped,2,88430,,,88427,,88430,2021-10-22T21:02:10.753Z,88628.72,1634936135,full,ni_sequenzen,NI_Sequenzen,,,,,,,,,,,,,,
,Screen_3,canvas.Screen,0_2_1_2,,skipped,2,88431,,,88427,,88431,2021-10-22T21:02:10.755Z,88628.72,1634936135,full,ni_sequenzen,NI_Sequenzen,,,,,,,,,,,,,,
,Screen_4,canvas.Screen,0_2_1_3,,skipped,2,88432,,,88427,,88433,2021-10-22T21:02:10.757Z,88628.72,1634936135,full,ni_sequenzen,NI_Sequenzen,,,,,,,,,,,,,,
,Screen_5,canvas.Screen,0_2_1_4,,skipped,2,88434,,,88427,,88434,2021-10-22T21:02:10.759Z,88628.72,1634936135,full,ni_sequenzen,NI_Sequenzen,,,,,,,,,,,,,,
,Screen_6,canvas.Screen,0_2_1_5,,skipped,2,88437,,,88427,,88437,2021-10-22T21:02:10.761Z,88628.72,1634936135,full,ni_sequenzen,NI_Sequenzen,,,,,,,,,,,,,,
,Sequence,flow.Sequence,0_2_1,,completion,2,88424,,,88427,,88437,2021-10-22T21:02:10.762Z,88628.72,1634936135,full,ni_sequenzen,NI_Sequenzen,,,,,,,,,,,,,,
,Screen_1,canvas.Screen,0_2_2_0,,skipped,3,88440,,,88440,,88440,2021-10-22T21:02:10.764Z,88628.72,1634936135,full,ni_sequenzen,NI_Sequenzen,,,,,,,,,,,,,,
,Screen_2,canvas.Screen,0_2_2_1,,skipped,3,88442,,,88440,,88442,2021-10-22T21:02:10.765Z,88628.72,1634936135,full,ni_sequenzen,NI_Sequenzen,,,,,,,,,,,,,,
,Screen_3,canvas.Screen,0_2_2_2,,skipped,3,88443,,,88440,,88443,2021-10-22T21:02:10.767Z,88628.72,1634936135,full,ni_sequenzen,NI_Sequenzen,,,,,,,,,,,,,,
,Screen_4,canvas.Screen,0_2_2_3,,skipped,3,88444,,,88440,,88444,2021-10-22T21:02:10.768Z,88628.72,1634936135,full,ni_sequenzen,NI_Sequenzen,,,,,,,,,,,,,,
,Screen_5,canvas.Screen,0_2_2_4,,skipped,3,88445,,,88440,,88445,2021-10-22T21:02:10.769Z,88628.72,1634936135,full,ni_sequenzen,NI_Sequenzen,,,,,,,,,,,,,,
,Screen_6,canvas.Screen,0_2_2_5,,skipped,3,88447,,,88440,,88447,2021-10-22T21:02:10.770Z,88628.72,1634936135,full,ni_sequenzen,NI_Sequenzen,,,,,,,,,,,,,,
,Sequence,flow.Sequence,0_2_2,,completion,3,88438,,,88440,,88447,2021-10-22T21:02:10.770Z,88628.72,1634936135,full,ni_sequenzen,NI_Sequenzen,,,,,,,,,,,,,,
,Screen_1,canvas.Screen,0_2_3_0,,skipped,4,88448,,,88448,,88448,2021-10-22T21:02:10.772Z,88628.72,1634936135,full,ni_sequenzen,NI_Sequenzen,,,,,,,,,,,,,,
,Screen_2,canvas.Screen,0_2_3_1,,skipped,4,88449,,,88448,,88449,2021-10-22T21:02:10.773Z,88628.72,1634936135,full,ni_sequenzen,NI_Sequenzen,,,,,,,,,,,,,,
,Screen_3,canvas.Screen,0_2_3_2,,skipped,4,88450,,,88448,,88450,2021-10-22T21:02:10.774Z,88628.72,1634936135,full,ni_sequenzen,NI_Sequenzen,,,,,,,,,,,,,,
,Screen_4,canvas.Screen,0_2_3_3,,skipped,4,88451,,,88448,,88451,2021-10-22T21:02:10.775Z,88628.72,1634936135,full,ni_sequenzen,NI_Sequenzen,,,,,,,,,,,,,,
,Screen_5,canvas.Screen,0_2_3_4,,skipped,4,88453,,,88448,,88453,2021-10-22T21:02:10.776Z,88628.72,1634936135,full,ni_sequenzen,NI_Sequenzen,,,,,,,,,,,,,,
,Screen_6,canvas.Screen,0_2_3_5,,skipped,4,88453,,,88448,,88454,2021-10-22T21:02:10.777Z,88628.72,1634936135,full,ni_sequenzen,NI_Sequenzen,,,,,,,,,,,,,,
,Sequence,flow.Sequence,0_2_3,,completion,4,88447,,,88448,,88454,2021-10-22T21:02:10.777Z,88628.72,1634936135,full,ni_sequenzen,NI_Sequenzen,,,,,,,,,,,,,,
,Screen_1,canvas.Screen,0_2_4_0,,skipped,5,88455,,,88455,,88455,2021-10-22T21:02:10.778Z,88628.72,1634936135,full,ni_sequenzen,NI_Sequenzen,,,,,,,,,,,,,,
,Screen_2,canvas.Screen,0_2_4_1,,skipped,5,88456,,,88455,,88456,2021-10-22T21:02:10.779Z,88628.72,1634936135,full,ni_sequenzen,NI_Sequenzen,,,,,,,,,,,,,,
,Screen_3,canvas.Screen,0_2_4_2,,skipped,5,88457,,,88455,,88457,2021-10-22T21:02:10.781Z,88628.72,1634936135,full,ni_sequenzen,NI_Sequenzen,,,,,,,,,,,,,,
,Screen_4,canvas.Screen,0_2_4_3,,skipped,5,88458,,,88455,,88458,2021-10-22T21:02:10.782Z,88628.72,1634936135,full,ni_sequenzen,NI_Sequenzen,,,,,,,,,,,,,,
,Screen_5,canvas.Screen,0_2_4_4,,skipped,5,88458,,,88455,,88458,2021-10-22T21:02:10.783Z,88628.72,1634936135,full,ni_sequenzen,NI_Sequenzen,,,,,,,,,,,,,,
,Screen_6,canvas.Screen,0_2_4_5,,skipped,5,88459,,,88455,,88459,2021-10-22T21:02:10.784Z,88628.72,1634936135,full,ni_sequenzen,NI_Sequenzen,,,,,,,,,,,,,,
,Sequence,flow.Sequence,0_2_4,,completion,5,88454,,,88455,,88459,2021-10-22T21:02:10.784Z,88628.72,1634936135,full,ni_sequenzen,NI_Sequenzen,,,,,,,,,,,,,,
,Screen_1,canvas.Screen,0_2_5_0,,skipped,6,88461,,,88461,,88461,2021-10-22T21:02:10.785Z,88628.72,1634936135,full,ni_sequenzen,NI_Sequenzen,,,,,,,,,,,,,,
,Screen_2,canvas.Screen,0_2_5_1,,skipped,6,88461,,,88461,,88462,2021-10-22T21:02:10.786Z,88628.72,1634936135,full,ni_sequenzen,NI_Sequenzen,,,,,,,,,,,,,,
,Screen_3,canvas.Screen,0_2_5_2,,skipped,6,88463,,,88461,,88463,2021-10-22T21:02:10.787Z,88628.72,1634936135,full,ni_sequenzen,NI_Sequenzen,,,,,,,,,,,,,,
,Screen_4,canvas.Screen,0_2_5_3,,skipped,6,88464,,,88461,,88464,2021-10-22T21:02:10.788Z,88628.72,1634936135,full,ni_sequenzen,NI_Sequenzen,,,,,,,,,,,,,,
,Screen_5,canvas.Screen,0_2_5_4,,skipped,6,88464,,,88461,,88465,2021-10-22T21:02:10.789Z,88628.72,1634936135,full,ni_sequenzen,NI_Sequenzen,,,,,,,,,,,,,,
,Screen_6,canvas.Screen,0_2_5_5,,skipped,6,88466,,,88461,,88466,2021-10-22T21:02:10.790Z,88628.72,1634936135,full,ni_sequenzen,NI_Sequenzen,,,,,,,,,,,,,,
,Sequence,flow.Sequence,0_2_5,,completion,6,88460,,,88461,,88466,2021-10-22T21:02:10.790Z,88628.72,1634936135,full,ni_sequenzen,NI_Sequenzen,,,,,,,,,,,,,,
,Screen_1,canvas.Screen,0_2_6_0,,skipped,7,88467,,,88467,,88467,2021-10-22T21:02:10.791Z,88628.72,1634936135,full,ni_sequenzen,NI_Sequenzen,,,,,,,,,,,,,,
,Screen_2,canvas.Screen,0_2_6_1,,skipped,7,88469,,,88467,,88469,2021-10-22T21:02:10.792Z,88628.72,1634936135,full,ni_sequenzen,NI_Sequenzen,,,,,,,,,,,,,,
,Screen_3,canvas.Screen,0_2_6_2,,skipped,7,88469,,,88467,,88469,2021-10-22T21:02:10.793Z,88628.72,1634936135,full,ni_sequenzen,NI_Sequenzen,,,,,,,,,,,,,,
,Screen_4,canvas.Screen,0_2_6_3,,skipped,7,88470,,,88467,,88470,2021-10-22T21:02:10.794Z,88628.72,1634936135,full,ni_sequenzen,NI_Sequenzen,,,,,,,,,,,,,,
,Screen_5,canvas.Screen,0_2_6_4,,skipped,7,88471,,,88467,,88471,2021-10-22T21:02:10.795Z,88628.72,1634936135,full,ni_sequenzen,NI_Sequenzen,,,,,,,,,,,,,,
,Screen_6,canvas.Screen,0_2_6_5,,skipped,7,88472,,,88467,,88472,2021-10-22T21:02:10.796Z,88628.72,1634936135,full,ni_sequenzen,NI_Sequenzen,,,,,,,,,,,,,,
,Sequence,flow.Sequence,0_2_6,,completion,7,88467,,,88467,,88472,2021-10-22T21:02:10.796Z,88628.72,1634936135,full,ni_sequenzen,NI_Sequenzen,,,,,,,,,,,,,,
,Screen_1,canvas.Screen,0_2_7_0,,skipped,8,88473,,,88473,,88473,2021-10-22T21:02:10.797Z,88628.72,1634936135,full,ni_sequenzen,NI_Sequenzen,,,,,,,,,,,,,,
,Screen_2,canvas.Screen,0_2_7_1,,skipped,8,88474,,,88473,,88474,2021-10-22T21:02:10.798Z,88628.72,1634936135,full,ni_sequenzen,NI_Sequenzen,,,,,,,,,,,,,,
,Screen_3,canvas.Screen,0_2_7_2,,skipped,8,88475,,,88473,,88475,2021-10-22T21:02:10.799Z,88628.72,1634936135,full,ni_sequenzen,NI_Sequenzen,,,,,,,,,,,,,,
,Screen_4,canvas.Screen,0_2_7_3,,skipped,8,88476,,,88473,,88476,2021-10-22T21:02:10.800Z,88628.72,1634936135,full,ni_sequenzen,NI_Sequenzen,,,,,,,,,,,,,,
,Screen_5,canvas.Screen,0_2_7_4,,skipped,8,88477,,,88473,,88477,2021-10-22T21:02:10.801Z,88628.72,1634936135,full,ni_sequenzen,NI_Sequenzen,,,,,,,,,,,,,,
,Screen_6,canvas.Screen,0_2_7_5,,skipped,8,88478,,,88473,,88478,2021-10-22T21:02:10.801Z,88628.72,1634936135,full,ni_sequenzen,NI_Sequenzen,,,,,,,,,,,,,,
,Sequence,flow.Sequence,0_2_7,,completion,8,88473,,,88473,,88478,2021-10-22T21:02:10.802Z,88628.72,1634936135,full,ni_sequenzen,NI_Sequenzen,,,,,,,,,,,,,,
,Screen_1,canvas.Screen,0_2_8_0,,skipped,9,88479,,,88479,,88479,2021-10-22T21:02:10.803Z,88628.72,1634936135,full,ni_sequenzen,NI_Sequenzen,,,,,,,,,,,,,,
,Screen_2,canvas.Screen,0_2_8_1,,skipped,9,88480,,,88479,,88480,2021-10-22T21:02:10.804Z,88628.72,1634936135,full,ni_sequenzen,NI_Sequenzen,,,,,,,,,,,,,,
,Screen_3,canvas.Screen,0_2_8_2,,skipped,9,88481,,,88479,,88481,2021-10-22T21:02:10.805Z,88628.72,1634936135,full,ni_sequenzen,NI_Sequenzen,,,,,,,,,,,,,,
,Screen_4,canvas.Screen,0_2_8_3,,skipped,9,88482,,,88479,,88482,2021-10-22T21:02:10.805Z,88628.72,1634936135,full,ni_sequenzen,NI_Sequenzen,,,,,,,,,,,,,,
,Screen_5,canvas.Screen,0_2_8_4,,skipped,9,88482,,,88479,,88482,2021-10-22T21:02:10.806Z,88628.72,1634936135,full,ni_sequenzen,NI_Sequenzen,,,,,,,,,,,,,,
,Screen_6,canvas.Screen,0_2_8_5,,skipped,9,88483,,,88479,,88483,2021-10-22T21:02:10.807Z,88628.72,1634936135,full,ni_sequenzen,NI_Sequenzen,,,,,,,,,,,,,,
,Sequence,flow.Sequence,0_2_8,,completion,9,88479,,,88479,,88484,2021-10-22T21:02:10.807Z,88628.72,1634936135,full,ni_sequenzen,NI_Sequenzen,,,,,,,,,,,,,,
,Screen_1,canvas.Screen,0_2_9_0,,skipped,10,88485,,,88485,,88485,2021-10-22T21:02:10.808Z,88628.72,1634936135,full,ni_sequenzen,NI_Sequenzen,,,,,,,,,,,,,,
,Screen_2,canvas.Screen,0_2_9_1,,skipped,10,88486,,,88485,,88486,2021-10-22T21:02:10.810Z,88628.72,1634936135,full,ni_sequenzen,NI_Sequenzen,,,,,,,,,,,,,,
,Screen_3,canvas.Screen,0_2_9_2,,skipped,10,88487,,,88485,,88487,2021-10-22T21:02:10.811Z,88628.72,1634936135,full,ni_sequenzen,NI_Sequenzen,,,,,,,,,,,,,,
,Screen_4,canvas.Screen,0_2_9_3,,skipped,10,88488,,,88485,,88488,2021-10-22T21:02:10.812Z,88628.72,1634936135,full,ni_sequenzen,NI_Sequenzen,,,,,,,,,,,,,,
,Screen_5,canvas.Screen,0_2_9_4,,skipped,10,88489,,,88485,,88489,2021-10-22T21:02:10.813Z,88628.72,1634936135,full,ni_sequenzen,NI_Sequenzen,,,,,,,,,,,,,,
,Screen_6,canvas.Screen,0_2_9_5,,skipped,10,88490,,,88485,,88490,2021-10-22T21:02:10.814Z,88628.72,1634936135,full,ni_sequenzen,NI_Sequenzen,,,,,,,,,,,,,,
,Sequence,flow.Sequence,0_2_9,,completion,10,88484,,,88485,,88490,2021-10-22T21:02:10.814Z,88628.72,1634936135,full,ni_sequenzen,NI_Sequenzen,,,,,,,,,,,,,,
,Screen_1,canvas.Screen,0_2_10_0,,skipped,11,88491,,,88491,,88491,2021-10-22T21:02:10.815Z,88628.72,1634936135,full,ni_sequenzen,NI_Sequenzen,,,,,,,,,,,,,,
,Screen_2,canvas.Screen,0_2_10_1,,skipped,11,88492,,,88491,,88492,2021-10-22T21:02:10.816Z,88628.72,1634936135,full,ni_sequenzen,NI_Sequenzen,,,,,,,,,,,,,,
,Screen_3,canvas.Screen,0_2_10_2,,skipped,11,88493,,,88491,,88493,2021-10-22T21:02:10.817Z,88628.72,1634936135,full,ni_sequenzen,NI_Sequenzen,,,,,,,,,,,,,,
,Screen_4,canvas.Screen,0_2_10_3,,skipped,11,88494,,,88491,,88494,2021-10-22T21:02:10.817Z,88628.72,1634936135,full,ni_sequenzen,NI_Sequenzen,,,,,,,,,,,,,,
,Screen_5,canvas.Screen,0_2_10_4,,skipped,11,88495,,,88491,,88495,2021-10-22T21:02:10.818Z,88628.72,1634936135,full,ni_sequenzen,NI_Sequenzen,,,,,,,,,,,,,,
,Screen_6,canvas.Screen,0_2_10_5,,skipped,11,88496,,,88491,,88496,2021-10-22T21:02:10.819Z,88628.72,1634936135,full,ni_sequenzen,NI_Sequenzen,,,,,,,,,,,,,,
,Sequence,flow.Sequence,0_2_10,,completion,11,88491,,,88491,,88496,2021-10-22T21:02:10.819Z,88628.72,1634936135,full,ni_sequenzen,NI_Sequenzen,,,,,,,,,,,,,,
,Screen_1,canvas.Screen,0_2_11_0,,skipped,12,88497,,,88497,,88497,2021-10-22T21:02:10.821Z,88628.72,1634936135,full,ni_sequenzen,NI_Sequenzen,,,,,,,,,,,,,,
,Screen_2,canvas.Screen,0_2_11_1,,skipped,12,88498,,,88497,,88498,2021-10-22T21:02:10.822Z,88628.72,1634936135,full,ni_sequenzen,NI_Sequenzen,,,,,,,,,,,,,,
,Screen_3,canvas.Screen,0_2_11_2,,skipped,12,88499,,,88497,,88499,2021-10-22T21:02:10.823Z,88628.72,1634936135,full,ni_sequenzen,NI_Sequenzen,,,,,,,,,,,,,,
,Screen_4,canvas.Screen,0_2_11_3,,skipped,12,88500,,,88497,,88500,2021-10-22T21:02:10.824Z,88628.72,1634936135,full,ni_sequenzen,NI_Sequenzen,,,,,,,,,,,,,,
,Screen_5,canvas.Screen,0_2_11_4,,skipped,12,88501,,,88497,,88501,2021-10-22T21:02:10.825Z,88628.72,1634936135,full,ni_sequenzen,NI_Sequenzen,,,,,,,,,,,,,,
,Screen_6,canvas.Screen,0_2_11_5,,skipped,12,88501,,,88497,,88502,2021-10-22T21:02:10.826Z,88628.72,1634936135,full,ni_sequenzen,NI_Sequenzen,,,,,,,,,,,,,,
,Sequence,flow.Sequence,0_2_11,,completion,12,88496,,,88497,,88502,2021-10-22T21:02:10.826Z,88628.72,1634936135,full,ni_sequenzen,NI_Sequenzen,,,,,,,,,,,,,,
,Screen_1,canvas.Screen,0_2_12_0,,skipped,13,88503,,,88503,,88503,2021-10-22T21:02:10.827Z,88628.72,1634936135,full,ni_sequenzen,NI_Sequenzen,,,,,,,,,,,,,,
,Screen_2,canvas.Screen,0_2_12_1,,skipped,13,88503,,,88503,,88503,2021-10-22T21:02:10.828Z,88628.72,1634936135,full,ni_sequenzen,NI_Sequenzen,,,,,,,,,,,,,,
,Screen_3,canvas.Screen,0_2_12_2,,skipped,13,88504,,,88503,,88504,2021-10-22T21:02:10.829Z,88628.72,1634936135,full,ni_sequenzen,NI_Sequenzen,,,,,,,,,,,,,,
,Screen_4,canvas.Screen,0_2_12_3,,skipped,13,88505,,,88503,,88505,2021-10-22T21:02:10.830Z,88628.72,1634936135,full,ni_sequenzen,NI_Sequenzen,,,,,,,,,,,,,,
,Screen_5,canvas.Screen,0_2_12_4,,skipped,13,88506,,,88503,,88506,2021-10-22T21:02:10.830Z,88628.72,1634936135,full,ni_sequenzen,NI_Sequenzen,,,,,,,,,,,,,,
,Screen_6,canvas.Screen,0_2_12_5,,skipped,13,88507,,,88503,,88507,2021-10-22T21:02:10.831Z,88628.72,1634936135,full,ni_sequenzen,NI_Sequenzen,,,,,,,,,,,,,,
,Sequence,flow.Sequence,0_2_12,,completion,13,88502,,,88503,,88507,2021-10-22T21:02:10.831Z,88628.72,1634936135,full,ni_sequenzen,NI_Sequenzen,,,,,,,,,,,,,,
,Screen_1,canvas.Screen,0_2_13_0,,skipped,14,88508,,,88508,,88508,2021-10-22T21:02:10.832Z,88628.72,1634936135,full,ni_sequenzen,NI_Sequenzen,,,,,,,,,,,,,,
,Screen_2,canvas.Screen,0_2_13_1,,skipped,14,88509,,,88508,,88509,2021-10-22T21:02:10.832Z,88628.72,1634936135,full,ni_sequenzen,NI_Sequenzen,,,,,,,,,,,,,,
,Screen_3,canvas.Screen,0_2_13_2,,skipped,14,88509,,,88508,,88509,2021-10-22T21:02:10.834Z,88628.72,1634936135,full,ni_sequenzen,NI_Sequenzen,,,,,,,,,,,,,,
,Screen_4,canvas.Screen,0_2_13_3,,skipped,14,88510,,,88508,,88510,2021-10-22T21:02:10.835Z,88628.72,1634936135,full,ni_sequenzen,NI_Sequenzen,,,,,,,,,,,,,,
,Screen_5,canvas.Screen,0_2_13_4,,skipped,14,88511,,,88508,,88511,2021-10-22T21:02:10.835Z,88628.72,1634936135,full,ni_sequenzen,NI_Sequenzen,,,,,,,,,,,,,,
,Screen_6,canvas.Screen,0_2_13_5,,skipped,14,88512,,,88508,,88512,2021-10-22T21:02:10.836Z,88628.72,1634936135,full,ni_sequenzen,NI_Sequenzen,,,,,,,,,,,,,,
,Sequence,flow.Sequence,0_2_13,,completion,14,88507,,,88508,,88512,2021-10-22T21:02:10.836Z,88628.72,1634936135,full,ni_sequenzen,NI_Sequenzen,,,,,,,,,,,,,,
,Screen_1,canvas.Screen,0_2_14_0,,skipped,15,88513,,,88513,,88513,2021-10-22T21:02:10.837Z,88628.72,1634936135,full,ni_sequenzen,NI_Sequenzen,,,,,,,,,,,,,,
,Screen_2,canvas.Screen,0_2_14_1,,skipped,15,88514,,,88513,,88514,2021-10-22T21:02:10.838Z,88628.72,1634936135,full,ni_sequenzen,NI_Sequenzen,,,,,,,,,,,,,,
,Screen_3,canvas.Screen,0_2_14_2,,skipped,15,88516,,,88513,,88516,2021-10-22T21:02:10.839Z,88628.72,1634936135,full,ni_sequenzen,NI_Sequenzen,,,,,,,,,,,,,,
,Screen_4,canvas.Screen,0_2_14_3,,skipped,15,88516,,,88513,,88516,2021-10-22T21:02:10.840Z,88628.72,1634936135,full,ni_sequenzen,NI_Sequenzen,,,,,,,,,,,,,,
,Screen_5,canvas.Screen,0_2_14_4,,skipped,15,88517,,,88513,,88517,2021-10-22T21:02:10.841Z,88628.72,1634936135,full,ni_sequenzen,NI_Sequenzen,,,,,,,,,,,,,,
,Screen_6,canvas.Screen,0_2_14_5,,skipped,15,88518,,,88513,,88518,2021-10-22T21:02:10.842Z,88628.72,1634936135,full,ni_sequenzen,NI_Sequenzen,,,,,,,,,,,,,,
,Sequence,flow.Sequence,0_2_14,,completion,15,88513,,,88513,,88518,2021-10-22T21:02:10.842Z,88628.72,1634936135,full,ni_sequenzen,NI_Sequenzen,,,,,,,,,,,,,,
,Screen_1,canvas.Screen,0_2_15_0,,skipped,16,88519,,,88519,,88519,2021-10-22T21:02:10.843Z,88628.72,1634936135,full,ni_sequenzen,NI_Sequenzen,,,,,,,,,,,,,,
,Screen_2,canvas.Screen,0_2_15_1,,skipped,16,88520,,,88519,,88520,2021-10-22T21:02:10.844Z,88628.72,1634936135,full,ni_sequenzen,NI_Sequenzen,,,,,,,,,,,,,,
,Screen_3,canvas.Screen,0_2_15_2,,skipped,16,88521,,,88519,,88521,2021-10-22T21:02:10.845Z,88628.72,1634936135,full,ni_sequenzen,NI_Sequenzen,,,,,,,,,,,,,,
,Screen_4,canvas.Screen,0_2_15_3,,skipped,16,88522,,,88519,,88522,2021-10-22T21:02:10.846Z,88628.72,1634936135,full,ni_sequenzen,NI_Sequenzen,,,,,,,,,,,,,,
,Screen_5,canvas.Screen,0_2_15_4,,skipped,16,88523,,,88519,,88523,2021-10-22T21:02:10.847Z,88628.72,1634936135,full,ni_sequenzen,NI_Sequenzen,,,,,,,,,,,,,,
,Screen_6,canvas.Screen,0_2_15_5,,skipped,16,88523,,,88519,,88523,2021-10-22T21:02:10.847Z,88628.72,1634936135,full,ni_sequenzen,NI_Sequenzen,,,,,,,,,,,,,,
,Sequence,flow.Sequence,0_2_15,,completion,16,88519,,,88519,,88523,2021-10-22T21:02:10.848Z,88628.72,1634936135,full,ni_sequenzen,NI_Sequenzen,,,,,,,,,,,,,,
,Screen_1,canvas.Screen,0_2_16_0,,skipped,17,88524,,,88524,,88524,2021-10-22T21:02:10.849Z,88628.72,1634936135,full,ni_sequenzen,NI_Sequenzen,,,,,,,,,,,,,,
,Screen_2,canvas.Screen,0_2_16_1,,skipped,17,88525,,,88524,,88525,2021-10-22T21:02:10.849Z,88628.72,1634936135,full,ni_sequenzen,NI_Sequenzen,,,,,,,,,,,,,,
,Screen_3,canvas.Screen,0_2_16_2,,skipped,17,88526,,,88524,,88526,2021-10-22T21:02:10.850Z,88628.72,1634936135,full,ni_sequenzen,NI_Sequenzen,,,,,,,,,,,,,,
,Screen_4,canvas.Screen,0_2_16_3,,skipped,17,88527,,,88524,,88527,2021-10-22T21:02:10.851Z,88628.72,1634936135,full,ni_sequenzen,NI_Sequenzen,,,,,,,,,,,,,,
,Screen_5,canvas.Screen,0_2_16_4,,skipped,17,88527,,,88524,,88527,2021-10-22T21:02:10.852Z,88628.72,1634936135,full,ni_sequenzen,NI_Sequenzen,,,,,,,,,,,,,,
,Screen_6,canvas.Screen,0_2_16_5,,skipped,17,88528,,,88524,,88528,2021-10-22T21:02:10.853Z,88628.72,1634936135,full,ni_sequenzen,NI_Sequenzen,,,,,,,,,,,,,,
,Sequence,flow.Sequence,0_2_16,,completion,17,88523,,,88524,,88528,2021-10-22T21:02:10.853Z,88628.72,1634936135,full,ni_sequenzen,NI_Sequenzen,,,,,,,,,,,,,,
,Screen_1,canvas.Screen,0_2_17_0,,skipped,18,88529,,,88529,,88529,2021-10-22T21:02:10.854Z,88628.72,1634936135,full,ni_sequenzen,NI_Sequenzen,,,,,,,,,,,,,,
,Screen_2,canvas.Screen,0_2_17_1,,skipped,18,88530,,,88529,,88530,2021-10-22T21:02:10.854Z,88628.72,1634936135,full,ni_sequenzen,NI_Sequenzen,,,,,,,,,,,,,,
,Screen_3,canvas.Screen,0_2_17_2,,skipped,18,88532,,,88529,,88532,2021-10-22T21:02:10.855Z,88628.72,1634936135,full,ni_sequenzen,NI_Sequenzen,,,,,,,,,,,,,,
,Screen_4,canvas.Screen,0_2_17_3,,skipped,18,88532,,,88529,,88532,2021-10-22T21:02:10.856Z,88628.72,1634936135,full,ni_sequenzen,NI_Sequenzen,,,,,,,,,,,,,,
,Screen_5,canvas.Screen,0_2_17_4,,skipped,18,88532,,,88529,,88532,2021-10-22T21:02:10.857Z,88628.72,1634936135,full,ni_sequenzen,NI_Sequenzen,,,,,,,,,,,,,,
,Screen_6,canvas.Screen,0_2_17_5,,skipped,18,88534,,,88529,,88534,2021-10-22T21:02:10.858Z,88628.72,1634936135,full,ni_sequenzen,NI_Sequenzen,,,,,,,,,,,,,,
,Sequence,flow.Sequence,0_2_17,,completion,18,88529,,,88529,,88534,2021-10-22T21:02:10.858Z,88628.72,1634936135,full,ni_sequenzen,NI_Sequenzen,,,,,,,,,,,,,,
,Screen_1,canvas.Screen,0_2_18_0,,skipped,19,88535,,,88535,,88535,2021-10-22T21:02:10.859Z,88628.72,1634936135,full,ni_sequenzen,NI_Sequenzen,,,,,,,,,,,,,,
,Screen_2,canvas.Screen,0_2_18_1,,skipped,19,88536,,,88535,,88536,2021-10-22T21:02:10.860Z,88628.72,1634936135,full,ni_sequenzen,NI_Sequenzen,,,,,,,,,,,,,,
,Screen_3,canvas.Screen,0_2_18_2,,skipped,19,88537,,,88535,,88537,2021-10-22T21:02:10.860Z,88628.72,1634936135,full,ni_sequenzen,NI_Sequenzen,,,,,,,,,,,,,,
,Screen_4,canvas.Screen,0_2_18_3,,skipped,19,88537,,,88535,,88537,2021-10-22T21:02:10.861Z,88628.72,1634936135,full,ni_sequenzen,NI_Sequenzen,,,,,,,,,,,,,,
,Screen_5,canvas.Screen,0_2_18_4,,skipped,19,88539,,,88535,,88539,2021-10-22T21:02:10.862Z,88628.72,1634936135,full,ni_sequenzen,NI_Sequenzen,,,,,,,,,,,,,,
,Screen_6,canvas.Screen,0_2_18_5,,skipped,19,88539,,,88535,,88539,2021-10-22T21:02:10.863Z,88628.72,1634936135,full,ni_sequenzen,NI_Sequenzen,,,,,,,,,,,,,,
,Sequence,flow.Sequence,0_2_18,,completion,19,88534,,,88535,,88540,2021-10-22T21:02:10.863Z,88628.72,1634936135,full,ni_sequenzen,NI_Sequenzen,,,,,,,,,,,,,,
,Screen_1,canvas.Screen,0_2_19_0,,skipped,20,88541,,,88541,,88541,2021-10-22T21:02:10.864Z,88628.72,1634936135,full,ni_sequenzen,NI_Sequenzen,,,,,,,,,,,,,,
,Screen_2,canvas.Screen,0_2_19_1,,skipped,20,88541,,,88541,,88541,2021-10-22T21:02:10.865Z,88628.72,1634936135,full,ni_sequenzen,NI_Sequenzen,,,,,,,,,,,,,,
,Screen_3,canvas.Screen,0_2_19_2,,skipped,20,88542,,,88541,,88542,2021-10-22T21:02:10.866Z,88628.72,1634936135,full,ni_sequenzen,NI_Sequenzen,,,,,,,,,,,,,,
,Screen_4,canvas.Screen,0_2_19_3,,skipped,20,88543,,,88541,,88543,2021-10-22T21:02:10.867Z,88628.72,1634936135,full,ni_sequenzen,NI_Sequenzen,,,,,,,,,,,,,,
,Screen_5,canvas.Screen,0_2_19_4,,skipped,20,88544,,,88541,,88544,2021-10-22T21:02:10.868Z,88628.72,1634936135,full,ni_sequenzen,NI_Sequenzen,,,,,,,,,,,,,,
,Screen_6,canvas.Screen,0_2_19_5,,skipped,20,88545,,,88541,,88545,2021-10-22T21:02:10.868Z,88628.72,1634936135,full,ni_sequenzen,NI_Sequenzen,,,,,,,,,,,,,,
,Sequence,flow.Sequence,0_2_19,,completion,20,88540,,,88541,,88545,2021-10-22T21:02:10.869Z,88628.72,1634936135,full,ni_sequenzen,NI_Sequenzen,,,,,,,,,,,,,,
,Screen_1,canvas.Screen,0_2_20_0,,skipped,21,88546,,,88546,,88546,2021-10-22T21:02:10.870Z,88628.72,1634936135,full,ni_sequenzen,NI_Sequenzen,,,,,,,,,,,,,,
,Screen_2,canvas.Screen,0_2_20_1,,skipped,21,88547,,,88546,,88547,2021-10-22T21:02:10.870Z,88628.72,1634936135,full,ni_sequenzen,NI_Sequenzen,,,,,,,,,,,,,,
,Screen_3,canvas.Screen,0_2_20_2,,skipped,21,88548,,,88546,,88548,2021-10-22T21:02:10.871Z,88628.72,1634936135,full,ni_sequenzen,NI_Sequenzen,,,,,,,,,,,,,,
,Screen_4,canvas.Screen,0_2_20_3,,skipped,21,88548,,,88546,,88548,2021-10-22T21:02:10.872Z,88628.72,1634936135,full,ni_sequenzen,NI_Sequenzen,,,,,,,,,,,,,,
,Screen_5,canvas.Screen,0_2_20_4,,skipped,21,88549,,,88546,,88549,2021-10-22T21:02:10.873Z,88628.72,1634936135,full,ni_sequenzen,NI_Sequenzen,,,,,,,,,,,,,,
,Screen_6,canvas.Screen,0_2_20_5,,skipped,21,88550,,,88546,,88550,2021-10-22T21:02:10.874Z,88628.72,1634936135,full,ni_sequenzen,NI_Sequenzen,,,,,,,,,,,,,,
,Sequence,flow.Sequence,0_2_20,,completion,21,88545,,,88546,,88550,2021-10-22T21:02:10.874Z,88628.72,1634936135,full,ni_sequenzen,NI_Sequenzen,,,,,,,,,,,,,,
,Screen_1,canvas.Screen,0_2_21_0,,skipped,22,88551,,,88551,,88551,2021-10-22T21:02:10.875Z,88628.72,1634936135,full,ni_sequenzen,NI_Sequenzen,,,,,,,,,,,,,,
,Screen_2,canvas.Screen,0_2_21_1,,skipped,22,88552,,,88551,,88552,2021-10-22T21:02:10.876Z,88628.72,1634936135,full,ni_sequenzen,NI_Sequenzen,,,,,,,,,,,,,,
,Screen_3,canvas.Screen,0_2_21_2,,skipped,22,88553,,,88551,,88553,2021-10-22T21:02:10.876Z,88628.72,1634936135,full,ni_sequenzen,NI_Sequenzen,,,,,,,,,,,,,,
,Screen_4,canvas.Screen,0_2_21_3,,skipped,22,88554,,,88551,,88554,2021-10-22T21:02:10.877Z,88628.72,1634936135,full,ni_sequenzen,NI_Sequenzen,,,,,,,,,,,,,,
,Screen_5,canvas.Screen,0_2_21_4,,skipped,22,88554,,,88551,,88554,2021-10-22T21:02:10.878Z,88628.72,1634936135,full,ni_sequenzen,NI_Sequenzen,,,,,,,,,,,,,,
,Screen_6,canvas.Screen,0_2_21_5,,skipped,22,88555,,,88551,,88555,2021-10-22T21:02:10.879Z,88628.72,1634936135,full,ni_sequenzen,NI_Sequenzen,,,,,,,,,,,,,,
,Sequence,flow.Sequence,0_2_21,,completion,22,88550,,,88551,,88555,2021-10-22T21:02:10.879Z,88628.72,1634936135,full,ni_sequenzen,NI_Sequenzen,,,,,,,,,,,,,,
,Screen_1,canvas.Screen,0_2_22_0,,skipped,23,88557,,,88557,,88557,2021-10-22T21:02:10.880Z,88628.72,1634936135,full,ni_sequenzen,NI_Sequenzen,,,,,,,,,,,,,,
,Screen_2,canvas.Screen,0_2_22_1,,skipped,23,88558,,,88557,,88558,2021-10-22T21:02:10.881Z,88628.72,1634936135,full,ni_sequenzen,NI_Sequenzen,,,,,,,,,,,,,,
,Screen_3,canvas.Screen,0_2_22_2,,skipped,23,88559,,,88557,,88559,2021-10-22T21:02:10.882Z,88628.72,1634936135,full,ni_sequenzen,NI_Sequenzen,,,,,,,,,,,,,,
,Screen_4,canvas.Screen,0_2_22_3,,skipped,23,88559,,,88557,,88559,2021-10-22T21:02:10.883Z,88628.72,1634936135,full,ni_sequenzen,NI_Sequenzen,,,,,,,,,,,,,,
,Screen_5,canvas.Screen,0_2_22_4,,skipped,23,88560,,,88557,,88560,2021-10-22T21:02:10.884Z,88628.72,1634936135,full,ni_sequenzen,NI_Sequenzen,,,,,,,,,,,,,,
,Screen_6,canvas.Screen,0_2_22_5,,skipped,23,88561,,,88557,,88561,2021-10-22T21:02:10.885Z,88628.72,1634936135,full,ni_sequenzen,NI_Sequenzen,,,,,,,,,,,,,,
,Sequence,flow.Sequence,0_2_22,,completion,23,88556,,,88557,,88561,2021-10-22T21:02:10.885Z,88628.72,1634936135,full,ni_sequenzen,NI_Sequenzen,,,,,,,,,,,,,,
,Screen_1,canvas.Screen,0_2_23_0,,skipped,24,88562,,,88562,,88562,2021-10-22T21:02:10.886Z,88628.72,1634936135,full,ni_sequenzen,NI_Sequenzen,,,,,,,,,,,,,,
,Screen_2,canvas.Screen,0_2_23_1,,skipped,24,88563,,,88562,,88563,2021-10-22T21:02:10.886Z,88628.72,1634936135,full,ni_sequenzen,NI_Sequenzen,,,,,,,,,,,,,,
,Screen_3,canvas.Screen,0_2_23_2,,skipped,24,88564,,,88562,,88565,2021-10-22T21:02:10.889Z,88628.72,1634936135,full,ni_sequenzen,NI_Sequenzen,,,,,,,,,,,,,,
,Screen_4,canvas.Screen,0_2_23_3,,skipped,24,88565,,,88562,,88565,2021-10-22T21:02:10.890Z,88628.72,1634936135,full,ni_sequenzen,NI_Sequenzen,,,,,,,,,,,,,,
,Screen_5,canvas.Screen,0_2_23_4,,skipped,24,88566,,,88562,,88566,2021-10-22T21:02:10.891Z,88628.72,1634936135,full,ni_sequenzen,NI_Sequenzen,,,,,,,,,,,,,,
,Screen_6,canvas.Screen,0_2_23_5,,skipped,24,88567,,,88562,,88567,2021-10-22T21:02:10.891Z,88628.72,1634936135,full,ni_sequenzen,NI_Sequenzen,,,,,,,,,,,,,,
,Sequence,flow.Sequence,0_2_23,,completion,24,88562,,,88562,,88567,2021-10-22T21:02:10.891Z,88628.72,1634936135,full,ni_sequenzen,NI_Sequenzen,,,,,,,,,,,,,,
,Screen_1,canvas.Screen,0_2_24_0,,skipped,25,88568,,,88568,,88568,2021-10-22T21:02:10.892Z,88628.72,1634936135,full,ni_sequenzen,NI_Sequenzen,,,,,,,,,,,,,,
,Screen_2,canvas.Screen,0_2_24_1,,skipped,25,88569,,,88568,,88569,2021-10-22T21:02:10.893Z,88628.72,1634936135,full,ni_sequenzen,NI_Sequenzen,,,,,,,,,,,,,,
,Screen_3,canvas.Screen,0_2_24_2,,skipped,25,88570,,,88568,,88570,2021-10-22T21:02:10.894Z,88628.72,1634936135,full,ni_sequenzen,NI_Sequenzen,,,,,,,,,,,,,,
,Screen_4,canvas.Screen,0_2_24_3,,skipped,25,88571,,,88568,,88571,2021-10-22T21:02:10.895Z,88628.72,1634936135,full,ni_sequenzen,NI_Sequenzen,,,,,,,,,,,,,,
,Screen_5,canvas.Screen,0_2_24_4,,skipped,25,88571,,,88568,,88571,2021-10-22T21:02:10.895Z,88628.72,1634936135,full,ni_sequenzen,NI_Sequenzen,,,,,,,,,,,,,,
,Screen_6,canvas.Screen,0_2_24_5,,skipped,25,88572,,,88568,,88572,2021-10-22T21:02:10.896Z,88628.72,1634936135,full,ni_sequenzen,NI_Sequenzen,,,,,,,,,,,,,,
,Sequence,flow.Sequence,0_2_24,,completion,25,88567,,,88568,,88572,2021-10-22T21:02:10.896Z,88628.72,1634936135,full,ni_sequenzen,NI_Sequenzen,,,,,,,,,,,,,,
,Screen_1,canvas.Screen,0_2_25_0,,skipped,26,88573,,,88573,,88573,2021-10-22T21:02:10.897Z,88628.72,1634936135,full,ni_sequenzen,NI_Sequenzen,,,,,,,,,,,,,,
,Screen_2,canvas.Screen,0_2_25_1,,skipped,26,88574,,,88573,,88574,2021-10-22T21:02:10.898Z,88628.72,1634936135,full,ni_sequenzen,NI_Sequenzen,,,,,,,,,,,,,,
,Screen_3,canvas.Screen,0_2_25_2,,skipped,26,88575,,,88573,,88575,2021-10-22T21:02:10.898Z,88628.72,1634936135,full,ni_sequenzen,NI_Sequenzen,,,,,,,,,,,,,,
,Screen_4,canvas.Screen,0_2_25_3,,skipped,26,88576,,,88573,,88576,2021-10-22T21:02:10.899Z,88628.72,1634936135,full,ni_sequenzen,NI_Sequenzen,,,,,,,,,,,,,,
,Screen_5,canvas.Screen,0_2_25_4,,skipped,26,88576,,,88573,,88577,2021-10-22T21:02:10.900Z,88628.72,1634936135,full,ni_sequenzen,NI_Sequenzen,,,,,,,,,,,,,,
,Screen_6,canvas.Screen,0_2_25_5,,skipped,26,88577,,,88573,,88577,2021-10-22T21:02:10.901Z,88628.72,1634936135,full,ni_sequenzen,NI_Sequenzen,,,,,,,,,,,,,,
,Sequence,flow.Sequence,0_2_25,,completion,26,88572,,,88573,,88577,2021-10-22T21:02:10.901Z,88628.72,1634936135,full,ni_sequenzen,NI_Sequenzen,,,,,,,,,,,,,,
,Screen_1,canvas.Screen,0_2_26_0,,skipped,27,88578,,,88578,,88578,2021-10-22T21:02:10.903Z,88628.72,1634936135,full,ni_sequenzen,NI_Sequenzen,,,,,,,,,,,,,,
,Screen_2,canvas.Screen,0_2_26_1,,skipped,27,88579,,,88578,,88579,2021-10-22T21:02:10.904Z,88628.72,1634936135,full,ni_sequenzen,NI_Sequenzen,,,,,,,,,,,,,,
,Screen_3,canvas.Screen,0_2_26_2,,skipped,27,88580,,,88578,,88580,2021-10-22T21:02:10.904Z,88628.72,1634936135,full,ni_sequenzen,NI_Sequenzen,,,,,,,,,,,,,,
,Screen_4,canvas.Screen,0_2_26_3,,skipped,27,88582,,,88578,,88582,2021-10-22T21:02:10.905Z,88628.72,1634936135,full,ni_sequenzen,NI_Sequenzen,,,,,,,,,,,,,,
,Screen_5,canvas.Screen,0_2_26_4,,skipped,27,88582,,,88578,,88582,2021-10-22T21:02:10.906Z,88628.72,1634936135,full,ni_sequenzen,NI_Sequenzen,,,,,,,,,,,,,,
,Screen_6,canvas.Screen,0_2_26_5,,skipped,27,88583,,,88578,,88583,2021-10-22T21:02:10.907Z,88628.72,1634936135,full,ni_sequenzen,NI_Sequenzen,,,,,,,,,,,,,,
,Sequence,flow.Sequence,0_2_26,,completion,27,88578,,,88578,,88583,2021-10-22T21:02:10.907Z,88628.72,1634936135,full,ni_sequenzen,NI_Sequenzen,,,,,,,,,,,,,,
,Screen_1,canvas.Screen,0_2_27_0,,skipped,28,88584,,,88584,,88584,2021-10-22T21:02:10.908Z,88628.72,1634936135,full,ni_sequenzen,NI_Sequenzen,,,,,,,,,,,,,,
,Screen_2,canvas.Screen,0_2_27_1,,skipped,28,88585,,,88584,,88585,2021-10-22T21:02:10.909Z,88628.72,1634936135,full,ni_sequenzen,NI_Sequenzen,,,,,,,,,,,,,,
,Screen_3,canvas.Screen,0_2_27_2,,skipped,28,88585,,,88584,,88585,2021-10-22T21:02:10.910Z,88628.72,1634936135,full,ni_sequenzen,NI_Sequenzen,,,,,,,,,,,,,,
,Screen_4,canvas.Screen,0_2_27_3,,skipped,28,88586,,,88584,,88586,2021-10-22T21:02:10.911Z,88628.72,1634936135,full,ni_sequenzen,NI_Sequenzen,,,,,,,,,,,,,,
,Screen_5,canvas.Screen,0_2_27_4,,skipped,28,88588,,,88584,,88588,2021-10-22T21:02:10.912Z,88628.72,1634936135,full,ni_sequenzen,NI_Sequenzen,,,,,,,,,,,,,,
,Screen_6,canvas.Screen,0_2_27_5,,skipped,28,88589,,,88584,,88589,2021-10-22T21:02:10.912Z,88628.72,1634936135,full,ni_sequenzen,NI_Sequenzen,,,,,,,,,,,,,,
,Sequence,flow.Sequence,0_2_27,,completion,28,88583,,,88584,,88589,2021-10-22T21:02:10.913Z,88628.72,1634936135,full,ni_sequenzen,NI_Sequenzen,,,,,,,,,,,,,,
,Screen_1,canvas.Screen,0_2_28_0,,skipped,29,88589,,,88589,,88589,2021-10-22T21:02:10.913Z,88628.72,1634936135,full,ni_sequenzen,NI_Sequenzen,,,,,,,,,,,,,,
,Screen_2,canvas.Screen,0_2_28_1,,skipped,29,88590,,,88589,,88590,2021-10-22T21:02:10.914Z,88628.72,1634936135,full,ni_sequenzen,NI_Sequenzen,,,,,,,,,,,,,,
,Screen_3,canvas.Screen,0_2_28_2,,skipped,29,88591,,,88589,,88591,2021-10-22T21:02:10.915Z,88628.72,1634936135,full,ni_sequenzen,NI_Sequenzen,,,,,,,,,,,,,,
,Screen_4,canvas.Screen,0_2_28_3,,skipped,29,88591,,,88589,,88591,2021-10-22T21:02:10.916Z,88628.72,1634936135,full,ni_sequenzen,NI_Sequenzen,,,,,,,,,,,,,,
,Screen_5,canvas.Screen,0_2_28_4,,skipped,29,88592,,,88589,,88592,2021-10-22T21:02:10.917Z,88628.72,1634936135,full,ni_sequenzen,NI_Sequenzen,,,,,,,,,,,,,,
,Screen_6,canvas.Screen,0_2_28_5,,skipped,29,88593,,,88589,,88593,2021-10-22T21:02:10.917Z,88628.72,1634936135,full,ni_sequenzen,NI_Sequenzen,,,,,,,,,,,,,,
,Sequence,flow.Sequence,0_2_28,,completion,29,88589,,,88589,,88593,2021-10-22T21:02:10.917Z,88628.72,1634936135,full,ni_sequenzen,NI_Sequenzen,,,,,,,,,,,,,,
,Screen_1,canvas.Screen,0_2_29_0,,skipped,30,88594,,,88594,,88594,2021-10-22T21:02:10.918Z,88628.72,1634936135,full,ni_sequenzen,NI_Sequenzen,,,,,,,,,,,,,,
,Screen_2,canvas.Screen,0_2_29_1,,skipped,30,88595,,,88594,,88595,2021-10-22T21:02:10.919Z,88628.72,1634936135,full,ni_sequenzen,NI_Sequenzen,,,,,,,,,,,,,,
,Screen_3,canvas.Screen,0_2_29_2,,skipped,30,88596,,,88594,,88596,2021-10-22T21:02:10.920Z,88628.72,1634936135,full,ni_sequenzen,NI_Sequenzen,,,,,,,,,,,,,,
,Screen_4,canvas.Screen,0_2_29_3,,skipped,30,88596,,,88594,,88596,2021-10-22T21:02:10.920Z,88628.72,1634936135,full,ni_sequenzen,NI_Sequenzen,,,,,,,,,,,,,,
,Screen_5,canvas.Screen,0_2_29_4,,skipped,30,88598,,,88594,,88598,2021-10-22T21:02:10.921Z,88628.72,1634936135,full,ni_sequenzen,NI_Sequenzen,,,,,,,,,,,,,,
,Screen_6,canvas.Screen,0_2_29_5,,skipped,30,88599,,,88594,,88599,2021-10-22T21:02:10.922Z,88628.72,1634936135,full,ni_sequenzen,NI_Sequenzen,,,,,,,,,,,,,,
,Sequence,flow.Sequence,0_2_29,,completion,30,88593,,,88594,,88599,2021-10-22T21:02:10.922Z,88628.72,1634936135,full,ni_sequenzen,NI_Sequenzen,,,,,,,,,,,,,,
,Instructions_II,flow.Loop,0_2,,completion,,42310,42312.4,42321.22,88594,46272.78,88599,2021-10-22T21:02:10.922Z,88628.72,1634936135,full,ni_sequenzen,NI_Sequenzen,,,,,,,,,,,,,,
,Move,canvas.Screen,0_3_0_0_0_0,right,response,,88621,88620.42,88628.72,99284,10655.279999999999,99288,2021-10-22T21:02:21.613Z,99313.5,1634936135,full,ni_sequenzen,NI_Sequenzen,1,0,,,,,,,,,,,,
,Move,canvas.Screen,0_3_0_0_0_1,down,response,,99297,99296.6,99313.5,100196,882.5,100200,2021-10-22T21:02:22.525Z,100213.64,1634936135,full,ni_sequenzen,NI_Sequenzen,2,0,,,,,,,,,,,,
,Move,canvas.Screen,0_3_0_0_0_2,right,response,,100207,100207.7,100213.64,101036,822.3600000000006,101041,2021-10-22T21:02:23.364Z,101063.68,1634936135,full,ni_sequenzen,NI_Sequenzen,3,0,,,,,,,,,,,,
,Move,canvas.Screen,0_3_0_0_0_3,down,response,,101048,101047.44,101063.68,101659,595.320000000007,101664,2021-10-22T21:02:23.988Z,101713.84,1634936135,full,ni_sequenzen,NI_Sequenzen,4,0,,,,,,,,,,,,
,Move,canvas.Screen,0_3_0_0_0_4,-999,skipped,,101670,,,101659,,101671,2021-10-22T21:02:23.994Z,101713.84,1634936135,full,ni_sequenzen,NI_Sequenzen,5,0,,,,,,,,,,,,
,Move,canvas.Screen,0_3_0_0_0_5,-999,skipped,,101675,,,101659,,101675,2021-10-22T21:02:23.999Z,101713.84,1634936135,full,ni_sequenzen,NI_Sequenzen,6,0,,,,,,,,,,,,
,Move,canvas.Screen,0_3_0_0_0_6,-999,skipped,,101679,,,101659,,101679,2021-10-22T21:02:24.003Z,101713.84,1634936135,full,ni_sequenzen,NI_Sequenzen,7,0,,,,,,,,,,,,
,Move,canvas.Screen,0_3_0_0_0_7,-999,skipped,,101682,,,101659,,101682,2021-10-22T21:02:24.006Z,101713.84,1634936135,full,ni_sequenzen,NI_Sequenzen,8,0,,,,,,,,,,,,
,Move,canvas.Screen,0_3_0_0_0_8,-999,skipped,,101686,,,101659,,101686,2021-10-22T21:02:24.010Z,101713.84,1634936135,full,ni_sequenzen,NI_Sequenzen,9,0,,,,,,,,,,,,
,Move,canvas.Screen,0_3_0_0_0_9,-999,skipped,,101689,,,101659,,101689,2021-10-22T21:02:24.013Z,101713.84,1634936135,full,ni_sequenzen,NI_Sequenzen,10,0,,,,,,,,,,,,
,Move,canvas.Screen,0_3_0_0_0_10,-999,skipped,,101693,,,101659,,101693,2021-10-22T21:02:24.016Z,101713.84,1634936135,full,ni_sequenzen,NI_Sequenzen,11,0,,,,,,,,,,,,
,Move,canvas.Screen,0_3_0_0_0_11,-999,skipped,,101696,,,101659,,101696,2021-10-22T21:02:24.020Z,101713.84,1634936135,full,ni_sequenzen,NI_Sequenzen,12,0,,,,,,,,,,,,
,Move,canvas.Screen,0_3_0_0_0_12,-999,skipped,,101700,,,101659,,101700,2021-10-22T21:02:24.023Z,101713.84,1634936135,full,ni_sequenzen,NI_Sequenzen,13,0,,,,,,,,,,,,
,Move,canvas.Screen,0_3_0_0_0_13,-999,skipped,,101703,,,101659,,101703,2021-10-22T21:02:24.027Z,101713.84,1634936135,full,ni_sequenzen,NI_Sequenzen,14,0,,,,,,,,,,,,
,Move,canvas.Screen,0_3_0_0_0_14,-999,skipped,,101707,,,101659,,101707,2021-10-22T21:02:24.030Z,101713.84,1634936135,full,ni_sequenzen,NI_Sequenzen,15,0,,,,,,,,,,,,
,Loop,flow.Loop,0_3_0_0_0,-999,completion,,88616,88620.42,88628.72,101659,13030.279999999999,101707,2021-10-22T21:02:24.030Z,101713.84,1634936135,full,ni_sequenzen,NI_Sequenzen,,0,,,,,,,,,,,,
,Feedback,canvas.Screen,0_3_0_0_1,,timeout,,101710,101709.66,101713.84,105697.6,4000.4600000000064,105702,2021-10-22T21:02:28.025Z,105714.3,1634936135,full,ni_sequenzen,NI_Sequenzen,,0,,,,,,,,,,,,
,Trial,flow.Sequence,0_3_0_0,,completion,,88611,88620.42,88628.72,105697.6,17068.880000000005,105703,2021-10-22T21:02:28.026Z,105730.9,1634936135,full,ni_sequenzen,NI_Sequenzen,,0,,,,,,,,,,,,
,Move,canvas.Screen,0_3_0_1_0_0,down,response,,105712,105714.3,105730.9,110669,4938.100000000006,110673,2021-10-22T21:02:32.998Z,110698.1,1634936135,full,ni_sequenzen,NI_Sequenzen,1,1,,,,,,,,,,,,
,Move,canvas.Screen,0_3_0_1_0_1,left,response,,110681,110681.38,110698.1,112062,1363.8999999999942,112066,2021-10-22T21:02:34.390Z,112081.56,1634936135,full,ni_sequenzen,NI_Sequenzen,2,1,,,,,,,,,,,,
,Move,canvas.Screen,0_3_0_1_0_2,down,response,,112073,112073.32,112081.56,112606,524.4400000000023,112610,2021-10-22T21:02:34.934Z,112631.64,1634936135,full,ni_sequenzen,NI_Sequenzen,3,1,,,,,,,,,,,,
,Move,canvas.Screen,0_3_0_1_0_3,left,response,,112617,112617.52,112631.64,112829,197.36000000000058,112833,2021-10-22T21:02:35.156Z,112881.68,1634936135,full,ni_sequenzen,NI_Sequenzen,4,1,,,,,,,,,,,,
,Move,canvas.Screen,0_3_0_1_0_4,-999,skipped,,112838,,,112829,,112838,2021-10-22T21:02:35.162Z,112881.68,1634936135,full,ni_sequenzen,NI_Sequenzen,5,1,,,,,,,,,,,,
,Move,canvas.Screen,0_3_0_1_0_5,-999,skipped,,112843,,,112829,,112843,2021-10-22T21:02:35.167Z,112881.68,1634936135,full,ni_sequenzen,NI_Sequenzen,6,1,,,,,,,,,,,,
,Move,canvas.Screen,0_3_0_1_0_6,-999,skipped,,112848,,,112829,,112848,2021-10-22T21:02:35.172Z,112881.68,1634936135,full,ni_sequenzen,NI_Sequenzen,7,1,,,,,,,,,,,,
,Move,canvas.Screen,0_3_0_1_0_7,-999,skipped,,112851,,,112829,,112851,2021-10-22T21:02:35.175Z,112881.68,1634936135,full,ni_sequenzen,NI_Sequenzen,8,1,,,,,,,,,,,,
,Move,canvas.Screen,0_3_0_1_0_8,-999,skipped,,112854,,,112829,,112854,2021-10-22T21:02:35.178Z,112881.68,1634936135,full,ni_sequenzen,NI_Sequenzen,9,1,,,,,,,,,,,,
,Move,canvas.Screen,0_3_0_1_0_9,-999,skipped,,112858,,,112829,,112858,2021-10-22T21:02:35.181Z,112881.68,1634936135,full,ni_sequenzen,NI_Sequenzen,10,1,,,,,,,,,,,,
,Move,canvas.Screen,0_3_0_1_0_10,-999,skipped,,112861,,,112829,,112861,2021-10-22T21:02:35.185Z,112881.68,1634936135,full,ni_sequenzen,NI_Sequenzen,11,1,,,,,,,,,,,,
,Move,canvas.Screen,0_3_0_1_0_11,-999,skipped,,112864,,,112829,,112864,2021-10-22T21:02:35.188Z,112881.68,1634936135,full,ni_sequenzen,NI_Sequenzen,12,1,,,,,,,,,,,,
,Move,canvas.Screen,0_3_0_1_0_12,-999,skipped,,112867,,,112829,,112867,2021-10-22T21:02:35.191Z,112881.68,1634936135,full,ni_sequenzen,NI_Sequenzen,13,1,,,,,,,,,,,,
,Move,canvas.Screen,0_3_0_1_0_13,-999,skipped,,112871,,,112829,,112871,2021-10-22T21:02:35.195Z,112881.68,1634936135,full,ni_sequenzen,NI_Sequenzen,14,1,,,,,,,,,,,,
,Move,canvas.Screen,0_3_0_1_0_14,-999,skipped,,112874,,,112829,,112874,2021-10-22T21:02:35.198Z,112881.68,1634936135,full,ni_sequenzen,NI_Sequenzen,15,1,,,,,,,,,,,,
,Loop,flow.Loop,0_3_0_1_0,-999,completion,,105708,105714.3,105730.9,112829,7098.100000000006,112874,2021-10-22T21:02:35.198Z,112881.68,1634936135,full,ni_sequenzen,NI_Sequenzen,,1,,,,,,,,,,,,
,Feedback,canvas.Screen,0_3_0_1_1,,timeout,,112877,112876.72,112881.68,116865.92,4002.020000000004,116870,2021-10-22T21:02:39.195Z,116883.7,1634936135,full,ni_sequenzen,NI_Sequenzen,,1,,,,,,,,,,,,
,Trial,flow.Sequence,0_3_0_1,,completion,,105703,105714.3,105730.9,116865.92,11135.020000000004,116871,2021-10-22T21:02:39.195Z,116898.74,1634936135,full,ni_sequenzen,NI_Sequenzen,,1,,,,,,,,,,,,
,Move,canvas.Screen,0_3_0_2_0_0,right,response,,116883,116883.7,116898.74,118854,1955.2599999999948,118858,2021-10-22T21:02:41.182Z,118882.24,1634936135,full,ni_sequenzen,NI_Sequenzen,1,2,,,,,,,,,,,,
,Move,canvas.Screen,0_3_0_2_0_1,down,response,,118865,118865.54,118882.24,119118,235.75999999999476,119122,2021-10-22T21:02:41.446Z,119132.44,1634936135,full,ni_sequenzen,NI_Sequenzen,2,2,,,,,,,,,,,,
,Move,canvas.Screen,0_3_0_2_0_2,right,response,,119128,119127.9,119132.44,119317,184.55999999999767,119322,2021-10-22T21:02:41.646Z,119332.26,1634936135,full,ni_sequenzen,NI_Sequenzen,3,2,,,,,,,,,,,,
,Move,canvas.Screen,0_3_0_2_0_3,down,response,,119332,119331.66,119332.26,119527,194.74000000000524,119530,2021-10-22T21:02:41.853Z,119582.34,1634936135,full,ni_sequenzen,NI_Sequenzen,4,2,,,,,,,,,,,,
,Move,canvas.Screen,0_3_0_2_0_4,-999,skipped,,119535,,,119527,,119536,2021-10-22T21:02:41.860Z,119582.34,1634936135,full,ni_sequenzen,NI_Sequenzen,5,2,,,,,,,,,,,,
,Move,canvas.Screen,0_3_0_2_0_5,-999,skipped,,119541,,,119527,,119541,2021-10-22T21:02:41.865Z,119582.34,1634936135,full,ni_sequenzen,NI_Sequenzen,6,2,,,,,,,,,,,,
,Move,canvas.Screen,0_3_0_2_0_6,-999,skipped,,119546,,,119527,,119546,2021-10-22T21:02:41.870Z,119582.34,1634936135,full,ni_sequenzen,NI_Sequenzen,7,2,,,,,,,,,,,,
,Move,canvas.Screen,0_3_0_2_0_7,-999,skipped,,119550,,,119527,,119550,2021-10-22T21:02:41.874Z,119582.34,1634936135,full,ni_sequenzen,NI_Sequenzen,8,2,,,,,,,,,,,,
,Move,canvas.Screen,0_3_0_2_0_8,-999,skipped,,119555,,,119527,,119555,2021-10-22T21:02:41.878Z,119582.34,1634936135,full,ni_sequenzen,NI_Sequenzen,9,2,,,,,,,,,,,,
,Move,canvas.Screen,0_3_0_2_0_9,-999,skipped,,119558,,,119527,,119559,2021-10-22T21:02:41.883Z,119582.34,1634936135,full,ni_sequenzen,NI_Sequenzen,10,2,,,,,,,,,,,,
,Move,canvas.Screen,0_3_0_2_0_10,-999,skipped,,119562,,,119527,,119562,2021-10-22T21:02:41.886Z,119582.34,1634936135,full,ni_sequenzen,NI_Sequenzen,11,2,,,,,,,,,,,,
,Move,canvas.Screen,0_3_0_2_0_11,-999,skipped,,119566,,,119527,,119566,2021-10-22T21:02:41.891Z,119582.34,1634936135,full,ni_sequenzen,NI_Sequenzen,12,2,,,,,,,,,,,,
,Move,canvas.Screen,0_3_0_2_0_12,-999,skipped,,119570,,,119527,,119571,2021-10-22T21:02:41.894Z,119582.34,1634936135,full,ni_sequenzen,NI_Sequenzen,13,2,,,,,,,,,,,,
,Move,canvas.Screen,0_3_0_2_0_13,-999,skipped,,119575,,,119527,,119575,2021-10-22T21:02:41.898Z,119582.34,1634936135,full,ni_sequenzen,NI_Sequenzen,14,2,,,,,,,,,,,,
,Move,canvas.Screen,0_3_0_2_0_14,-999,skipped,,119578,,,119527,,119578,2021-10-22T21:02:41.901Z,119582.34,1634936135,full,ni_sequenzen,NI_Sequenzen,15,2,,,,,,,,,,,,
,Loop,flow.Loop,0_3_0_2_0,-999,completion,,116878,116883.7,116898.74,119527,2628.2599999999948,119579,2021-10-22T21:02:41.902Z,119582.34,1634936135,full,ni_sequenzen,NI_Sequenzen,,2,,,,,,,,,,,,
,Feedback,canvas.Screen,0_3_0_2_1,,timeout,,119581,119581.3,119582.34,123566.5,4004.4400000000023,123571,2021-10-22T21:02:45.895Z,123586.78,1634936135,full,ni_sequenzen,NI_Sequenzen,,2,,,,,,,,,,,,
,Trial,flow.Sequence,0_3_0_2,,completion,,116871,116883.7,116898.74,123566.5,6667.759999999995,123572,2021-10-22T21:02:45.895Z,123599.32,1634936135,full,ni_sequenzen,NI_Sequenzen,,2,,,,,,,,,,,,
,Move,canvas.Screen,0_3_0_3_0_0,left,response,,123587,123586.78,123599.32,123942,342.679999999993,123946,2021-10-22T21:02:46.270Z,123966.02,1634936135,full,ni_sequenzen,NI_Sequenzen,1,3,,,,,,,,,,,,
,Move,canvas.Screen,0_3_0_3_0_1,left,response,,123953,123952.84,123966.02,124175,208.97999999999593,124179,2021-10-22T21:02:46.502Z,124199.36,1634936135,full,ni_sequenzen,NI_Sequenzen,2,3,,,,,,,,,,,,
,Move,canvas.Screen,0_3_0_3_0_2,down,response,,124185,124184.9,124199.36,125807,1607.6399999999994,125811,2021-10-22T21:02:48.135Z,125832.82,1634936135,full,ni_sequenzen,NI_Sequenzen,3,3,,,,,,,,,,,,
,Move,canvas.Screen,0_3_0_3_0_3,right,response,,125819,125818.84,125832.82,126070,237.17999999999302,126075,2021-10-22T21:02:48.399Z,126132.84,1634936135,full,ni_sequenzen,NI_Sequenzen,4,3,,,,,,,,,,,,
,Move,canvas.Screen,0_3_0_3_0_4,-999,skipped,,126083,,,126070,,126083,2021-10-22T21:02:48.407Z,126132.84,1634936135,full,ni_sequenzen,NI_Sequenzen,5,3,,,,,,,,,,,,
,Move,canvas.Screen,0_3_0_3_0_5,-999,skipped,,126086,,,126070,,126086,2021-10-22T21:02:48.411Z,126132.84,1634936135,full,ni_sequenzen,NI_Sequenzen,6,3,,,,,,,,,,,,
,Move,canvas.Screen,0_3_0_3_0_6,-999,skipped,,126090,,,126070,,126090,2021-10-22T21:02:48.415Z,126132.84,1634936135,full,ni_sequenzen,NI_Sequenzen,7,3,,,,,,,,,,,,
,Move,canvas.Screen,0_3_0_3_0_7,-999,skipped,,126095,,,126070,,126095,2021-10-22T21:02:48.418Z,126132.84,1634936135,full,ni_sequenzen,NI_Sequenzen,8,3,,,,,,,,,,,,
,Move,canvas.Screen,0_3_0_3_0_8,-999,skipped,,126098,,,126070,,126098,2021-10-22T21:02:48.422Z,126132.84,1634936135,full,ni_sequenzen,NI_Sequenzen,9,3,,,,,,,,,,,,
,Move,canvas.Screen,0_3_0_3_0_9,-999,skipped,,126102,,,126070,,126102,2021-10-22T21:02:48.425Z,126132.84,1634936135,full,ni_sequenzen,NI_Sequenzen,10,3,,,,,,,,,,,,
,Move,canvas.Screen,0_3_0_3_0_10,-999,skipped,,126105,,,126070,,126105,2021-10-22T21:02:48.429Z,126132.84,1634936135,full,ni_sequenzen,NI_Sequenzen,11,3,,,,,,,,,,,,
,Move,canvas.Screen,0_3_0_3_0_11,-999,skipped,,126109,,,126070,,126109,2021-10-22T21:02:48.432Z,126132.84,1634936135,full,ni_sequenzen,NI_Sequenzen,12,3,,,,,,,,,,,,
,Move,canvas.Screen,0_3_0_3_0_12,-999,skipped,,126112,,,126070,,126112,2021-10-22T21:02:48.436Z,126132.84,1634936135,full,ni_sequenzen,NI_Sequenzen,13,3,,,,,,,,,,,,
,Move,canvas.Screen,0_3_0_3_0_13,-999,skipped,,126115,,,126070,,126115,2021-10-22T21:02:48.440Z,126132.84,1634936135,full,ni_sequenzen,NI_Sequenzen,14,3,,,,,,,,,,,,
,Move,canvas.Screen,0_3_0_3_0_14,-999,skipped,,126119,,,126070,,126119,2021-10-22T21:02:48.442Z,126132.84,1634936135,full,ni_sequenzen,NI_Sequenzen,15,3,,,,,,,,,,,,
,Loop,flow.Loop,0_3_0_3_0,-999,completion,,123583,123586.78,123599.32,126070,2470.679999999993,126119,2021-10-22T21:02:48.442Z,126132.84,1634936135,full,ni_sequenzen,NI_Sequenzen,,3,,,,,,,,,,,,
,Feedback,canvas.Screen,0_3_0_3_1,,timeout,,126122,126121.52,126132.84,130116.96,4000.5800000000017,130122,2021-10-22T21:02:52.446Z,130133.42,1634936135,full,ni_sequenzen,NI_Sequenzen,,3,,,,,,,,,,,,
,Trial,flow.Sequence,0_3_0_3,,completion,,123572,123586.78,123599.32,130116.96,6517.639999999999,130122,2021-10-22T21:02:52.446Z,130149.8,1634936135,full,ni_sequenzen,NI_Sequenzen,,3,,,,,,,,,,,,
,Move,canvas.Screen,0_3_0_4_0_0,right,response,,130133,130133.42,130149.8,131735,1585.199999999997,131739,2021-10-22T21:02:54.063Z,131749.94,1634936135,full,ni_sequenzen,NI_Sequenzen,1,4,,,,,,,,,,,,
,Move,canvas.Screen,0_3_0_4_0_1,down,response,,131746,131746.28,131749.94,131983,233.05999999999767,131985,2021-10-22T21:02:54.308Z,131999.96,1634936135,full,ni_sequenzen,NI_Sequenzen,2,4,,,,,,,,,,,,
,Move,canvas.Screen,0_3_0_4_0_2,right,response,,131989,131988.78,131999.96,132183,183.04000000000815,132187,2021-10-22T21:02:54.511Z,132200,1634936135,full,ni_sequenzen,NI_Sequenzen,3,4,,,,,,,,,,,,
,Move,canvas.Screen,0_3_0_4_0_3,down,response,,132193,132193.32,132200,132390,190,132394,2021-10-22T21:02:54.719Z,132449.98,1634936135,full,ni_sequenzen,NI_Sequenzen,4,4,,,,,,,,,,,,
,Move,canvas.Screen,0_3_0_4_0_4,-999,skipped,,132402,,,132390,,132402,2021-10-22T21:02:54.726Z,132449.98,1634936135,full,ni_sequenzen,NI_Sequenzen,5,4,,,,,,,,,,,,
,Move,canvas.Screen,0_3_0_4_0_5,-999,skipped,,132408,,,132390,,132408,2021-10-22T21:02:54.731Z,132449.98,1634936135,full,ni_sequenzen,NI_Sequenzen,6,4,,,,,,,,,,,,
,Move,canvas.Screen,0_3_0_4_0_6,-999,skipped,,132411,,,132390,,132411,2021-10-22T21:02:54.735Z,132449.98,1634936135,full,ni_sequenzen,NI_Sequenzen,7,4,,,,,,,,,,,,
,Move,canvas.Screen,0_3_0_4_0_7,-999,skipped,,132414,,,132390,,132414,2021-10-22T21:02:54.738Z,132449.98,1634936135,full,ni_sequenzen,NI_Sequenzen,8,4,,,,,,,,,,,,
,Move,canvas.Screen,0_3_0_4_0_8,-999,skipped,,132418,,,132390,,132418,2021-10-22T21:02:54.742Z,132449.98,1634936135,full,ni_sequenzen,NI_Sequenzen,9,4,,,,,,,,,,,,
,Move,canvas.Screen,0_3_0_4_0_9,-999,skipped,,132421,,,132390,,132421,2021-10-22T21:02:54.745Z,132449.98,1634936135,full,ni_sequenzen,NI_Sequenzen,10,4,,,,,,,,,,,,
,Move,canvas.Screen,0_3_0_4_0_10,-999,skipped,,132426,,,132390,,132426,2021-10-22T21:02:54.749Z,132449.98,1634936135,full,ni_sequenzen,NI_Sequenzen,11,4,,,,,,,,,,,,
,Move,canvas.Screen,0_3_0_4_0_11,-999,skipped,,132429,,,132390,,132429,2021-10-22T21:02:54.753Z,132449.98,1634936135,full,ni_sequenzen,NI_Sequenzen,12,4,,,,,,,,,,,,
,Move,canvas.Screen,0_3_0_4_0_12,-999,skipped,,132432,,,132390,,132432,2021-10-22T21:02:54.756Z,132449.98,1634936135,full,ni_sequenzen,NI_Sequenzen,13,4,,,,,,,,,,,,
,Move,canvas.Screen,0_3_0_4_0_13,-999,skipped,,132435,,,132390,,132435,2021-10-22T21:02:54.759Z,132449.98,1634936135,full,ni_sequenzen,NI_Sequenzen,14,4,,,,,,,,,,,,
,Move,canvas.Screen,0_3_0_4_0_14,-999,skipped,,132440,,,132390,,132440,2021-10-22T21:02:54.763Z,132449.98,1634936135,full,ni_sequenzen,NI_Sequenzen,15,4,,,,,,,,,,,,
,Loop,flow.Loop,0_3_0_4_0,-999,completion,,130130,130133.42,130149.8,132390,2240.199999999997,132440,2021-10-22T21:02:54.763Z,132449.98,1634936135,full,ni_sequenzen,NI_Sequenzen,,4,,,,,,,,,,,,
,Feedback,canvas.Screen,0_3_0_4_1,,timeout,,132442,132441.98,132449.98,136434.1,4002.359999999986,136439,2021-10-22T21:02:58.763Z,136452.34,1634936135,full,ni_sequenzen,NI_Sequenzen,,4,,,,,,,,,,,,
,Trial,flow.Sequence,0_3_0_4,,completion,,130122,130133.42,130149.8,136434.1,6284.300000000003,136439,2021-10-22T21:02:58.763Z,136466.94,1634936135,full,ni_sequenzen,NI_Sequenzen,,4,,,,,,,,,,,,
,Move,canvas.Screen,0_3_0_5_0_0,right,response,,136453,136452.34,136466.94,136871,404.0599999999977,136876,2021-10-22T21:02:59.199Z,136883.64,1634936135,full,ni_sequenzen,NI_Sequenzen,1,5,,,,,,,,,,,,
,Move,canvas.Screen,0_3_0_5_0_1,down,response,,136882,136882.74,136883.64,137079,195.35999999998603,137083,2021-10-22T21:02:59.407Z,137100.3,1634936135,full,ni_sequenzen,NI_Sequenzen,2,5,,,,,,,,,,,,
,Move,canvas.Screen,0_3_0_5_0_2,right,response,,137091,137090.8,137100.3,137255,154.70000000001164,137259,2021-10-22T21:02:59.584Z,137267.02,1634936135,full,ni_sequenzen,NI_Sequenzen,3,5,,,,,,,,,,,,
,Move,canvas.Screen,0_3_0_5_0_3,down,response,,137267,137266.7,137267.02,137511,243.98000000001048,137515,2021-10-22T21:02:59.839Z,137567.02,1634936135,full,ni_sequenzen,NI_Sequenzen,4,5,,,,,,,,,,,,
,Move,canvas.Screen,0_3_0_5_0_4,-999,skipped,,137522,,,137511,,137522,2021-10-22T21:02:59.846Z,137567.02,1634936135,full,ni_sequenzen,NI_Sequenzen,5,5,,,,,,,,,,,,
,Move,canvas.Screen,0_3_0_5_0_5,-999,skipped,,137526,,,137511,,137526,2021-10-22T21:02:59.850Z,137567.02,1634936135,full,ni_sequenzen,NI_Sequenzen,6,5,,,,,,,,,,,,
,Move,canvas.Screen,0_3_0_5_0_6,-999,skipped,,137529,,,137511,,137529,2021-10-22T21:02:59.853Z,137567.02,1634936135,full,ni_sequenzen,NI_Sequenzen,7,5,,,,,,,,,,,,
,Move,canvas.Screen,0_3_0_5_0_7,-999,skipped,,137532,,,137511,,137532,2021-10-22T21:02:59.857Z,137567.02,1634936135,full,ni_sequenzen,NI_Sequenzen,8,5,,,,,,,,,,,,
,Move,canvas.Screen,0_3_0_5_0_8,-999,skipped,,137536,,,137511,,137536,2021-10-22T21:02:59.860Z,137567.02,1634936135,full,ni_sequenzen,NI_Sequenzen,9,5,,,,,,,,,,,,
,Move,canvas.Screen,0_3_0_5_0_9,-999,skipped,,137540,,,137511,,137540,2021-10-22T21:02:59.863Z,137567.02,1634936135,full,ni_sequenzen,NI_Sequenzen,10,5,,,,,,,,,,,,
,Move,canvas.Screen,0_3_0_5_0_10,-999,skipped,,137543,,,137511,,137543,2021-10-22T21:02:59.866Z,137567.02,1634936135,full,ni_sequenzen,NI_Sequenzen,11,5,,,,,,,,,,,,
,Move,canvas.Screen,0_3_0_5_0_11,-999,skipped,,137546,,,137511,,137546,2021-10-22T21:02:59.870Z,137567.02,1634936135,full,ni_sequenzen,NI_Sequenzen,12,5,,,,,,,,,,,,
,Move,canvas.Screen,0_3_0_5_0_12,-999,skipped,,137549,,,137511,,137549,2021-10-22T21:02:59.873Z,137567.02,1634936135,full,ni_sequenzen,NI_Sequenzen,13,5,,,,,,,,,,,,
,Move,canvas.Screen,0_3_0_5_0_13,-999,skipped,,137553,,,137511,,137553,2021-10-22T21:02:59.877Z,137567.02,1634936135,full,ni_sequenzen,NI_Sequenzen,14,5,,,,,,,,,,,,
,Move,canvas.Screen,0_3_0_5_0_14,-999,skipped,,137556,,,137511,,137556,2021-10-22T21:02:59.880Z,137567.02,1634936135,full,ni_sequenzen,NI_Sequenzen,15,5,,,,,,,,,,,,
,Loop,flow.Loop,0_3_0_5_0,-999,completion,,136447,136452.34,136466.94,137511,1044.0599999999977,137557,2021-10-22T21:02:59.880Z,137567.02,1634936135,full,ni_sequenzen,NI_Sequenzen,,5,,,,,,,,,,,,
,Feedback,canvas.Screen,0_3_0_5_1,,timeout,,137559,137558.8,137567.02,141551.12,4001.7000000000116,141555,2021-10-22T21:03:03.879Z,141568.72,1634936135,full,ni_sequenzen,NI_Sequenzen,,5,,,,,,,,,,,,
,Trial,flow.Sequence,0_3_0_5,,completion,,136440,136452.34,136466.94,141551.12,5084.179999999993,141556,2021-10-22T21:03:03.879Z,141583.9,1634936135,full,ni_sequenzen,NI_Sequenzen,,5,,,,,,,,,,,,
,Move,canvas.Screen,0_3_0_6_0_0,right,response,,141568,141568.72,141583.9,142471,887.1000000000058,142476,2021-10-22T21:03:04.800Z,142483.98,1634936135,full,ni_sequenzen,NI_Sequenzen,1,6,,,,,,,,,,,,
,Move,canvas.Screen,0_3_0_6_0_1,down,response,,142483,142483.56,142483.98,142599,115.01999999998952,142603,2021-10-22T21:03:04.927Z,142617.32,1634936135,full,ni_sequenzen,NI_Sequenzen,2,6,,,,,,,,,,,,
,Move,canvas.Screen,0_3_0_6_0_2,right,response,,142611,142610.16,142617.32,142751,133.67999999999302,142755,2021-10-22T21:03:05.079Z,142767.34,1634936135,full,ni_sequenzen,NI_Sequenzen,3,6,,,,,,,,,,,,
,Move,canvas.Screen,0_3_0_6_0_3,down,response,,142762,142761.98,142767.34,143007,239.6600000000035,143012,2021-10-22T21:03:05.336Z,143067.32,1634936135,full,ni_sequenzen,NI_Sequenzen,4,6,,,,,,,,,,,,
,Move,canvas.Screen,0_3_0_6_0_4,-999,skipped,,143020,,,143007,,143020,2021-10-22T21:03:05.344Z,143067.32,1634936135,full,ni_sequenzen,NI_Sequenzen,5,6,,,,,,,,,,,,
,Move,canvas.Screen,0_3_0_6_0_5,-999,skipped,,143024,,,143007,,143024,2021-10-22T21:03:05.348Z,143067.32,1634936135,full,ni_sequenzen,NI_Sequenzen,6,6,,,,,,,,,,,,
,Move,canvas.Screen,0_3_0_6_0_6,-999,skipped,,143028,,,143007,,143028,2021-10-22T21:03:05.351Z,143067.32,1634936135,full,ni_sequenzen,NI_Sequenzen,7,6,,,,,,,,,,,,
,Move,canvas.Screen,0_3_0_6_0_7,-999,skipped,,143031,,,143007,,143031,2021-10-22T21:03:05.355Z,143067.32,1634936135,full,ni_sequenzen,NI_Sequenzen,8,6,,,,,,,,,,,,
,Move,canvas.Screen,0_3_0_6_0_8,-999,skipped,,143035,,,143007,,143035,2021-10-22T21:03:05.358Z,143067.32,1634936135,full,ni_sequenzen,NI_Sequenzen,9,6,,,,,,,,,,,,
,Move,canvas.Screen,0_3_0_6_0_9,-999,skipped,,143038,,,143007,,143038,2021-10-22T21:03:05.362Z,143067.32,1634936135,full,ni_sequenzen,NI_Sequenzen,10,6,,,,,,,,,,,,
,Move,canvas.Screen,0_3_0_6_0_10,-999,skipped,,143041,,,143007,,143041,2021-10-22T21:03:05.365Z,143067.32,1634936135,full,ni_sequenzen,NI_Sequenzen,11,6,,,,,,,,,,,,
,Move,canvas.Screen,0_3_0_6_0_11,-999,skipped,,143044,,,143007,,143044,2021-10-22T21:03:05.369Z,143067.32,1634936135,full,ni_sequenzen,NI_Sequenzen,12,6,,,,,,,,,,,,
,Move,canvas.Screen,0_3_0_6_0_12,-999,skipped,,143047,,,143007,,143047,2021-10-22T21:03:05.372Z,143067.32,1634936135,full,ni_sequenzen,NI_Sequenzen,13,6,,,,,,,,,,,,
,Move,canvas.Screen,0_3_0_6_0_13,-999,skipped,,143051,,,143007,,143051,2021-10-22T21:03:05.375Z,143067.32,1634936135,full,ni_sequenzen,NI_Sequenzen,14,6,,,,,,,,,,,,
,Move,canvas.Screen,0_3_0_6_0_14,-999,skipped,,143055,,,143007,,143055,2021-10-22T21:03:05.378Z,143067.32,1634936135,full,ni_sequenzen,NI_Sequenzen,15,6,,,,,,,,,,,,
,Loop,flow.Loop,0_3_0_6_0,-999,completion,,141563,141568.72,141583.9,143007,1423.1000000000058,143055,2021-10-22T21:03:05.378Z,143067.32,1634936135,full,ni_sequenzen,NI_Sequenzen,,6,,,,,,,,,,,,
,Feedback,canvas.Screen,0_3_0_6_1,,timeout,,143057,143057.36,143067.32,147050.92,4000.4799999999814,147055,2021-10-22T21:03:09.379Z,147067.8,1634936135,full,ni_sequenzen,NI_Sequenzen,,6,,,,,,,,,,,,
,Trial,flow.Sequence,0_3_0_6,,completion,,141556,141568.72,141583.9,147050.92,5467.020000000019,147055,2021-10-22T21:03:09.379Z,147084.22,1634936135,full,ni_sequenzen,NI_Sequenzen,,6,,,,,,,,,,,,
,Move,canvas.Screen,0_3_0_7_0_0,right,response,,147067,147067.8,147084.22,148280,1195.7799999999988,148284,2021-10-22T21:03:10.608Z,148300.96,1634936135,full,ni_sequenzen,NI_Sequenzen,1,7,,,,,,,,,,,,
,Move,canvas.Screen,0_3_0_7_0_1,down,response,,148290,148290.78,148300.96,148568,267.04000000000815,148572,2021-10-22T21:03:10.896Z,148584.36,1634936135,full,ni_sequenzen,NI_Sequenzen,2,7,,,,,,,,,,,,
,Move,canvas.Screen,0_3_0_7_0_2,right,response,,148579,148579.42,148584.36,148751,166.64000000001397,148755,2021-10-22T21:03:11.079Z,148767.68,1634936135,full,ni_sequenzen,NI_Sequenzen,3,7,,,,,,,,,,,,
,Move,canvas.Screen,0_3_0_7_0_3,down,response,,148763,148762.5,148767.68,148975,207.32000000000698,148980,2021-10-22T21:03:11.303Z,149034.34,1634936135,full,ni_sequenzen,NI_Sequenzen,4,7,,,,,,,,,,,,
,Move,canvas.Screen,0_3_0_7_0_4,-999,skipped,,148986,,,148975,,148986,2021-10-22T21:03:11.309Z,149034.34,1634936135,full,ni_sequenzen,NI_Sequenzen,5,7,,,,,,,,,,,,
,Move,canvas.Screen,0_3_0_7_0_5,-999,skipped,,148990,,,148975,,148990,2021-10-22T21:03:11.315Z,149034.34,1634936135,full,ni_sequenzen,NI_Sequenzen,6,7,,,,,,,,,,,,
,Move,canvas.Screen,0_3_0_7_0_6,-999,skipped,,148994,,,148975,,148994,2021-10-22T21:03:11.318Z,149034.34,1634936135,full,ni_sequenzen,NI_Sequenzen,7,7,,,,,,,,,,,,
,Move,canvas.Screen,0_3_0_7_0_7,-999,skipped,,148997,,,148975,,148997,2021-10-22T21:03:11.321Z,149034.34,1634936135,full,ni_sequenzen,NI_Sequenzen,8,7,,,,,,,,,,,,
,Move,canvas.Screen,0_3_0_7_0_8,-999,skipped,,149000,,,148975,,149000,2021-10-22T21:03:11.325Z,149034.34,1634936135,full,ni_sequenzen,NI_Sequenzen,9,7,,,,,,,,,,,,
,Move,canvas.Screen,0_3_0_7_0_9,-999,skipped,,149003,,,148975,,149004,2021-10-22T21:03:11.327Z,149034.34,1634936135,full,ni_sequenzen,NI_Sequenzen,10,7,,,,,,,,,,,,
,Move,canvas.Screen,0_3_0_7_0_10,-999,skipped,,149007,,,148975,,149008,2021-10-22T21:03:11.331Z,149034.34,1634936135,full,ni_sequenzen,NI_Sequenzen,11,7,,,,,,,,,,,,
,Move,canvas.Screen,0_3_0_7_0_11,-999,skipped,,149011,,,148975,,149011,2021-10-22T21:03:11.334Z,149034.34,1634936135,full,ni_sequenzen,NI_Sequenzen,12,7,,,,,,,,,,,,
,Move,canvas.Screen,0_3_0_7_0_12,-999,skipped,,149014,,,148975,,149014,2021-10-22T21:03:11.338Z,149034.34,1634936135,full,ni_sequenzen,NI_Sequenzen,13,7,,,,,,,,,,,,
,Move,canvas.Screen,0_3_0_7_0_13,-999,skipped,,149017,,,148975,,149017,2021-10-22T21:03:11.341Z,149034.34,1634936135,full,ni_sequenzen,NI_Sequenzen,14,7,,,,,,,,,,,,
,Move,canvas.Screen,0_3_0_7_0_14,-999,skipped,,149020,,,148975,,149020,2021-10-22T21:03:11.344Z,149034.34,1634936135,full,ni_sequenzen,NI_Sequenzen,15,7,,,,,,,,,,,,
,Loop,flow.Loop,0_3_0_7_0,-999,completion,,147062,147067.8,147084.22,148975,1890.7799999999988,149020,2021-10-22T21:03:11.345Z,149034.34,1634936135,full,ni_sequenzen,NI_Sequenzen,,7,,,,,,,,,,,,
,Feedback,canvas.Screen,0_3_0_7_1,,timeout,,149024,149023.38,149034.34,153017.9,4000.2600000000093,153022,2021-10-22T21:03:15.346Z,153034.6,1634936135,full,ni_sequenzen,NI_Sequenzen,,7,,,,,,,,,,,,
,Trial,flow.Sequence,0_3_0_7,,completion,,147055,147067.8,147084.22,153017.9,5933.679999999993,153022,2021-10-22T21:03:15.346Z,153051.22,1634936135,full,ni_sequenzen,NI_Sequenzen,,7,,,,,,,,,,,,
,Move,canvas.Screen,0_3_0_8_0_0,right,response,,153033,153034.6,153051.22,159905,6853.779999999999,159909,2021-10-22T21:03:22.232Z,159918.22,1634936135,full,ni_sequenzen,NI_Sequenzen,1,8,,,,,,,,,,,,
,Move,canvas.Screen,0_3_0_8_0_1,down,response,,159915,159915.22,159918.22,160008,89.77999999999884,160012,2021-10-22T21:03:22.336Z,160034.9,1634936135,full,ni_sequenzen,NI_Sequenzen,2,8,,,,,,,,,,,,
,Move,canvas.Screen,0_3_0_8_0_2,right,response,,160019,160018.76,160034.9,160136,101.10000000000582,160140,2021-10-22T21:03:22.464Z,160151.6,1634936135,full,ni_sequenzen,NI_Sequenzen,3,8,,,,,,,,,,,,
,Move,canvas.Screen,0_3_0_8_0_3,down,response,,160147,160147.12,160151.6,160280,128.39999999999418,160284,2021-10-22T21:03:22.608Z,160351.58,1634936135,full,ni_sequenzen,NI_Sequenzen,4,8,,,,,,,,,,,,
,Move,canvas.Screen,0_3_0_8_0_4,-999,skipped,,160296,,,160280,,160297,2021-10-22T21:03:22.621Z,160351.58,1634936135,full,ni_sequenzen,NI_Sequenzen,5,8,,,,,,,,,,,,
,Move,canvas.Screen,0_3_0_8_0_5,-999,skipped,,160302,,,160280,,160302,2021-10-22T21:03:22.627Z,160351.58,1634936135,full,ni_sequenzen,NI_Sequenzen,6,8,,,,,,,,,,,,
,Move,canvas.Screen,0_3_0_8_0_6,-999,skipped,,160309,,,160280,,160309,2021-10-22T21:03:22.632Z,160351.58,1634936135,full,ni_sequenzen,NI_Sequenzen,7,8,,,,,,,,,,,,
,Move,canvas.Screen,0_3_0_8_0_7,-999,skipped,,160314,,,160280,,160314,2021-10-22T21:03:22.638Z,160351.58,1634936135,full,ni_sequenzen,NI_Sequenzen,8,8,,,,,,,,,,,,
,Move,canvas.Screen,0_3_0_8_0_8,-999,skipped,,160318,,,160280,,160318,2021-10-22T21:03:22.642Z,160351.58,1634936135,full,ni_sequenzen,NI_Sequenzen,9,8,,,,,,,,,,,,
,Move,canvas.Screen,0_3_0_8_0_9,-999,skipped,,160323,,,160280,,160323,2021-10-22T21:03:22.647Z,160351.58,1634936135,full,ni_sequenzen,NI_Sequenzen,10,8,,,,,,,,,,,,
,Move,canvas.Screen,0_3_0_8_0_10,-999,skipped,,160327,,,160280,,160327,2021-10-22T21:03:22.650Z,160351.58,1634936135,full,ni_sequenzen,NI_Sequenzen,11,8,,,,,,,,,,,,
,Move,canvas.Screen,0_3_0_8_0_11,-999,skipped,,160331,,,160280,,160331,2021-10-22T21:03:22.655Z,160351.58,1634936135,full,ni_sequenzen,NI_Sequenzen,12,8,,,,,,,,,,,,
,Move,canvas.Screen,0_3_0_8_0_12,-999,skipped,,160335,,,160280,,160335,2021-10-22T21:03:22.658Z,160351.58,1634936135,full,ni_sequenzen,NI_Sequenzen,13,8,,,,,,,,,,,,
,Move,canvas.Screen,0_3_0_8_0_13,-999,skipped,,160338,,,160280,,160339,2021-10-22T21:03:22.662Z,160351.58,1634936135,full,ni_sequenzen,NI_Sequenzen,14,8,,,,,,,,,,,,
,Move,canvas.Screen,0_3_0_8_0_14,-999,skipped,,160342,,,160280,,160343,2021-10-22T21:03:22.666Z,160351.58,1634936135,full,ni_sequenzen,NI_Sequenzen,15,8,,,,,,,,,,,,
,Loop,flow.Loop,0_3_0_8_0,-999,completion,,153027,153034.6,153051.22,160280,7228.779999999999,160343,2021-10-22T21:03:22.666Z,160351.58,1634936135,full,ni_sequenzen,NI_Sequenzen,,8,,,,,,,,,,,,
,Feedback,canvas.Screen,0_3_0_8_1,,timeout,,160346,160346.02,160351.58,164335.58,4004.4000000000233,164340,2021-10-22T21:03:26.664Z,164355.98,1634936135,full,ni_sequenzen,NI_Sequenzen,,8,,,,,,,,,,,,
,Trial,flow.Sequence,0_3_0_8,,completion,,153022,153034.6,153051.22,164335.58,11284.359999999986,164340,2021-10-22T21:03:26.665Z,164368.4,1634936135,full,ni_sequenzen,NI_Sequenzen,,8,,,,,,,,,,,,
,Move,canvas.Screen,0_3_0_9_0_0,right,response,,164356,164355.98,164368.4,164664,295.6000000000058,164670,2021-10-22T21:03:26.993Z,164685.06,1634936135,full,ni_sequenzen,NI_Sequenzen,1,9,,,,,,,,,,,,
,Move,canvas.Screen,0_3_0_9_0_1,down,response,,164676,164676.2,164685.06,164792,106.94000000000233,164796,2021-10-22T21:03:27.120Z,164818.42,1634936135,full,ni_sequenzen,NI_Sequenzen,2,9,,,,,,,,,,,,
,Move,canvas.Screen,0_3_0_9_0_2,right,response,,164804,164803.58,164818.42,164920,101.5799999999872,164924,2021-10-22T21:03:27.248Z,164935.12,1634936135,full,ni_sequenzen,NI_Sequenzen,3,9,,,,,,,,,,,,
,Move,canvas.Screen,0_3_0_9_0_3,down,response,,164932,164931.54,164935.12,165048,112.88000000000466,165051,2021-10-22T21:03:27.376Z,165101.76,1634936135,full,ni_sequenzen,NI_Sequenzen,4,9,,,,,,,,,,,,
,Move,canvas.Screen,0_3_0_9_0_4,-999,skipped,,165058,,,165048,,165058,2021-10-22T21:03:27.383Z,165101.76,1634936135,full,ni_sequenzen,NI_Sequenzen,5,9,,,,,,,,,,,,
,Move,canvas.Screen,0_3_0_9_0_5,-999,skipped,,165063,,,165048,,165063,2021-10-22T21:03:27.386Z,165101.76,1634936135,full,ni_sequenzen,NI_Sequenzen,6,9,,,,,,,,,,,,
,Move,canvas.Screen,0_3_0_9_0_6,-999,skipped,,165066,,,165048,,165067,2021-10-22T21:03:27.390Z,165101.76,1634936135,full,ni_sequenzen,NI_Sequenzen,7,9,,,,,,,,,,,,
,Move,canvas.Screen,0_3_0_9_0_7,-999,skipped,,165069,,,165048,,165069,2021-10-22T21:03:27.394Z,165101.76,1634936135,full,ni_sequenzen,NI_Sequenzen,8,9,,,,,,,,,,,,
,Move,canvas.Screen,0_3_0_9_0_8,-999,skipped,,165073,,,165048,,165073,2021-10-22T21:03:27.398Z,165101.76,1634936135,full,ni_sequenzen,NI_Sequenzen,9,9,,,,,,,,,,,,
,Move,canvas.Screen,0_3_0_9_0_9,-999,skipped,,165078,,,165048,,165078,2021-10-22T21:03:27.401Z,165101.76,1634936135,full,ni_sequenzen,NI_Sequenzen,10,9,,,,,,,,,,,,
,Move,canvas.Screen,0_3_0_9_0_10,-999,skipped,,165081,,,165048,,165081,2021-10-22T21:03:27.404Z,165101.76,1634936135,full,ni_sequenzen,NI_Sequenzen,11,9,,,,,,,,,,,,
,Move,canvas.Screen,0_3_0_9_0_11,-999,skipped,,165084,,,165048,,165084,2021-10-22T21:03:27.408Z,165101.76,1634936135,full,ni_sequenzen,NI_Sequenzen,12,9,,,,,,,,,,,,
,Move,canvas.Screen,0_3_0_9_0_12,-999,skipped,,165088,,,165048,,165088,2021-10-22T21:03:27.411Z,165101.76,1634936135,full,ni_sequenzen,NI_Sequenzen,13,9,,,,,,,,,,,,
,Move,canvas.Screen,0_3_0_9_0_13,-999,skipped,,165091,,,165048,,165091,2021-10-22T21:03:27.415Z,165101.76,1634936135,full,ni_sequenzen,NI_Sequenzen,14,9,,,,,,,,,,,,
,Move,canvas.Screen,0_3_0_9_0_14,-999,skipped,,165094,,,165048,,165094,2021-10-22T21:03:27.418Z,165101.76,1634936135,full,ni_sequenzen,NI_Sequenzen,15,9,,,,,,,,,,,,
,Loop,flow.Loop,0_3_0_9_0,-999,completion,,164352,164355.98,164368.4,165048,679.6000000000058,165094,2021-10-22T21:03:27.418Z,165101.76,1634936135,full,ni_sequenzen,NI_Sequenzen,,9,,,,,,,,,,,,
,Feedback,canvas.Screen,0_3_0_9_1,,timeout,,165097,165097.26,165101.76,169085.74,4110.059999999998,169090,2021-10-22T21:03:31.413Z,169211.82,1634936135,full,ni_sequenzen,NI_Sequenzen,,9,,,,,,,,,,,,
,Trial,flow.Sequence,0_3_0_9,,completion,,164341,164355.98,164368.4,169085.74,4717.3399999999965,169091,2021-10-22T21:03:31.415Z,169218.56,1634936135,full,ni_sequenzen,NI_Sequenzen,,9,,,,,,,,,,,,
,Block,flow.Loop,0_3_0,,completion,,88611,88620.42,88628.72,169085.74,80457.01999999999,169091,2021-10-22T21:03:31.415Z,169218.56,1634936135,full,ni_sequenzen,NI_Sequenzen,,,,,,,,,,,,,,
,Training_II,flow.Sequence,0_3,,completion,,88599,88620.42,88628.72,169085.74,80457.01999999999,169091,2021-10-22T21:03:31.415Z,169218.56,1634936135,full,ni_sequenzen,NI_Sequenzen,,,,,,,,,,,,,,
,Screen_1,canvas.Screen,0_4_0_0,cont,response,1,169212,169211.82,169218.56,177778,8559.440000000002,177782,2021-10-22T21:03:40.106Z,177785.56,1634936135,full,ni_sequenzen,NI_Sequenzen,,,,,,,,,,,,,,
,Screen_2,canvas.Screen,0_4_0_1,cont,response,1,177784,177784.2,177785.56,192745,14959.440000000002,192750,2021-10-22T21:03:55.074Z,193252.66,1634936135,full,ni_sequenzen,NI_Sequenzen,,,,,,,,,,,,,,
,Screen_3,canvas.Screen,0_4_0_2,cont,response,1,193248,193247.9,193252.66,201826,8573.339999999997,201831,2021-10-22T21:04:04.154Z,201952.84,1634936135,full,ni_sequenzen,NI_Sequenzen,,,,,,,,,,,,,,
,Sequence,flow.Sequence,0_4_0,,completion,1,169113,169211.82,169218.56,201826,32607.440000000002,201831,2021-10-22T21:04:04.155Z,201952.84,1634936135,full,ni_sequenzen,NI_Sequenzen,,,,,,,,,,,,,,
,Screen_1,canvas.Screen,0_4_1_0,,skipped,2,201834,,,201834,,201834,2021-10-22T21:04:04.159Z,201952.84,1634936135,full,ni_sequenzen,NI_Sequenzen,,,,,,,,,,,,,,
,Screen_2,canvas.Screen,0_4_1_1,,skipped,2,201837,,,201834,,201837,2021-10-22T21:04:04.161Z,201952.84,1634936135,full,ni_sequenzen,NI_Sequenzen,,,,,,,,,,,,,,
,Screen_3,canvas.Screen,0_4_1_2,,skipped,2,201839,,,201834,,201839,2021-10-22T21:04:04.163Z,201952.84,1634936135,full,ni_sequenzen,NI_Sequenzen,,,,,,,,,,,,,,
,Sequence,flow.Sequence,0_4_1,,completion,2,201832,,,201834,,201839,2021-10-22T21:04:04.163Z,201952.84,1634936135,full,ni_sequenzen,NI_Sequenzen,,,,,,,,,,,,,,
,Screen_1,canvas.Screen,0_4_2_0,,skipped,3,201841,,,201841,,201841,2021-10-22T21:04:04.165Z,201952.84,1634936135,full,ni_sequenzen,NI_Sequenzen,,,,,,,,,,,,,,
,Screen_2,canvas.Screen,0_4_2_1,,skipped,3,201842,,,201841,,201842,2021-10-22T21:04:04.167Z,201952.84,1634936135,full,ni_sequenzen,NI_Sequenzen,,,,,,,,,,,,,,
,Screen_3,canvas.Screen,0_4_2_2,,skipped,3,201843,,,201841,,201843,2021-10-22T21:04:04.168Z,201952.84,1634936135,full,ni_sequenzen,NI_Sequenzen,,,,,,,,,,,,,,
,Sequence,flow.Sequence,0_4_2,,completion,3,201840,,,201841,,201843,2021-10-22T21:04:04.168Z,201952.84,1634936135,full,ni_sequenzen,NI_Sequenzen,,,,,,,,,,,,,,
,Screen_1,canvas.Screen,0_4_3_0,,skipped,4,201845,,,201845,,201845,2021-10-22T21:04:04.169Z,201952.84,1634936135,full,ni_sequenzen,NI_Sequenzen,,,,,,,,,,,,,,
,Screen_2,canvas.Screen,0_4_3_1,,skipped,4,201846,,,201845,,201846,2021-10-22T21:04:04.171Z,201952.84,1634936135,full,ni_sequenzen,NI_Sequenzen,,,,,,,,,,,,,,
,Screen_3,canvas.Screen,0_4_3_2,,skipped,4,201848,,,201845,,201848,2021-10-22T21:04:04.172Z,201952.84,1634936135,full,ni_sequenzen,NI_Sequenzen,,,,,,,,,,,,,,
,Sequence,flow.Sequence,0_4_3,,completion,4,201844,,,201845,,201848,2021-10-22T21:04:04.172Z,201952.84,1634936135,full,ni_sequenzen,NI_Sequenzen,,,,,,,,,,,,,,
,Screen_1,canvas.Screen,0_4_4_0,,skipped,5,201849,,,201849,,201849,2021-10-22T21:04:04.174Z,201952.84,1634936135,full,ni_sequenzen,NI_Sequenzen,,,,,,,,,,,,,,
,Screen_2,canvas.Screen,0_4_4_1,,skipped,5,201850,,,201849,,201850,2021-10-22T21:04:04.174Z,201952.84,1634936135,full,ni_sequenzen,NI_Sequenzen,,,,,,,,,,,,,,
,Screen_3,canvas.Screen,0_4_4_2,,skipped,5,201851,,,201849,,201851,2021-10-22T21:04:04.175Z,201952.84,1634936135,full,ni_sequenzen,NI_Sequenzen,,,,,,,,,,,,,,
,Sequence,flow.Sequence,0_4_4,,completion,5,201848,,,201849,,201852,2021-10-22T21:04:04.176Z,201952.84,1634936135,full,ni_sequenzen,NI_Sequenzen,,,,,,,,,,,,,,
,Screen_1,canvas.Screen,0_4_5_0,,skipped,6,201853,,,201853,,201853,2021-10-22T21:04:04.177Z,201952.84,1634936135,full,ni_sequenzen,NI_Sequenzen,,,,,,,,,,,,,,
,Screen_2,canvas.Screen,0_4_5_1,,skipped,6,201854,,,201853,,201854,2021-10-22T21:04:04.178Z,201952.84,1634936135,full,ni_sequenzen,NI_Sequenzen,,,,,,,,,,,,,,
,Screen_3,canvas.Screen,0_4_5_2,,skipped,6,201856,,,201853,,201856,2021-10-22T21:04:04.179Z,201952.84,1634936135,full,ni_sequenzen,NI_Sequenzen,,,,,,,,,,,,,,
,Sequence,flow.Sequence,0_4_5,,completion,6,201852,,,201853,,201856,2021-10-22T21:04:04.180Z,201952.84,1634936135,full,ni_sequenzen,NI_Sequenzen,,,,,,,,,,,,,,
,Screen_1,canvas.Screen,0_4_6_0,,skipped,7,201857,,,201857,,201857,2021-10-22T21:04:04.181Z,201952.84,1634936135,full,ni_sequenzen,NI_Sequenzen,,,,,,,,,,,,,,
,Screen_2,canvas.Screen,0_4_6_1,,skipped,7,201858,,,201857,,201858,2021-10-22T21:04:04.182Z,201952.84,1634936135,full,ni_sequenzen,NI_Sequenzen,,,,,,,,,,,,,,
,Screen_3,canvas.Screen,0_4_6_2,,skipped,7,201859,,,201857,,201859,2021-10-22T21:04:04.183Z,201952.84,1634936135,full,ni_sequenzen,NI_Sequenzen,,,,,,,,,,,,,,
,Sequence,flow.Sequence,0_4_6,,completion,7,201856,,,201857,,201859,2021-10-22T21:04:04.183Z,201952.84,1634936135,full,ni_sequenzen,NI_Sequenzen,,,,,,,,,,,,,,
,Screen_1,canvas.Screen,0_4_7_0,,skipped,8,201861,,,201861,,201861,2021-10-22T21:04:04.185Z,201952.84,1634936135,full,ni_sequenzen,NI_Sequenzen,,,,,,,,,,,,,,
,Screen_2,canvas.Screen,0_4_7_1,,skipped,8,201862,,,201861,,201862,2021-10-22T21:04:04.186Z,201952.84,1634936135,full,ni_sequenzen,NI_Sequenzen,,,,,,,,,,,,,,
,Screen_3,canvas.Screen,0_4_7_2,,skipped,8,201863,,,201861,,201863,2021-10-22T21:04:04.187Z,201952.84,1634936135,full,ni_sequenzen,NI_Sequenzen,,,,,,,,,,,,,,
,Sequence,flow.Sequence,0_4_7,,completion,8,201859,,,201861,,201863,2021-10-22T21:04:04.187Z,201952.84,1634936135,full,ni_sequenzen,NI_Sequenzen,,,,,,,,,,,,,,
,Screen_1,canvas.Screen,0_4_8_0,,skipped,9,201864,,,201864,,201864,2021-10-22T21:04:04.188Z,201952.84,1634936135,full,ni_sequenzen,NI_Sequenzen,,,,,,,,,,,,,,
,Screen_2,canvas.Screen,0_4_8_1,,skipped,9,201865,,,201864,,201865,2021-10-22T21:04:04.189Z,201952.84,1634936135,full,ni_sequenzen,NI_Sequenzen,,,,,,,,,,,,,,
,Screen_3,canvas.Screen,0_4_8_2,,skipped,9,201865,,,201864,,201865,2021-10-22T21:04:04.190Z,201952.84,1634936135,full,ni_sequenzen,NI_Sequenzen,,,,,,,,,,,,,,
,Sequence,flow.Sequence,0_4_8,,completion,9,201863,,,201864,,201865,2021-10-22T21:04:04.190Z,201952.84,1634936135,full,ni_sequenzen,NI_Sequenzen,,,,,,,,,,,,,,
,Screen_1,canvas.Screen,0_4_9_0,,skipped,10,201868,,,201868,,201868,2021-10-22T21:04:04.191Z,201952.84,1634936135,full,ni_sequenzen,NI_Sequenzen,,,,,,,,,,,,,,
,Screen_2,canvas.Screen,0_4_9_1,,skipped,10,201868,,,201868,,201868,2021-10-22T21:04:04.192Z,201952.84,1634936135,full,ni_sequenzen,NI_Sequenzen,,,,,,,,,,,,,,
,Screen_3,canvas.Screen,0_4_9_2,,skipped,10,201869,,,201868,,201869,2021-10-22T21:04:04.194Z,201952.84,1634936135,full,ni_sequenzen,NI_Sequenzen,,,,,,,,,,,,,,
,Sequence,flow.Sequence,0_4_9,,completion,10,201867,,,201868,,201869,2021-10-22T21:04:04.194Z,201952.84,1634936135,full,ni_sequenzen,NI_Sequenzen,,,,,,,,,,,,,,
,Screen_1,canvas.Screen,0_4_10_0,,skipped,11,201870,,,201870,,201870,2021-10-22T21:04:04.195Z,201952.84,1634936135,full,ni_sequenzen,NI_Sequenzen,,,,,,,,,,,,,,
,Screen_2,canvas.Screen,0_4_10_1,,skipped,11,201871,,,201870,,201871,2021-10-22T21:04:04.195Z,201952.84,1634936135,full,ni_sequenzen,NI_Sequenzen,,,,,,,,,,,,,,
,Screen_3,canvas.Screen,0_4_10_2,,skipped,11,201872,,,201870,,201872,2021-10-22T21:04:04.196Z,201952.84,1634936135,full,ni_sequenzen,NI_Sequenzen,,,,,,,,,,,,,,
,Sequence,flow.Sequence,0_4_10,,completion,11,201870,,,201870,,201872,2021-10-22T21:04:04.196Z,201952.84,1634936135,full,ni_sequenzen,NI_Sequenzen,,,,,,,,,,,,,,
,Screen_1,canvas.Screen,0_4_11_0,,skipped,12,201874,,,201874,,201874,2021-10-22T21:04:04.197Z,201952.84,1634936135,full,ni_sequenzen,NI_Sequenzen,,,,,,,,,,,,,,
,Screen_2,canvas.Screen,0_4_11_1,,skipped,12,201874,,,201874,,201874,2021-10-22T21:04:04.199Z,201952.84,1634936135,full,ni_sequenzen,NI_Sequenzen,,,,,,,,,,,,,,
,Screen_3,canvas.Screen,0_4_11_2,,skipped,12,201876,,,201874,,201876,2021-10-22T21:04:04.200Z,201952.84,1634936135,full,ni_sequenzen,NI_Sequenzen,,,,,,,,,,,,,,
,Sequence,flow.Sequence,0_4_11,,completion,12,201873,,,201874,,201876,2021-10-22T21:04:04.200Z,201952.84,1634936135,full,ni_sequenzen,NI_Sequenzen,,,,,,,,,,,,,,
,Screen_1,canvas.Screen,0_4_12_0,,skipped,13,201878,,,201878,,201878,2021-10-22T21:04:04.201Z,201952.84,1634936135,full,ni_sequenzen,NI_Sequenzen,,,,,,,,,,,,,,
,Screen_2,canvas.Screen,0_4_12_1,,skipped,13,201879,,,201878,,201879,2021-10-22T21:04:04.202Z,201952.84,1634936135,full,ni_sequenzen,NI_Sequenzen,,,,,,,,,,,,,,
,Screen_3,canvas.Screen,0_4_12_2,,skipped,13,201879,,,201878,,201880,2021-10-22T21:04:04.203Z,201952.84,1634936135,full,ni_sequenzen,NI_Sequenzen,,,,,,,,,,,,,,
,Sequence,flow.Sequence,0_4_12,,completion,13,201877,,,201878,,201880,2021-10-22T21:04:04.203Z,201952.84,1634936135,full,ni_sequenzen,NI_Sequenzen,,,,,,,,,,,,,,
,Screen_1,canvas.Screen,0_4_13_0,,skipped,14,201881,,,201881,,201881,2021-10-22T21:04:04.204Z,201952.84,1634936135,full,ni_sequenzen,NI_Sequenzen,,,,,,,,,,,,,,
,Screen_2,canvas.Screen,0_4_13_1,,skipped,14,201881,,,201881,,201881,2021-10-22T21:04:04.205Z,201952.84,1634936135,full,ni_sequenzen,NI_Sequenzen,,,,,,,,,,,,,,
,Screen_3,canvas.Screen,0_4_13_2,,skipped,14,201883,,,201881,,201883,2021-10-22T21:04:04.206Z,201952.84,1634936135,full,ni_sequenzen,NI_Sequenzen,,,,,,,,,,,,,,
,Sequence,flow.Sequence,0_4_13,,completion,14,201880,,,201881,,201883,2021-10-22T21:04:04.206Z,201952.84,1634936135,full,ni_sequenzen,NI_Sequenzen,,,,,,,,,,,,,,
,Screen_1,canvas.Screen,0_4_14_0,,skipped,15,201884,,,201884,,201884,2021-10-22T21:04:04.208Z,201952.84,1634936135,full,ni_sequenzen,NI_Sequenzen,,,,,,,,,,,,,,
,Screen_2,canvas.Screen,0_4_14_1,,skipped,15,201885,,,201884,,201885,2021-10-22T21:04:04.209Z,201952.84,1634936135,full,ni_sequenzen,NI_Sequenzen,,,,,,,,,,,,,,
,Screen_3,canvas.Screen,0_4_14_2,,skipped,15,201886,,,201884,,201886,2021-10-22T21:04:04.210Z,201952.84,1634936135,full,ni_sequenzen,NI_Sequenzen,,,,,,,,,,,,,,
,Sequence,flow.Sequence,0_4_14,,completion,15,201883,,,201884,,201886,2021-10-22T21:04:04.210Z,201952.84,1634936135,full,ni_sequenzen,NI_Sequenzen,,,,,,,,,,,,,,
,Screen_1,canvas.Screen,0_4_15_0,,skipped,16,201888,,,201888,,201888,2021-10-22T21:04:04.212Z,201952.84,1634936135,full,ni_sequenzen,NI_Sequenzen,,,,,,,,,,,,,,
,Screen_2,canvas.Screen,0_4_15_1,,skipped,16,201889,,,201888,,201889,2021-10-22T21:04:04.212Z,201952.84,1634936135,full,ni_sequenzen,NI_Sequenzen,,,,,,,,,,,,,,
,Screen_3,canvas.Screen,0_4_15_2,,skipped,16,201889,,,201888,,201890,2021-10-22T21:04:04.213Z,201952.84,1634936135,full,ni_sequenzen,NI_Sequenzen,,,,,,,,,,,,,,
,Sequence,flow.Sequence,0_4_15,,completion,16,201887,,,201888,,201890,2021-10-22T21:04:04.213Z,201952.84,1634936135,full,ni_sequenzen,NI_Sequenzen,,,,,,,,,,,,,,
,Screen_1,canvas.Screen,0_4_16_0,,skipped,17,201891,,,201891,,201891,2021-10-22T21:04:04.215Z,201952.84,1634936135,full,ni_sequenzen,NI_Sequenzen,,,,,,,,,,,,,,
,Screen_2,canvas.Screen,0_4_16_1,,skipped,17,201892,,,201891,,201892,2021-10-22T21:04:04.215Z,201952.84,1634936135,full,ni_sequenzen,NI_Sequenzen,,,,,,,,,,,,,,
,Screen_3,canvas.Screen,0_4_16_2,,skipped,17,201893,,,201891,,201893,2021-10-22T21:04:04.216Z,201952.84,1634936135,full,ni_sequenzen,NI_Sequenzen,,,,,,,,,,,,,,
,Sequence,flow.Sequence,0_4_16,,completion,17,201890,,,201891,,201893,2021-10-22T21:04:04.216Z,201952.84,1634936135,full,ni_sequenzen,NI_Sequenzen,,,,,,,,,,,,,,
,Screen_1,canvas.Screen,0_4_17_0,,skipped,18,201894,,,201894,,201894,2021-10-22T21:04:04.218Z,201952.84,1634936135,full,ni_sequenzen,NI_Sequenzen,,,,,,,,,,,,,,
,Screen_2,canvas.Screen,0_4_17_1,,skipped,18,201895,,,201894,,201895,2021-10-22T21:04:04.219Z,201952.84,1634936135,full,ni_sequenzen,NI_Sequenzen,,,,,,,,,,,,,,
,Screen_3,canvas.Screen,0_4_17_2,,skipped,18,201896,,,201894,,201896,2021-10-22T21:04:04.220Z,201952.84,1634936135,full,ni_sequenzen,NI_Sequenzen,,,,,,,,,,,,,,
,Sequence,flow.Sequence,0_4_17,,completion,18,201893,,,201894,,201896,2021-10-22T21:04:04.220Z,201952.84,1634936135,full,ni_sequenzen,NI_Sequenzen,,,,,,,,,,,,,,
,Screen_1,canvas.Screen,0_4_18_0,,skipped,19,201898,,,201898,,201898,2021-10-22T21:04:04.221Z,201952.84,1634936135,full,ni_sequenzen,NI_Sequenzen,,,,,,,,,,,,,,
,Screen_2,canvas.Screen,0_4_18_1,,skipped,19,201898,,,201898,,201898,2021-10-22T21:04:04.222Z,201952.84,1634936135,full,ni_sequenzen,NI_Sequenzen,,,,,,,,,,,,,,
