meta,sender,sender_type,sender_id,response,ended_on,instrCount,time_run,time_render,time_show,time_end,duration,time_commit,timestamp,time_switch,openLabId,type,task,project,move,trialN,blockN_Train,blockN,moveCount,currPP,points,movesTrial,visitedFields,diff,reward,Strategie,Zweck,Probleme
[object Object],Screen_1,canvas.Screen,0_0_0_0,cont,response,1,948,944.394,994.395,3113.7999992370605,2119.4049992370606,3114.8999996185303,2021-10-23T13:32:52.520Z,3244.359,1634995717,full,ni_sequenzen,NI_Sequenzen,,,,,,,,,,,,,,
,Screen_2,canvas.Screen,0_0_0_1,cont,response,1,3233.8999996185303,3227.681,3244.359,28387.19999885559,25142.84099885559,28388.10000038147,2021-10-23T13:33:17.793Z,28677.239,1634995717,full,ni_sequenzen,NI_Sequenzen,,,,,,,,,,,,,,
,Screen_3,canvas.Screen,0_0_0_2,back,response,1,28658.19999885559,28643.856,28677.239,42096,13418.760999999999,42096.60000038147,2021-10-23T13:33:31.502Z,42110.342,1634995717,full,ni_sequenzen,NI_Sequenzen,,,,,,,,,,,,,,
,Screen_4,canvas.Screen,0_0_0_3,,skipped,1,42100.19999885559,,,42096,,42100.39999961853,2021-10-23T13:33:31.506Z,42110.342,1634995717,full,ni_sequenzen,NI_Sequenzen,,,,,,,,,,,,,,
,Sequence,flow.Sequence,0_0_0,,completion,1,863.6000003814697,944.394,994.395,42096,41101.605,42101.89999961853,2021-10-23T13:33:31.507Z,42110.342,1634995717,full,ni_sequenzen,NI_Sequenzen,,,,,,,,,,,,,,
,Screen_1,canvas.Screen,0_0_1_0,,skipped,2,42104.10000038147,,,42104.10000038147,,42104.29999923706,2021-10-23T13:33:31.509Z,42110.342,1634995717,full,ni_sequenzen,NI_Sequenzen,,,,,,,,,,,,,,
,Screen_2,canvas.Screen,0_0_1_1,cont,response,2,42105.79999923706,42093.366,42110.342,43500.79999923706,1390.4579992370636,43501.5,2021-10-23T13:33:32.907Z,43510.313,1634995717,full,ni_sequenzen,NI_Sequenzen,,,,,,,,,,,,,,
,Screen_3,canvas.Screen,0_0_1_2,cont,response,2,43503.60000038147,43493.625,43510.313,53707.39999961853,10197.086999618528,53708,2021-10-23T13:33:43.113Z,53726.809,1634995717,full,ni_sequenzen,NI_Sequenzen,,,,,,,,,,,,,,
,Screen_4,canvas.Screen,0_0_1_3,cont,response,2,53710.60000038147,53709.908,53726.809,64427.29999923706,10700.49099923706,64427.89999961853,2021-10-23T13:33:53.833Z,64609.945,1634995717,full,ni_sequenzen,NI_Sequenzen,,,,,,,,,,,,,,
,Sequence,flow.Sequence,0_0_1,,completion,2,42102.69999885559,42093.366,42110.342,64427.29999923706,22316.957999237064,64428.29999923706,2021-10-23T13:33:53.833Z,64609.945,1634995717,full,ni_sequenzen,NI_Sequenzen,,,,,,,,,,,,,,
,Screen_1,canvas.Screen,0_0_2_0,,skipped,3,64432.10000038147,,,64432.10000038147,,64432.29999923706,2021-10-23T13:33:53.837Z,64609.945,1634995717,full,ni_sequenzen,NI_Sequenzen,,,,,,,,,,,,,,
,Screen_2,canvas.Screen,0_0_2_1,,skipped,3,64434.10000038147,,,64432.10000038147,,64434.39999961853,2021-10-23T13:33:53.840Z,64609.945,1634995717,full,ni_sequenzen,NI_Sequenzen,,,,,,,,,,,,,,
,Screen_3,canvas.Screen,0_0_2_2,,skipped,3,64436.29999923706,,,64432.10000038147,,64436.39999961853,2021-10-23T13:33:53.842Z,64609.945,1634995717,full,ni_sequenzen,NI_Sequenzen,,,,,,,,,,,,,,
,Screen_4,canvas.Screen,0_0_2_3,,skipped,3,64438.19999885559,,,64432.10000038147,,64438.29999923706,2021-10-23T13:33:53.843Z,64609.945,1634995717,full,ni_sequenzen,NI_Sequenzen,,,,,,,,,,,,,,
,Sequence,flow.Sequence,0_0_2,,completion,3,64430.39999961853,,,64432.10000038147,,64438.60000038147,2021-10-23T13:33:53.844Z,64609.945,1634995717,full,ni_sequenzen,NI_Sequenzen,,,,,,,,,,,,,,
,Screen_1,canvas.Screen,0_0_3_0,,skipped,4,64440.79999923706,,,64440.89999961853,,64441,2021-10-23T13:33:53.846Z,64609.945,1634995717,full,ni_sequenzen,NI_Sequenzen,,,,,,,,,,,,,,
,Screen_2,canvas.Screen,0_0_3_1,,skipped,4,64442.69999885559,,,64440.89999961853,,64442.89999961853,2021-10-23T13:33:53.848Z,64609.945,1634995717,full,ni_sequenzen,NI_Sequenzen,,,,,,,,,,,,,,
,Screen_3,canvas.Screen,0_0_3_2,,skipped,4,64444.60000038147,,,64440.89999961853,,64444.79999923706,2021-10-23T13:33:53.850Z,64609.945,1634995717,full,ni_sequenzen,NI_Sequenzen,,,,,,,,,,,,,,
,Screen_4,canvas.Screen,0_0_3_3,,skipped,4,64447.10000038147,,,64440.89999961853,,64447.19999885559,2021-10-23T13:33:53.852Z,64609.945,1634995717,full,ni_sequenzen,NI_Sequenzen,,,,,,,,,,,,,,
,Sequence,flow.Sequence,0_0_3,,completion,4,64439.19999885559,,,64440.89999961853,,64447.5,2021-10-23T13:33:53.853Z,64609.945,1634995717,full,ni_sequenzen,NI_Sequenzen,,,,,,,,,,,,,,
,Screen_1,canvas.Screen,0_0_4_0,,skipped,5,64449.60000038147,,,64449.60000038147,,64449.69999885559,2021-10-23T13:33:53.855Z,64609.945,1634995717,full,ni_sequenzen,NI_Sequenzen,,,,,,,,,,,,,,
,Screen_2,canvas.Screen,0_0_4_1,,skipped,5,64451.29999923706,,,64449.60000038147,,64451.39999961853,2021-10-23T13:33:53.857Z,64609.945,1634995717,full,ni_sequenzen,NI_Sequenzen,,,,,,,,,,,,,,
,Screen_3,canvas.Screen,0_0_4_2,,skipped,5,64453.19999885559,,,64449.60000038147,,64453.29999923706,2021-10-23T13:33:53.858Z,64609.945,1634995717,full,ni_sequenzen,NI_Sequenzen,,,,,,,,,,,,,,
,Screen_4,canvas.Screen,0_0_4_3,,skipped,5,64456,,,64449.60000038147,,64456,2021-10-23T13:33:53.861Z,64609.945,1634995717,full,ni_sequenzen,NI_Sequenzen,,,,,,,,,,,,,,
,Sequence,flow.Sequence,0_0_4,,completion,5,64448.19999885559,,,64449.60000038147,,64456.19999885559,2021-10-23T13:33:53.861Z,64609.945,1634995717,full,ni_sequenzen,NI_Sequenzen,,,,,,,,,,,,,,
,Screen_1,canvas.Screen,0_0_5_0,,skipped,6,64457.79999923706,,,64457.79999923706,,64457.89999961853,2021-10-23T13:33:53.863Z,64609.945,1634995717,full,ni_sequenzen,NI_Sequenzen,,,,,,,,,,,,,,
,Screen_2,canvas.Screen,0_0_5_1,,skipped,6,64458.69999885559,,,64457.79999923706,,64458.79999923706,2021-10-23T13:33:53.864Z,64609.945,1634995717,full,ni_sequenzen,NI_Sequenzen,,,,,,,,,,,,,,
,Screen_3,canvas.Screen,0_0_5_2,,skipped,6,64459.69999885559,,,64457.79999923706,,64459.69999885559,2021-10-23T13:33:53.865Z,64609.945,1634995717,full,ni_sequenzen,NI_Sequenzen,,,,,,,,,,,,,,
,Screen_4,canvas.Screen,0_0_5_3,,skipped,6,64461.5,,,64457.79999923706,,64461.69999885559,2021-10-23T13:33:53.867Z,64609.945,1634995717,full,ni_sequenzen,NI_Sequenzen,,,,,,,,,,,,,,
,Sequence,flow.Sequence,0_0_5,,completion,6,64456.79999923706,,,64457.79999923706,,64461.89999961853,2021-10-23T13:33:53.867Z,64609.945,1634995717,full,ni_sequenzen,NI_Sequenzen,,,,,,,,,,,,,,
,Screen_1,canvas.Screen,0_0_6_0,,skipped,7,64463.10000038147,,,64463.10000038147,,64463.19999885559,2021-10-23T13:33:53.868Z,64609.945,1634995717,full,ni_sequenzen,NI_Sequenzen,,,,,,,,,,,,,,
,Screen_2,canvas.Screen,0_0_6_1,,skipped,7,64464,,,64463.10000038147,,64464.10000038147,2021-10-23T13:33:53.869Z,64609.945,1634995717,full,ni_sequenzen,NI_Sequenzen,,,,,,,,,,,,,,
,Screen_3,canvas.Screen,0_0_6_2,,skipped,7,64464.89999961853,,,64463.10000038147,,64465,2021-10-23T13:33:53.870Z,64609.945,1634995717,full,ni_sequenzen,NI_Sequenzen,,,,,,,,,,,,,,
,Screen_4,canvas.Screen,0_0_6_3,,skipped,7,64465.89999961853,,,64463.10000038147,,64465.89999961853,2021-10-23T13:33:53.871Z,64609.945,1634995717,full,ni_sequenzen,NI_Sequenzen,,,,,,,,,,,,,,
,Sequence,flow.Sequence,0_0_6,,completion,7,64462.29999923706,,,64463.10000038147,,64466.10000038147,2021-10-23T13:33:53.871Z,64609.945,1634995717,full,ni_sequenzen,NI_Sequenzen,,,,,,,,,,,,,,
,Screen_1,canvas.Screen,0_0_7_0,,skipped,8,64468.29999923706,,,64468.29999923706,,64468.39999961853,2021-10-23T13:33:53.874Z,64609.945,1634995717,full,ni_sequenzen,NI_Sequenzen,,,,,,,,,,,,,,
,Screen_2,canvas.Screen,0_0_7_1,,skipped,8,64470.19999885559,,,64468.29999923706,,64470.39999961853,2021-10-23T13:33:53.875Z,64609.945,1634995717,full,ni_sequenzen,NI_Sequenzen,,,,,,,,,,,,,,
,Screen_3,canvas.Screen,0_0_7_2,,skipped,8,64472.19999885559,,,64468.29999923706,,64472.19999885559,2021-10-23T13:33:53.877Z,64609.945,1634995717,full,ni_sequenzen,NI_Sequenzen,,,,,,,,,,,,,,
,Screen_4,canvas.Screen,0_0_7_3,,skipped,8,64474.89999961853,,,64468.29999923706,,64475,2021-10-23T13:33:53.880Z,64609.945,1634995717,full,ni_sequenzen,NI_Sequenzen,,,,,,,,,,,,,,
,Sequence,flow.Sequence,0_0_7,,completion,8,64466.69999885559,,,64468.29999923706,,64475.19999885559,2021-10-23T13:33:53.880Z,64609.945,1634995717,full,ni_sequenzen,NI_Sequenzen,,,,,,,,,,,,,,
,Screen_1,canvas.Screen,0_0_8_0,,skipped,9,64477.19999885559,,,64477.19999885559,,64477.29999923706,2021-10-23T13:33:53.882Z,64609.945,1634995717,full,ni_sequenzen,NI_Sequenzen,,,,,,,,,,,,,,
,Screen_2,canvas.Screen,0_0_8_1,,skipped,9,64479.10000038147,,,64477.19999885559,,64479.19999885559,2021-10-23T13:33:53.884Z,64609.945,1634995717,full,ni_sequenzen,NI_Sequenzen,,,,,,,,,,,,,,
,Screen_3,canvas.Screen,0_0_8_2,,skipped,9,64481.10000038147,,,64477.19999885559,,64481.29999923706,2021-10-23T13:33:53.886Z,64609.945,1634995717,full,ni_sequenzen,NI_Sequenzen,,,,,,,,,,,,,,
,Screen_4,canvas.Screen,0_0_8_3,,skipped,9,64482.89999961853,,,64477.19999885559,,64483.10000038147,2021-10-23T13:33:53.888Z,64609.945,1634995717,full,ni_sequenzen,NI_Sequenzen,,,,,,,,,,,,,,
,Sequence,flow.Sequence,0_0_8,,completion,9,64475.69999885559,,,64477.19999885559,,64483.29999923706,2021-10-23T13:33:53.888Z,64609.945,1634995717,full,ni_sequenzen,NI_Sequenzen,,,,,,,,,,,,,,
,Screen_1,canvas.Screen,0_0_9_0,,skipped,10,64485.39999961853,,,64485.39999961853,,64485.5,2021-10-23T13:33:53.891Z,64609.945,1634995717,full,ni_sequenzen,NI_Sequenzen,,,,,,,,,,,,,,
,Screen_2,canvas.Screen,0_0_9_1,,skipped,10,64487.10000038147,,,64485.39999961853,,64487.29999923706,2021-10-23T13:33:53.892Z,64609.945,1634995717,full,ni_sequenzen,NI_Sequenzen,,,,,,,,,,,,,,
,Screen_3,canvas.Screen,0_0_9_2,,skipped,10,64489,,,64485.39999961853,,64489.10000038147,2021-10-23T13:33:53.894Z,64609.945,1634995717,full,ni_sequenzen,NI_Sequenzen,,,,,,,,,,,,,,
,Screen_4,canvas.Screen,0_0_9_3,,skipped,10,64490.89999961853,,,64485.39999961853,,64491,2021-10-23T13:33:53.896Z,64609.945,1634995717,full,ni_sequenzen,NI_Sequenzen,,,,,,,,,,,,,,
,Sequence,flow.Sequence,0_0_9,,completion,10,64483.89999961853,,,64485.39999961853,,64491.29999923706,2021-10-23T13:33:53.896Z,64609.945,1634995717,full,ni_sequenzen,NI_Sequenzen,,,,,,,,,,,,,,
,Screen_1,canvas.Screen,0_0_10_0,,skipped,11,64493.29999923706,,,64493.29999923706,,64493.39999961853,2021-10-23T13:33:53.899Z,64609.945,1634995717,full,ni_sequenzen,NI_Sequenzen,,,,,,,,,,,,,,
,Screen_2,canvas.Screen,0_0_10_1,,skipped,11,64495,,,64493.29999923706,,64495.19999885559,2021-10-23T13:33:53.900Z,64609.945,1634995717,full,ni_sequenzen,NI_Sequenzen,,,,,,,,,,,,,,
,Screen_3,canvas.Screen,0_0_10_2,,skipped,11,64497.69999885559,,,64493.29999923706,,64497.89999961853,2021-10-23T13:33:53.903Z,64609.945,1634995717,full,ni_sequenzen,NI_Sequenzen,,,,,,,,,,,,,,
,Screen_4,canvas.Screen,0_0_10_3,,skipped,11,64499.39999961853,,,64493.29999923706,,64499.60000038147,2021-10-23T13:33:53.905Z,64609.945,1634995717,full,ni_sequenzen,NI_Sequenzen,,,,,,,,,,,,,,
,Sequence,flow.Sequence,0_0_10,,completion,11,64491.89999961853,,,64493.29999923706,,64499.79999923706,2021-10-23T13:33:53.905Z,64609.945,1634995717,full,ni_sequenzen,NI_Sequenzen,,,,,,,,,,,,,,
,Screen_1,canvas.Screen,0_0_11_0,,skipped,12,64502.5,,,64502.60000038147,,64502.69999885559,2021-10-23T13:33:53.908Z,64609.945,1634995717,full,ni_sequenzen,NI_Sequenzen,,,,,,,,,,,,,,
,Screen_2,canvas.Screen,0_0_11_1,,skipped,12,64504.19999885559,,,64502.60000038147,,64504.39999961853,2021-10-23T13:33:53.909Z,64609.945,1634995717,full,ni_sequenzen,NI_Sequenzen,,,,,,,,,,,,,,
,Screen_3,canvas.Screen,0_0_11_2,,skipped,12,64506,,,64502.60000038147,,64506,2021-10-23T13:33:53.911Z,64609.945,1634995717,full,ni_sequenzen,NI_Sequenzen,,,,,,,,,,,,,,
,Screen_4,canvas.Screen,0_0_11_3,,skipped,12,64507.5,,,64502.60000038147,,64507.69999885559,2021-10-23T13:33:53.913Z,64609.945,1634995717,full,ni_sequenzen,NI_Sequenzen,,,,,,,,,,,,,,
,Sequence,flow.Sequence,0_0_11,,completion,12,64501.29999923706,,,64502.60000038147,,64507.79999923706,2021-10-23T13:33:53.913Z,64609.945,1634995717,full,ni_sequenzen,NI_Sequenzen,,,,,,,,,,,,,,
,Screen_1,canvas.Screen,0_0_12_0,,skipped,13,64509.79999923706,,,64509.79999923706,,64509.89999961853,2021-10-23T13:33:53.915Z,64609.945,1634995717,full,ni_sequenzen,NI_Sequenzen,,,,,,,,,,,,,,
,Screen_2,canvas.Screen,0_0_12_1,,skipped,13,64511.5,,,64509.79999923706,,64511.60000038147,2021-10-23T13:33:53.917Z,64609.945,1634995717,full,ni_sequenzen,NI_Sequenzen,,,,,,,,,,,,,,
,Screen_3,canvas.Screen,0_0_12_2,,skipped,13,64513.39999961853,,,64509.79999923706,,64513.60000038147,2021-10-23T13:33:53.919Z,64609.945,1634995717,full,ni_sequenzen,NI_Sequenzen,,,,,,,,,,,,,,
,Screen_4,canvas.Screen,0_0_12_3,,skipped,13,64515.29999923706,,,64509.79999923706,,64515.39999961853,2021-10-23T13:33:53.921Z,64609.945,1634995717,full,ni_sequenzen,NI_Sequenzen,,,,,,,,,,,,,,
,Sequence,flow.Sequence,0_0_12,,completion,13,64508.39999961853,,,64509.79999923706,,64515.60000038147,2021-10-23T13:33:53.921Z,64609.945,1634995717,full,ni_sequenzen,NI_Sequenzen,,,,,,,,,,,,,,
,Screen_1,canvas.Screen,0_0_13_0,,skipped,14,64517.60000038147,,,64517.69999885559,,64517.79999923706,2021-10-23T13:33:53.923Z,64609.945,1634995717,full,ni_sequenzen,NI_Sequenzen,,,,,,,,,,,,,,
,Screen_2,canvas.Screen,0_0_13_1,,skipped,14,64519.39999961853,,,64517.69999885559,,64519.60000038147,2021-10-23T13:33:53.925Z,64609.945,1634995717,full,ni_sequenzen,NI_Sequenzen,,,,,,,,,,,,,,
,Screen_3,canvas.Screen,0_0_13_2,,skipped,14,64522.19999885559,,,64517.69999885559,,64522.29999923706,2021-10-23T13:33:53.927Z,64609.945,1634995717,full,ni_sequenzen,NI_Sequenzen,,,,,,,,,,,,,,
,Screen_4,canvas.Screen,0_0_13_3,,skipped,14,64524.10000038147,,,64517.69999885559,,64524.29999923706,2021-10-23T13:33:53.929Z,64609.945,1634995717,full,ni_sequenzen,NI_Sequenzen,,,,,,,,,,,,,,
,Sequence,flow.Sequence,0_0_13,,completion,14,64516.19999885559,,,64517.69999885559,,64524.39999961853,2021-10-23T13:33:53.930Z,64609.945,1634995717,full,ni_sequenzen,NI_Sequenzen,,,,,,,,,,,,,,
,Screen_1,canvas.Screen,0_0_14_0,,skipped,15,64526.39999961853,,,64526.39999961853,,64526.5,2021-10-23T13:33:53.932Z,64609.945,1634995717,full,ni_sequenzen,NI_Sequenzen,,,,,,,,,,,,,,
,Screen_2,canvas.Screen,0_0_14_1,,skipped,15,64528.10000038147,,,64526.39999961853,,64528.19999885559,2021-10-23T13:33:53.933Z,64609.945,1634995717,full,ni_sequenzen,NI_Sequenzen,,,,,,,,,,,,,,
,Screen_3,canvas.Screen,0_0_14_2,,skipped,15,64530,,,64526.39999961853,,64530,2021-10-23T13:33:53.935Z,64609.945,1634995717,full,ni_sequenzen,NI_Sequenzen,,,,,,,,,,,,,,
,Screen_4,canvas.Screen,0_0_14_3,,skipped,15,64531.69999885559,,,64526.39999961853,,64531.89999961853,2021-10-23T13:33:53.937Z,64609.945,1634995717,full,ni_sequenzen,NI_Sequenzen,,,,,,,,,,,,,,
,Sequence,flow.Sequence,0_0_14,,completion,15,64525,,,64526.39999961853,,64532,2021-10-23T13:33:53.937Z,64609.945,1634995717,full,ni_sequenzen,NI_Sequenzen,,,,,,,,,,,,,,
,Screen_1,canvas.Screen,0_0_15_0,,skipped,16,64533.89999961853,,,64534,,64534.10000038147,2021-10-23T13:33:53.939Z,64609.945,1634995717,full,ni_sequenzen,NI_Sequenzen,,,,,,,,,,,,,,
,Screen_2,canvas.Screen,0_0_15_1,,skipped,16,64536.19999885559,,,64534,,64536.29999923706,2021-10-23T13:33:53.941Z,64609.945,1634995717,full,ni_sequenzen,NI_Sequenzen,,,,,,,,,,,,,,
,Screen_3,canvas.Screen,0_0_15_2,,skipped,16,64537.79999923706,,,64534,,64537.89999961853,2021-10-23T13:33:53.943Z,64609.945,1634995717,full,ni_sequenzen,NI_Sequenzen,,,,,,,,,,,,,,
,Screen_4,canvas.Screen,0_0_15_3,,skipped,16,64539.39999961853,,,64534,,64539.60000038147,2021-10-23T13:33:53.945Z,64609.945,1634995717,full,ni_sequenzen,NI_Sequenzen,,,,,,,,,,,,,,
,Sequence,flow.Sequence,0_0_15,,completion,16,64532.69999885559,,,64534,,64539.89999961853,2021-10-23T13:33:53.945Z,64609.945,1634995717,full,ni_sequenzen,NI_Sequenzen,,,,,,,,,,,,,,
,Screen_1,canvas.Screen,0_0_16_0,,skipped,17,64541.89999961853,,,64541.89999961853,,64542,2021-10-23T13:33:53.947Z,64609.945,1634995717,full,ni_sequenzen,NI_Sequenzen,,,,,,,,,,,,,,
,Screen_2,canvas.Screen,0_0_16_1,,skipped,17,64544.39999961853,,,64541.89999961853,,64544.60000038147,2021-10-23T13:33:53.950Z,64609.945,1634995717,full,ni_sequenzen,NI_Sequenzen,,,,,,,,,,,,,,
,Screen_3,canvas.Screen,0_0_16_2,,skipped,17,64546.29999923706,,,64541.89999961853,,64546.39999961853,2021-10-23T13:33:53.952Z,64609.945,1634995717,full,ni_sequenzen,NI_Sequenzen,,,,,,,,,,,,,,
,Screen_4,canvas.Screen,0_0_16_3,,skipped,17,64548.10000038147,,,64541.89999961853,,64548.19999885559,2021-10-23T13:33:53.953Z,64609.945,1634995717,full,ni_sequenzen,NI_Sequenzen,,,,,,,,,,,,,,
,Sequence,flow.Sequence,0_0_16,,completion,17,64540.5,,,64541.89999961853,,64548.39999961853,2021-10-23T13:33:53.954Z,64609.945,1634995717,full,ni_sequenzen,NI_Sequenzen,,,,,,,,,,,,,,
,Screen_1,canvas.Screen,0_0_17_0,,skipped,18,64550.5,,,64550.5,,64550.60000038147,2021-10-23T13:33:53.956Z,64609.945,1634995717,full,ni_sequenzen,NI_Sequenzen,,,,,,,,,,,,,,
,Screen_2,canvas.Screen,0_0_17_1,,skipped,18,64552.19999885559,,,64550.5,,64552.29999923706,2021-10-23T13:33:53.957Z,64609.945,1634995717,full,ni_sequenzen,NI_Sequenzen,,,,,,,,,,,,,,
,Screen_3,canvas.Screen,0_0_17_2,,skipped,18,64554,,,64550.5,,64554.10000038147,2021-10-23T13:33:53.959Z,64609.945,1634995717,full,ni_sequenzen,NI_Sequenzen,,,,,,,,,,,,,,
,Screen_4,canvas.Screen,0_0_17_3,,skipped,18,64555.69999885559,,,64550.5,,64555.89999961853,2021-10-23T13:33:53.961Z,64609.945,1634995717,full,ni_sequenzen,NI_Sequenzen,,,,,,,,,,,,,,
,Sequence,flow.Sequence,0_0_17,,completion,18,64549.10000038147,,,64550.5,,64556.19999885559,2021-10-23T13:33:53.961Z,64609.945,1634995717,full,ni_sequenzen,NI_Sequenzen,,,,,,,,,,,,,,
,Screen_1,canvas.Screen,0_0_18_0,,skipped,19,64558.19999885559,,,64558.19999885559,,64558.29999923706,2021-10-23T13:33:53.964Z,64609.945,1634995717,full,ni_sequenzen,NI_Sequenzen,,,,,,,,,,,,,,
,Screen_2,canvas.Screen,0_0_18_1,,skipped,19,64559.89999961853,,,64558.19999885559,,64560,2021-10-23T13:33:53.965Z,64609.945,1634995717,full,ni_sequenzen,NI_Sequenzen,,,,,,,,,,,,,,
,Screen_3,canvas.Screen,0_0_18_2,,skipped,19,64561.69999885559,,,64558.19999885559,,64561.89999961853,2021-10-23T13:33:53.967Z,64609.945,1634995717,full,ni_sequenzen,NI_Sequenzen,,,,,,,,,,,,,,
,Screen_4,canvas.Screen,0_0_18_3,,skipped,19,64563.39999961853,,,64558.19999885559,,64563.60000038147,2021-10-23T13:33:53.969Z,64609.945,1634995717,full,ni_sequenzen,NI_Sequenzen,,,,,,,,,,,,,,
,Sequence,flow.Sequence,0_0_18,,completion,19,64556.89999961853,,,64558.19999885559,,64563.79999923706,2021-10-23T13:33:53.969Z,64609.945,1634995717,full,ni_sequenzen,NI_Sequenzen,,,,,,,,,,,,,,
,Screen_1,canvas.Screen,0_0_19_0,,skipped,20,64565.69999885559,,,64565.69999885559,,64565.79999923706,2021-10-23T13:33:53.971Z,64609.945,1634995717,full,ni_sequenzen,NI_Sequenzen,,,,,,,,,,,,,,
,Screen_2,canvas.Screen,0_0_19_1,,skipped,20,64567.89999961853,,,64565.69999885559,,64568.10000038147,2021-10-23T13:33:53.973Z,64609.945,1634995717,full,ni_sequenzen,NI_Sequenzen,,,,,,,,,,,,,,
,Screen_3,canvas.Screen,0_0_19_2,,skipped,20,64569.5,,,64565.69999885559,,64569.60000038147,2021-10-23T13:33:53.975Z,64609.945,1634995717,full,ni_sequenzen,NI_Sequenzen,,,,,,,,,,,,,,
,Screen_4,canvas.Screen,0_0_19_3,,skipped,20,64570.89999961853,,,64565.69999885559,,64571.10000038147,2021-10-23T13:33:53.976Z,64609.945,1634995717,full,ni_sequenzen,NI_Sequenzen,,,,,,,,,,,,,,
,Sequence,flow.Sequence,0_0_19,,completion,20,64564.39999961853,,,64565.69999885559,,64571.19999885559,2021-10-23T13:33:53.976Z,64609.945,1634995717,full,ni_sequenzen,NI_Sequenzen,,,,,,,,,,,,,,
,Instructions_I,flow.Loop,0_0,,completion,,862.5,944.394,994.395,64565.69999885559,63571.304998855594,64571.29999923706,2021-10-23T13:33:53.976Z,64609.945,1634995717,full,ni_sequenzen,NI_Sequenzen,,,,,,,,,,,,,,
,Move,canvas.Screen,0_1_0_0,right,response,,64593.89999961853,64593.031,64609.945,66211.29999923706,1601.3549992370608,66211.89999961853,2021-10-23T13:33:55.617Z,66226.577,1634995717,full,ni_sequenzen,NI_Sequenzen,1,,,,,,,,,,,,,
,Move,canvas.Screen,0_1_0_1,left,response,,66215.60000038147,66209.882,66226.577,67016.19999885559,789.622998855586,67016.69999885559,2021-10-23T13:33:56.422Z,67026.635,1634995717,full,ni_sequenzen,NI_Sequenzen,2,,,,,,,,,,,,,
,Move,canvas.Screen,0_1_0_2,down,response,,67022,67009.887,67026.635,67553.39999961853,526.7649996185355,67554,2021-10-23T13:33:56.959Z,67559.889,1634995717,full,ni_sequenzen,NI_Sequenzen,3,,,,,,,,,,,,,
,Move,canvas.Screen,0_1_0_3,down,response,,67557.79999923706,67543.207,67559.889,67792.5,232.61100000000442,67793.19999885559,2021-10-23T13:33:57.198Z,67809.9,1634995717,full,ni_sequenzen,NI_Sequenzen,4,,,,,,,,,,,,,
,Move,canvas.Screen,0_1_0_4,left,response,,67796.39999961853,67793.204,67809.9,68267,457.1000000000058,68267.60000038147,2021-10-23T13:33:57.673Z,68276.65,1634995717,full,ni_sequenzen,NI_Sequenzen,5,,,,,,,,,,,,,
,Move,canvas.Screen,0_1_0_5,down,response,,68270.19999885559,68259.866,68276.65,69218,941.3500000000058,69218.5,2021-10-23T13:33:58.624Z,69226.53,1634995717,full,ni_sequenzen,NI_Sequenzen,6,,,,,,,,,,,,,
,Move,canvas.Screen,0_1_0_6,right,response,,69221,69209.846,69226.53,69796.5,569.9700000000012,69797.10000038147,2021-10-23T13:33:59.202Z,69809.862,1634995717,full,ni_sequenzen,NI_Sequenzen,7,,,,,,,,,,,,,
,Move,canvas.Screen,0_1_0_7,left,response,,69799.79999923706,69793.173,69809.862,70968.79999923706,1158.9379992370668,70969.29999923706,2021-10-23T13:34:00.374Z,70976.493,1634995717,full,ni_sequenzen,NI_Sequenzen,8,,,,,,,,,,,,,
,Move,canvas.Screen,0_1_0_8,down,response,,70971.69999885559,70959.794,70976.493,72059.89999961853,1083.406999618528,72060.39999961853,2021-10-23T13:34:01.466Z,72076.503,1634995717,full,ni_sequenzen,NI_Sequenzen,9,,,,,,,,,,,,,
,Move,canvas.Screen,0_1_0_9,right,response,,72063.19999885559,72059.787,72076.503,73848.69999885559,1772.1969988555938,73849.10000038147,2021-10-23T13:34:03.254Z,73859.861,1634995717,full,ni_sequenzen,NI_Sequenzen,10,,,,,,,,,,,,,
,Move,canvas.Screen,0_1_0_10,down,response,,73851.69999885559,73843.075,73859.861,74522.79999923706,662.9389992370561,74523.29999923706,2021-10-23T13:34:03.928Z,74545.135,1634995717,full,ni_sequenzen,NI_Sequenzen,11,,,,,,,,,,,,,
,Move,canvas.Screen,0_1_0_11,down,response,,74525.69999885559,74509.751,74545.135,74834.5,289.36500000000524,74835,2021-10-23T13:34:04.240Z,74843.192,1634995717,full,ni_sequenzen,NI_Sequenzen,12,,,,,,,,,,,,,
,Move,canvas.Screen,0_1_0_12,down,response,,74837.60000038147,74826.424,74843.192,75527.39999961853,684.2079996185348,75528,2021-10-23T13:34:04.933Z,75543.088,1634995717,full,ni_sequenzen,NI_Sequenzen,13,,,,,,,,,,,,,
,Move,canvas.Screen,0_1_0_13,down,response,,75531.10000038147,75526.405,75543.088,75960.39999961853,417.3119996185269,75960.89999961853,2021-10-23T13:34:05.366Z,75976.403,1634995717,full,ni_sequenzen,NI_Sequenzen,14,,,,,,,,,,,,,
,Move,canvas.Screen,0_1_0_14,right,response,,75963.60000038147,75959.731,75976.403,76356.19999885559,379.7969988555851,76356.60000038147,2021-10-23T13:34:05.762Z,76389.089,1634995717,full,ni_sequenzen,NI_Sequenzen,15,,,,,,,,,,,,,
,Move,canvas.Screen,0_1_0_15,right,response,,76359,76343.054,76389.089,76578.60000038147,189.5110003814625,76579.29999923706,2021-10-23T13:34:05.984Z,76593.069,1634995717,full,ni_sequenzen,NI_Sequenzen,16,,,,,,,,,,,,,
,Move,canvas.Screen,0_1_0_16,right,response,,76582.39999961853,76576.385,76593.069,76772.79999923706,179.7309992370574,76773.19999885559,2021-10-23T13:34:06.178Z,76776.393,1634995717,full,ni_sequenzen,NI_Sequenzen,17,,,,,,,,,,,,,
,Move,canvas.Screen,0_1_0_17,left,response,,76775,76759.71,76776.393,77209.5,433.1070000000036,77210.29999923706,2021-10-23T13:34:06.615Z,77226.404,1634995717,full,ni_sequenzen,NI_Sequenzen,18,,,,,,,,,,,,,
,Move,canvas.Screen,0_1_0_18,left,response,,77212.89999961853,77209.719,77226.404,77614.89999961853,388.4959996185353,77615.39999961853,2021-10-23T13:34:07.021Z,77626.479,1634995717,full,ni_sequenzen,NI_Sequenzen,19,,,,,,,,,,,,,
,Move,canvas.Screen,0_1_0_19,right,response,,77617.79999923706,77609.696,77626.479,78119,492.52099999999336,78119.5,2021-10-23T13:34:07.525Z,78126.364,1634995717,full,ni_sequenzen,NI_Sequenzen,20,,,,,,,,,,,,,
,Move,canvas.Screen,0_1_0_20,down,response,,78123.89999961853,78109.683,78126.364,78511.29999923706,384.93599923705915,78511.89999961853,2021-10-23T13:34:07.917Z,78526.49,1634995717,full,ni_sequenzen,NI_Sequenzen,21,,,,,,,,,,,,,
,Move,canvas.Screen,0_1_0_21,down,response,,78514.60000038147,78509.685,78526.49,78804.19999885559,277.7099988555856,78804.69999885559,2021-10-23T13:34:08.210Z,78809.703,1634995717,full,ni_sequenzen,NI_Sequenzen,22,,,,,,,,,,,,,
,Move,canvas.Screen,0_1_0_22,left,response,,78807.39999961853,78793.019,78809.703,79270.19999885559,460.49699885559676,79270.69999885559,2021-10-23T13:34:08.676Z,79276.345,1634995717,full,ni_sequenzen,NI_Sequenzen,23,,,,,,,,,,,,,
,Move,canvas.Screen,0_1_0_23,right,response,,79274.10000038147,79259.976,79276.345,80010.5,734.1549999999988,80011,2021-10-23T13:34:09.416Z,80026.354,1634995717,full,ni_sequenzen,NI_Sequenzen,24,,,,,,,,,,,,,
,Move,canvas.Screen,0_1_0_24,left,response,,80012.29999923706,80009.656,80026.354,80356.79999923706,330.4459992370539,80357.19999885559,2021-10-23T13:34:09.762Z,80384.797,1634995717,full,ni_sequenzen,NI_Sequenzen,25,,,,,,,,,,,,,
,Move,canvas.Screen,0_1_0_25,down,response,,80358.60000038147,80342.981,80384.797,80587.69999885559,202.90299885558488,80588.19999885559,2021-10-23T13:34:09.993Z,80592.989,1634995717,full,ni_sequenzen,NI_Sequenzen,26,,,,,,,,,,,,,
,Move,canvas.Screen,0_1_0_26,down,response,,80591.10000038147,80576.317,80592.989,80927,334.0109999999986,80927.5,2021-10-23T13:34:10.333Z,80942.998,1634995717,full,ni_sequenzen,NI_Sequenzen,27,,,,,,,,,,,,,
,Move,canvas.Screen,0_1_0_27,down,response,,80930.19999885559,80926.306,80942.998,81178.60000038147,235.60200038146286,81179,2021-10-23T13:34:10.584Z,81193.073,1634995717,full,ni_sequenzen,NI_Sequenzen,28,,,,,,,,,,,,,
,Move,canvas.Screen,0_1_0_28,left,response,,81180.5,81176.31,81193.073,83035.79999923706,1842.7269992370566,83036.29999923706,2021-10-23T13:34:12.441Z,83042.952,1634995717,full,ni_sequenzen,NI_Sequenzen,29,,,,,,,,,,,,,
,Move,canvas.Screen,0_1_0_29,right,response,,83039.29999923706,83026.247,83042.952,83869.39999961853,826.4479996185255,83869.79999923706,2021-10-23T13:34:13.275Z,83976.267,1634995717,full,ni_sequenzen,NI_Sequenzen,30,,,,,,,,,,,,,
,Loop,flow.Loop,0_1_0,-999,completion,,64590.19999885559,64593.031,64609.945,83869.39999961853,19259.45499961853,83871.39999961853,2021-10-23T13:34:13.277Z,83976.267,1634995717,full,ni_sequenzen,NI_Sequenzen,,,,,,,,,,,,,,
,Training_I,flow.Sequence,0_1,,completion,,64573.39999961853,64593.031,64609.945,83869.39999961853,19259.45499961853,83871.60000038147,2021-10-23T13:34:13.277Z,83976.267,1634995717,full,ni_sequenzen,NI_Sequenzen,,,,,,,,,,,,,,
,Screen_1,canvas.Screen,0_2_0_0,cont,response,1,83959.5,83959.587,83976.267,101087,17110.732999999993,101087.39999961853,2021-10-23T13:34:30.493Z,101209.359,1634995717,full,ni_sequenzen,NI_Sequenzen,,,,,,,,,,,,,,
,Screen_2,canvas.Screen,0_2_0_1,cont,response,1,101201.10000038147,101192.46,101209.359,113592.10000038147,12382.741000381473,113593.60000038147,2021-10-23T13:34:42.999Z,113609.239,1634995717,full,ni_sequenzen,NI_Sequenzen,,,,,,,,,,,,,,
,Screen_3,canvas.Screen,0_2_0_2,cont,response,1,113597.5,113592.209,113609.239,130293.89999961853,16684.66099961853,130294.5,2021-10-23T13:34:59.700Z,130408.895,1634995717,full,ni_sequenzen,NI_Sequenzen,,,,,,,,,,,,,,
,Screen_4,canvas.Screen,0_2_0_3,cont,response,1,130405.79999923706,130391.802,130408.895,142305,11896.104999999996,142305.60000038147,2021-10-23T13:35:11.711Z,142325.389,1634995717,full,ni_sequenzen,NI_Sequenzen,,,,,,,,,,,,,,
,Screen_5,canvas.Screen,0_2_0_4,cont,response,1,142308.89999961853,142308.503,142325.389,150594.60000038147,8269.211000381474,150595.10000038147,2021-10-23T13:35:20.001Z,150675.223,1634995717,full,ni_sequenzen,NI_Sequenzen,,,,,,,,,,,,,,
,Screen_6,canvas.Screen,0_2_0_5,cont,response,1,150672.5,150658.371,150675.223,161619.79999923706,10944.576999237062,161620.29999923706,2021-10-23T13:35:31.026Z,161925.024,1634995717,full,ni_sequenzen,NI_Sequenzen,,,,,,,,,,,,,,
,Sequence,flow.Sequence,0_2_0,,completion,1,83957.60000038147,83959.587,83976.267,161619.79999923706,77643.53299923705,161621.5,2021-10-23T13:35:31.027Z,161925.024,1634995717,full,ni_sequenzen,NI_Sequenzen,,,,,,,,,,,,,,
,Screen_1,canvas.Screen,0_2_1_0,,skipped,2,161625.79999923706,,,161625.79999923706,,161626,2021-10-23T13:35:31.031Z,161925.024,1634995717,full,ni_sequenzen,NI_Sequenzen,,,,,,,,,,,,,,
,Screen_2,canvas.Screen,0_2_1_1,,skipped,2,161627.10000038147,,,161625.79999923706,,161627.1999988556,2021-10-23T13:35:31.033Z,161925.024,1634995717,full,ni_sequenzen,NI_Sequenzen,,,,,,,,,,,,,,
,Screen_3,canvas.Screen,0_2_1_2,,skipped,2,161628.39999961853,,,161625.79999923706,,161628.39999961853,2021-10-23T13:35:31.034Z,161925.024,1634995717,full,ni_sequenzen,NI_Sequenzen,,,,,,,,,,,,,,
,Screen_4,canvas.Screen,0_2_1_3,,skipped,2,161629.5,,,161625.79999923706,,161629.60000038147,2021-10-23T13:35:31.035Z,161925.024,1634995717,full,ni_sequenzen,NI_Sequenzen,,,,,,,,,,,,,,
,Screen_5,canvas.Screen,0_2_1_4,,skipped,2,161630.60000038147,,,161625.79999923706,,161630.60000038147,2021-10-23T13:35:31.036Z,161925.024,1634995717,full,ni_sequenzen,NI_Sequenzen,,,,,,,,,,,,,,
,Screen_6,canvas.Screen,0_2_1_5,,skipped,2,161631.6999988556,,,161625.79999923706,,161631.79999923706,2021-10-23T13:35:31.037Z,161925.024,1634995717,full,ni_sequenzen,NI_Sequenzen,,,,,,,,,,,,,,
,Sequence,flow.Sequence,0_2_1,,completion,2,161623.39999961853,,,161625.79999923706,,161631.89999961853,2021-10-23T13:35:31.037Z,161925.024,1634995717,full,ni_sequenzen,NI_Sequenzen,,,,,,,,,,,,,,
,Screen_1,canvas.Screen,0_2_2_0,,skipped,3,161633.39999961853,,,161633.39999961853,,161633.5,2021-10-23T13:35:31.039Z,161925.024,1634995717,full,ni_sequenzen,NI_Sequenzen,,,,,,,,,,,,,,
,Screen_2,canvas.Screen,0_2_2_1,,skipped,3,161634.29999923706,,,161633.39999961853,,161634.29999923706,2021-10-23T13:35:31.040Z,161925.024,1634995717,full,ni_sequenzen,NI_Sequenzen,,,,,,,,,,,,,,
,Screen_3,canvas.Screen,0_2_2_2,,skipped,3,161635.1999988556,,,161633.39999961853,,161635.29999923706,2021-10-23T13:35:31.041Z,161925.024,1634995717,full,ni_sequenzen,NI_Sequenzen,,,,,,,,,,,,,,
,Screen_4,canvas.Screen,0_2_2_3,,skipped,3,161636.1999988556,,,161633.39999961853,,161636.29999923706,2021-10-23T13:35:31.042Z,161925.024,1634995717,full,ni_sequenzen,NI_Sequenzen,,,,,,,,,,,,,,
,Screen_5,canvas.Screen,0_2_2_4,,skipped,3,161637.1999988556,,,161633.39999961853,,161637.1999988556,2021-10-23T13:35:31.043Z,161925.024,1634995717,full,ni_sequenzen,NI_Sequenzen,,,,,,,,,,,,,,
,Screen_6,canvas.Screen,0_2_2_5,,skipped,3,161638.10000038147,,,161633.39999961853,,161638.1999988556,2021-10-23T13:35:31.044Z,161925.024,1634995717,full,ni_sequenzen,NI_Sequenzen,,,,,,,,,,,,,,
,Sequence,flow.Sequence,0_2_2,,completion,3,161632.39999961853,,,161633.39999961853,,161638.39999961853,2021-10-23T13:35:31.044Z,161925.024,1634995717,full,ni_sequenzen,NI_Sequenzen,,,,,,,,,,,,,,
,Screen_1,canvas.Screen,0_2_3_0,,skipped,4,161639.89999961853,,,161639.89999961853,,161640.1999988556,2021-10-23T13:35:31.046Z,161925.024,1634995717,full,ni_sequenzen,NI_Sequenzen,,,,,,,,,,,,,,
,Screen_2,canvas.Screen,0_2_3_1,,skipped,4,161642.39999961853,,,161639.89999961853,,161642.60000038147,2021-10-23T13:35:31.048Z,161925.024,1634995717,full,ni_sequenzen,NI_Sequenzen,,,,,,,,,,,,,,
,Screen_3,canvas.Screen,0_2_3_2,,skipped,4,161644,,,161639.89999961853,,161644.10000038147,2021-10-23T13:35:31.050Z,161925.024,1634995717,full,ni_sequenzen,NI_Sequenzen,,,,,,,,,,,,,,
,Screen_4,canvas.Screen,0_2_3_3,,skipped,4,161645.60000038147,,,161639.89999961853,,161645.6999988556,2021-10-23T13:35:31.051Z,161925.024,1634995717,full,ni_sequenzen,NI_Sequenzen,,,,,,,,,,,,,,
,Screen_5,canvas.Screen,0_2_3_4,,skipped,4,161647.1999988556,,,161639.89999961853,,161647.29999923706,2021-10-23T13:35:31.053Z,161925.024,1634995717,full,ni_sequenzen,NI_Sequenzen,,,,,,,,,,,,,,
,Screen_6,canvas.Screen,0_2_3_5,,skipped,4,161648.6999988556,,,161639.89999961853,,161648.79999923706,2021-10-23T13:35:31.054Z,161925.024,1634995717,full,ni_sequenzen,NI_Sequenzen,,,,,,,,,,,,,,
,Sequence,flow.Sequence,0_2_3,,completion,4,161638.79999923706,,,161639.89999961853,,161649,2021-10-23T13:35:31.055Z,161925.024,1634995717,full,ni_sequenzen,NI_Sequenzen,,,,,,,,,,,,,,
,Screen_1,canvas.Screen,0_2_4_0,,skipped,5,161650.6999988556,,,161650.79999923706,,161650.89999961853,2021-10-23T13:35:31.056Z,161925.024,1634995717,full,ni_sequenzen,NI_Sequenzen,,,,,,,,,,,,,,
,Screen_2,canvas.Screen,0_2_4_1,,skipped,5,161652.1999988556,,,161650.79999923706,,161652.29999923706,2021-10-23T13:35:31.058Z,161925.024,1634995717,full,ni_sequenzen,NI_Sequenzen,,,,,,,,,,,,,,
,Screen_3,canvas.Screen,0_2_4_2,,skipped,5,161653.5,,,161650.79999923706,,161653.6999988556,2021-10-23T13:35:31.059Z,161925.024,1634995717,full,ni_sequenzen,NI_Sequenzen,,,,,,,,,,,,,,
,Screen_4,canvas.Screen,0_2_4_3,,skipped,5,161655.29999923706,,,161650.79999923706,,161655.5,2021-10-23T13:35:31.061Z,161925.024,1634995717,full,ni_sequenzen,NI_Sequenzen,,,,,,,,,,,,,,
,Screen_5,canvas.Screen,0_2_4_4,,skipped,5,161656.60000038147,,,161650.79999923706,,161656.60000038147,2021-10-23T13:35:31.062Z,161925.024,1634995717,full,ni_sequenzen,NI_Sequenzen,,,,,,,,,,,,,,
,Screen_6,canvas.Screen,0_2_4_5,,skipped,5,161657.5,,,161650.79999923706,,161657.60000038147,2021-10-23T13:35:31.063Z,161925.024,1634995717,full,ni_sequenzen,NI_Sequenzen,,,,,,,,,,,,,,
,Sequence,flow.Sequence,0_2_4,,completion,5,161649.60000038147,,,161650.79999923706,,161657.6999988556,2021-10-23T13:35:31.063Z,161925.024,1634995717,full,ni_sequenzen,NI_Sequenzen,,,,,,,,,,,,,,
,Screen_1,canvas.Screen,0_2_5_0,,skipped,6,161659,,,161659,,161659,2021-10-23T13:35:31.065Z,161925.024,1634995717,full,ni_sequenzen,NI_Sequenzen,,,,,,,,,,,,,,
,Screen_2,canvas.Screen,0_2_5_1,,skipped,6,161659.89999961853,,,161659,,161660,2021-10-23T13:35:31.066Z,161925.024,1634995717,full,ni_sequenzen,NI_Sequenzen,,,,,,,,,,,,,,
,Screen_3,canvas.Screen,0_2_5_2,,skipped,6,161660.79999923706,,,161659,,161660.89999961853,2021-10-23T13:35:31.066Z,161925.024,1634995717,full,ni_sequenzen,NI_Sequenzen,,,,,,,,,,,,,,
,Screen_4,canvas.Screen,0_2_5_3,,skipped,6,161661.6999988556,,,161659,,161661.79999923706,2021-10-23T13:35:31.067Z,161925.024,1634995717,full,ni_sequenzen,NI_Sequenzen,,,,,,,,,,,,,,
,Screen_5,canvas.Screen,0_2_5_4,,skipped,6,161663.5,,,161659,,161663.60000038147,2021-10-23T13:35:31.069Z,161925.024,1634995717,full,ni_sequenzen,NI_Sequenzen,,,,,,,,,,,,,,
,Screen_6,canvas.Screen,0_2_5_5,,skipped,6,161664.39999961853,,,161659,,161664.60000038147,2021-10-23T13:35:31.070Z,161925.024,1634995717,full,ni_sequenzen,NI_Sequenzen,,,,,,,,,,,,,,
,Sequence,flow.Sequence,0_2_5,,completion,6,161658.10000038147,,,161659,,161664.6999988556,2021-10-23T13:35:31.070Z,161925.024,1634995717,full,ni_sequenzen,NI_Sequenzen,,,,,,,,,,,,,,
,Screen_1,canvas.Screen,0_2_6_0,,skipped,7,161665.89999961853,,,161666,,161666,2021-10-23T13:35:31.072Z,161925.024,1634995717,full,ni_sequenzen,NI_Sequenzen,,,,,,,,,,,,,,
,Screen_2,canvas.Screen,0_2_6_1,,skipped,7,161666.79999923706,,,161666,,161666.89999961853,2021-10-23T13:35:31.072Z,161925.024,1634995717,full,ni_sequenzen,NI_Sequenzen,,,,,,,,,,,,,,
,Screen_3,canvas.Screen,0_2_6_2,,skipped,7,161667.79999923706,,,161666,,161667.79999923706,2021-10-23T13:35:31.073Z,161925.024,1634995717,full,ni_sequenzen,NI_Sequenzen,,,,,,,,,,,,,,
,Screen_4,canvas.Screen,0_2_6_3,,skipped,7,161668.6999988556,,,161666,,161668.6999988556,2021-10-23T13:35:31.074Z,161925.024,1634995717,full,ni_sequenzen,NI_Sequenzen,,,,,,,,,,,,,,
,Screen_5,canvas.Screen,0_2_6_4,,skipped,7,161669.60000038147,,,161666,,161669.79999923706,2021-10-23T13:35:31.075Z,161925.024,1634995717,full,ni_sequenzen,NI_Sequenzen,,,,,,,,,,,,,,
,Screen_6,canvas.Screen,0_2_6_5,,skipped,7,161671.1999988556,,,161666,,161671.29999923706,2021-10-23T13:35:31.077Z,161925.024,1634995717,full,ni_sequenzen,NI_Sequenzen,,,,,,,,,,,,,,
,Sequence,flow.Sequence,0_2_6,,completion,7,161665.10000038147,,,161666,,161671.5,2021-10-23T13:35:31.077Z,161925.024,1634995717,full,ni_sequenzen,NI_Sequenzen,,,,,,,,,,,,,,
,Screen_1,canvas.Screen,0_2_7_0,,skipped,8,161673.1999988556,,,161673.1999988556,,161673.29999923706,2021-10-23T13:35:31.079Z,161925.024,1634995717,full,ni_sequenzen,NI_Sequenzen,,,,,,,,,,,,,,
,Screen_2,canvas.Screen,0_2_7_1,,skipped,8,161674.6999988556,,,161673.1999988556,,161674.79999923706,2021-10-23T13:35:31.080Z,161925.024,1634995717,full,ni_sequenzen,NI_Sequenzen,,,,,,,,,,,,,,
,Screen_3,canvas.Screen,0_2_7_2,,skipped,8,161676.1999988556,,,161673.1999988556,,161676.29999923706,2021-10-23T13:35:31.082Z,161925.024,1634995717,full,ni_sequenzen,NI_Sequenzen,,,,,,,,,,,,,,
,Screen_4,canvas.Screen,0_2_7_3,,skipped,8,161677.5,,,161673.1999988556,,161677.6999988556,2021-10-23T13:35:31.083Z,161925.024,1634995717,full,ni_sequenzen,NI_Sequenzen,,,,,,,,,,,,,,
,Screen_5,canvas.Screen,0_2_7_4,,skipped,8,161678.89999961853,,,161673.1999988556,,161679,2021-10-23T13:35:31.085Z,161925.024,1634995717,full,ni_sequenzen,NI_Sequenzen,,,,,,,,,,,,,,
,Screen_6,canvas.Screen,0_2_7_5,,skipped,8,161680.29999923706,,,161673.1999988556,,161680.39999961853,2021-10-23T13:35:31.086Z,161925.024,1634995717,full,ni_sequenzen,NI_Sequenzen,,,,,,,,,,,,,,
,Sequence,flow.Sequence,0_2_7,,completion,8,161672,,,161673.1999988556,,161680.5,2021-10-23T13:35:31.086Z,161925.024,1634995717,full,ni_sequenzen,NI_Sequenzen,,,,,,,,,,,,,,
,Screen_1,canvas.Screen,0_2_8_0,,skipped,9,161681.6999988556,,,161681.6999988556,,161681.79999923706,2021-10-23T13:35:31.087Z,161925.024,1634995717,full,ni_sequenzen,NI_Sequenzen,,,,,,,,,,,,,,
,Screen_2,canvas.Screen,0_2_8_1,,skipped,9,161683.5,,,161681.6999988556,,161683.6999988556,2021-10-23T13:35:31.089Z,161925.024,1634995717,full,ni_sequenzen,NI_Sequenzen,,,,,,,,,,,,,,
,Screen_3,canvas.Screen,0_2_8_2,,skipped,9,161685.10000038147,,,161681.6999988556,,161685.29999923706,2021-10-23T13:35:31.091Z,161925.024,1634995717,full,ni_sequenzen,NI_Sequenzen,,,,,,,,,,,,,,
,Screen_4,canvas.Screen,0_2_8_3,,skipped,9,161686.89999961853,,,161681.6999988556,,161687,2021-10-23T13:35:31.093Z,161925.024,1634995717,full,ni_sequenzen,NI_Sequenzen,,,,,,,,,,,,,,
,Screen_5,canvas.Screen,0_2_8_4,,skipped,9,161688.29999923706,,,161681.6999988556,,161688.39999961853,2021-10-23T13:35:31.094Z,161925.024,1634995717,full,ni_sequenzen,NI_Sequenzen,,,,,,,,,,,,,,
,Screen_6,canvas.Screen,0_2_8_5,,skipped,9,161689.39999961853,,,161681.6999988556,,161689.39999961853,2021-10-23T13:35:31.095Z,161925.024,1634995717,full,ni_sequenzen,NI_Sequenzen,,,,,,,,,,,,,,
,Sequence,flow.Sequence,0_2_8,,completion,9,161680.89999961853,,,161681.6999988556,,161689.60000038147,2021-10-23T13:35:31.095Z,161925.024,1634995717,full,ni_sequenzen,NI_Sequenzen,,,,,,,,,,,,,,
,Screen_1,canvas.Screen,0_2_9_0,,skipped,10,161691.29999923706,,,161691.29999923706,,161691.29999923706,2021-10-23T13:35:31.097Z,161925.024,1634995717,full,ni_sequenzen,NI_Sequenzen,,,,,,,,,,,,,,
,Screen_2,canvas.Screen,0_2_9_1,,skipped,10,161692.79999923706,,,161691.29999923706,,161693,2021-10-23T13:35:31.098Z,161925.024,1634995717,full,ni_sequenzen,NI_Sequenzen,,,,,,,,,,,,,,
,Screen_3,canvas.Screen,0_2_9_2,,skipped,10,161694.1999988556,,,161691.29999923706,,161694.39999961853,2021-10-23T13:35:31.100Z,161925.024,1634995717,full,ni_sequenzen,NI_Sequenzen,,,,,,,,,,,,,,
,Screen_4,canvas.Screen,0_2_9_3,,skipped,10,161695.60000038147,,,161691.29999923706,,161695.6999988556,2021-10-23T13:35:31.101Z,161925.024,1634995717,full,ni_sequenzen,NI_Sequenzen,,,,,,,,,,,,,,
,Screen_5,canvas.Screen,0_2_9_4,,skipped,10,161697.1999988556,,,161691.29999923706,,161697.39999961853,2021-10-23T13:35:31.103Z,161925.024,1634995717,full,ni_sequenzen,NI_Sequenzen,,,,,,,,,,,,,,
,Screen_6,canvas.Screen,0_2_9_5,,skipped,10,161698.89999961853,,,161691.29999923706,,161699,2021-10-23T13:35:31.105Z,161925.024,1634995717,full,ni_sequenzen,NI_Sequenzen,,,,,,,,,,,,,,
,Sequence,flow.Sequence,0_2_9,,completion,10,161690,,,161691.29999923706,,161699.29999923706,2021-10-23T13:35:31.105Z,161925.024,1634995717,full,ni_sequenzen,NI_Sequenzen,,,,,,,,,,,,,,
,Screen_1,canvas.Screen,0_2_10_0,,skipped,11,161701.10000038147,,,161701.10000038147,,161701.1999988556,2021-10-23T13:35:31.107Z,161925.024,1634995717,full,ni_sequenzen,NI_Sequenzen,,,,,,,,,,,,,,
,Screen_2,canvas.Screen,0_2_10_1,,skipped,11,161702.60000038147,,,161701.10000038147,,161702.60000038147,2021-10-23T13:35:31.108Z,161925.024,1634995717,full,ni_sequenzen,NI_Sequenzen,,,,,,,,,,,,,,
,Screen_3,canvas.Screen,0_2_10_2,,skipped,11,161703.79999923706,,,161701.10000038147,,161703.79999923706,2021-10-23T13:35:31.109Z,161925.024,1634995717,full,ni_sequenzen,NI_Sequenzen,,,,,,,,,,,,,,
,Screen_4,canvas.Screen,0_2_10_3,,skipped,11,161704.89999961853,,,161701.10000038147,,161705,2021-10-23T13:35:31.111Z,161925.024,1634995717,full,ni_sequenzen,NI_Sequenzen,,,,,,,,,,,,,,
,Screen_5,canvas.Screen,0_2_10_4,,skipped,11,161706.10000038147,,,161701.10000038147,,161706.10000038147,2021-10-23T13:35:31.112Z,161925.024,1634995717,full,ni_sequenzen,NI_Sequenzen,,,,,,,,,,,,,,
,Screen_6,canvas.Screen,0_2_10_5,,skipped,11,161707.89999961853,,,161701.10000038147,,161708,2021-10-23T13:35:31.113Z,161925.024,1634995717,full,ni_sequenzen,NI_Sequenzen,,,,,,,,,,,,,,
,Sequence,flow.Sequence,0_2_10,,completion,11,161699.79999923706,,,161701.10000038147,,161708,2021-10-23T13:35:31.114Z,161925.024,1634995717,full,ni_sequenzen,NI_Sequenzen,,,,,,,,,,,,,,
,Screen_1,canvas.Screen,0_2_11_0,,skipped,12,161709.29999923706,,,161709.29999923706,,161709.29999923706,2021-10-23T13:35:31.115Z,161925.024,1634995717,full,ni_sequenzen,NI_Sequenzen,,,,,,,,,,,,,,
,Screen_2,canvas.Screen,0_2_11_1,,skipped,12,161710.10000038147,,,161709.29999923706,,161710.1999988556,2021-10-23T13:35:31.116Z,161925.024,1634995717,full,ni_sequenzen,NI_Sequenzen,,,,,,,,,,,,,,
,Screen_3,canvas.Screen,0_2_11_2,,skipped,12,161711,,,161709.29999923706,,161711.10000038147,2021-10-23T13:35:31.117Z,161925.024,1634995717,full,ni_sequenzen,NI_Sequenzen,,,,,,,,,,,,,,
,Screen_4,canvas.Screen,0_2_11_3,,skipped,12,161711.89999961853,,,161709.29999923706,,161711.89999961853,2021-10-23T13:35:31.117Z,161925.024,1634995717,full,ni_sequenzen,NI_Sequenzen,,,,,,,,,,,,,,
,Screen_5,canvas.Screen,0_2_11_4,,skipped,12,161712.60000038147,,,161709.29999923706,,161712.6999988556,2021-10-23T13:35:31.118Z,161925.024,1634995717,full,ni_sequenzen,NI_Sequenzen,,,,,,,,,,,,,,
,Screen_6,canvas.Screen,0_2_11_5,,skipped,12,161713.5,,,161709.29999923706,,161713.60000038147,2021-10-23T13:35:31.119Z,161925.024,1634995717,full,ni_sequenzen,NI_Sequenzen,,,,,,,,,,,,,,
,Sequence,flow.Sequence,0_2_11,,completion,12,161708.39999961853,,,161709.29999923706,,161713.6999988556,2021-10-23T13:35:31.119Z,161925.024,1634995717,full,ni_sequenzen,NI_Sequenzen,,,,,,,,,,,,,,
,Screen_1,canvas.Screen,0_2_12_0,,skipped,13,161715.1999988556,,,161715.1999988556,,161715.29999923706,2021-10-23T13:35:31.121Z,161925.024,1634995717,full,ni_sequenzen,NI_Sequenzen,,,,,,,,,,,,,,
,Screen_2,canvas.Screen,0_2_12_1,,skipped,13,161716.79999923706,,,161715.1999988556,,161716.89999961853,2021-10-23T13:35:31.122Z,161925.024,1634995717,full,ni_sequenzen,NI_Sequenzen,,,,,,,,,,,,,,
,Screen_3,canvas.Screen,0_2_12_2,,skipped,13,161718.10000038147,,,161715.1999988556,,161718.1999988556,2021-10-23T13:35:31.124Z,161925.024,1634995717,full,ni_sequenzen,NI_Sequenzen,,,,,,,,,,,,,,
,Screen_4,canvas.Screen,0_2_12_3,,skipped,13,161719.5,,,161715.1999988556,,161719.60000038147,2021-10-23T13:35:31.125Z,161925.024,1634995717,full,ni_sequenzen,NI_Sequenzen,,,,,,,,,,,,,,
,Screen_5,canvas.Screen,0_2_12_4,,skipped,13,161720.79999923706,,,161715.1999988556,,161720.89999961853,2021-10-23T13:35:31.126Z,161925.024,1634995717,full,ni_sequenzen,NI_Sequenzen,,,,,,,,,,,,,,
,Screen_6,canvas.Screen,0_2_12_5,,skipped,13,161722.10000038147,,,161715.1999988556,,161722.29999923706,2021-10-23T13:35:31.128Z,161925.024,1634995717,full,ni_sequenzen,NI_Sequenzen,,,,,,,,,,,,,,
,Sequence,flow.Sequence,0_2_12,,completion,13,161714.10000038147,,,161715.1999988556,,161722.39999961853,2021-10-23T13:35:31.128Z,161925.024,1634995717,full,ni_sequenzen,NI_Sequenzen,,,,,,,,,,,,,,
,Screen_1,canvas.Screen,0_2_13_0,,skipped,14,161724.10000038147,,,161724.10000038147,,161724.1999988556,2021-10-23T13:35:31.130Z,161925.024,1634995717,full,ni_sequenzen,NI_Sequenzen,,,,,,,,,,,,,,
,Screen_2,canvas.Screen,0_2_13_1,,skipped,14,161726.1999988556,,,161724.10000038147,,161726.29999923706,2021-10-23T13:35:31.132Z,161925.024,1634995717,full,ni_sequenzen,NI_Sequenzen,,,,,,,,,,,,,,
,Screen_3,canvas.Screen,0_2_13_2,,skipped,14,161727.6999988556,,,161724.10000038147,,161727.6999988556,2021-10-23T13:35:31.133Z,161925.024,1634995717,full,ni_sequenzen,NI_Sequenzen,,,,,,,,,,,,,,
,Screen_4,canvas.Screen,0_2_13_3,,skipped,14,161729,,,161724.10000038147,,161729.1999988556,2021-10-23T13:35:31.135Z,161925.024,1634995717,full,ni_sequenzen,NI_Sequenzen,,,,,,,,,,,,,,
,Screen_5,canvas.Screen,0_2_13_4,,skipped,14,161730.39999961853,,,161724.10000038147,,161730.5,2021-10-23T13:35:31.136Z,161925.024,1634995717,full,ni_sequenzen,NI_Sequenzen,,,,,,,,,,,,,,
,Screen_6,canvas.Screen,0_2_13_5,,skipped,14,161731.89999961853,,,161724.10000038147,,161732,2021-10-23T13:35:31.138Z,161925.024,1634995717,full,ni_sequenzen,NI_Sequenzen,,,,,,,,,,,,,,
,Sequence,flow.Sequence,0_2_13,,completion,14,161723,,,161724.10000038147,,161732.1999988556,2021-10-23T13:35:31.138Z,161925.024,1634995717,full,ni_sequenzen,NI_Sequenzen,,,,,,,,,,,,,,
,Screen_1,canvas.Screen,0_2_14_0,,skipped,15,161734.10000038147,,,161734.10000038147,,161734.1999988556,2021-10-23T13:35:31.140Z,161925.024,1634995717,full,ni_sequenzen,NI_Sequenzen,,,,,,,,,,,,,,
,Screen_2,canvas.Screen,0_2_14_1,,skipped,15,161735.60000038147,,,161734.10000038147,,161735.60000038147,2021-10-23T13:35:31.141Z,161925.024,1634995717,full,ni_sequenzen,NI_Sequenzen,,,,,,,,,,,,,,
,Screen_3,canvas.Screen,0_2_14_2,,skipped,15,161736.89999961853,,,161734.10000038147,,161737,2021-10-23T13:35:31.143Z,161925.024,1634995717,full,ni_sequenzen,NI_Sequenzen,,,,,,,,,,,,,,
,Screen_4,canvas.Screen,0_2_14_3,,skipped,15,161738.29999923706,,,161734.10000038147,,161738.39999961853,2021-10-23T13:35:31.144Z,161925.024,1634995717,full,ni_sequenzen,NI_Sequenzen,,,,,,,,,,,,,,
,Screen_5,canvas.Screen,0_2_14_4,,skipped,15,161739.6999988556,,,161734.10000038147,,161739.79999923706,2021-10-23T13:35:31.145Z,161925.024,1634995717,full,ni_sequenzen,NI_Sequenzen,,,,,,,,,,,,,,
,Screen_6,canvas.Screen,0_2_14_5,,skipped,15,161740.79999923706,,,161734.10000038147,,161740.79999923706,2021-10-23T13:35:31.146Z,161925.024,1634995717,full,ni_sequenzen,NI_Sequenzen,,,,,,,,,,,,,,
,Sequence,flow.Sequence,0_2_14,,completion,15,161732.79999923706,,,161734.10000038147,,161741,2021-10-23T13:35:31.147Z,161925.024,1634995717,full,ni_sequenzen,NI_Sequenzen,,,,,,,,,,,,,,
,Screen_1,canvas.Screen,0_2_15_0,,skipped,16,161742.10000038147,,,161742.10000038147,,161742.1999988556,2021-10-23T13:35:31.148Z,161925.024,1634995717,full,ni_sequenzen,NI_Sequenzen,,,,,,,,,,,,,,
,Screen_2,canvas.Screen,0_2_15_1,,skipped,16,161743,,,161742.10000038147,,161743.10000038147,2021-10-23T13:35:31.149Z,161925.024,1634995717,full,ni_sequenzen,NI_Sequenzen,,,,,,,,,,,,,,
,Screen_3,canvas.Screen,0_2_15_2,,skipped,16,161743.89999961853,,,161742.10000038147,,161743.89999961853,2021-10-23T13:35:31.149Z,161925.024,1634995717,full,ni_sequenzen,NI_Sequenzen,,,,,,,,,,,,,,
,Screen_4,canvas.Screen,0_2_15_3,,skipped,16,161745.5,,,161742.10000038147,,161745.5,2021-10-23T13:35:31.151Z,161925.024,1634995717,full,ni_sequenzen,NI_Sequenzen,,,,,,,,,,,,,,
,Screen_5,canvas.Screen,0_2_15_4,,skipped,16,161746.39999961853,,,161742.10000038147,,161746.60000038147,2021-10-23T13:35:31.152Z,161925.024,1634995717,full,ni_sequenzen,NI_Sequenzen,,,,,,,,,,,,,,
,Screen_6,canvas.Screen,0_2_15_5,,skipped,16,161748,,,161742.10000038147,,161748.10000038147,2021-10-23T13:35:31.154Z,161925.024,1634995717,full,ni_sequenzen,NI_Sequenzen,,,,,,,,,,,,,,
,Sequence,flow.Sequence,0_2_15,,completion,16,161741.29999923706,,,161742.10000038147,,161748.39999961853,2021-10-23T13:35:31.154Z,161925.024,1634995717,full,ni_sequenzen,NI_Sequenzen,,,,,,,,,,,,,,
,Screen_1,canvas.Screen,0_2_16_0,,skipped,17,161750,,,161750,,161750.10000038147,2021-10-23T13:35:31.156Z,161925.024,1634995717,full,ni_sequenzen,NI_Sequenzen,,,,,,,,,,,,,,
,Screen_2,canvas.Screen,0_2_16_1,,skipped,17,161751.29999923706,,,161750,,161751.5,2021-10-23T13:35:31.157Z,161925.024,1634995717,full,ni_sequenzen,NI_Sequenzen,,,,,,,,,,,,,,
,Screen_3,canvas.Screen,0_2_16_2,,skipped,17,161752.6999988556,,,161750,,161752.79999923706,2021-10-23T13:35:31.158Z,161925.024,1634995717,full,ni_sequenzen,NI_Sequenzen,,,,,,,,,,,,,,
,Screen_4,canvas.Screen,0_2_16_3,,skipped,17,161754,,,161750,,161754,2021-10-23T13:35:31.160Z,161925.024,1634995717,full,ni_sequenzen,NI_Sequenzen,,,,,,,,,,,,,,
,Screen_5,canvas.Screen,0_2_16_4,,skipped,17,161755.39999961853,,,161750,,161755.5,2021-10-23T13:35:31.161Z,161925.024,1634995717,full,ni_sequenzen,NI_Sequenzen,,,,,,,,,,,,,,
,Screen_6,canvas.Screen,0_2_16_5,,skipped,17,161756.6999988556,,,161750,,161756.79999923706,2021-10-23T13:35:31.162Z,161925.024,1634995717,full,ni_sequenzen,NI_Sequenzen,,,,,,,,,,,,,,
,Sequence,flow.Sequence,0_2_16,,completion,17,161748.89999961853,,,161750,,161757,2021-10-23T13:35:31.163Z,161925.024,1634995717,full,ni_sequenzen,NI_Sequenzen,,,,,,,,,,,,,,
,Screen_1,canvas.Screen,0_2_17_0,,skipped,18,161758.1999988556,,,161758.1999988556,,161758.1999988556,2021-10-23T13:35:31.164Z,161925.024,1634995717,full,ni_sequenzen,NI_Sequenzen,,,,,,,,,,,,,,
,Screen_2,canvas.Screen,0_2_17_1,,skipped,18,161759.10000038147,,,161758.1999988556,,161759.1999988556,2021-10-23T13:35:31.165Z,161925.024,1634995717,full,ni_sequenzen,NI_Sequenzen,,,,,,,,,,,,,,
,Screen_3,canvas.Screen,0_2_17_2,,skipped,18,161759.89999961853,,,161758.1999988556,,161760,2021-10-23T13:35:31.166Z,161925.024,1634995717,full,ni_sequenzen,NI_Sequenzen,,,,,,,,,,,,,,
,Screen_4,canvas.Screen,0_2_17_3,,skipped,18,161760.79999923706,,,161758.1999988556,,161760.79999923706,2021-10-23T13:35:31.166Z,161925.024,1634995717,full,ni_sequenzen,NI_Sequenzen,,,,,,,,,,,,,,
,Screen_5,canvas.Screen,0_2_17_4,,skipped,18,161762.29999923706,,,161758.1999988556,,161762.39999961853,2021-10-23T13:35:31.168Z,161925.024,1634995717,full,ni_sequenzen,NI_Sequenzen,,,,,,,,,,,,,,
,Screen_6,canvas.Screen,0_2_17_5,,skipped,18,161763.89999961853,,,161758.1999988556,,161764.10000038147,2021-10-23T13:35:31.170Z,161925.024,1634995717,full,ni_sequenzen,NI_Sequenzen,,,,,,,,,,,,,,
,Sequence,flow.Sequence,0_2_17,,completion,18,161757.39999961853,,,161758.1999988556,,161764.29999923706,2021-10-23T13:35:31.170Z,161925.024,1634995717,full,ni_sequenzen,NI_Sequenzen,,,,,,,,,,,,,,
,Screen_1,canvas.Screen,0_2_18_0,,skipped,19,161765.89999961853,,,161766,,161766,2021-10-23T13:35:31.172Z,161925.024,1634995717,full,ni_sequenzen,NI_Sequenzen,,,,,,,,,,,,,,
,Screen_2,canvas.Screen,0_2_18_1,,skipped,19,161767.39999961853,,,161766,,161767.39999961853,2021-10-23T13:35:31.173Z,161925.024,1634995717,full,ni_sequenzen,NI_Sequenzen,,,,,,,,,,,,,,
,Screen_3,canvas.Screen,0_2_18_2,,skipped,19,161768.6999988556,,,161766,,161768.79999923706,2021-10-23T13:35:31.174Z,161925.024,1634995717,full,ni_sequenzen,NI_Sequenzen,,,,,,,,,,,,,,
,Screen_4,canvas.Screen,0_2_18_3,,skipped,19,161769.79999923706,,,161766,,161769.89999961853,2021-10-23T13:35:31.175Z,161925.024,1634995717,full,ni_sequenzen,NI_Sequenzen,,,,,,,,,,,,,,
,Screen_5,canvas.Screen,0_2_18_4,,skipped,19,161770.89999961853,,,161766,,161770.89999961853,2021-10-23T13:35:31.176Z,161925.024,1634995717,full,ni_sequenzen,NI_Sequenzen,,,,,,,,,,,,,,
,Screen_6,canvas.Screen,0_2_18_5,,skipped,19,161771.6999988556,,,161766,,161771.6999988556,2021-10-23T13:35:31.177Z,161925.024,1634995717,full,ni_sequenzen,NI_Sequenzen,,,,,,,,,,,,,,
,Sequence,flow.Sequence,0_2_18,,completion,19,161764.60000038147,,,161766,,161771.89999961853,2021-10-23T13:35:31.177Z,161925.024,1634995717,full,ni_sequenzen,NI_Sequenzen,,,,,,,,,,,,,,
,Screen_1,canvas.Screen,0_2_19_0,,skipped,20,161773.10000038147,,,161773.10000038147,,161773.1999988556,2021-10-23T13:35:31.179Z,161925.024,1634995717,full,ni_sequenzen,NI_Sequenzen,,,,,,,,,,,,,,
,Screen_2,canvas.Screen,0_2_19_1,,skipped,20,161774,,,161773.10000038147,,161774.10000038147,2021-10-23T13:35:31.180Z,161925.024,1634995717,full,ni_sequenzen,NI_Sequenzen,,,,,,,,,,,,,,
,Screen_3,canvas.Screen,0_2_19_2,,skipped,20,161774.89999961853,,,161773.10000038147,,161775,2021-10-23T13:35:31.181Z,161925.024,1634995717,full,ni_sequenzen,NI_Sequenzen,,,,,,,,,,,,,,
,Screen_4,canvas.Screen,0_2_19_3,,skipped,20,161775.79999923706,,,161773.10000038147,,161775.89999961853,2021-10-23T13:35:31.181Z,161925.024,1634995717,full,ni_sequenzen,NI_Sequenzen,,,,,,,,,,,,,,
,Screen_5,canvas.Screen,0_2_19_4,,skipped,20,161776.60000038147,,,161773.10000038147,,161776.6999988556,2021-10-23T13:35:31.182Z,161925.024,1634995717,full,ni_sequenzen,NI_Sequenzen,,,,,,,,,,,,,,
,Screen_6,canvas.Screen,0_2_19_5,,skipped,20,161778.1999988556,,,161773.10000038147,,161778.39999961853,2021-10-23T13:35:31.184Z,161925.024,1634995717,full,ni_sequenzen,NI_Sequenzen,,,,,,,,,,,,,,
,Sequence,flow.Sequence,0_2_19,,completion,20,161772.29999923706,,,161773.10000038147,,161778.5,2021-10-23T13:35:31.184Z,161925.024,1634995717,full,ni_sequenzen,NI_Sequenzen,,,,,,,,,,,,,,
,Screen_1,canvas.Screen,0_2_20_0,,skipped,21,161779.6999988556,,,161779.6999988556,,161779.6999988556,2021-10-23T13:35:31.185Z,161925.024,1634995717,full,ni_sequenzen,NI_Sequenzen,,,,,,,,,,,,,,
,Screen_2,canvas.Screen,0_2_20_1,,skipped,21,161780.5,,,161779.6999988556,,161780.60000038147,2021-10-23T13:35:31.186Z,161925.024,1634995717,full,ni_sequenzen,NI_Sequenzen,,,,,,,,,,,,,,
,Screen_3,canvas.Screen,0_2_20_2,,skipped,21,161781.39999961853,,,161779.6999988556,,161781.5,2021-10-23T13:35:31.187Z,161925.024,1634995717,full,ni_sequenzen,NI_Sequenzen,,,,,,,,,,,,,,
,Screen_4,canvas.Screen,0_2_20_3,,skipped,21,161782.29999923706,,,161779.6999988556,,161782.29999923706,2021-10-23T13:35:31.188Z,161925.024,1634995717,full,ni_sequenzen,NI_Sequenzen,,,,,,,,,,,,,,
,Screen_5,canvas.Screen,0_2_20_4,,skipped,21,161783.10000038147,,,161779.6999988556,,161783.1999988556,2021-10-23T13:35:31.189Z,161925.024,1634995717,full,ni_sequenzen,NI_Sequenzen,,,,,,,,,,,,,,
,Screen_6,canvas.Screen,0_2_20_5,,skipped,21,161784,,,161779.6999988556,,161784.10000038147,2021-10-23T13:35:31.190Z,161925.024,1634995717,full,ni_sequenzen,NI_Sequenzen,,,,,,,,,,,,,,
,Sequence,flow.Sequence,0_2_20,,completion,21,161778.89999961853,,,161779.6999988556,,161784.1999988556,2021-10-23T13:35:31.190Z,161925.024,1634995717,full,ni_sequenzen,NI_Sequenzen,,,,,,,,,,,,,,
,Screen_1,canvas.Screen,0_2_21_0,,skipped,22,161785.39999961853,,,161785.39999961853,,161785.39999961853,2021-10-23T13:35:31.191Z,161925.024,1634995717,full,ni_sequenzen,NI_Sequenzen,,,,,,,,,,,,,,
,Screen_2,canvas.Screen,0_2_21_1,,skipped,22,161786.29999923706,,,161785.39999961853,,161786.29999923706,2021-10-23T13:35:31.192Z,161925.024,1634995717,full,ni_sequenzen,NI_Sequenzen,,,,,,,,,,,,,,
,Screen_3,canvas.Screen,0_2_21_2,,skipped,22,161787.1999988556,,,161785.39999961853,,161787.1999988556,2021-10-23T13:35:31.193Z,161925.024,1634995717,full,ni_sequenzen,NI_Sequenzen,,,,,,,,,,,,,,
,Screen_4,canvas.Screen,0_2_21_3,,skipped,22,161788,,,161785.39999961853,,161788,2021-10-23T13:35:31.194Z,161925.024,1634995717,full,ni_sequenzen,NI_Sequenzen,,,,,,,,,,,,,,
,Screen_5,canvas.Screen,0_2_21_4,,skipped,22,161789,,,161785.39999961853,,161789.60000038147,2021-10-23T13:35:31.195Z,161925.024,1634995717,full,ni_sequenzen,NI_Sequenzen,,,,,,,,,,,,,,
,Screen_6,canvas.Screen,0_2_21_5,,skipped,22,161790.5,,,161785.39999961853,,161790.60000038147,2021-10-23T13:35:31.196Z,161925.024,1634995717,full,ni_sequenzen,NI_Sequenzen,,,,,,,,,,,,,,
,Sequence,flow.Sequence,0_2_21,,completion,22,161784.60000038147,,,161785.39999961853,,161790.60000038147,2021-10-23T13:35:31.196Z,161925.024,1634995717,full,ni_sequenzen,NI_Sequenzen,,,,,,,,,,,,,,
,Screen_1,canvas.Screen,0_2_22_0,,skipped,23,161792.60000038147,,,161792.60000038147,,161792.6999988556,2021-10-23T13:35:31.198Z,161925.024,1634995717,full,ni_sequenzen,NI_Sequenzen,,,,,,,,,,,,,,
,Screen_2,canvas.Screen,0_2_22_1,,skipped,23,161793.89999961853,,,161792.60000038147,,161794,2021-10-23T13:35:31.200Z,161925.024,1634995717,full,ni_sequenzen,NI_Sequenzen,,,,,,,,,,,,,,
,Screen_3,canvas.Screen,0_2_22_2,,skipped,23,161795.60000038147,,,161792.60000038147,,161795.6999988556,2021-10-23T13:35:31.201Z,161925.024,1634995717,full,ni_sequenzen,NI_Sequenzen,,,,,,,,,,,,,,
,Screen_4,canvas.Screen,0_2_22_3,,skipped,23,161796.5,,,161792.60000038147,,161796.5,2021-10-23T13:35:31.202Z,161925.024,1634995717,full,ni_sequenzen,NI_Sequenzen,,,,,,,,,,,,,,
,Screen_5,canvas.Screen,0_2_22_4,,skipped,23,161797.39999961853,,,161792.60000038147,,161797.5,2021-10-23T13:35:31.203Z,161925.024,1634995717,full,ni_sequenzen,NI_Sequenzen,,,,,,,,,,,,,,
,Screen_6,canvas.Screen,0_2_22_5,,skipped,23,161798.5,,,161792.60000038147,,161798.60000038147,2021-10-23T13:35:31.204Z,161925.024,1634995717,full,ni_sequenzen,NI_Sequenzen,,,,,,,,,,,,,,
,Sequence,flow.Sequence,0_2_22,,completion,23,161791,,,161792.60000038147,,161798.6999988556,2021-10-23T13:35:31.204Z,161925.024,1634995717,full,ni_sequenzen,NI_Sequenzen,,,,,,,,,,,,,,
,Screen_1,canvas.Screen,0_2_23_0,,skipped,24,161799.89999961853,,,161799.89999961853,,161800,2021-10-23T13:35:31.206Z,161925.024,1634995717,full,ni_sequenzen,NI_Sequenzen,,,,,,,,,,,,,,
,Screen_2,canvas.Screen,0_2_23_1,,skipped,24,161800.79999923706,,,161799.89999961853,,161800.89999961853,2021-10-23T13:35:31.206Z,161925.024,1634995717,full,ni_sequenzen,NI_Sequenzen,,,,,,,,,,,,,,
,Screen_3,canvas.Screen,0_2_23_2,,skipped,24,161801.6999988556,,,161799.89999961853,,161801.79999923706,2021-10-23T13:35:31.207Z,161925.024,1634995717,full,ni_sequenzen,NI_Sequenzen,,,,,,,,,,,,,,
,Screen_4,canvas.Screen,0_2_23_3,,skipped,24,161802.60000038147,,,161799.89999961853,,161802.6999988556,2021-10-23T13:35:31.208Z,161925.024,1634995717,full,ni_sequenzen,NI_Sequenzen,,,,,,,,,,,,,,
,Screen_5,canvas.Screen,0_2_23_4,,skipped,24,161803.5,,,161799.89999961853,,161803.60000038147,2021-10-23T13:35:31.209Z,161925.024,1634995717,full,ni_sequenzen,NI_Sequenzen,,,,,,,,,,,,,,
,Screen_6,canvas.Screen,0_2_23_5,,skipped,24,161804.29999923706,,,161799.89999961853,,161804.39999961853,2021-10-23T13:35:31.210Z,161925.024,1634995717,full,ni_sequenzen,NI_Sequenzen,,,,,,,,,,,,,,
,Sequence,flow.Sequence,0_2_23,,completion,24,161799.10000038147,,,161799.89999961853,,161804.5,2021-10-23T13:35:31.210Z,161925.024,1634995717,full,ni_sequenzen,NI_Sequenzen,,,,,,,,,,,,,,
,Screen_1,canvas.Screen,0_2_24_0,,skipped,25,161805.6999988556,,,161805.79999923706,,161805.79999923706,2021-10-23T13:35:31.211Z,161925.024,1634995717,full,ni_sequenzen,NI_Sequenzen,,,,,,,,,,,,,,
,Screen_2,canvas.Screen,0_2_24_1,,skipped,25,161806.60000038147,,,161805.79999923706,,161806.6999988556,2021-10-23T13:35:31.212Z,161925.024,1634995717,full,ni_sequenzen,NI_Sequenzen,,,,,,,,,,,,,,
,Screen_3,canvas.Screen,0_2_24_2,,skipped,25,161808.1999988556,,,161805.79999923706,,161808.29999923706,2021-10-23T13:35:31.214Z,161925.024,1634995717,full,ni_sequenzen,NI_Sequenzen,,,,,,,,,,,,,,
,Screen_4,canvas.Screen,0_2_24_3,,skipped,25,161810,,,161805.79999923706,,161810.1999988556,2021-10-23T13:35:31.216Z,161925.024,1634995717,full,ni_sequenzen,NI_Sequenzen,,,,,,,,,,,,,,
,Screen_5,canvas.Screen,0_2_24_4,,skipped,25,161811.6999988556,,,161805.79999923706,,161811.79999923706,2021-10-23T13:35:31.217Z,161925.024,1634995717,full,ni_sequenzen,NI_Sequenzen,,,,,,,,,,,,,,
,Screen_6,canvas.Screen,0_2_24_5,,skipped,25,161813.1999988556,,,161805.79999923706,,161813.29999923706,2021-10-23T13:35:31.219Z,161925.024,1634995717,full,ni_sequenzen,NI_Sequenzen,,,,,,,,,,,,,,
,Sequence,flow.Sequence,0_2_24,,completion,25,161804.89999961853,,,161805.79999923706,,161813.39999961853,2021-10-23T13:35:31.219Z,161925.024,1634995717,full,ni_sequenzen,NI_Sequenzen,,,,,,,,,,,,,,
,Screen_1,canvas.Screen,0_2_25_0,,skipped,26,161814.6999988556,,,161814.6999988556,,161814.79999923706,2021-10-23T13:35:31.220Z,161925.024,1634995717,full,ni_sequenzen,NI_Sequenzen,,,,,,,,,,,,,,
,Screen_2,canvas.Screen,0_2_25_1,,skipped,26,161815.60000038147,,,161814.6999988556,,161815.6999988556,2021-10-23T13:35:31.221Z,161925.024,1634995717,full,ni_sequenzen,NI_Sequenzen,,,,,,,,,,,,,,
,Screen_3,canvas.Screen,0_2_25_2,,skipped,26,161816.39999961853,,,161814.6999988556,,161816.5,2021-10-23T13:35:31.222Z,161925.024,1634995717,full,ni_sequenzen,NI_Sequenzen,,,,,,,,,,,,,,
,Screen_4,canvas.Screen,0_2_25_3,,skipped,26,161817.1999988556,,,161814.6999988556,,161817.1999988556,2021-10-23T13:35:31.223Z,161925.024,1634995717,full,ni_sequenzen,NI_Sequenzen,,,,,,,,,,,,,,
,Screen_5,canvas.Screen,0_2_25_4,,skipped,26,161818,,,161814.6999988556,,161818.10000038147,2021-10-23T13:35:31.224Z,161925.024,1634995717,full,ni_sequenzen,NI_Sequenzen,,,,,,,,,,,,,,
,Screen_6,canvas.Screen,0_2_25_5,,skipped,26,161818.79999923706,,,161814.6999988556,,161818.89999961853,2021-10-23T13:35:31.224Z,161925.024,1634995717,full,ni_sequenzen,NI_Sequenzen,,,,,,,,,,,,,,
,Sequence,flow.Sequence,0_2_25,,completion,26,161813.79999923706,,,161814.6999988556,,161819.10000038147,2021-10-23T13:35:31.225Z,161925.024,1634995717,full,ni_sequenzen,NI_Sequenzen,,,,,,,,,,,,,,
,Screen_1,canvas.Screen,0_2_26_0,,skipped,27,161820.6999988556,,,161820.6999988556,,161820.6999988556,2021-10-23T13:35:31.226Z,161925.024,1634995717,full,ni_sequenzen,NI_Sequenzen,,,,,,,,,,,,,,
,Screen_2,canvas.Screen,0_2_26_1,,skipped,27,161821.60000038147,,,161820.6999988556,,161821.6999988556,2021-10-23T13:35:31.227Z,161925.024,1634995717,full,ni_sequenzen,NI_Sequenzen,,,,,,,,,,,,,,
,Screen_3,canvas.Screen,0_2_26_2,,skipped,27,161822.60000038147,,,161820.6999988556,,161822.6999988556,2021-10-23T13:35:31.228Z,161925.024,1634995717,full,ni_sequenzen,NI_Sequenzen,,,,,,,,,,,,,,
,Screen_4,canvas.Screen,0_2_26_3,,skipped,27,161824.39999961853,,,161820.6999988556,,161824.5,2021-10-23T13:35:31.230Z,161925.024,1634995717,full,ni_sequenzen,NI_Sequenzen,,,,,,,,,,,,,,
,Screen_5,canvas.Screen,0_2_26_4,,skipped,27,161825.5,,,161820.6999988556,,161825.60000038147,2021-10-23T13:35:31.231Z,161925.024,1634995717,full,ni_sequenzen,NI_Sequenzen,,,,,,,,,,,,,,
,Screen_6,canvas.Screen,0_2_26_5,,skipped,27,161826.5,,,161820.6999988556,,161826.5,2021-10-23T13:35:31.232Z,161925.024,1634995717,full,ni_sequenzen,NI_Sequenzen,,,,,,,,,,,,,,
,Sequence,flow.Sequence,0_2_26,,completion,27,161819.39999961853,,,161820.6999988556,,161826.60000038147,2021-10-23T13:35:31.232Z,161925.024,1634995717,full,ni_sequenzen,NI_Sequenzen,,,,,,,,,,,,,,
,Screen_1,canvas.Screen,0_2_27_0,,skipped,28,161827.79999923706,,,161827.89999961853,,161828,2021-10-23T13:35:31.233Z,161925.024,1634995717,full,ni_sequenzen,NI_Sequenzen,,,,,,,,,,,,,,
,Screen_2,canvas.Screen,0_2_27_1,,skipped,28,161828.6999988556,,,161827.89999961853,,161828.79999923706,2021-10-23T13:35:31.234Z,161925.024,1634995717,full,ni_sequenzen,NI_Sequenzen,,,,,,,,,,,,,,
,Screen_3,canvas.Screen,0_2_27_2,,skipped,28,161829.60000038147,,,161827.89999961853,,161829.6999988556,2021-10-23T13:35:31.235Z,161925.024,1634995717,full,ni_sequenzen,NI_Sequenzen,,,,,,,,,,,,,,
,Screen_4,canvas.Screen,0_2_27_3,,skipped,28,161830.60000038147,,,161827.89999961853,,161830.60000038147,2021-10-23T13:35:31.236Z,161925.024,1634995717,full,ni_sequenzen,NI_Sequenzen,,,,,,,,,,,,,,
,Screen_5,canvas.Screen,0_2_27_4,,skipped,28,161831.39999961853,,,161827.89999961853,,161831.5,2021-10-23T13:35:31.237Z,161925.024,1634995717,full,ni_sequenzen,NI_Sequenzen,,,,,,,,,,,,,,
,Screen_6,canvas.Screen,0_2_27_5,,skipped,28,161832.29999923706,,,161827.89999961853,,161832.39999961853,2021-10-23T13:35:31.238Z,161925.024,1634995717,full,ni_sequenzen,NI_Sequenzen,,,,,,,,,,,,,,
,Sequence,flow.Sequence,0_2_27,,completion,28,161827,,,161827.89999961853,,161832.5,2021-10-23T13:35:31.238Z,161925.024,1634995717,full,ni_sequenzen,NI_Sequenzen,,,,,,,,,,,,,,
,Screen_1,canvas.Screen,0_2_28_0,,skipped,29,161833.6999988556,,,161833.6999988556,,161833.79999923706,2021-10-23T13:35:31.239Z,161925.024,1634995717,full,ni_sequenzen,NI_Sequenzen,,,,,,,,,,,,,,
,Screen_2,canvas.Screen,0_2_28_1,,skipped,29,161834.60000038147,,,161833.6999988556,,161834.6999988556,2021-10-23T13:35:31.240Z,161925.024,1634995717,full,ni_sequenzen,NI_Sequenzen,,,,,,,,,,,,,,
,Screen_3,canvas.Screen,0_2_28_2,,skipped,29,161835.5,,,161833.6999988556,,161835.60000038147,2021-10-23T13:35:31.241Z,161925.024,1634995717,full,ni_sequenzen,NI_Sequenzen,,,,,,,,,,,,,,
,Screen_4,canvas.Screen,0_2_28_3,,skipped,29,161836.39999961853,,,161833.6999988556,,161836.5,2021-10-23T13:35:31.242Z,161925.024,1634995717,full,ni_sequenzen,NI_Sequenzen,,,,,,,,,,,,,,
,Screen_5,canvas.Screen,0_2_28_4,,skipped,29,161837.1999988556,,,161833.6999988556,,161837.29999923706,2021-10-23T13:35:31.243Z,161925.024,1634995717,full,ni_sequenzen,NI_Sequenzen,,,,,,,,,,,,,,
,Screen_6,canvas.Screen,0_2_28_5,,skipped,29,161838.89999961853,,,161833.6999988556,,161839,2021-10-23T13:35:31.245Z,161925.024,1634995717,full,ni_sequenzen,NI_Sequenzen,,,,,,,,,,,,,,
,Sequence,flow.Sequence,0_2_28,,completion,29,161832.89999961853,,,161833.6999988556,,161839.1999988556,2021-10-23T13:35:31.245Z,161925.024,1634995717,full,ni_sequenzen,NI_Sequenzen,,,,,,,,,,,,,,
,Screen_1,canvas.Screen,0_2_29_0,,skipped,30,161841,,,161841,,161841.10000038147,2021-10-23T13:35:31.247Z,161925.024,1634995717,full,ni_sequenzen,NI_Sequenzen,,,,,,,,,,,,,,
,Screen_2,canvas.Screen,0_2_29_1,,skipped,30,161842.39999961853,,,161841,,161842.5,2021-10-23T13:35:31.248Z,161925.024,1634995717,full,ni_sequenzen,NI_Sequenzen,,,,,,,,,,,,,,
,Screen_3,canvas.Screen,0_2_29_2,,skipped,30,161843.79999923706,,,161841,,161843.79999923706,2021-10-23T13:35:31.249Z,161925.024,1634995717,full,ni_sequenzen,NI_Sequenzen,,,,,,,,,,,,,,
,Screen_4,canvas.Screen,0_2_29_3,,skipped,30,161845.10000038147,,,161841,,161845.1999988556,2021-10-23T13:35:31.251Z,161925.024,1634995717,full,ni_sequenzen,NI_Sequenzen,,,,,,,,,,,,,,
,Screen_5,canvas.Screen,0_2_29_4,,skipped,30,161846.5,,,161841,,161846.60000038147,2021-10-23T13:35:31.252Z,161925.024,1634995717,full,ni_sequenzen,NI_Sequenzen,,,,,,,,,,,,,,
,Screen_6,canvas.Screen,0_2_29_5,,skipped,30,161847.39999961853,,,161841,,161847.60000038147,2021-10-23T13:35:31.253Z,161925.024,1634995717,full,ni_sequenzen,NI_Sequenzen,,,,,,,,,,,,,,
,Sequence,flow.Sequence,0_2_29,,completion,30,161839.79999923706,,,161841,,161847.60000038147,2021-10-23T13:35:31.253Z,161925.024,1634995717,full,ni_sequenzen,NI_Sequenzen,,,,,,,,,,,,,,
,Instructions_II,flow.Loop,0_2,,completion,,83956.69999885559,83959.587,83976.267,161841,77864.733,161847.6999988556,2021-10-23T13:35:31.253Z,161925.024,1634995717,full,ni_sequenzen,NI_Sequenzen,,,,,,,,,,,,,,
,Move,canvas.Screen,0_3_0_0_0_0,right,response,,161908.39999961853,161908.113,161925.024,164806.5,2881.475999999995,164807.10000038147,2021-10-23T13:35:34.213Z,164825.055,1634995717,full,ni_sequenzen,NI_Sequenzen,1,0,,,,,,,,,,,,
,Move,canvas.Screen,0_3_0_0_0_1,down,response,,164814.60000038147,164808.247,164825.055,165504.6999988556,679.6449988555978,165505.29999923706,2021-10-23T13:35:34.911Z,165524.962,1634995717,full,ni_sequenzen,NI_Sequenzen,2,0,,,,,,,,,,,,
,Move,canvas.Screen,0_3_0_0_0_2,right,response,,165510.10000038147,165508.283,165524.962,172582.5,7057.5380000000005,172583.10000038147,2021-10-23T13:35:41.989Z,172591.573,1634995717,full,ni_sequenzen,NI_Sequenzen,3,0,,,,,,,,,,,,
,Move,canvas.Screen,0_3_0_0_0_3,down,response,,172587.79999923706,172574.687,172591.573,173081.6999988556,490.12699885558686,173082.1999988556,2021-10-23T13:35:42.488Z,173159.349,1634995717,full,ni_sequenzen,NI_Sequenzen,4,0,,,,,,,,,,,,
,Move,canvas.Screen,0_3_0_0_0_4,-999,skipped,,173087.1999988556,,,173081.6999988556,,173087.29999923706,2021-10-23T13:35:42.493Z,173159.349,1634995717,full,ni_sequenzen,NI_Sequenzen,5,0,,,,,,,,,,,,
,Move,canvas.Screen,0_3_0_0_0_5,-999,skipped,,173091,,,173081.6999988556,,173091.10000038147,2021-10-23T13:35:42.497Z,173159.349,1634995717,full,ni_sequenzen,NI_Sequenzen,6,0,,,,,,,,,,,,
,Move,canvas.Screen,0_3_0_0_0_6,-999,skipped,,173094.79999923706,,,173081.6999988556,,173094.89999961853,2021-10-23T13:35:42.501Z,173159.349,1634995717,full,ni_sequenzen,NI_Sequenzen,7,0,,,,,,,,,,,,
,Move,canvas.Screen,0_3_0_0_0_7,-999,skipped,,173098.89999961853,,,173081.6999988556,,173099,2021-10-23T13:35:42.505Z,173159.349,1634995717,full,ni_sequenzen,NI_Sequenzen,8,0,,,,,,,,,,,,
,Move,canvas.Screen,0_3_0_0_0_8,-999,skipped,,173102.5,,,173081.6999988556,,173102.6999988556,2021-10-23T13:35:42.508Z,173159.349,1634995717,full,ni_sequenzen,NI_Sequenzen,9,0,,,,,,,,,,,,
,Move,canvas.Screen,0_3_0_0_0_9,-999,skipped,,173105.5,,,173081.6999988556,,173105.6999988556,2021-10-23T13:35:42.511Z,173159.349,1634995717,full,ni_sequenzen,NI_Sequenzen,10,0,,,,,,,,,,,,
,Move,canvas.Screen,0_3_0_0_0_10,-999,skipped,,173108.89999961853,,,173081.6999988556,,173108.89999961853,2021-10-23T13:35:42.515Z,173159.349,1634995717,full,ni_sequenzen,NI_Sequenzen,11,0,,,,,,,,,,,,
,Move,canvas.Screen,0_3_0_0_0_11,-999,skipped,,173112.1999988556,,,173081.6999988556,,173112.39999961853,2021-10-23T13:35:42.518Z,173159.349,1634995717,full,ni_sequenzen,NI_Sequenzen,12,0,,,,,,,,,,,,
,Move,canvas.Screen,0_3_0_0_0_12,-999,skipped,,173117.60000038147,,,173081.6999988556,,173117.6999988556,2021-10-23T13:35:42.523Z,173159.349,1634995717,full,ni_sequenzen,NI_Sequenzen,13,0,,,,,,,,,,,,
,Move,canvas.Screen,0_3_0_0_0_13,-999,skipped,,173122.89999961853,,,173081.6999988556,,173123.10000038147,2021-10-23T13:35:42.529Z,173159.349,1634995717,full,ni_sequenzen,NI_Sequenzen,14,0,,,,,,,,,,,,
,Move,canvas.Screen,0_3_0_0_0_14,-999,skipped,,173132,,,173081.6999988556,,173132.10000038147,2021-10-23T13:35:42.538Z,173159.349,1634995717,full,ni_sequenzen,NI_Sequenzen,15,0,,,,,,,,,,,,
,Loop,flow.Loop,0_3_0_0_0,-999,completion,,161899.29999923706,161908.113,161925.024,173081.6999988556,11156.675998855586,173132.39999961853,2021-10-23T13:35:42.538Z,173159.349,1634995717,full,ni_sequenzen,NI_Sequenzen,,0,,,,,,,,,,,,
,Feedback,canvas.Screen,0_3_0_0_1,,timeout,,173140.79999923706,173124.834,173159.349,177141.42,3998.7490000000107,177142.10000038147,2021-10-23T13:35:46.548Z,177158.098,1634995717,full,ni_sequenzen,NI_Sequenzen,,0,,,,,,,,,,,,
,Trial,flow.Sequence,0_3_0_0,,completion,,161879.39999961853,161908.113,161925.024,177141.42,15216.396000000008,177142.29999923706,2021-10-23T13:35:46.548Z,177174.851,1634995717,full,ni_sequenzen,NI_Sequenzen,,0,,,,,,,,,,,,
,Move,canvas.Screen,0_3_0_1_0_0,right,response,,177167.89999961853,177158.098,177174.851,179851.60000038147,2676.7490003814746,179852.10000038147,2021-10-23T13:35:49.258Z,179886.254,1634995717,full,ni_sequenzen,NI_Sequenzen,1,1,,,,,,,,,,,,
,Move,canvas.Screen,0_3_0_1_0_1,down,response,,179857.5,179841.322,179886.254,180168.60000038147,282.34600038148346,180169.60000038147,2021-10-23T13:35:49.575Z,180174.704,1634995717,full,ni_sequenzen,NI_Sequenzen,2,1,,,,,,,,,,,,
,Move,canvas.Screen,0_3_0_1_0_2,right,response,,180172.10000038147,180158.042,180174.704,180525.5,350.7960000000021,180526.5,2021-10-23T13:35:49.932Z,180541.485,1634995717,full,ni_sequenzen,NI_Sequenzen,3,1,,,,,,,,,,,,
,Move,canvas.Screen,0_3_0_1_0_3,down,response,,180531.10000038147,180524.755,180541.485,180835.79999923706,294.3149992370745,180836.29999923706,2021-10-23T13:35:50.242Z,180924.693,1634995717,full,ni_sequenzen,NI_Sequenzen,4,1,,,,,,,,,,,,
,Move,canvas.Screen,0_3_0_1_0_4,-999,skipped,,180840.1999988556,,,180835.79999923706,,180840.39999961853,2021-10-23T13:35:50.246Z,180924.693,1634995717,full,ni_sequenzen,NI_Sequenzen,5,1,,,,,,,,,,,,
,Move,canvas.Screen,0_3_0_1_0_5,-999,skipped,,180844.5,,,180835.79999923706,,180844.60000038147,2021-10-23T13:35:50.250Z,180924.693,1634995717,full,ni_sequenzen,NI_Sequenzen,6,1,,,,,,,,,,,,
,Move,canvas.Screen,0_3_0_1_0_6,-999,skipped,,180849.39999961853,,,180835.79999923706,,180849.60000038147,2021-10-23T13:35:50.255Z,180924.693,1634995717,full,ni_sequenzen,NI_Sequenzen,7,1,,,,,,,,,,,,
,Move,canvas.Screen,0_3_0_1_0_7,-999,skipped,,180851.6999988556,,,180835.79999923706,,180851.6999988556,2021-10-23T13:35:50.257Z,180924.693,1634995717,full,ni_sequenzen,NI_Sequenzen,8,1,,,,,,,,,,,,
,Move,canvas.Screen,0_3_0_1_0_8,-999,skipped,,180853.6999988556,,,180835.79999923706,,180853.79999923706,2021-10-23T13:35:50.259Z,180924.693,1634995717,full,ni_sequenzen,NI_Sequenzen,9,1,,,,,,,,,,,,
,Move,canvas.Screen,0_3_0_1_0_9,-999,skipped,,180862.1999988556,,,180835.79999923706,,180862.39999961853,2021-10-23T13:35:50.268Z,180924.693,1634995717,full,ni_sequenzen,NI_Sequenzen,10,1,,,,,,,,,,,,
,Move,canvas.Screen,0_3_0_1_0_10,-999,skipped,,180866.79999923706,,,180835.79999923706,,180867,2021-10-23T13:35:50.273Z,180924.693,1634995717,full,ni_sequenzen,NI_Sequenzen,11,1,,,,,,,,,,,,
,Move,canvas.Screen,0_3_0_1_0_11,-999,skipped,,180873.29999923706,,,180835.79999923706,,180873.5,2021-10-23T13:35:50.279Z,180924.693,1634995717,full,ni_sequenzen,NI_Sequenzen,12,1,,,,,,,,,,,,
,Move,canvas.Screen,0_3_0_1_0_12,-999,skipped,,180878.29999923706,,,180835.79999923706,,180880.5,2021-10-23T13:35:50.286Z,180924.693,1634995717,full,ni_sequenzen,NI_Sequenzen,13,1,,,,,,,,,,,,
,Move,canvas.Screen,0_3_0_1_0_13,-999,skipped,,180892,,,180835.79999923706,,180892.1999988556,2021-10-23T13:35:50.298Z,180924.693,1634995717,full,ni_sequenzen,NI_Sequenzen,14,1,,,,,,,,,,,,
,Move,canvas.Screen,0_3_0_1_0_14,-999,skipped,,180905.79999923706,,,180835.79999923706,,180905.89999961853,2021-10-23T13:35:50.311Z,180924.693,1634995717,full,ni_sequenzen,NI_Sequenzen,15,1,,,,,,,,,,,,
,Loop,flow.Loop,0_3_0_1_0,-999,completion,,177163.6999988556,177158.098,177174.851,180835.79999923706,3660.9489992370654,180906,2021-10-23T13:35:50.312Z,180924.693,1634995717,full,ni_sequenzen,NI_Sequenzen,,1,,,,,,,,,,,,
,Feedback,canvas.Screen,0_3_0_1_1,,timeout,,180909.5,180908.029,180924.693,184907.953,3999.9439999999886,184908.39999961853,2021-10-23T13:35:54.314Z,184924.637,1634995717,full,ni_sequenzen,NI_Sequenzen,,1,,,,,,,,,,,,
,Trial,flow.Sequence,0_3_0_1,,completion,,177142.79999923706,177158.098,177174.851,184907.953,7733.1020000000135,184908.5,2021-10-23T13:35:54.314Z,184941.322,1634995717,full,ni_sequenzen,NI_Sequenzen,,1,,,,,,,,,,,,
,Move,canvas.Screen,0_3_0_2_0_0,right,response,,184929.60000038147,184924.637,184941.322,189329.39999961853,4388.077999618545,189329.79999923706,2021-10-23T13:35:58.735Z,189341.239,1634995717,full,ni_sequenzen,NI_Sequenzen,1,2,,,,,,,,,,,,
,Move,canvas.Screen,0_3_0_2_0_1,down,response,,189334.29999923706,189324.457,189341.239,189610.1999988556,268.9609988555894,189610.89999961853,2021-10-23T13:35:59.016Z,189624.592,1634995717,full,ni_sequenzen,NI_Sequenzen,2,2,,,,,,,,,,,,
,Move,canvas.Screen,0_3_0_2_0_2,right,response,,189614.89999961853,189607.869,189624.592,190049.79999923706,425.20799923705636,190050.39999961853,2021-10-23T13:35:59.456Z,190057.876,1634995717,full,ni_sequenzen,NI_Sequenzen,3,2,,,,,,,,,,,,
,Move,canvas.Screen,0_3_0_2_0_3,down,response,,190055.29999923706,190041.188,190057.876,190299.29999923706,241.42399923707126,190300,2021-10-23T13:35:59.706Z,190357.863,1634995717,full,ni_sequenzen,NI_Sequenzen,4,2,,,,,,,,,,,,
,Move,canvas.Screen,0_3_0_2_0_4,-999,skipped,,190304,,,190299.29999923706,,190304.1999988556,2021-10-23T13:35:59.710Z,190357.863,1634995717,full,ni_sequenzen,NI_Sequenzen,5,2,,,,,,,,,,,,
,Move,canvas.Screen,0_3_0_2_0_5,-999,skipped,,190308.1999988556,,,190299.29999923706,,190308.29999923706,2021-10-23T13:35:59.714Z,190357.863,1634995717,full,ni_sequenzen,NI_Sequenzen,6,2,,,,,,,,,,,,
,Move,canvas.Screen,0_3_0_2_0_6,-999,skipped,,190312.1999988556,,,190299.29999923706,,190312.39999961853,2021-10-23T13:35:59.718Z,190357.863,1634995717,full,ni_sequenzen,NI_Sequenzen,7,2,,,,,,,,,,,,
,Move,canvas.Screen,0_3_0_2_0_7,-999,skipped,,190316.1999988556,,,190299.29999923706,,190316.39999961853,2021-10-23T13:35:59.722Z,190357.863,1634995717,full,ni_sequenzen,NI_Sequenzen,8,2,,,,,,,,,,,,
,Move,canvas.Screen,0_3_0_2_0_8,-999,skipped,,190320.10000038147,,,190299.29999923706,,190320.29999923706,2021-10-23T13:35:59.726Z,190357.863,1634995717,full,ni_sequenzen,NI_Sequenzen,9,2,,,,,,,,,,,,
,Move,canvas.Screen,0_3_0_2_0_9,-999,skipped,,190324.10000038147,,,190299.29999923706,,190324.10000038147,2021-10-23T13:35:59.730Z,190357.863,1634995717,full,ni_sequenzen,NI_Sequenzen,10,2,,,,,,,,,,,,
,Move,canvas.Screen,0_3_0_2_0_10,-999,skipped,,190326.10000038147,,,190299.29999923706,,190326.1999988556,2021-10-23T13:35:59.732Z,190357.863,1634995717,full,ni_sequenzen,NI_Sequenzen,11,2,,,,,,,,,,,,
,Move,canvas.Screen,0_3_0_2_0_11,-999,skipped,,190329.89999961853,,,190299.29999923706,,190330,2021-10-23T13:35:59.736Z,190357.863,1634995717,full,ni_sequenzen,NI_Sequenzen,12,2,,,,,,,,,,,,
,Move,canvas.Screen,0_3_0_2_0_12,-999,skipped,,190334.5,,,190299.29999923706,,190334.60000038147,2021-10-23T13:35:59.740Z,190357.863,1634995717,full,ni_sequenzen,NI_Sequenzen,13,2,,,,,,,,,,,,
,Move,canvas.Screen,0_3_0_2_0_13,-999,skipped,,190338.79999923706,,,190299.29999923706,,190338.89999961853,2021-10-23T13:35:59.744Z,190357.863,1634995717,full,ni_sequenzen,NI_Sequenzen,14,2,,,,,,,,,,,,
,Move,canvas.Screen,0_3_0_2_0_14,-999,skipped,,190342.89999961853,,,190299.29999923706,,190343,2021-10-23T13:35:59.749Z,190357.863,1634995717,full,ni_sequenzen,NI_Sequenzen,15,2,,,,,,,,,,,,
,Loop,flow.Loop,0_3_0_2_0,-999,completion,,184924.60000038147,184924.637,184941.322,190299.29999923706,5357.977999237075,190343.1999988556,2021-10-23T13:35:59.749Z,190357.863,1634995717,full,ni_sequenzen,NI_Sequenzen,,2,,,,,,,,,,,,
,Feedback,canvas.Screen,0_3_0_2_1,,timeout,,190346.10000038147,190341.196,190357.863,194341.114,3999.926999999996,194341.5,2021-10-23T13:36:03.747Z,194357.79,1634995717,full,ni_sequenzen,NI_Sequenzen,,2,,,,,,,,,,,,
,Trial,flow.Sequence,0_3_0_2,,completion,,184908.6999988556,184924.637,184941.322,194341.114,9399.792000000016,194341.6999988556,2021-10-23T13:36:03.747Z,194374.461,1634995717,full,ni_sequenzen,NI_Sequenzen,,2,,,,,,,,,,,,
,Move,canvas.Screen,0_3_0_3_0_0,right,response,,194359,194357.79,194374.461,196279.29999923706,1904.8389992370503,196279.89999961853,2021-10-23T13:36:05.685Z,196291.087,1634995717,full,ni_sequenzen,NI_Sequenzen,1,3,,,,,,,,,,,,
,Move,canvas.Screen,0_3_0_3_0_1,down,response,,196285,196274.381,196291.087,196477.5,186.41300000000047,196478,2021-10-23T13:36:05.884Z,196491.146,1634995717,full,ni_sequenzen,NI_Sequenzen,2,3,,,,,,,,,,,,
,Move,canvas.Screen,0_3_0_3_0_2,right,response,,196481.60000038147,196474.417,196491.146,196769.29999923706,278.15399923705263,196769.79999923706,2021-10-23T13:36:06.175Z,196791.164,1634995717,full,ni_sequenzen,NI_Sequenzen,3,3,,,,,,,,,,,,
,Move,canvas.Screen,0_3_0_3_0_3,down,response,,196774.5,196774.41,196791.164,197012.5,221.33600000001024,197013,2021-10-23T13:36:06.419Z,197057.746,1634995717,full,ni_sequenzen,NI_Sequenzen,4,3,,,,,,,,,,,,
,Move,canvas.Screen,0_3_0_3_0_4,-999,skipped,,197016.1999988556,,,197012.5,,197016.39999961853,2021-10-23T13:36:06.422Z,197057.746,1634995717,full,ni_sequenzen,NI_Sequenzen,5,3,,,,,,,,,,,,
,Move,canvas.Screen,0_3_0_3_0_5,-999,skipped,,197020.39999961853,,,197012.5,,197020.60000038147,2021-10-23T13:36:06.426Z,197057.746,1634995717,full,ni_sequenzen,NI_Sequenzen,6,3,,,,,,,,,,,,
,Move,canvas.Screen,0_3_0_3_0_6,-999,skipped,,197025.1999988556,,,197012.5,,197025.29999923706,2021-10-23T13:36:06.431Z,197057.746,1634995717,full,ni_sequenzen,NI_Sequenzen,7,3,,,,,,,,,,,,
,Move,canvas.Screen,0_3_0_3_0_7,-999,skipped,,197027.29999923706,,,197012.5,,197027.29999923706,2021-10-23T13:36:06.433Z,197057.746,1634995717,full,ni_sequenzen,NI_Sequenzen,8,3,,,,,,,,,,,,
,Move,canvas.Screen,0_3_0_3_0_8,-999,skipped,,197029.29999923706,,,197012.5,,197029.29999923706,2021-10-23T13:36:06.435Z,197057.746,1634995717,full,ni_sequenzen,NI_Sequenzen,9,3,,,,,,,,,,,,
,Move,canvas.Screen,0_3_0_3_0_9,-999,skipped,,197032.29999923706,,,197012.5,,197032.5,2021-10-23T13:36:06.438Z,197057.746,1634995717,full,ni_sequenzen,NI_Sequenzen,10,3,,,,,,,,,,,,
,Move,canvas.Screen,0_3_0_3_0_10,-999,skipped,,197034.89999961853,,,197012.5,,197034.89999961853,2021-10-23T13:36:06.441Z,197057.746,1634995717,full,ni_sequenzen,NI_Sequenzen,11,3,,,,,,,,,,,,
,Move,canvas.Screen,0_3_0_3_0_11,-999,skipped,,197037.1999988556,,,197012.5,,197037.29999923706,2021-10-23T13:36:06.443Z,197057.746,1634995717,full,ni_sequenzen,NI_Sequenzen,12,3,,,,,,,,,,,,
,Move,canvas.Screen,0_3_0_3_0_12,-999,skipped,,197041.1999988556,,,197012.5,,197041.29999923706,2021-10-23T13:36:06.447Z,197057.746,1634995717,full,ni_sequenzen,NI_Sequenzen,13,3,,,,,,,,,,,,
,Move,canvas.Screen,0_3_0_3_0_13,-999,skipped,,197046.39999961853,,,197012.5,,197046.60000038147,2021-10-23T13:36:06.452Z,197057.746,1634995717,full,ni_sequenzen,NI_Sequenzen,14,3,,,,,,,,,,,,
,Move,canvas.Screen,0_3_0_3_0_14,-999,skipped,,197050.6999988556,,,197012.5,,197050.79999923706,2021-10-23T13:36:06.456Z,197057.746,1634995717,full,ni_sequenzen,NI_Sequenzen,15,3,,,,,,,,,,,,
,Loop,flow.Loop,0_3_0_3_0,-999,completion,,194354.6999988556,194357.79,194374.461,197012.5,2638.0389999999898,197051.10000038147,2021-10-23T13:36:06.457Z,197057.746,1634995717,full,ni_sequenzen,NI_Sequenzen,,3,,,,,,,,,,,,
,Feedback,canvas.Screen,0_3_0_3_1,,timeout,,197054.6999988556,197041.078,197057.746,201041.009,3999.9320000000007,201041.5,2021-10-23T13:36:10.447Z,201057.678,1634995717,full,ni_sequenzen,NI_Sequenzen,,3,,,,,,,,,,,,
,Trial,flow.Sequence,0_3_0_3,,completion,,194341.89999961853,194357.79,194374.461,201041.009,6666.547999999981,201041.6999988556,2021-10-23T13:36:10.447Z,201074.335,1634995717,full,ni_sequenzen,NI_Sequenzen,,3,,,,,,,,,,,,
,Move,canvas.Screen,0_3_0_4_0_0,right,response,,201062.5,201057.678,201074.335,209313.89999961853,8239.564999618538,209314.5,2021-10-23T13:36:18.720Z,209324.308,1634995717,full,ni_sequenzen,NI_Sequenzen,1,4,,,,,,,,,,,,
,Move,canvas.Screen,0_3_0_4_0_1,down,response,,209317.39999961853,209307.349,209324.308,209609.29999923706,284.99199923707056,209609.79999923706,2021-10-23T13:36:19.015Z,209624.216,1634995717,full,ni_sequenzen,NI_Sequenzen,2,4,,,,,,,,,,,,
,Move,canvas.Screen,0_3_0_4_0_2,right,response,,209612.39999961853,209607.538,209624.216,209950.79999923706,326.58399923707475,209951.39999961853,2021-10-23T13:36:19.357Z,209957.529,1634995717,full,ni_sequenzen,NI_Sequenzen,3,4,,,,,,,,,,,,
,Move,canvas.Screen,0_3_0_4_0_3,down,response,,209954.6999988556,209940.85,209957.529,210254.89999961853,297.3709996185207,210255.5,2021-10-23T13:36:19.661Z,210307.514,1634995717,full,ni_sequenzen,NI_Sequenzen,4,4,,,,,,,,,,,,
,Move,canvas.Screen,0_3_0_4_0_4,-999,skipped,,210258.6999988556,,,210254.89999961853,,210258.79999923706,2021-10-23T13:36:19.664Z,210307.514,1634995717,full,ni_sequenzen,NI_Sequenzen,5,4,,,,,,,,,,,,
,Move,canvas.Screen,0_3_0_4_0_5,-999,skipped,,210263.5,,,210254.89999961853,,210263.6999988556,2021-10-23T13:36:19.669Z,210307.514,1634995717,full,ni_sequenzen,NI_Sequenzen,6,4,,,,,,,,,,,,
,Move,canvas.Screen,0_3_0_4_0_6,-999,skipped,,210267.10000038147,,,210254.89999961853,,210267.1999988556,2021-10-23T13:36:19.673Z,210307.514,1634995717,full,ni_sequenzen,NI_Sequenzen,7,4,,,,,,,,,,,,
,Move,canvas.Screen,0_3_0_4_0_7,-999,skipped,,210270.10000038147,,,210254.89999961853,,210270.10000038147,2021-10-23T13:36:19.676Z,210307.514,1634995717,full,ni_sequenzen,NI_Sequenzen,8,4,,,,,,,,,,,,
,Move,canvas.Screen,0_3_0_4_0_8,-999,skipped,,210272.60000038147,,,210254.89999961853,,210272.6999988556,2021-10-23T13:36:19.678Z,210307.514,1634995717,full,ni_sequenzen,NI_Sequenzen,9,4,,,,,,,,,,,,
,Move,canvas.Screen,0_3_0_4_0_9,-999,skipped,,210275.29999923706,,,210254.89999961853,,210275.5,2021-10-23T13:36:19.681Z,210307.514,1634995717,full,ni_sequenzen,NI_Sequenzen,10,4,,,,,,,,,,,,
,Move,canvas.Screen,0_3_0_4_0_10,-999,skipped,,210280.1999988556,,,210254.89999961853,,210280.39999961853,2021-10-23T13:36:19.686Z,210307.514,1634995717,full,ni_sequenzen,NI_Sequenzen,11,4,,,,,,,,,,,,
,Move,canvas.Screen,0_3_0_4_0_11,-999,skipped,,210283,,,210254.89999961853,,210283.1999988556,2021-10-23T13:36:19.689Z,210307.514,1634995717,full,ni_sequenzen,NI_Sequenzen,12,4,,,,,,,,,,,,
,Move,canvas.Screen,0_3_0_4_0_12,-999,skipped,,210285.60000038147,,,210254.89999961853,,210285.6999988556,2021-10-23T13:36:19.691Z,210307.514,1634995717,full,ni_sequenzen,NI_Sequenzen,13,4,,,,,,,,,,,,
,Move,canvas.Screen,0_3_0_4_0_13,-999,skipped,,210288.29999923706,,,210254.89999961853,,210288.29999923706,2021-10-23T13:36:19.694Z,210307.514,1634995717,full,ni_sequenzen,NI_Sequenzen,14,4,,,,,,,,,,,,
,Move,canvas.Screen,0_3_0_4_0_14,-999,skipped,,210291.60000038147,,,210254.89999961853,,210291.89999961853,2021-10-23T13:36:19.697Z,210307.514,1634995717,full,ni_sequenzen,NI_Sequenzen,15,4,,,,,,,,,,,,
,Loop,flow.Loop,0_3_0_4_0,-999,completion,,201058.6999988556,201057.678,201074.335,210254.89999961853,9180.564999618538,210292.10000038147,2021-10-23T13:36:19.698Z,210307.514,1634995717,full,ni_sequenzen,NI_Sequenzen,,4,,,,,,,,,,,,
,Feedback,canvas.Screen,0_3_0_4_1,,timeout,,210294.5,210290.862,210307.514,214290.782,3999.94200000001,214291.29999923706,2021-10-23T13:36:23.697Z,214307.456,1634995717,full,ni_sequenzen,NI_Sequenzen,,4,,,,,,,,,,,,
,Trial,flow.Sequence,0_3_0_4,,completion,,201041.89999961853,201057.678,201074.335,214290.782,13216.447000000015,214291.39999961853,2021-10-23T13:36:23.697Z,214324.16,1634995717,full,ni_sequenzen,NI_Sequenzen,,4,,,,,,,,,,,,
,Move,canvas.Screen,0_3_0_5_0_0,right,response,,214314.89999961853,214307.456,214324.16,215382.79999923706,1058.639999237057,215383.29999923706,2021-10-23T13:36:24.789Z,215390.765,1634995717,full,ni_sequenzen,NI_Sequenzen,1,5,,,,,,,,,,,,
,Move,canvas.Screen,0_3_0_5_0_1,down,response,,215387.10000038147,215374.073,215390.765,215634.29999923706,243.53499923704658,215634.79999923706,2021-10-23T13:36:25.040Z,215640.758,1634995717,full,ni_sequenzen,NI_Sequenzen,2,5,,,,,,,,,,,,
,Move,canvas.Screen,0_3_0_5_0_2,right,response,,215639,215624.092,215640.758,215909.29999923706,268.5419992370589,215909.6999988556,2021-10-23T13:36:25.315Z,215924.154,1634995717,full,ni_sequenzen,NI_Sequenzen,3,5,,,,,,,,,,,,
,Move,canvas.Screen,0_3_0_5_0_3,down,response,,215913.39999961853,215907.41,215924.154,216177.79999923706,253.645999237051,216178.29999923706,2021-10-23T13:36:25.584Z,216224.083,1634995717,full,ni_sequenzen,NI_Sequenzen,4,5,,,,,,,,,,,,
,Move,canvas.Screen,0_3_0_5_0_4,-999,skipped,,216185.1999988556,,,216177.79999923706,,216185.39999961853,2021-10-23T13:36:25.591Z,216224.083,1634995717,full,ni_sequenzen,NI_Sequenzen,5,5,,,,,,,,,,,,
,Move,canvas.Screen,0_3_0_5_0_5,-999,skipped,,216189.10000038147,,,216177.79999923706,,216189.1999988556,2021-10-23T13:36:25.595Z,216224.083,1634995717,full,ni_sequenzen,NI_Sequenzen,6,5,,,,,,,,,,,,
,Move,canvas.Screen,0_3_0_5_0_6,-999,skipped,,216192.39999961853,,,216177.79999923706,,216192.60000038147,2021-10-23T13:36:25.598Z,216224.083,1634995717,full,ni_sequenzen,NI_Sequenzen,7,5,,,,,,,,,,,,
,Move,canvas.Screen,0_3_0_5_0_7,-999,skipped,,216196,,,216177.79999923706,,216196.10000038147,2021-10-23T13:36:25.602Z,216224.083,1634995717,full,ni_sequenzen,NI_Sequenzen,8,5,,,,,,,,,,,,
,Move,canvas.Screen,0_3_0_5_0_8,-999,skipped,,216199,,,216177.79999923706,,216199.10000038147,2021-10-23T13:36:25.605Z,216224.083,1634995717,full,ni_sequenzen,NI_Sequenzen,9,5,,,,,,,,,,,,
,Move,canvas.Screen,0_3_0_5_0_9,-999,skipped,,216200.89999961853,,,216177.79999923706,,216201.10000038147,2021-10-23T13:36:25.607Z,216224.083,1634995717,full,ni_sequenzen,NI_Sequenzen,10,5,,,,,,,,,,,,
,Move,canvas.Screen,0_3_0_5_0_10,-999,skipped,,216203.1999988556,,,216177.79999923706,,216203.29999923706,2021-10-23T13:36:25.609Z,216224.083,1634995717,full,ni_sequenzen,NI_Sequenzen,11,5,,,,,,,,,,,,
,Move,canvas.Screen,0_3_0_5_0_11,-999,skipped,,216207.79999923706,,,216177.79999923706,,216207.89999961853,2021-10-23T13:36:25.614Z,216224.083,1634995717,full,ni_sequenzen,NI_Sequenzen,12,5,,,,,,,,,,,,
,Move,canvas.Screen,0_3_0_5_0_12,-999,skipped,,216211.79999923706,,,216177.79999923706,,216211.79999923706,2021-10-23T13:36:25.617Z,216224.083,1634995717,full,ni_sequenzen,NI_Sequenzen,13,5,,,,,,,,,,,,
,Move,canvas.Screen,0_3_0_5_0_13,-999,skipped,,216215.60000038147,,,216177.79999923706,,216215.79999923706,2021-10-23T13:36:25.621Z,216224.083,1634995717,full,ni_sequenzen,NI_Sequenzen,14,5,,,,,,,,,,,,
,Move,canvas.Screen,0_3_0_5_0_14,-999,skipped,,216219.60000038147,,,216177.79999923706,,216220.1999988556,2021-10-23T13:36:25.626Z,216224.083,1634995717,full,ni_sequenzen,NI_Sequenzen,15,5,,,,,,,,,,,,
,Loop,flow.Loop,0_3_0_5_0,-999,completion,,214310.79999923706,214307.456,214324.16,216177.79999923706,1853.639999237057,216220.39999961853,2021-10-23T13:36:25.626Z,216224.083,1634995717,full,ni_sequenzen,NI_Sequenzen,,5,,,,,,,,,,,,
,Feedback,canvas.Screen,0_3_0_5_1,,timeout,,216222.10000038147,216207.403,216224.083,220207.511,3999.9919999999984,220208,2021-10-23T13:36:29.614Z,220224.075,1634995717,full,ni_sequenzen,NI_Sequenzen,,5,,,,,,,,,,,,
,Trial,flow.Sequence,0_3_0_5,,completion,,214291.79999923706,214307.456,214324.16,220207.511,5883.350999999995,220208.1999988556,2021-10-23T13:36:29.614Z,220240.911,1634995717,full,ni_sequenzen,NI_Sequenzen,,5,,,,,,,,,,,,
,Move,canvas.Screen,0_3_0_6_0_0,right,response,,220223.89999961853,220224.075,220240.911,221977,1736.0890000000072,221977.39999961853,2021-10-23T13:36:31.383Z,221990.792,1634995717,full,ni_sequenzen,NI_Sequenzen,1,6,,,,,,,,,,,,
,Move,canvas.Screen,0_3_0_6_0_1,down,response,,221979.6999988556,221974.012,221990.792,222314.39999961853,323.60799961854354,222314.79999923706,2021-10-23T13:36:31.720Z,222324.032,1634995717,full,ni_sequenzen,NI_Sequenzen,2,6,,,,,,,,,,,,
,Move,canvas.Screen,0_3_0_6_0_2,right,response,,222317.29999923706,222307.374,222324.032,222550.89999961853,226.86799961852375,222551.29999923706,2021-10-23T13:36:31.957Z,222557.365,1634995717,full,ni_sequenzen,NI_Sequenzen,3,6,,,,,,,,,,,,
,Move,canvas.Screen,0_3_0_6_0_3,down,response,,222554.29999923706,222540.722,222557.365,222747.79999923706,190.43499923706986,222748.10000038147,2021-10-23T13:36:32.154Z,222790.701,1634995717,full,ni_sequenzen,NI_Sequenzen,4,6,,,,,,,,,,,,
,Move,canvas.Screen,0_3_0_6_0_4,-999,skipped,,222750.1999988556,,,222747.79999923706,,222750.29999923706,2021-10-23T13:36:32.156Z,222790.701,1634995717,full,ni_sequenzen,NI_Sequenzen,5,6,,,,,,,,,,,,
,Move,canvas.Screen,0_3_0_6_0_5,-999,skipped,,222752.89999961853,,,222747.79999923706,,222752.89999961853,2021-10-23T13:36:32.159Z,222790.701,1634995717,full,ni_sequenzen,NI_Sequenzen,6,6,,,,,,,,,,,,
,Move,canvas.Screen,0_3_0_6_0_6,-999,skipped,,222756,,,222747.79999923706,,222756.10000038147,2021-10-23T13:36:32.162Z,222790.701,1634995717,full,ni_sequenzen,NI_Sequenzen,7,6,,,,,,,,,,,,
,Move,canvas.Screen,0_3_0_6_0_7,-999,skipped,,222758.10000038147,,,222747.79999923706,,222758.29999923706,2021-10-23T13:36:32.164Z,222790.701,1634995717,full,ni_sequenzen,NI_Sequenzen,8,6,,,,,,,,,,,,
,Move,canvas.Screen,0_3_0_6_0_8,-999,skipped,,222760.39999961853,,,222747.79999923706,,222760.39999961853,2021-10-23T13:36:32.166Z,222790.701,1634995717,full,ni_sequenzen,NI_Sequenzen,9,6,,,,,,,,,,,,
,Move,canvas.Screen,0_3_0_6_0_9,-999,skipped,,222763.10000038147,,,222747.79999923706,,222763.1999988556,2021-10-23T13:36:32.169Z,222790.701,1634995717,full,ni_sequenzen,NI_Sequenzen,10,6,,,,,,,,,,,,
,Move,canvas.Screen,0_3_0_6_0_10,-999,skipped,,222765.39999961853,,,222747.79999923706,,222765.39999961853,2021-10-23T13:36:32.171Z,222790.701,1634995717,full,ni_sequenzen,NI_Sequenzen,11,6,,,,,,,,,,,,
,Move,canvas.Screen,0_3_0_6_0_11,-999,skipped,,222767.5,,,222747.79999923706,,222767.5,2021-10-23T13:36:32.173Z,222790.701,1634995717,full,ni_sequenzen,NI_Sequenzen,12,6,,,,,,,,,,,,
,Move,canvas.Screen,0_3_0_6_0_12,-999,skipped,,222769.79999923706,,,222747.79999923706,,222769.89999961853,2021-10-23T13:36:32.175Z,222790.701,1634995717,full,ni_sequenzen,NI_Sequenzen,13,6,,,,,,,,,,,,
,Move,canvas.Screen,0_3_0_6_0_13,-999,skipped,,222772.60000038147,,,222747.79999923706,,222772.6999988556,2021-10-23T13:36:32.178Z,222790.701,1634995717,full,ni_sequenzen,NI_Sequenzen,14,6,,,,,,,,,,,,
,Move,canvas.Screen,0_3_0_6_0_14,-999,skipped,,222774.79999923706,,,222747.79999923706,,222774.79999923706,2021-10-23T13:36:32.180Z,222790.701,1634995717,full,ni_sequenzen,NI_Sequenzen,15,6,,,,,,,,,,,,
,Loop,flow.Loop,0_3_0_6_0,-999,completion,,220220.39999961853,220224.075,220240.911,222747.79999923706,2506.8889992370678,222775.10000038147,2021-10-23T13:36:32.181Z,222790.701,1634995717,full,ni_sequenzen,NI_Sequenzen,,6,,,,,,,,,,,,
,Feedback,canvas.Screen,0_3_0_6_1,,timeout,,222776.6999988556,222774.1,222790.701,226774.121,3999.972999999998,226774.60000038147,2021-10-23T13:36:36.180Z,226790.674,1634995717,full,ni_sequenzen,NI_Sequenzen,,6,,,,,,,,,,,,
,Trial,flow.Sequence,0_3_0_6,,completion,,220208.39999961853,220224.075,220240.911,226774.121,6533.210000000021,226774.79999923706,2021-10-23T13:36:36.180Z,226807.435,1634995717,full,ni_sequenzen,NI_Sequenzen,,6,,,,,,,,,,,,
,Move,canvas.Screen,0_3_0_7_0_0,right,response,,226790.6999988556,226790.674,226807.435,230639.10000038147,3831.665000381472,230639.5,2021-10-23T13:36:40.045Z,230657.432,1634995717,full,ni_sequenzen,NI_Sequenzen,1,7,,,,,,,,,,,,
,Move,canvas.Screen,0_3_0_7_0_1,down,response,,230642.10000038147,230640.693,230657.432,230846.89999961853,189.46799961852957,230847.60000038147,2021-10-23T13:36:40.253Z,230874.093,1634995717,full,ni_sequenzen,NI_Sequenzen,2,7,,,,,,,,,,,,
,Move,canvas.Screen,0_3_0_7_0_2,right,response,,230857.79999923706,230857.445,230874.093,231164.79999923706,290.70699923706707,231165.1999988556,2021-10-23T13:36:40.571Z,231174.099,1634995717,full,ni_sequenzen,NI_Sequenzen,3,7,,,,,,,,,,,,
,Move,canvas.Screen,0_3_0_7_0_3,down,response,,231168.1999988556,231157.428,231174.099,231375,200.90100000001257,231375.5,2021-10-23T13:36:40.781Z,231431.266,1634995717,full,ni_sequenzen,NI_Sequenzen,4,7,,,,,,,,,,,,
,Move,canvas.Screen,0_3_0_7_0_4,-999,skipped,,231378.5,,,231375,,231378.60000038147,2021-10-23T13:36:40.784Z,231431.266,1634995717,full,ni_sequenzen,NI_Sequenzen,5,7,,,,,,,,,,,,
,Move,canvas.Screen,0_3_0_7_0_5,-999,skipped,,231381.1999988556,,,231375,,231381.39999961853,2021-10-23T13:36:40.787Z,231431.266,1634995717,full,ni_sequenzen,NI_Sequenzen,6,7,,,,,,,,,,,,
,Move,canvas.Screen,0_3_0_7_0_6,-999,skipped,,231384.39999961853,,,231375,,231384.5,2021-10-23T13:36:40.790Z,231431.266,1634995717,full,ni_sequenzen,NI_Sequenzen,7,7,,,,,,,,,,,,
,Move,canvas.Screen,0_3_0_7_0_7,-999,skipped,,231386.89999961853,,,231375,,231387,2021-10-23T13:36:40.793Z,231431.266,1634995717,full,ni_sequenzen,NI_Sequenzen,8,7,,,,,,,,,,,,
,Move,canvas.Screen,0_3_0_7_0_8,-999,skipped,,231389.10000038147,,,231375,,231389.1999988556,2021-10-23T13:36:40.795Z,231431.266,1634995717,full,ni_sequenzen,NI_Sequenzen,9,7,,,,,,,,,,,,
,Move,canvas.Screen,0_3_0_7_0_9,-999,skipped,,231392.10000038147,,,231375,,231392.1999988556,2021-10-23T13:36:40.798Z,231431.266,1634995717,full,ni_sequenzen,NI_Sequenzen,10,7,,,,,,,,,,,,
,Move,canvas.Screen,0_3_0_7_0_10,-999,skipped,,231394.29999923706,,,231375,,231394.39999961853,2021-10-23T13:36:40.800Z,231431.266,1634995717,full,ni_sequenzen,NI_Sequenzen,11,7,,,,,,,,,,,,
,Move,canvas.Screen,0_3_0_7_0_11,-999,skipped,,231396.5,,,231375,,231396.5,2021-10-23T13:36:40.802Z,231431.266,1634995717,full,ni_sequenzen,NI_Sequenzen,12,7,,,,,,,,,,,,
,Move,canvas.Screen,0_3_0_7_0_12,-999,skipped,,231399.6999988556,,,231375,,231399.79999923706,2021-10-23T13:36:40.805Z,231431.266,1634995717,full,ni_sequenzen,NI_Sequenzen,13,7,,,,,,,,,,,,
,Move,canvas.Screen,0_3_0_7_0_13,-999,skipped,,231402.29999923706,,,231375,,231402.5,2021-10-23T13:36:40.808Z,231431.266,1634995717,full,ni_sequenzen,NI_Sequenzen,14,7,,,,,,,,,,,,
,Move,canvas.Screen,0_3_0_7_0_14,-999,skipped,,231404.60000038147,,,231375,,231404.79999923706,2021-10-23T13:36:40.810Z,231431.266,1634995717,full,ni_sequenzen,NI_Sequenzen,15,7,,,,,,,,,,,,
,Loop,flow.Loop,0_3_0_7_0,-999,completion,,226786.6999988556,226790.674,226807.435,231375,4567.565000000002,231404.89999961853,2021-10-23T13:36:40.810Z,231431.266,1634995717,full,ni_sequenzen,NI_Sequenzen,,7,,,,,,,,,,,,
,Feedback,canvas.Screen,0_3_0_7_1,,timeout,,231406.6999988556,231390.763,231431.266,235407.368,3992.7110000000102,235407.79999923706,2021-10-23T13:36:44.813Z,235423.977,1634995717,full,ni_sequenzen,NI_Sequenzen,,7,,,,,,,,,,,,
,Trial,flow.Sequence,0_3_0_7,,completion,,226775,226790.674,226807.435,235407.368,8599.93299999999,235407.89999961853,2021-10-23T13:36:44.813Z,235440.662,1634995717,full,ni_sequenzen,NI_Sequenzen,,7,,,,,,,,,,,,
,Move,canvas.Screen,0_3_0_8_0_0,right,response,,235424.39999961853,235423.977,235440.662,236380.10000038147,939.4380003814586,236380.60000038147,2021-10-23T13:36:45.786Z,236390.831,1634995717,full,ni_sequenzen,NI_Sequenzen,1,8,,,,,,,,,,,,
,Move,canvas.Screen,0_3_0_8_0_1,down,response,,236383.10000038147,236373.986,236390.831,236819.79999923706,428.96899923705496,236820.1999988556,2021-10-23T13:36:46.226Z,236823.958,1634995717,full,ni_sequenzen,NI_Sequenzen,2,8,,,,,,,,,,,,
,Move,canvas.Screen,0_3_0_8_0_2,right,response,,236822.60000038147,236807.39,236823.958,237242.6999988556,418.74199885557755,237243.10000038147,2021-10-23T13:36:46.649Z,237257.321,1634995717,full,ni_sequenzen,NI_Sequenzen,3,8,,,,,,,,,,,,
,Move,canvas.Screen,0_3_0_8_0_3,down,response,,237245.5,237240.722,237257.321,237608,350.6790000000037,237608.39999961853,2021-10-23T13:36:47.014Z,237640.623,1634995717,full,ni_sequenzen,NI_Sequenzen,4,8,,,,,,,,,,,,
,Move,canvas.Screen,0_3_0_8_0_4,-999,skipped,,237611.39999961853,,,237608,,237611.60000038147,2021-10-23T13:36:47.017Z,237640.623,1634995717,full,ni_sequenzen,NI_Sequenzen,5,8,,,,,,,,,,,,
,Move,canvas.Screen,0_3_0_8_0_5,-999,skipped,,237614.5,,,237608,,237614.60000038147,2021-10-23T13:36:47.020Z,237640.623,1634995717,full,ni_sequenzen,NI_Sequenzen,6,8,,,,,,,,,,,,
,Move,canvas.Screen,0_3_0_8_0_6,-999,skipped,,237617.10000038147,,,237608,,237617.1999988556,2021-10-23T13:36:47.023Z,237640.623,1634995717,full,ni_sequenzen,NI_Sequenzen,7,8,,,,,,,,,,,,
,Move,canvas.Screen,0_3_0_8_0_7,-999,skipped,,237619.89999961853,,,237608,,237620,2021-10-23T13:36:47.026Z,237640.623,1634995717,full,ni_sequenzen,NI_Sequenzen,8,8,,,,,,,,,,,,
,Move,canvas.Screen,0_3_0_8_0_8,-999,skipped,,237622.10000038147,,,237608,,237622.1999988556,2021-10-23T13:36:47.028Z,237640.623,1634995717,full,ni_sequenzen,NI_Sequenzen,9,8,,,,,,,,,,,,
,Move,canvas.Screen,0_3_0_8_0_9,-999,skipped,,237624.89999961853,,,237608,,237625,2021-10-23T13:36:47.031Z,237640.623,1634995717,full,ni_sequenzen,NI_Sequenzen,10,8,,,,,,,,,,,,
,Move,canvas.Screen,0_3_0_8_0_10,-999,skipped,,237627.89999961853,,,237608,,237628,2021-10-23T13:36:47.034Z,237640.623,1634995717,full,ni_sequenzen,NI_Sequenzen,11,8,,,,,,,,,,,,
,Move,canvas.Screen,0_3_0_8_0_11,-999,skipped,,237630.10000038147,,,237608,,237630.29999923706,2021-10-23T13:36:47.036Z,237640.623,1634995717,full,ni_sequenzen,NI_Sequenzen,12,8,,,,,,,,,,,,
,Move,canvas.Screen,0_3_0_8_0_12,-999,skipped,,237632.39999961853,,,237608,,237632.60000038147,2021-10-23T13:36:47.038Z,237640.623,1634995717,full,ni_sequenzen,NI_Sequenzen,13,8,,,,,,,,,,,,
,Move,canvas.Screen,0_3_0_8_0_13,-999,skipped,,237634.6999988556,,,237608,,237634.79999923706,2021-10-23T13:36:47.040Z,237640.623,1634995717,full,ni_sequenzen,NI_Sequenzen,14,8,,,,,,,,,,,,
