meta,sender,sender_type,sender_id,response,ended_on,instrCount,time_run,time_render,time_show,time_end,duration,time_commit,timestamp,time_switch,openLabId,type,task,project,move,trialN,blockN_Train,blockN,moveCount,currPP,points,movesTrial,visitedFields,diff,reward,Strategie,Zweck,Probleme
[object Object],Screen_1,canvas.Screen,0_0_0_0,cont,response,1,927.8999999761581,920.75,1037.443,8499.699999988079,7462.256999988079,8505.699999988079,2021-10-23T11:56:42.599Z,8554.135,1634990186,full,ni_sequenzen,NI_Sequenzen,,,,,,,,,,,,,,
,Screen_2,canvas.Screen,0_0_0_1,cont,response,1,8528.199999988079,8520.79,8554.135,19269.69999998808,10715.564999988079,19270.799999952316,2021-10-23T11:56:53.364Z,19304.138,1634990186,full,ni_sequenzen,NI_Sequenzen,,,,,,,,,,,,,,
,Screen_3,canvas.Screen,0_0_0_2,cont,response,1,19291.099999964237,19287.036,19304.138,31189.899999976158,11885.76199997616,31190.899999976158,2021-10-23T11:57:05.284Z,31204.14,1634990186,full,ni_sequenzen,NI_Sequenzen,,,,,,,,,,,,,,
,Screen_4,canvas.Screen,0_0_0_3,cont,response,1,31195.69999998808,31187.093,31204.14,36204.69999998808,5000.55999998808,36205.799999952316,2021-10-23T11:57:10.299Z,36604.133,1634990186,full,ni_sequenzen,NI_Sequenzen,,,,,,,,,,,,,,
,Sequence,flow.Sequence,0_0_0,,completion,1,891,920.75,1037.443,36204.69999998808,35167.25699998808,36209.799999952316,2021-10-23T11:57:10.303Z,36604.133,1634990186,full,ni_sequenzen,NI_Sequenzen,,,,,,,,,,,,,,
,Screen_1,canvas.Screen,0_0_1_0,,skipped,2,36214.69999998808,,,36214.799999952316,,36215.09999996424,2021-10-23T11:57:10.308Z,36604.133,1634990186,full,ni_sequenzen,NI_Sequenzen,,,,,,,,,,,,,,
,Screen_2,canvas.Screen,0_0_1_1,,skipped,2,36218.09999996424,,,36214.799999952316,,36218.39999997616,2021-10-23T11:57:10.311Z,36604.133,1634990186,full,ni_sequenzen,NI_Sequenzen,,,,,,,,,,,,,,
,Screen_3,canvas.Screen,0_0_1_2,,skipped,2,36222.09999996424,,,36214.799999952316,,36222.299999952316,2021-10-23T11:57:10.315Z,36604.133,1634990186,full,ni_sequenzen,NI_Sequenzen,,,,,,,,,,,,,,
,Screen_4,canvas.Screen,0_0_1_3,,skipped,2,36225.89999997616,,,36214.799999952316,,36226.5,2021-10-23T11:57:10.320Z,36604.133,1634990186,full,ni_sequenzen,NI_Sequenzen,,,,,,,,,,,,,,
,Sequence,flow.Sequence,0_0_1,,completion,2,36211.39999997616,,,36214.799999952316,,36227,2021-10-23T11:57:10.320Z,36604.133,1634990186,full,ni_sequenzen,NI_Sequenzen,,,,,,,,,,,,,,
,Screen_1,canvas.Screen,0_0_2_0,,skipped,3,36257.39999997616,,,36257.5,,36258.19999998808,2021-10-23T11:57:10.351Z,36604.133,1634990186,full,ni_sequenzen,NI_Sequenzen,,,,,,,,,,,,,,
,Screen_2,canvas.Screen,0_0_2_1,,skipped,3,36262.09999996424,,,36257.5,,36262.39999997616,2021-10-23T11:57:10.355Z,36604.133,1634990186,full,ni_sequenzen,NI_Sequenzen,,,,,,,,,,,,,,
,Screen_3,canvas.Screen,0_0_2_2,,skipped,3,36266.799999952316,,,36257.5,,36267.09999996424,2021-10-23T11:57:10.360Z,36604.133,1634990186,full,ni_sequenzen,NI_Sequenzen,,,,,,,,,,,,,,
,Screen_4,canvas.Screen,0_0_2_3,,skipped,3,36269.89999997616,,,36257.5,,36270.19999998808,2021-10-23T11:57:10.363Z,36604.133,1634990186,full,ni_sequenzen,NI_Sequenzen,,,,,,,,,,,,,,
,Sequence,flow.Sequence,0_0_2,,completion,3,36228.19999998808,,,36257.5,,36270.59999996424,2021-10-23T11:57:10.364Z,36604.133,1634990186,full,ni_sequenzen,NI_Sequenzen,,,,,,,,,,,,,,
,Screen_1,canvas.Screen,0_0_3_0,,skipped,4,36274.19999998808,,,36274.19999998808,,36274.39999997616,2021-10-23T11:57:10.368Z,36604.133,1634990186,full,ni_sequenzen,NI_Sequenzen,,,,,,,,,,,,,,
,Screen_2,canvas.Screen,0_0_3_1,,skipped,4,36277,,,36274.19999998808,,36277.09999996424,2021-10-23T11:57:10.370Z,36604.133,1634990186,full,ni_sequenzen,NI_Sequenzen,,,,,,,,,,,,,,
,Screen_3,canvas.Screen,0_0_3_2,,skipped,4,36279.799999952316,,,36274.19999998808,,36280.09999996424,2021-10-23T11:57:10.373Z,36604.133,1634990186,full,ni_sequenzen,NI_Sequenzen,,,,,,,,,,,,,,
,Screen_4,canvas.Screen,0_0_3_3,,skipped,4,36282.799999952316,,,36274.19999998808,,36283.09999996424,2021-10-23T11:57:10.376Z,36604.133,1634990186,full,ni_sequenzen,NI_Sequenzen,,,,,,,,,,,,,,
,Sequence,flow.Sequence,0_0_3,,completion,4,36271.89999997616,,,36274.19999998808,,36283.39999997616,2021-10-23T11:57:10.377Z,36604.133,1634990186,full,ni_sequenzen,NI_Sequenzen,,,,,,,,,,,,,,
,Screen_1,canvas.Screen,0_0_4_0,,skipped,5,36286.69999998808,,,36286.69999998808,,36286.89999997616,2021-10-23T11:57:10.380Z,36604.133,1634990186,full,ni_sequenzen,NI_Sequenzen,,,,,,,,,,,,,,
,Screen_2,canvas.Screen,0_0_4_1,,skipped,5,36289.39999997616,,,36286.69999998808,,36289.59999996424,2021-10-23T11:57:10.383Z,36604.133,1634990186,full,ni_sequenzen,NI_Sequenzen,,,,,,,,,,,,,,
,Screen_3,canvas.Screen,0_0_4_2,,skipped,5,36292.09999996424,,,36286.69999998808,,36292.299999952316,2021-10-23T11:57:10.385Z,36604.133,1634990186,full,ni_sequenzen,NI_Sequenzen,,,,,,,,,,,,,,
,Screen_4,canvas.Screen,0_0_4_3,,skipped,5,36295.299999952316,,,36286.69999998808,,36295.5,2021-10-23T11:57:10.389Z,36604.133,1634990186,full,ni_sequenzen,NI_Sequenzen,,,,,,,,,,,,,,
,Sequence,flow.Sequence,0_0_4,,completion,5,36284.5,,,36286.69999998808,,36295.89999997616,2021-10-23T11:57:10.389Z,36604.133,1634990186,full,ni_sequenzen,NI_Sequenzen,,,,,,,,,,,,,,
,Screen_1,canvas.Screen,0_0_5_0,,skipped,6,36299.19999998808,,,36299.19999998808,,36299.39999997616,2021-10-23T11:57:10.392Z,36604.133,1634990186,full,ni_sequenzen,NI_Sequenzen,,,,,,,,,,,,,,
,Screen_2,canvas.Screen,0_0_5_1,,skipped,6,36301.89999997616,,,36299.19999998808,,36302.19999998808,2021-10-23T11:57:10.395Z,36604.133,1634990186,full,ni_sequenzen,NI_Sequenzen,,,,,,,,,,,,,,
,Screen_3,canvas.Screen,0_0_5_2,,skipped,6,36304.799999952316,,,36299.19999998808,,36305,2021-10-23T11:57:10.398Z,36604.133,1634990186,full,ni_sequenzen,NI_Sequenzen,,,,,,,,,,,,,,
,Screen_4,canvas.Screen,0_0_5_3,,skipped,6,36309.69999998808,,,36299.19999998808,,36309.89999997616,2021-10-23T11:57:10.403Z,36604.133,1634990186,full,ni_sequenzen,NI_Sequenzen,,,,,,,,,,,,,,
,Sequence,flow.Sequence,0_0_5,,completion,6,36297,,,36299.19999998808,,36310.299999952316,2021-10-23T11:57:10.403Z,36604.133,1634990186,full,ni_sequenzen,NI_Sequenzen,,,,,,,,,,,,,,
,Screen_1,canvas.Screen,0_0_6_0,,skipped,7,36313.89999997616,,,36313.89999997616,,36314.19999998808,2021-10-23T11:57:10.407Z,36604.133,1634990186,full,ni_sequenzen,NI_Sequenzen,,,,,,,,,,,,,,
,Screen_2,canvas.Screen,0_0_6_1,,skipped,7,36316.69999998808,,,36313.89999997616,,36316.89999997616,2021-10-23T11:57:10.410Z,36604.133,1634990186,full,ni_sequenzen,NI_Sequenzen,,,,,,,,,,,,,,
,Screen_3,canvas.Screen,0_0_6_2,,skipped,7,36319.89999997616,,,36313.89999997616,,36320.09999996424,2021-10-23T11:57:10.413Z,36604.133,1634990186,full,ni_sequenzen,NI_Sequenzen,,,,,,,,,,,,,,
,Screen_4,canvas.Screen,0_0_6_3,,skipped,7,36322.799999952316,,,36313.89999997616,,36323.09999996424,2021-10-23T11:57:10.416Z,36604.133,1634990186,full,ni_sequenzen,NI_Sequenzen,,,,,,,,,,,,,,
,Sequence,flow.Sequence,0_0_6,,completion,7,36311.39999997616,,,36313.89999997616,,36323.5,2021-10-23T11:57:10.417Z,36604.133,1634990186,full,ni_sequenzen,NI_Sequenzen,,,,,,,,,,,,,,
,Screen_1,canvas.Screen,0_0_7_0,,skipped,8,36327.09999996424,,,36327.09999996424,,36327.299999952316,2021-10-23T11:57:10.420Z,36604.133,1634990186,full,ni_sequenzen,NI_Sequenzen,,,,,,,,,,,,,,
,Screen_2,canvas.Screen,0_0_7_1,,skipped,8,36330.799999952316,,,36327.09999996424,,36331,2021-10-23T11:57:10.424Z,36604.133,1634990186,full,ni_sequenzen,NI_Sequenzen,,,,,,,,,,,,,,
,Screen_3,canvas.Screen,0_0_7_2,,skipped,8,36333.799999952316,,,36327.09999996424,,36333.89999997616,2021-10-23T11:57:10.427Z,36604.133,1634990186,full,ni_sequenzen,NI_Sequenzen,,,,,,,,,,,,,,
,Screen_4,canvas.Screen,0_0_7_3,,skipped,8,36336.59999996424,,,36327.09999996424,,36336.89999997616,2021-10-23T11:57:10.430Z,36604.133,1634990186,full,ni_sequenzen,NI_Sequenzen,,,,,,,,,,,,,,
,Sequence,flow.Sequence,0_0_7,,completion,8,36324.5,,,36327.09999996424,,36337.39999997616,2021-10-23T11:57:10.430Z,36604.133,1634990186,full,ni_sequenzen,NI_Sequenzen,,,,,,,,,,,,,,
,Screen_1,canvas.Screen,0_0_8_0,,skipped,9,36340.89999997616,,,36341,,36341.09999996424,2021-10-23T11:57:10.434Z,36604.133,1634990186,full,ni_sequenzen,NI_Sequenzen,,,,,,,,,,,,,,
,Screen_2,canvas.Screen,0_0_8_1,,skipped,9,36343.69999998808,,,36341,,36343.89999997616,2021-10-23T11:57:10.437Z,36604.133,1634990186,full,ni_sequenzen,NI_Sequenzen,,,,,,,,,,,,,,
,Screen_3,canvas.Screen,0_0_8_2,,skipped,9,36347.19999998808,,,36341,,36347.5,2021-10-23T11:57:10.441Z,36604.133,1634990186,full,ni_sequenzen,NI_Sequenzen,,,,,,,,,,,,,,
,Screen_4,canvas.Screen,0_0_8_3,,skipped,9,36350.799999952316,,,36341,,36351.09999996424,2021-10-23T11:57:10.444Z,36604.133,1634990186,full,ni_sequenzen,NI_Sequenzen,,,,,,,,,,,,,,
,Sequence,flow.Sequence,0_0_8,,completion,9,36338.59999996424,,,36341,,36351.5,2021-10-23T11:57:10.445Z,36604.133,1634990186,full,ni_sequenzen,NI_Sequenzen,,,,,,,,,,,,,,
,Screen_1,canvas.Screen,0_0_9_0,,skipped,10,36357.39999997616,,,36357.39999997616,,36357.59999996424,2021-10-23T11:57:10.451Z,36604.133,1634990186,full,ni_sequenzen,NI_Sequenzen,,,,,,,,,,,,,,
,Screen_2,canvas.Screen,0_0_9_1,,skipped,10,36360.19999998808,,,36357.39999997616,,36360.5,2021-10-23T11:57:10.454Z,36604.133,1634990186,full,ni_sequenzen,NI_Sequenzen,,,,,,,,,,,,,,
,Screen_3,canvas.Screen,0_0_9_2,,skipped,10,36363.19999998808,,,36357.39999997616,,36363.39999997616,2021-10-23T11:57:10.456Z,36604.133,1634990186,full,ni_sequenzen,NI_Sequenzen,,,,,,,,,,,,,,
,Screen_4,canvas.Screen,0_0_9_3,,skipped,10,36366.09999996424,,,36357.39999997616,,36366.299999952316,2021-10-23T11:57:10.459Z,36604.133,1634990186,full,ni_sequenzen,NI_Sequenzen,,,,,,,,,,,,,,
,Sequence,flow.Sequence,0_0_9,,completion,10,36352.59999996424,,,36357.39999997616,,36366.69999998808,2021-10-23T11:57:10.460Z,36604.133,1634990186,full,ni_sequenzen,NI_Sequenzen,,,,,,,,,,,,,,
,Screen_1,canvas.Screen,0_0_10_0,,skipped,11,36370.299999952316,,,36370.299999952316,,36370.59999996424,2021-10-23T11:57:10.464Z,36604.133,1634990186,full,ni_sequenzen,NI_Sequenzen,,,,,,,,,,,,,,
,Screen_2,canvas.Screen,0_0_10_1,,skipped,11,36373.5,,,36370.299999952316,,36373.69999998808,2021-10-23T11:57:10.467Z,36604.133,1634990186,full,ni_sequenzen,NI_Sequenzen,,,,,,,,,,,,,,
,Screen_3,canvas.Screen,0_0_10_2,,skipped,11,36376.39999997616,,,36370.299999952316,,36376.59999996424,2021-10-23T11:57:10.470Z,36604.133,1634990186,full,ni_sequenzen,NI_Sequenzen,,,,,,,,,,,,,,
,Screen_4,canvas.Screen,0_0_10_3,,skipped,11,36379.59999996424,,,36370.299999952316,,36379.799999952316,2021-10-23T11:57:10.473Z,36604.133,1634990186,full,ni_sequenzen,NI_Sequenzen,,,,,,,,,,,,,,
,Sequence,flow.Sequence,0_0_10,,completion,11,36367.799999952316,,,36370.299999952316,,36380.299999952316,2021-10-23T11:57:10.473Z,36604.133,1634990186,full,ni_sequenzen,NI_Sequenzen,,,,,,,,,,,,,,
,Screen_1,canvas.Screen,0_0_11_0,,skipped,12,36388.69999998808,,,36388.799999952316,,36389.09999996424,2021-10-23T11:57:10.482Z,36604.133,1634990186,full,ni_sequenzen,NI_Sequenzen,,,,,,,,,,,,,,
,Screen_2,canvas.Screen,0_0_11_1,,skipped,12,36393.799999952316,,,36388.799999952316,,36394.09999996424,2021-10-23T11:57:10.487Z,36604.133,1634990186,full,ni_sequenzen,NI_Sequenzen,,,,,,,,,,,,,,
,Screen_3,canvas.Screen,0_0_11_2,,skipped,12,36399.799999952316,,,36388.799999952316,,36400,2021-10-23T11:57:10.493Z,36604.133,1634990186,full,ni_sequenzen,NI_Sequenzen,,,,,,,,,,,,,,
,Screen_4,canvas.Screen,0_0_11_3,,skipped,12,36403.09999996424,,,36388.799999952316,,36403.59999996424,2021-10-23T11:57:10.497Z,36604.133,1634990186,full,ni_sequenzen,NI_Sequenzen,,,,,,,,,,,,,,
,Sequence,flow.Sequence,0_0_11,,completion,12,36383.299999952316,,,36388.799999952316,,36404.799999952316,2021-10-23T11:57:10.498Z,36604.133,1634990186,full,ni_sequenzen,NI_Sequenzen,,,,,,,,,,,,,,
,Screen_1,canvas.Screen,0_0_12_0,,skipped,13,36409.69999998808,,,36409.69999998808,,36409.89999997616,2021-10-23T11:57:10.503Z,36604.133,1634990186,full,ni_sequenzen,NI_Sequenzen,,,,,,,,,,,,,,
,Screen_2,canvas.Screen,0_0_12_1,,skipped,13,36413.19999998808,,,36409.69999998808,,36413.39999997616,2021-10-23T11:57:10.506Z,36604.133,1634990186,full,ni_sequenzen,NI_Sequenzen,,,,,,,,,,,,,,
,Screen_3,canvas.Screen,0_0_12_2,,skipped,13,36418.69999998808,,,36409.69999998808,,36419,2021-10-23T11:57:10.512Z,36604.133,1634990186,full,ni_sequenzen,NI_Sequenzen,,,,,,,,,,,,,,
,Screen_4,canvas.Screen,0_0_12_3,,skipped,13,36421.59999996424,,,36409.69999998808,,36421.799999952316,2021-10-23T11:57:10.515Z,36604.133,1634990186,full,ni_sequenzen,NI_Sequenzen,,,,,,,,,,,,,,
,Sequence,flow.Sequence,0_0_12,,completion,13,36406.19999998808,,,36409.69999998808,,36422.19999998808,2021-10-23T11:57:10.515Z,36604.133,1634990186,full,ni_sequenzen,NI_Sequenzen,,,,,,,,,,,,,,
,Screen_1,canvas.Screen,0_0_13_0,,skipped,14,36425.799999952316,,,36425.799999952316,,36426,2021-10-23T11:57:10.519Z,36604.133,1634990186,full,ni_sequenzen,NI_Sequenzen,,,,,,,,,,,,,,
,Screen_2,canvas.Screen,0_0_13_1,,skipped,14,36428.39999997616,,,36425.799999952316,,36428.59999996424,2021-10-23T11:57:10.522Z,36604.133,1634990186,full,ni_sequenzen,NI_Sequenzen,,,,,,,,,,,,,,
,Screen_3,canvas.Screen,0_0_13_2,,skipped,14,36431.09999996424,,,36425.799999952316,,36431.299999952316,2021-10-23T11:57:10.524Z,36604.133,1634990186,full,ni_sequenzen,NI_Sequenzen,,,,,,,,,,,,,,
,Screen_4,canvas.Screen,0_0_13_3,,skipped,14,36434.59999996424,,,36425.799999952316,,36437.19999998808,2021-10-23T11:57:10.530Z,36604.133,1634990186,full,ni_sequenzen,NI_Sequenzen,,,,,,,,,,,,,,
,Sequence,flow.Sequence,0_0_13,,completion,14,36423.299999952316,,,36425.799999952316,,36437.59999996424,2021-10-23T11:57:10.531Z,36604.133,1634990186,full,ni_sequenzen,NI_Sequenzen,,,,,,,,,,,,,,
,Screen_1,canvas.Screen,0_0_14_0,,skipped,15,36441.299999952316,,,36441.39999997616,,36441.59999996424,2021-10-23T11:57:10.535Z,36604.133,1634990186,full,ni_sequenzen,NI_Sequenzen,,,,,,,,,,,,,,
,Screen_2,canvas.Screen,0_0_14_1,,skipped,15,36444,,,36441.39999997616,,36444.19999998808,2021-10-23T11:57:10.537Z,36604.133,1634990186,full,ni_sequenzen,NI_Sequenzen,,,,,,,,,,,,,,
,Screen_3,canvas.Screen,0_0_14_2,,skipped,15,36446.69999998808,,,36441.39999997616,,36446.89999997616,2021-10-23T11:57:10.540Z,36604.133,1634990186,full,ni_sequenzen,NI_Sequenzen,,,,,,,,,,,,,,
,Screen_4,canvas.Screen,0_0_14_3,,skipped,15,36449.5,,,36441.39999997616,,36449.69999998808,2021-10-23T11:57:10.543Z,36604.133,1634990186,full,ni_sequenzen,NI_Sequenzen,,,,,,,,,,,,,,
,Sequence,flow.Sequence,0_0_14,,completion,15,36438.799999952316,,,36441.39999997616,,36450,2021-10-23T11:57:10.543Z,36604.133,1634990186,full,ni_sequenzen,NI_Sequenzen,,,,,,,,,,,,,,
,Screen_1,canvas.Screen,0_0_15_0,,skipped,16,36453.299999952316,,,36453.299999952316,,36453.5,2021-10-23T11:57:10.547Z,36604.133,1634990186,full,ni_sequenzen,NI_Sequenzen,,,,,,,,,,,,,,
,Screen_2,canvas.Screen,0_0_15_1,,skipped,16,36457.299999952316,,,36453.299999952316,,36457.5,2021-10-23T11:57:10.551Z,36604.133,1634990186,full,ni_sequenzen,NI_Sequenzen,,,,,,,,,,,,,,
,Screen_3,canvas.Screen,0_0_15_2,,skipped,16,36463.69999998808,,,36453.299999952316,,36464,2021-10-23T11:57:10.557Z,36604.133,1634990186,full,ni_sequenzen,NI_Sequenzen,,,,,,,,,,,,,,
,Screen_4,canvas.Screen,0_0_15_3,,skipped,16,36469.69999998808,,,36453.299999952316,,36469.89999997616,2021-10-23T11:57:10.563Z,36604.133,1634990186,full,ni_sequenzen,NI_Sequenzen,,,,,,,,,,,,,,
,Sequence,flow.Sequence,0_0_15,,completion,16,36451.09999996424,,,36453.299999952316,,36470.299999952316,2021-10-23T11:57:10.563Z,36604.133,1634990186,full,ni_sequenzen,NI_Sequenzen,,,,,,,,,,,,,,
,Screen_1,canvas.Screen,0_0_16_0,,skipped,17,36474.89999997616,,,36474.89999997616,,36475.299999952316,2021-10-23T11:57:10.568Z,36604.133,1634990186,full,ni_sequenzen,NI_Sequenzen,,,,,,,,,,,,,,
,Screen_2,canvas.Screen,0_0_16_1,,skipped,17,36479.09999996424,,,36474.89999997616,,36479.5,2021-10-23T11:57:10.573Z,36604.133,1634990186,full,ni_sequenzen,NI_Sequenzen,,,,,,,,,,,,,,
,Screen_3,canvas.Screen,0_0_16_2,,skipped,17,36483.5,,,36474.89999997616,,36483.89999997616,2021-10-23T11:57:10.577Z,36604.133,1634990186,full,ni_sequenzen,NI_Sequenzen,,,,,,,,,,,,,,
,Screen_4,canvas.Screen,0_0_16_3,,skipped,17,36487.89999997616,,,36474.89999997616,,36488.299999952316,2021-10-23T11:57:10.581Z,36604.133,1634990186,full,ni_sequenzen,NI_Sequenzen,,,,,,,,,,,,,,
,Sequence,flow.Sequence,0_0_16,,completion,17,36471.69999998808,,,36474.89999997616,,36488.89999997616,2021-10-23T11:57:10.582Z,36604.133,1634990186,full,ni_sequenzen,NI_Sequenzen,,,,,,,,,,,,,,
,Screen_1,canvas.Screen,0_0_17_0,,skipped,18,36493.799999952316,,,36493.799999952316,,36494.19999998808,2021-10-23T11:57:10.587Z,36604.133,1634990186,full,ni_sequenzen,NI_Sequenzen,,,,,,,,,,,,,,
,Screen_2,canvas.Screen,0_0_17_1,,skipped,18,36498.09999996424,,,36493.799999952316,,36498.59999996424,2021-10-23T11:57:10.592Z,36604.133,1634990186,full,ni_sequenzen,NI_Sequenzen,,,,,,,,,,,,,,
,Screen_3,canvas.Screen,0_0_17_2,,skipped,18,36501.39999997616,,,36493.799999952316,,36501.59999996424,2021-10-23T11:57:10.595Z,36604.133,1634990186,full,ni_sequenzen,NI_Sequenzen,,,,,,,,,,,,,,
,Screen_4,canvas.Screen,0_0_17_3,,skipped,18,36505.19999998808,,,36493.799999952316,,36505.39999997616,2021-10-23T11:57:10.599Z,36604.133,1634990186,full,ni_sequenzen,NI_Sequenzen,,,,,,,,,,,,,,
,Sequence,flow.Sequence,0_0_17,,completion,18,36490.39999997616,,,36493.799999952316,,36505.799999952316,2021-10-23T11:57:10.599Z,36604.133,1634990186,full,ni_sequenzen,NI_Sequenzen,,,,,,,,,,,,,,
,Screen_1,canvas.Screen,0_0_18_0,,skipped,19,36508.89999997616,,,36508.89999997616,,36509,2021-10-23T11:57:10.602Z,36604.133,1634990186,full,ni_sequenzen,NI_Sequenzen,,,,,,,,,,,,,,
,Screen_2,canvas.Screen,0_0_18_1,,skipped,19,36511.299999952316,,,36508.89999997616,,36511.59999996424,2021-10-23T11:57:10.605Z,36604.133,1634990186,full,ni_sequenzen,NI_Sequenzen,,,,,,,,,,,,,,
,Screen_3,canvas.Screen,0_0_18_2,,skipped,19,36514,,,36508.89999997616,,36514.19999998808,2021-10-23T11:57:10.607Z,36604.133,1634990186,full,ni_sequenzen,NI_Sequenzen,,,,,,,,,,,,,,
,Screen_4,canvas.Screen,0_0_18_3,,skipped,19,36516.59999996424,,,36508.89999997616,,36516.69999998808,2021-10-23T11:57:10.610Z,36604.133,1634990186,full,ni_sequenzen,NI_Sequenzen,,,,,,,,,,,,,,
,Sequence,flow.Sequence,0_0_18,,completion,19,36506.799999952316,,,36508.89999997616,,36517.39999997616,2021-10-23T11:57:10.610Z,36604.133,1634990186,full,ni_sequenzen,NI_Sequenzen,,,,,,,,,,,,,,
,Screen_1,canvas.Screen,0_0_19_0,,skipped,20,36522.799999952316,,,36522.799999952316,,36523.09999996424,2021-10-23T11:57:10.616Z,36604.133,1634990186,full,ni_sequenzen,NI_Sequenzen,,,,,,,,,,,,,,
,Screen_2,canvas.Screen,0_0_19_1,,skipped,20,36525.39999997616,,,36522.799999952316,,36525.69999998808,2021-10-23T11:57:10.619Z,36604.133,1634990186,full,ni_sequenzen,NI_Sequenzen,,,,,,,,,,,,,,
,Screen_3,canvas.Screen,0_0_19_2,,skipped,20,36528,,,36522.799999952316,,36528.19999998808,2021-10-23T11:57:10.621Z,36604.133,1634990186,full,ni_sequenzen,NI_Sequenzen,,,,,,,,,,,,,,
,Screen_4,canvas.Screen,0_0_19_3,,skipped,20,36530.5,,,36522.799999952316,,36530.799999952316,2021-10-23T11:57:10.624Z,36604.133,1634990186,full,ni_sequenzen,NI_Sequenzen,,,,,,,,,,,,,,
,Sequence,flow.Sequence,0_0_19,,completion,20,36518.39999997616,,,36522.799999952316,,36531.09999996424,2021-10-23T11:57:10.624Z,36604.133,1634990186,full,ni_sequenzen,NI_Sequenzen,,,,,,,,,,,,,,
,Instructions_I,flow.Loop,0_0,,completion,,888.3999999761581,920.75,1037.443,36522.799999952316,35485.35699995232,36531.59999996424,2021-10-23T11:57:10.625Z,36604.133,1634990186,full,ni_sequenzen,NI_Sequenzen,,,,,,,,,,,,,,
,Move,canvas.Screen,0_1_0_0,right,response,,36579.09999996424,36570.737,36604.133,37799.09999996424,1194.9669999642356,37800.59999996424,2021-10-23T11:57:11.894Z,37820.921,1634990186,full,ni_sequenzen,NI_Sequenzen,1,,,,,,,,,,,,,
,Move,canvas.Screen,0_1_0_1,left,response,,37807.19999998808,37804.133,37820.921,38715.69999998808,894.778999988077,38716.799999952316,2021-10-23T11:57:12.810Z,38737.562,1634990186,full,ni_sequenzen,NI_Sequenzen,2,,,,,,,,,,,,,
,Move,canvas.Screen,0_1_0_2,down,response,,38727.89999997616,38720.825,38737.562,39466.5,728.9380000000019,39467.69999998808,2021-10-23T11:57:13.561Z,39487.517,1634990186,full,ni_sequenzen,NI_Sequenzen,3,,,,,,,,,,,,,
,Move,canvas.Screen,0_1_0_3,down,response,,39471.799999952316,39470.784,39487.517,39856.799999952316,369.28299995231646,39857.89999997616,2021-10-23T11:57:13.951Z,39887.486,1634990186,full,ni_sequenzen,NI_Sequenzen,4,,,,,,,,,,,,,
,Move,canvas.Screen,0_1_0_4,left,response,,39865,39854.169,39887.486,40664.799999952316,777.3139999523191,40665.89999997616,2021-10-23T11:57:14.759Z,40704.181,1634990186,full,ni_sequenzen,NI_Sequenzen,5,,,,,,,,,,,,,
,Move,canvas.Screen,0_1_0_5,down,response,,40670.39999997616,40687.5,40704.181,41051.09999996424,346.91899996424036,41052.19999998808,2021-10-23T11:57:15.145Z,41070.87,1634990186,full,ni_sequenzen,NI_Sequenzen,6,,,,,,,,,,,,,
,Move,canvas.Screen,0_1_0_6,right,response,,41056.39999997616,41054.174,41070.87,41986.799999952316,915.9299999523137,41987.799999952316,2021-10-23T11:57:16.081Z,42004.166,1634990186,full,ni_sequenzen,NI_Sequenzen,7,,,,,,,,,,,,,
,Move,canvas.Screen,0_1_0_7,down,response,,41991.89999997616,41987.48,42004.166,44121.799999952316,2117.633999952319,44122.89999997616,2021-10-23T11:57:18.216Z,44137.487,1634990186,full,ni_sequenzen,NI_Sequenzen,8,,,,,,,,,,,,,
,Move,canvas.Screen,0_1_0_8,down,response,,44127.69999998808,44120.783,44137.487,44436.19999998808,298.7129999880781,44437.59999996424,2021-10-23T11:57:18.531Z,44454.183,1634990186,full,ni_sequenzen,NI_Sequenzen,9,,,,,,,,,,,,,
,Move,canvas.Screen,0_1_0_9,down,response,,44441.5,44437.534,44454.183,44754.799999952316,300.616999952319,44755.799999952316,2021-10-23T11:57:18.849Z,44770.832,1634990186,full,ni_sequenzen,NI_Sequenzen,10,,,,,,,,,,,,,
,Move,canvas.Screen,0_1_0_10,down,response,,44759.799999952316,44754.181,44770.832,45261.59999996424,490.76799996423506,45262.69999998808,2021-10-23T11:57:19.356Z,45270.83,1634990186,full,ni_sequenzen,NI_Sequenzen,11,,,,,,,,,,,,,
,Move,canvas.Screen,0_1_0_11,right,response,,45268.39999997616,45254.165,45270.83,46638.5,1367.6699999999983,46639.5,2021-10-23T11:57:20.733Z,46670.823,1634990186,full,ni_sequenzen,NI_Sequenzen,12,,,,,,,,,,,,,
,Move,canvas.Screen,0_1_0_12,left,response,,46644,46637.547,46670.823,47234.09999996424,563.2769999642405,47235.19999998808,2021-10-23T11:57:21.328Z,47254.194,1634990186,full,ni_sequenzen,NI_Sequenzen,13,,,,,,,,,,,,,
,Move,canvas.Screen,0_1_0_13,right,response,,47240,47237.495,47254.194,52689.89999997616,5435.705999976155,52690.89999997616,2021-10-23T11:57:26.784Z,52704.184,1634990186,full,ni_sequenzen,NI_Sequenzen,14,,,,,,,,,,,,,
,Move,canvas.Screen,0_1_0_14,left,response,,52695.09999996424,52687.314,52704.184,53946,1241.815999999999,53946.89999997616,2021-10-23T11:57:28.040Z,53954.166,1634990186,full,ni_sequenzen,NI_Sequenzen,15,,,,,,,,,,,,,
,Move,canvas.Screen,0_1_0_15,right,response,,53951,53937.555,53954.166,55283.69999998808,1329.5339999880816,55285,2021-10-23T11:57:29.378Z,55304.14,1634990186,full,ni_sequenzen,NI_Sequenzen,16,,,,,,,,,,,,,
,Move,canvas.Screen,0_1_0_16,down,response,,55291.299999952316,55287.546,55304.14,55919.299999952316,615.1599999523169,55920.299999952316,2021-10-23T11:57:30.013Z,55937.48,1634990186,full,ni_sequenzen,NI_Sequenzen,17,,,,,,,,,,,,,
,Move,canvas.Screen,0_1_0_17,down,response,,55926.19999998808,55920.847,55937.48,56449.19999998808,511.71999998807587,56450.09999996424,2021-10-23T11:57:30.543Z,56470.882,1634990186,full,ni_sequenzen,NI_Sequenzen,18,,,,,,,,,,,,,
,Move,canvas.Screen,0_1_0_18,down,response,,56454.39999997616,56454.195,56470.882,64875.299999952316,8404.417999952318,64876.59999996424,2021-10-23T11:57:38.970Z,64887.635,1634990186,full,ni_sequenzen,NI_Sequenzen,19,,,,,,,,,,,,,
,Move,canvas.Screen,0_1_0_19,right,response,,64881.09999996424,64870.698,64887.635,65278.69999998808,391.06499998807703,65279.799999952316,2021-10-23T11:57:39.373Z,65287.526,1634990186,full,ni_sequenzen,NI_Sequenzen,20,,,,,,,,,,,,,
,Move,canvas.Screen,0_1_0_20,down,response,,65284,65270.93,65287.526,66134.69999998808,847.173999988081,66135.79999995232,2021-10-23T11:57:40.229Z,66154.175,1634990186,full,ni_sequenzen,NI_Sequenzen,21,,,,,,,,,,,,,
,Move,canvas.Screen,0_1_0_21,right,response,,66140.29999995232,66137.582,66154.175,66526.19999998808,372.02499998807616,66527.29999995232,2021-10-23T11:57:40.620Z,66537.496,1634990186,full,ni_sequenzen,NI_Sequenzen,22,,,,,,,,,,,,,
,Move,canvas.Screen,0_1_0_22,left,response,,66531.59999996424,66520.86,66537.496,67617.79999995232,1080.303999952317,67618.69999998808,2021-10-23T11:57:41.712Z,67637.535,1634990186,full,ni_sequenzen,NI_Sequenzen,23,,,,,,,,,,,,,
,Move,canvas.Screen,0_1_0_23,down,response,,67623,67621.025,67637.535,68426.09999996424,788.5649999642337,68427.09999996424,2021-10-23T11:57:42.520Z,68437.478,1634990186,full,ni_sequenzen,NI_Sequenzen,24,,,,,,,,,,,,,
,Move,canvas.Screen,0_1_0_24,left,response,,68431.39999997616,68420.887,68437.478,68778.09999996424,340.6219999642344,68779,2021-10-23T11:57:42.872Z,68787.512,1634990186,full,ni_sequenzen,NI_Sequenzen,25,,,,,,,,,,,,,
,Move,canvas.Screen,0_1_0_25,down,response,,68784.59999996424,68770.934,68787.512,69216.69999998808,429.1879999880766,69217.59999996424,2021-10-23T11:57:43.311Z,69237.499,1634990186,full,ni_sequenzen,NI_Sequenzen,26,,,,,,,,,,,,,
,Move,canvas.Screen,0_1_0_26,left,response,,69221.69999998808,69220.932,69237.499,69672.69999998808,435.2009999880829,69673.79999995232,2021-10-23T11:57:43.767Z,69687.556,1634990186,full,ni_sequenzen,NI_Sequenzen,27,,,,,,,,,,,,,
,Move,canvas.Screen,0_1_0_27,down,response,,69678.79999995232,69670.826,69687.556,70085.09999996424,397.54399996424036,70086.19999998808,2021-10-23T11:57:44.179Z,70104.202,1634990186,full,ni_sequenzen,NI_Sequenzen,28,,,,,,,,,,,,,
,Move,canvas.Screen,0_1_0_28,left,response,,70090.29999995232,70087.537,70104.202,70491.09999996424,386.89799996423244,70492.09999996424,2021-10-23T11:57:44.585Z,70504.231,1634990186,full,ni_sequenzen,NI_Sequenzen,29,,,,,,,,,,,,,
,Move,canvas.Screen,0_1_0_29,down,response,,70496.19999998808,70487.536,70504.231,71004.39999997616,500.1689999761584,71005.29999995232,2021-10-23T11:57:45.098Z,71187.48,1634990186,full,ni_sequenzen,NI_Sequenzen,30,,,,,,,,,,,,,
,Loop,flow.Loop,0_1_0,-999,completion,,36571.89999997616,36570.737,36604.133,71004.39999997616,34400.26699997616,71005.79999995232,2021-10-23T11:57:45.099Z,71187.48,1634990186,full,ni_sequenzen,NI_Sequenzen,,,,,,,,,,,,,,
,Training_I,flow.Sequence,0_1,,completion,,36532.69999998808,36570.737,36604.133,71004.39999997616,34400.26699997616,71006.09999996424,2021-10-23T11:57:45.099Z,71187.48,1634990186,full,ni_sequenzen,NI_Sequenzen,,,,,,,,,,,,,,
,Screen_1,canvas.Screen,0_2_0_0,cont,response,1,71178.09999996424,71170.92,71187.48,77962.89999997616,6775.419999976162,77964.19999998808,2021-10-23T11:57:52.057Z,78004.21,1634990186,full,ni_sequenzen,NI_Sequenzen,,,,,,,,,,,,,,
,Screen_2,canvas.Screen,0_2_0_1,cont,response,1,77989.19999998808,77987.246,78004.21,83966.89999997616,5962.689999976152,83968,2021-10-23T11:57:58.061Z,83987.482,1634990186,full,ni_sequenzen,NI_Sequenzen,,,,,,,,,,,,,,
,Screen_3,canvas.Screen,0_2_0_2,cont,response,1,83974.69999998808,83970.614,83987.482,87510.5,3523.0179999999964,87511.39999997616,2021-10-23T11:58:01.604Z,87570.858,1634990186,full,ni_sequenzen,NI_Sequenzen,,,,,,,,,,,,,,
,Screen_4,canvas.Screen,0_2_0_3,cont,response,1,87533.29999995232,87520.793,87570.858,90928.89999997616,3358.0419999761652,90929.89999997616,2021-10-23T11:58:05.023Z,90937.518,1634990186,full,ni_sequenzen,NI_Sequenzen,,,,,,,,,,,,,,
,Screen_5,canvas.Screen,0_2_0_4,cont,response,1,90933.59999996424,90920.724,90937.518,93531.89999997616,2594.3819999761618,93533.09999996424,2021-10-23T11:58:07.627Z,93570.852,1634990186,full,ni_sequenzen,NI_Sequenzen,,,,,,,,,,,,,,
,Screen_6,canvas.Screen,0_2_0_5,cont,response,1,93556,93554.248,93570.852,96467.69999998808,2896.84799998808,96469.09999996424,2021-10-23T11:58:10.563Z,97220.825,1634990186,full,ni_sequenzen,NI_Sequenzen,,,,,,,,,,,,,,
,Sequence,flow.Sequence,0_2_0,,completion,1,71174.29999995232,71170.92,71187.48,96467.69999998808,25280.219999988083,96470,2021-10-23T11:58:10.564Z,97220.825,1634990186,full,ni_sequenzen,NI_Sequenzen,,,,,,,,,,,,,,
,Screen_1,canvas.Screen,0_2_1_0,,skipped,2,96483.29999995232,,,96483.29999995232,,96483.69999998808,2021-10-23T11:58:10.577Z,97220.825,1634990186,full,ni_sequenzen,NI_Sequenzen,,,,,,,,,,,,,,
,Screen_2,canvas.Screen,0_2_1_1,,skipped,2,96488.79999995232,,,96483.29999995232,,96489.19999998808,2021-10-23T11:58:10.583Z,97220.825,1634990186,full,ni_sequenzen,NI_Sequenzen,,,,,,,,,,,,,,
,Screen_3,canvas.Screen,0_2_1_2,,skipped,2,96494,,,96483.29999995232,,96494.39999997616,2021-10-23T11:58:10.588Z,97220.825,1634990186,full,ni_sequenzen,NI_Sequenzen,,,,,,,,,,,,,,
,Screen_4,canvas.Screen,0_2_1_3,,skipped,2,96497.39999997616,,,96483.29999995232,,96497.59999996424,2021-10-23T11:58:10.591Z,97220.825,1634990186,full,ni_sequenzen,NI_Sequenzen,,,,,,,,,,,,,,
,Screen_5,canvas.Screen,0_2_1_4,,skipped,2,96500.5,,,96483.29999995232,,96500.79999995232,2021-10-23T11:58:10.594Z,97220.825,1634990186,full,ni_sequenzen,NI_Sequenzen,,,,,,,,,,,,,,
,Screen_6,canvas.Screen,0_2_1_5,,skipped,2,96507,,,96483.29999995232,,96507.19999998808,2021-10-23T11:58:10.601Z,97220.825,1634990186,full,ni_sequenzen,NI_Sequenzen,,,,,,,,,,,,,,
,Sequence,flow.Sequence,0_2_1,,completion,2,96477.19999998808,,,96483.29999995232,,96507.79999995232,2021-10-23T11:58:10.601Z,97220.825,1634990186,full,ni_sequenzen,NI_Sequenzen,,,,,,,,,,,,,,
,Screen_1,canvas.Screen,0_2_2_0,,skipped,3,96513.79999995232,,,96513.89999997616,,96514.39999997616,2021-10-23T11:58:10.608Z,97220.825,1634990186,full,ni_sequenzen,NI_Sequenzen,,,,,,,,,,,,,,
,Screen_2,canvas.Screen,0_2_2_1,,skipped,3,96518.69999998808,,,96513.89999997616,,96519.19999998808,2021-10-23T11:58:10.613Z,97220.825,1634990186,full,ni_sequenzen,NI_Sequenzen,,,,,,,,,,,,,,
,Screen_3,canvas.Screen,0_2_2_2,,skipped,3,96524.5,,,96513.89999997616,,96525.29999995232,2021-10-23T11:58:10.619Z,97220.825,1634990186,full,ni_sequenzen,NI_Sequenzen,,,,,,,,,,,,,,
,Screen_4,canvas.Screen,0_2_2_3,,skipped,3,96528.39999997616,,,96513.89999997616,,96528.69999998808,2021-10-23T11:58:10.622Z,97220.825,1634990186,full,ni_sequenzen,NI_Sequenzen,,,,,,,,,,,,,,
,Screen_5,canvas.Screen,0_2_2_4,,skipped,3,96531,,,96513.89999997616,,96531.29999995232,2021-10-23T11:58:10.625Z,97220.825,1634990186,full,ni_sequenzen,NI_Sequenzen,,,,,,,,,,,,,,
,Screen_6,canvas.Screen,0_2_2_5,,skipped,3,96533.79999995232,,,96513.89999997616,,96534.69999998808,2021-10-23T11:58:10.628Z,97220.825,1634990186,full,ni_sequenzen,NI_Sequenzen,,,,,,,,,,,,,,
,Sequence,flow.Sequence,0_2_2,,completion,3,96509.89999997616,,,96513.89999997616,,96535.29999995232,2021-10-23T11:58:10.629Z,97220.825,1634990186,full,ni_sequenzen,NI_Sequenzen,,,,,,,,,,,,,,
,Screen_1,canvas.Screen,0_2_3_0,,skipped,4,96539.19999998808,,,96539.29999995232,,96539.59999996424,2021-10-23T11:58:10.633Z,97220.825,1634990186,full,ni_sequenzen,NI_Sequenzen,,,,,,,,,,,,,,
,Screen_2,canvas.Screen,0_2_3_1,,skipped,4,96543.09999996424,,,96539.29999995232,,96543.39999997616,2021-10-23T11:58:10.637Z,97220.825,1634990186,full,ni_sequenzen,NI_Sequenzen,,,,,,,,,,,,,,
,Screen_3,canvas.Screen,0_2_3_2,,skipped,4,96547.19999998808,,,96539.29999995232,,96547.59999996424,2021-10-23T11:58:10.641Z,97220.825,1634990186,full,ni_sequenzen,NI_Sequenzen,,,,,,,,,,,,,,
,Screen_4,canvas.Screen,0_2_3_3,,skipped,4,96552.39999997616,,,96539.29999995232,,96552.79999995232,2021-10-23T11:58:10.646Z,97220.825,1634990186,full,ni_sequenzen,NI_Sequenzen,,,,,,,,,,,,,,
,Screen_5,canvas.Screen,0_2_3_4,,skipped,4,96556.69999998808,,,96539.29999995232,,96556.89999997616,2021-10-23T11:58:10.650Z,97220.825,1634990186,full,ni_sequenzen,NI_Sequenzen,,,,,,,,,,,,,,
,Screen_6,canvas.Screen,0_2_3_5,,skipped,4,96561.09999996424,,,96539.29999995232,,96562,2021-10-23T11:58:10.656Z,97220.825,1634990186,full,ni_sequenzen,NI_Sequenzen,,,,,,,,,,,,,,
,Sequence,flow.Sequence,0_2_3,,completion,4,96536.59999996424,,,96539.29999995232,,96562.59999996424,2021-10-23T11:58:10.656Z,97220.825,1634990186,full,ni_sequenzen,NI_Sequenzen,,,,,,,,,,,,,,
,Screen_1,canvas.Screen,0_2_4_0,,skipped,5,96569.19999998808,,,96569.19999998808,,96569.59999996424,2021-10-23T11:58:10.663Z,97220.825,1634990186,full,ni_sequenzen,NI_Sequenzen,,,,,,,,,,,,,,
,Screen_2,canvas.Screen,0_2_4_1,,skipped,5,96575,,,96569.19999998808,,96575.59999996424,2021-10-23T11:58:10.669Z,97220.825,1634990186,full,ni_sequenzen,NI_Sequenzen,,,,,,,,,,,,,,
,Screen_3,canvas.Screen,0_2_4_2,,skipped,5,96583.19999998808,,,96569.19999998808,,96584,2021-10-23T11:58:10.678Z,97220.825,1634990186,full,ni_sequenzen,NI_Sequenzen,,,,,,,,,,,,,,
,Screen_4,canvas.Screen,0_2_4_3,,skipped,5,96588.69999998808,,,96569.19999998808,,96589.19999998808,2021-10-23T11:58:10.683Z,97220.825,1634990186,full,ni_sequenzen,NI_Sequenzen,,,,,,,,,,,,,,
,Screen_5,canvas.Screen,0_2_4_4,,skipped,5,96594.39999997616,,,96569.19999998808,,96594.59999996424,2021-10-23T11:58:10.688Z,97220.825,1634990186,full,ni_sequenzen,NI_Sequenzen,,,,,,,,,,,,,,
,Screen_6,canvas.Screen,0_2_4_5,,skipped,5,96598,,,96569.19999998808,,96598.39999997616,2021-10-23T11:58:10.692Z,97220.825,1634990186,full,ni_sequenzen,NI_Sequenzen,,,,,,,,,,,,,,
,Sequence,flow.Sequence,0_2_4,,completion,5,96565.29999995232,,,96569.19999998808,,96599,2021-10-23T11:58:10.693Z,97220.825,1634990186,full,ni_sequenzen,NI_Sequenzen,,,,,,,,,,,,,,
,Screen_1,canvas.Screen,0_2_5_0,,skipped,6,96605,,,96605,,96605.19999998808,2021-10-23T11:58:10.699Z,97220.825,1634990186,full,ni_sequenzen,NI_Sequenzen,,,,,,,,,,,,,,
,Screen_2,canvas.Screen,0_2_5_1,,skipped,6,96609.29999995232,,,96605,,96609.59999996424,2021-10-23T11:58:10.703Z,97220.825,1634990186,full,ni_sequenzen,NI_Sequenzen,,,,,,,,,,,,,,
,Screen_3,canvas.Screen,0_2_5_2,,skipped,6,96615.5,,,96605,,96615.79999995232,2021-10-23T11:58:10.709Z,97220.825,1634990186,full,ni_sequenzen,NI_Sequenzen,,,,,,,,,,,,,,
,Screen_4,canvas.Screen,0_2_5_3,,skipped,6,96620.09999996424,,,96605,,96620.69999998808,2021-10-23T11:58:10.714Z,97220.825,1634990186,full,ni_sequenzen,NI_Sequenzen,,,,,,,,,,,,,,
,Screen_5,canvas.Screen,0_2_5_4,,skipped,6,96624.39999997616,,,96605,,96624.69999998808,2021-10-23T11:58:10.718Z,97220.825,1634990186,full,ni_sequenzen,NI_Sequenzen,,,,,,,,,,,,,,
,Screen_6,canvas.Screen,0_2_5_5,,skipped,6,96630.09999996424,,,96605,,96630.29999995232,2021-10-23T11:58:10.724Z,97220.825,1634990186,full,ni_sequenzen,NI_Sequenzen,,,,,,,,,,,,,,
,Sequence,flow.Sequence,0_2_5,,completion,6,96600.79999995232,,,96605,,96630.69999998808,2021-10-23T11:58:10.724Z,97220.825,1634990186,full,ni_sequenzen,NI_Sequenzen,,,,,,,,,,,,,,
,Screen_1,canvas.Screen,0_2_6_0,,skipped,7,96634.09999996424,,,96634.09999996424,,96634.39999997616,2021-10-23T11:58:10.728Z,97220.825,1634990186,full,ni_sequenzen,NI_Sequenzen,,,,,,,,,,,,,,
,Screen_2,canvas.Screen,0_2_6_1,,skipped,7,96636.79999995232,,,96634.09999996424,,96636.89999997616,2021-10-23T11:58:10.731Z,97220.825,1634990186,full,ni_sequenzen,NI_Sequenzen,,,,,,,,,,,,,,
,Screen_3,canvas.Screen,0_2_6_2,,skipped,7,96639.29999995232,,,96634.09999996424,,96639.5,2021-10-23T11:58:10.733Z,97220.825,1634990186,full,ni_sequenzen,NI_Sequenzen,,,,,,,,,,,,,,
,Screen_4,canvas.Screen,0_2_6_3,,skipped,7,96642.39999997616,,,96634.09999996424,,96642.79999995232,2021-10-23T11:58:10.736Z,97220.825,1634990186,full,ni_sequenzen,NI_Sequenzen,,,,,,,,,,,,,,
,Screen_5,canvas.Screen,0_2_6_4,,skipped,7,96651.5,,,96634.09999996424,,96651.89999997616,2021-10-23T11:58:10.745Z,97220.825,1634990186,full,ni_sequenzen,NI_Sequenzen,,,,,,,,,,,,,,
,Screen_6,canvas.Screen,0_2_6_5,,skipped,7,96656.19999998808,,,96634.09999996424,,96656.5,2021-10-23T11:58:10.750Z,97220.825,1634990186,full,ni_sequenzen,NI_Sequenzen,,,,,,,,,,,,,,
,Sequence,flow.Sequence,0_2_6,,completion,7,96631.79999995232,,,96634.09999996424,,96657,2021-10-23T11:58:10.751Z,97220.825,1634990186,full,ni_sequenzen,NI_Sequenzen,,,,,,,,,,,,,,
,Screen_1,canvas.Screen,0_2_7_0,,skipped,8,96662.5,,,96662.5,,96662.79999995232,2021-10-23T11:58:10.756Z,97220.825,1634990186,full,ni_sequenzen,NI_Sequenzen,,,,,,,,,,,,,,
,Screen_2,canvas.Screen,0_2_7_1,,skipped,8,96665.69999998808,,,96662.5,,96666,2021-10-23T11:58:10.759Z,97220.825,1634990186,full,ni_sequenzen,NI_Sequenzen,,,,,,,,,,,,,,
,Screen_3,canvas.Screen,0_2_7_2,,skipped,8,96668.19999998808,,,96662.5,,96668.39999997616,2021-10-23T11:58:10.762Z,97220.825,1634990186,full,ni_sequenzen,NI_Sequenzen,,,,,,,,,,,,,,
,Screen_4,canvas.Screen,0_2_7_3,,skipped,8,96670.69999998808,,,96662.5,,96670.89999997616,2021-10-23T11:58:10.764Z,97220.825,1634990186,full,ni_sequenzen,NI_Sequenzen,,,,,,,,,,,,,,
,Screen_5,canvas.Screen,0_2_7_4,,skipped,8,96673.39999997616,,,96662.5,,96673.69999998808,2021-10-23T11:58:10.767Z,97220.825,1634990186,full,ni_sequenzen,NI_Sequenzen,,,,,,,,,,,,,,
,Screen_6,canvas.Screen,0_2_7_5,,skipped,8,96675.89999997616,,,96662.5,,96676,2021-10-23T11:58:10.770Z,97220.825,1634990186,full,ni_sequenzen,NI_Sequenzen,,,,,,,,,,,,,,
,Sequence,flow.Sequence,0_2_7,,completion,8,96659.29999995232,,,96662.5,,96676.5,2021-10-23T11:58:10.770Z,97220.825,1634990186,full,ni_sequenzen,NI_Sequenzen,,,,,,,,,,,,,,
,Screen_1,canvas.Screen,0_2_8_0,,skipped,9,96680,,,96680.09999996424,,96680.19999998808,2021-10-23T11:58:10.774Z,97220.825,1634990186,full,ni_sequenzen,NI_Sequenzen,,,,,,,,,,,,,,
,Screen_2,canvas.Screen,0_2_8_1,,skipped,9,96684.39999997616,,,96680.09999996424,,96684.59999996424,2021-10-23T11:58:10.778Z,97220.825,1634990186,full,ni_sequenzen,NI_Sequenzen,,,,,,,,,,,,,,
,Screen_3,canvas.Screen,0_2_8_2,,skipped,9,96693.69999998808,,,96680.09999996424,,96694.09999996424,2021-10-23T11:58:10.788Z,97220.825,1634990186,full,ni_sequenzen,NI_Sequenzen,,,,,,,,,,,,,,
,Screen_4,canvas.Screen,0_2_8_3,,skipped,9,96698.5,,,96680.09999996424,,96699.5,2021-10-23T11:58:10.793Z,97220.825,1634990186,full,ni_sequenzen,NI_Sequenzen,,,,,,,,,,,,,,
,Screen_5,canvas.Screen,0_2_8_4,,skipped,9,96704.89999997616,,,96680.09999996424,,96705.59999996424,2021-10-23T11:58:10.799Z,97220.825,1634990186,full,ni_sequenzen,NI_Sequenzen,,,,,,,,,,,,,,
,Screen_6,canvas.Screen,0_2_8_5,,skipped,9,96713.89999997616,,,96680.09999996424,,96714.59999996424,2021-10-23T11:58:10.808Z,97220.825,1634990186,full,ni_sequenzen,NI_Sequenzen,,,,,,,,,,,,,,
,Sequence,flow.Sequence,0_2_8,,completion,9,96677.59999996424,,,96680.09999996424,,96715.5,2021-10-23T11:58:10.809Z,97220.825,1634990186,full,ni_sequenzen,NI_Sequenzen,,,,,,,,,,,,,,
,Screen_1,canvas.Screen,0_2_9_0,,skipped,10,96722.09999996424,,,96722.09999996424,,96724.09999996424,2021-10-23T11:58:10.818Z,97220.825,1634990186,full,ni_sequenzen,NI_Sequenzen,,,,,,,,,,,,,,
,Screen_2,canvas.Screen,0_2_9_1,,skipped,10,96727.69999998808,,,96722.09999996424,,96728.09999996424,2021-10-23T11:58:10.822Z,97220.825,1634990186,full,ni_sequenzen,NI_Sequenzen,,,,,,,,,,,,,,
,Screen_3,canvas.Screen,0_2_9_2,,skipped,10,96731.29999995232,,,96722.09999996424,,96731.59999996424,2021-10-23T11:58:10.825Z,97220.825,1634990186,full,ni_sequenzen,NI_Sequenzen,,,,,,,,,,,,,,
,Screen_4,canvas.Screen,0_2_9_3,,skipped,10,96734.5,,,96722.09999996424,,96734.69999998808,2021-10-23T11:58:10.828Z,97220.825,1634990186,full,ni_sequenzen,NI_Sequenzen,,,,,,,,,,,,,,
,Screen_5,canvas.Screen,0_2_9_4,,skipped,10,96738.79999995232,,,96722.09999996424,,96739.09999996424,2021-10-23T11:58:10.833Z,97220.825,1634990186,full,ni_sequenzen,NI_Sequenzen,,,,,,,,,,,,,,
,Screen_6,canvas.Screen,0_2_9_5,,skipped,10,96742.39999997616,,,96722.09999996424,,96742.59999996424,2021-10-23T11:58:10.836Z,97220.825,1634990186,full,ni_sequenzen,NI_Sequenzen,,,,,,,,,,,,,,
,Sequence,flow.Sequence,0_2_9,,completion,10,96717.79999995232,,,96722.09999996424,,96743.09999996424,2021-10-23T11:58:10.837Z,97220.825,1634990186,full,ni_sequenzen,NI_Sequenzen,,,,,,,,,,,,,,
,Screen_1,canvas.Screen,0_2_10_0,,skipped,11,96746.29999995232,,,96746.29999995232,,96746.5,2021-10-23T11:58:10.840Z,97220.825,1634990186,full,ni_sequenzen,NI_Sequenzen,,,,,,,,,,,,,,
,Screen_2,canvas.Screen,0_2_10_1,,skipped,11,96748.89999997616,,,96746.29999995232,,96749.09999996424,2021-10-23T11:58:10.843Z,97220.825,1634990186,full,ni_sequenzen,NI_Sequenzen,,,,,,,,,,,,,,
,Screen_3,canvas.Screen,0_2_10_2,,skipped,11,96751.29999995232,,,96746.29999995232,,96751.5,2021-10-23T11:58:10.845Z,97220.825,1634990186,full,ni_sequenzen,NI_Sequenzen,,,,,,,,,,,,,,
,Screen_4,canvas.Screen,0_2_10_3,,skipped,11,96754.19999998808,,,96746.29999995232,,96754.5,2021-10-23T11:58:10.848Z,97220.825,1634990186,full,ni_sequenzen,NI_Sequenzen,,,,,,,,,,,,,,
,Screen_5,canvas.Screen,0_2_10_4,,skipped,11,96756.79999995232,,,96746.29999995232,,96757,2021-10-23T11:58:10.851Z,97220.825,1634990186,full,ni_sequenzen,NI_Sequenzen,,,,,,,,,,,,,,
,Screen_6,canvas.Screen,0_2_10_5,,skipped,11,96759.89999997616,,,96746.29999995232,,96760.09999996424,2021-10-23T11:58:10.854Z,97220.825,1634990186,full,ni_sequenzen,NI_Sequenzen,,,,,,,,,,,,,,
,Sequence,flow.Sequence,0_2_10,,completion,11,96744.19999998808,,,96746.29999995232,,96760.39999997616,2021-10-23T11:58:10.854Z,97220.825,1634990186,full,ni_sequenzen,NI_Sequenzen,,,,,,,,,,,,,,
,Screen_1,canvas.Screen,0_2_11_0,,skipped,12,96763.89999997616,,,96763.89999997616,,96764.09999996424,2021-10-23T11:58:10.858Z,97220.825,1634990186,full,ni_sequenzen,NI_Sequenzen,,,,,,,,,,,,,,
,Screen_2,canvas.Screen,0_2_11_1,,skipped,12,96766.29999995232,,,96763.89999997616,,96766.5,2021-10-23T11:58:10.860Z,97220.825,1634990186,full,ni_sequenzen,NI_Sequenzen,,,,,,,,,,,,,,
,Screen_3,canvas.Screen,0_2_11_2,,skipped,12,96770.89999997616,,,96763.89999997616,,96771.19999998808,2021-10-23T11:58:10.865Z,97220.825,1634990186,full,ni_sequenzen,NI_Sequenzen,,,,,,,,,,,,,,
,Screen_4,canvas.Screen,0_2_11_3,,skipped,12,96773.59999996424,,,96763.89999997616,,96773.79999995232,2021-10-23T11:58:10.867Z,97220.825,1634990186,full,ni_sequenzen,NI_Sequenzen,,,,,,,,,,,,,,
,Screen_5,canvas.Screen,0_2_11_4,,skipped,12,96776,,,96763.89999997616,,96776.29999995232,2021-10-23T11:58:10.870Z,97220.825,1634990186,full,ni_sequenzen,NI_Sequenzen,,,,,,,,,,,,,,
,Screen_6,canvas.Screen,0_2_11_5,,skipped,12,96778.5,,,96763.89999997616,,96778.69999998808,2021-10-23T11:58:10.872Z,97220.825,1634990186,full,ni_sequenzen,NI_Sequenzen,,,,,,,,,,,,,,
,Sequence,flow.Sequence,0_2_11,,completion,12,96761.5,,,96763.89999997616,,96779.09999996424,2021-10-23T11:58:10.873Z,97220.825,1634990186,full,ni_sequenzen,NI_Sequenzen,,,,,,,,,,,,,,
,Screen_1,canvas.Screen,0_2_12_0,,skipped,13,96782,,,96782,,96782.19999998808,2021-10-23T11:58:10.876Z,97220.825,1634990186,full,ni_sequenzen,NI_Sequenzen,,,,,,,,,,,,,,
,Screen_2,canvas.Screen,0_2_12_1,,skipped,13,96784.59999996424,,,96782,,96784.89999997616,2021-10-23T11:58:10.878Z,97220.825,1634990186,full,ni_sequenzen,NI_Sequenzen,,,,,,,,,,,,,,
,Screen_3,canvas.Screen,0_2_12_2,,skipped,13,96787,,,96782,,96787.19999998808,2021-10-23T11:58:10.881Z,97220.825,1634990186,full,ni_sequenzen,NI_Sequenzen,,,,,,,,,,,,,,
,Screen_4,canvas.Screen,0_2_12_3,,skipped,13,96789.5,,,96782,,96789.59999996424,2021-10-23T11:58:10.883Z,97220.825,1634990186,full,ni_sequenzen,NI_Sequenzen,,,,,,,,,,,,,,
,Screen_5,canvas.Screen,0_2_12_4,,skipped,13,96792,,,96782,,96792.19999998808,2021-10-23T11:58:10.886Z,97220.825,1634990186,full,ni_sequenzen,NI_Sequenzen,,,,,,,,,,,,,,
,Screen_6,canvas.Screen,0_2_12_5,,skipped,13,96794.5,,,96782,,96794.79999995232,2021-10-23T11:58:10.888Z,97220.825,1634990186,full,ni_sequenzen,NI_Sequenzen,,,,,,,,,,,,,,
,Sequence,flow.Sequence,0_2_12,,completion,13,96780.09999996424,,,96782,,96795.19999998808,2021-10-23T11:58:10.889Z,97220.825,1634990186,full,ni_sequenzen,NI_Sequenzen,,,,,,,,,,,,,,
,Screen_1,canvas.Screen,0_2_13_0,,skipped,14,96798.09999996424,,,96798.09999996424,,96798.29999995232,2021-10-23T11:58:10.892Z,97220.825,1634990186,full,ni_sequenzen,NI_Sequenzen,,,,,,,,,,,,,,
,Screen_2,canvas.Screen,0_2_13_1,,skipped,14,96800.5,,,96798.09999996424,,96800.79999995232,2021-10-23T11:58:10.894Z,97220.825,1634990186,full,ni_sequenzen,NI_Sequenzen,,,,,,,,,,,,,,
,Screen_3,canvas.Screen,0_2_13_2,,skipped,14,96803,,,96798.09999996424,,96803.29999995232,2021-10-23T11:58:10.897Z,97220.825,1634990186,full,ni_sequenzen,NI_Sequenzen,,,,,,,,,,,,,,
,Screen_4,canvas.Screen,0_2_13_3,,skipped,14,96805.5,,,96798.09999996424,,96805.69999998808,2021-10-23T11:58:10.899Z,97220.825,1634990186,full,ni_sequenzen,NI_Sequenzen,,,,,,,,,,,,,,
,Screen_5,canvas.Screen,0_2_13_4,,skipped,14,96809.59999996424,,,96798.09999996424,,96809.79999995232,2021-10-23T11:58:10.903Z,97220.825,1634990186,full,ni_sequenzen,NI_Sequenzen,,,,,,,,,,,,,,
,Screen_6,canvas.Screen,0_2_13_5,,skipped,14,96812.09999996424,,,96798.09999996424,,96812.29999995232,2021-10-23T11:58:10.906Z,97220.825,1634990186,full,ni_sequenzen,NI_Sequenzen,,,,,,,,,,,,,,
,Sequence,flow.Sequence,0_2_13,,completion,14,96796.09999996424,,,96798.09999996424,,96812.69999998808,2021-10-23T11:58:10.906Z,97220.825,1634990186,full,ni_sequenzen,NI_Sequenzen,,,,,,,,,,,,,,
,Screen_1,canvas.Screen,0_2_14_0,,skipped,15,96815.59999996424,,,96815.59999996424,,96815.89999997616,2021-10-23T11:58:10.909Z,97220.825,1634990186,full,ni_sequenzen,NI_Sequenzen,,,,,,,,,,,,,,
,Screen_2,canvas.Screen,0_2_14_1,,skipped,15,96818.19999998808,,,96815.59999996424,,96818.59999996424,2021-10-23T11:58:10.912Z,97220.825,1634990186,full,ni_sequenzen,NI_Sequenzen,,,,,,,,,,,,,,
,Screen_3,canvas.Screen,0_2_14_2,,skipped,15,96820.89999997616,,,96815.59999996424,,96821,2021-10-23T11:58:10.915Z,97220.825,1634990186,full,ni_sequenzen,NI_Sequenzen,,,,,,,,,,,,,,
,Screen_4,canvas.Screen,0_2_14_3,,skipped,15,96823.29999995232,,,96815.59999996424,,96823.5,2021-10-23T11:58:10.917Z,97220.825,1634990186,full,ni_sequenzen,NI_Sequenzen,,,,,,,,,,,,,,
,Screen_5,canvas.Screen,0_2_14_4,,skipped,15,96825.79999995232,,,96815.59999996424,,96826,2021-10-23T11:58:10.920Z,97220.825,1634990186,full,ni_sequenzen,NI_Sequenzen,,,,,,,,,,,,,,
,Screen_6,canvas.Screen,0_2_14_5,,skipped,15,96828.19999998808,,,96815.59999996424,,96828.29999995232,2021-10-23T11:58:10.922Z,97220.825,1634990186,full,ni_sequenzen,NI_Sequenzen,,,,,,,,,,,,,,
,Sequence,flow.Sequence,0_2_14,,completion,15,96813.59999996424,,,96815.59999996424,,96829,2021-10-23T11:58:10.923Z,97220.825,1634990186,full,ni_sequenzen,NI_Sequenzen,,,,,,,,,,,,,,
,Screen_1,canvas.Screen,0_2_15_0,,skipped,16,96833.09999996424,,,96833.09999996424,,96833.5,2021-10-23T11:58:10.927Z,97220.825,1634990186,full,ni_sequenzen,NI_Sequenzen,,,,,,,,,,,,,,
,Screen_2,canvas.Screen,0_2_15_1,,skipped,16,96836.09999996424,,,96833.09999996424,,96836.39999997616,2021-10-23T11:58:10.930Z,97220.825,1634990186,full,ni_sequenzen,NI_Sequenzen,,,,,,,,,,,,,,
,Screen_3,canvas.Screen,0_2_15_2,,skipped,16,96838.89999997616,,,96833.09999996424,,96839.09999996424,2021-10-23T11:58:10.933Z,97220.825,1634990186,full,ni_sequenzen,NI_Sequenzen,,,,,,,,,,,,,,
,Screen_4,canvas.Screen,0_2_15_3,,skipped,16,96841.39999997616,,,96833.09999996424,,96841.59999996424,2021-10-23T11:58:10.935Z,97220.825,1634990186,full,ni_sequenzen,NI_Sequenzen,,,,,,,,,,,,,,
,Screen_5,canvas.Screen,0_2_15_4,,skipped,16,96843.89999997616,,,96833.09999996424,,96844.19999998808,2021-10-23T11:58:10.938Z,97220.825,1634990186,full,ni_sequenzen,NI_Sequenzen,,,,,,,,,,,,,,
,Screen_6,canvas.Screen,0_2_15_5,,skipped,16,96848.5,,,96833.09999996424,,96848.89999997616,2021-10-23T11:58:10.942Z,97220.825,1634990186,full,ni_sequenzen,NI_Sequenzen,,,,,,,,,,,,,,
,Sequence,flow.Sequence,0_2_15,,completion,16,96830.19999998808,,,96833.09999996424,,96849.29999995232,2021-10-23T11:58:10.943Z,97220.825,1634990186,full,ni_sequenzen,NI_Sequenzen,,,,,,,,,,,,,,
,Screen_1,canvas.Screen,0_2_16_0,,skipped,17,96852.59999996424,,,96852.69999998808,,96852.89999997616,2021-10-23T11:58:10.946Z,97220.825,1634990186,full,ni_sequenzen,NI_Sequenzen,,,,,,,,,,,,,,
,Screen_2,canvas.Screen,0_2_16_1,,skipped,17,96855.19999998808,,,96852.69999998808,,96855.39999997616,2021-10-23T11:58:10.949Z,97220.825,1634990186,full,ni_sequenzen,NI_Sequenzen,,,,,,,,,,,,,,
,Screen_3,canvas.Screen,0_2_16_2,,skipped,17,96857.59999996424,,,96852.69999998808,,96857.79999995232,2021-10-23T11:58:10.951Z,97220.825,1634990186,full,ni_sequenzen,NI_Sequenzen,,,,,,,,,,,,,,
,Screen_4,canvas.Screen,0_2_16_3,,skipped,17,96860,,,96852.69999998808,,96860.19999998808,2021-10-23T11:58:10.954Z,97220.825,1634990186,full,ni_sequenzen,NI_Sequenzen,,,,,,,,,,,,,,
,Screen_5,canvas.Screen,0_2_16_4,,skipped,17,96862.59999996424,,,96852.69999998808,,96862.89999997616,2021-10-23T11:58:10.956Z,97220.825,1634990186,full,ni_sequenzen,NI_Sequenzen,,,,,,,,,,,,,,
,Screen_6,canvas.Screen,0_2_16_5,,skipped,17,96865,,,96852.69999998808,,96865.29999995232,2021-10-23T11:58:10.959Z,97220.825,1634990186,full,ni_sequenzen,NI_Sequenzen,,,,,,,,,,,,,,
,Sequence,flow.Sequence,0_2_16,,completion,17,96850.39999997616,,,96852.69999998808,,96865.59999996424,2021-10-23T11:58:10.959Z,97220.825,1634990186,full,ni_sequenzen,NI_Sequenzen,,,,,,,,,,,,,,
,Screen_1,canvas.Screen,0_2_17_0,,skipped,18,96868.5,,,96868.59999996424,,96868.79999995232,2021-10-23T11:58:10.962Z,97220.825,1634990186,full,ni_sequenzen,NI_Sequenzen,,,,,,,,,,,,,,
,Screen_2,canvas.Screen,0_2_17_1,,skipped,18,96870.89999997616,,,96868.59999996424,,96871.19999998808,2021-10-23T11:58:10.965Z,97220.825,1634990186,full,ni_sequenzen,NI_Sequenzen,,,,,,,,,,,,,,
,Screen_3,canvas.Screen,0_2_17_2,,skipped,18,96873.5,,,96868.59999996424,,96873.69999998808,2021-10-23T11:58:10.967Z,97220.825,1634990186,full,ni_sequenzen,NI_Sequenzen,,,,,,,,,,,,,,
,Screen_4,canvas.Screen,0_2_17_3,,skipped,18,96875.79999995232,,,96868.59999996424,,96876.09999996424,2021-10-23T11:58:10.970Z,97220.825,1634990186,full,ni_sequenzen,NI_Sequenzen,,,,,,,,,,,,,,
,Screen_5,canvas.Screen,0_2_17_4,,skipped,18,96878.39999997616,,,96868.59999996424,,96878.59999996424,2021-10-23T11:58:10.972Z,97220.825,1634990186,full,ni_sequenzen,NI_Sequenzen,,,,,,,,,,,,,,
,Screen_6,canvas.Screen,0_2_17_5,,skipped,18,96880.79999995232,,,96868.59999996424,,96881.09999996424,2021-10-23T11:58:10.975Z,97220.825,1634990186,full,ni_sequenzen,NI_Sequenzen,,,,,,,,,,,,,,
,Sequence,flow.Sequence,0_2_17,,completion,18,96866.59999996424,,,96868.59999996424,,96881.39999997616,2021-10-23T11:58:10.975Z,97220.825,1634990186,full,ni_sequenzen,NI_Sequenzen,,,,,,,,,,,,,,
,Screen_1,canvas.Screen,0_2_18_0,,skipped,19,96886.5,,,96886.5,,96886.69999998808,2021-10-23T11:58:10.980Z,97220.825,1634990186,full,ni_sequenzen,NI_Sequenzen,,,,,,,,,,,,,,
,Screen_2,canvas.Screen,0_2_18_1,,skipped,19,96889,,,96886.5,,96889.19999998808,2021-10-23T11:58:10.983Z,97220.825,1634990186,full,ni_sequenzen,NI_Sequenzen,,,,,,,,,,,,,,
,Screen_3,canvas.Screen,0_2_18_2,,skipped,19,96891.39999997616,,,96886.5,,96891.59999996424,2021-10-23T11:58:10.985Z,97220.825,1634990186,full,ni_sequenzen,NI_Sequenzen,,,,,,,,,,,,,,
,Screen_4,canvas.Screen,0_2_18_3,,skipped,19,96893.79999995232,,,96886.5,,96894.09999996424,2021-10-23T11:58:10.988Z,97220.825,1634990186,full,ni_sequenzen,NI_Sequenzen,,,,,,,,,,,,,,
,Screen_5,canvas.Screen,0_2_18_4,,skipped,19,96896.29999995232,,,96886.5,,96896.5,2021-10-23T11:58:10.990Z,97220.825,1634990186,full,ni_sequenzen,NI_Sequenzen,,,,,,,,,,,,,,
,Screen_6,canvas.Screen,0_2_18_5,,skipped,19,96898.69999998808,,,96886.5,,96899,2021-10-23T11:58:10.993Z,97220.825,1634990186,full,ni_sequenzen,NI_Sequenzen,,,,,,,,,,,,,,
,Sequence,flow.Sequence,0_2_18,,completion,19,96882.5,,,96886.5,,96899.29999995232,2021-10-23T11:58:10.993Z,97220.825,1634990186,full,ni_sequenzen,NI_Sequenzen,,,,,,,,,,,,,,
,Screen_1,canvas.Screen,0_2_19_0,,skipped,20,96902.29999995232,,,96902.39999997616,,96902.59999996424,2021-10-23T11:58:10.996Z,97220.825,1634990186,full,ni_sequenzen,NI_Sequenzen,,,,,,,,,,,,,,
,Screen_2,canvas.Screen,0_2_19_1,,skipped,20,96904.79999995232,,,96902.39999997616,,96905,2021-10-23T11:58:10.999Z,97220.825,1634990186,full,ni_sequenzen,NI_Sequenzen,,,,,,,,,,,,,,
,Screen_3,canvas.Screen,0_2_19_2,,skipped,20,96907.29999995232,,,96902.39999997616,,96907.5,2021-10-23T11:58:11.001Z,97220.825,1634990186,full,ni_sequenzen,NI_Sequenzen,,,,,,,,,,,,,,
,Screen_4,canvas.Screen,0_2_19_3,,skipped,20,96910.19999998808,,,96902.39999997616,,96910.39999997616,2021-10-23T11:58:11.004Z,97220.825,1634990186,full,ni_sequenzen,NI_Sequenzen,,,,,,,,,,,,,,
,Screen_5,canvas.Screen,0_2_19_4,,skipped,20,96912.79999995232,,,96902.39999997616,,96913,2021-10-23T11:58:11.007Z,97220.825,1634990186,full,ni_sequenzen,NI_Sequenzen,,,,,,,,,,,,,,
,Screen_6,canvas.Screen,0_2_19_5,,skipped,20,96915.19999998808,,,96902.39999997616,,96915.39999997616,2021-10-23T11:58:11.009Z,97220.825,1634990186,full,ni_sequenzen,NI_Sequenzen,,,,,,,,,,,,,,
,Sequence,flow.Sequence,0_2_19,,completion,20,96900.29999995232,,,96902.39999997616,,96915.79999995232,2021-10-23T11:58:11.009Z,97220.825,1634990186,full,ni_sequenzen,NI_Sequenzen,,,,,,,,,,,,,,
,Screen_1,canvas.Screen,0_2_20_0,,skipped,21,96919,,,96919,,96919.19999998808,2021-10-23T11:58:11.013Z,97220.825,1634990186,full,ni_sequenzen,NI_Sequenzen,,,,,,,,,,,,,,
,Screen_2,canvas.Screen,0_2_20_1,,skipped,21,96921.5,,,96919,,96921.69999998808,2021-10-23T11:58:11.015Z,97220.825,1634990186,full,ni_sequenzen,NI_Sequenzen,,,,,,,,,,,,,,
,Screen_3,canvas.Screen,0_2_20_2,,skipped,21,96926.19999998808,,,96919,,96926.39999997616,2021-10-23T11:58:11.020Z,97220.825,1634990186,full,ni_sequenzen,NI_Sequenzen,,,,,,,,,,,,,,
,Screen_4,canvas.Screen,0_2_20_3,,skipped,21,96928.79999995232,,,96919,,96929,2021-10-23T11:58:11.023Z,97220.825,1634990186,full,ni_sequenzen,NI_Sequenzen,,,,,,,,,,,,,,
,Screen_5,canvas.Screen,0_2_20_4,,skipped,21,96931.29999995232,,,96919,,96931.5,2021-10-23T11:58:11.025Z,97220.825,1634990186,full,ni_sequenzen,NI_Sequenzen,,,,,,,,,,,,,,
,Screen_6,canvas.Screen,0_2_20_5,,skipped,21,96934.5,,,96919,,96934.69999998808,2021-10-23T11:58:11.028Z,97220.825,1634990186,full,ni_sequenzen,NI_Sequenzen,,,,,,,,,,,,,,
,Sequence,flow.Sequence,0_2_20,,completion,21,96916.79999995232,,,96919,,96935.09999996424,2021-10-23T11:58:11.029Z,97220.825,1634990186,full,ni_sequenzen,NI_Sequenzen,,,,,,,,,,,,,,
,Screen_1,canvas.Screen,0_2_21_0,,skipped,22,96938,,,96938.09999996424,,96938.29999995232,2021-10-23T11:58:11.032Z,97220.825,1634990186,full,ni_sequenzen,NI_Sequenzen,,,,,,,,,,,,,,
,Screen_2,canvas.Screen,0_2_21_1,,skipped,22,96940.59999996424,,,96938.09999996424,,96940.79999995232,2021-10-23T11:58:11.034Z,97220.825,1634990186,full,ni_sequenzen,NI_Sequenzen,,,,,,,,,,,,,,
,Screen_3,canvas.Screen,0_2_21_2,,skipped,22,96943.5,,,96938.09999996424,,96943.79999995232,2021-10-23T11:58:11.037Z,97220.825,1634990186,full,ni_sequenzen,NI_Sequenzen,,,,,,,,,,,,,,
,Screen_4,canvas.Screen,0_2_21_3,,skipped,22,96946.19999998808,,,96938.09999996424,,96946.39999997616,2021-10-23T11:58:11.040Z,97220.825,1634990186,full,ni_sequenzen,NI_Sequenzen,,,,,,,,,,,,,,
,Screen_5,canvas.Screen,0_2_21_4,,skipped,22,96950.19999998808,,,96938.09999996424,,96950.5,2021-10-23T11:58:11.044Z,97220.825,1634990186,full,ni_sequenzen,NI_Sequenzen,,,,,,,,,,,,,,
,Screen_6,canvas.Screen,0_2_21_5,,skipped,22,96953.09999996424,,,96938.09999996424,,96953.29999995232,2021-10-23T11:58:11.047Z,97220.825,1634990186,full,ni_sequenzen,NI_Sequenzen,,,,,,,,,,,,,,
,Sequence,flow.Sequence,0_2_21,,completion,22,96936.09999996424,,,96938.09999996424,,96953.89999997616,2021-10-23T11:58:11.047Z,97220.825,1634990186,full,ni_sequenzen,NI_Sequenzen,,,,,,,,,,,,,,
,Screen_1,canvas.Screen,0_2_22_0,,skipped,23,96957.29999995232,,,96957.29999995232,,96957.5,2021-10-23T11:58:11.051Z,97220.825,1634990186,full,ni_sequenzen,NI_Sequenzen,,,,,,,,,,,,,,
,Screen_2,canvas.Screen,0_2_22_1,,skipped,23,96959.79999995232,,,96957.29999995232,,96960.09999996424,2021-10-23T11:58:11.054Z,97220.825,1634990186,full,ni_sequenzen,NI_Sequenzen,,,,,,,,,,,,,,
,Screen_3,canvas.Screen,0_2_22_2,,skipped,23,96964.5,,,96957.29999995232,,96964.89999997616,2021-10-23T11:58:11.058Z,97220.825,1634990186,full,ni_sequenzen,NI_Sequenzen,,,,,,,,,,,,,,
,Screen_4,canvas.Screen,0_2_22_3,,skipped,23,96969.09999996424,,,96957.29999995232,,96969.29999995232,2021-10-23T11:58:11.063Z,97220.825,1634990186,full,ni_sequenzen,NI_Sequenzen,,,,,,,,,,,,,,
,Screen_5,canvas.Screen,0_2_22_4,,skipped,23,96973.5,,,96957.29999995232,,96973.79999995232,2021-10-23T11:58:11.067Z,97220.825,1634990186,full,ni_sequenzen,NI_Sequenzen,,,,,,,,,,,,,,
,Screen_6,canvas.Screen,0_2_22_5,,skipped,23,96976.09999996424,,,96957.29999995232,,96976.39999997616,2021-10-23T11:58:11.070Z,97220.825,1634990186,full,ni_sequenzen,NI_Sequenzen,,,,,,,,,,,,,,
,Sequence,flow.Sequence,0_2_22,,completion,23,96955,,,96957.29999995232,,96976.69999998808,2021-10-23T11:58:11.070Z,97220.825,1634990186,full,ni_sequenzen,NI_Sequenzen,,,,,,,,,,,,,,
,Screen_1,canvas.Screen,0_2_23_0,,skipped,24,96980,,,96980,,96980.09999996424,2021-10-23T11:58:11.074Z,97220.825,1634990186,full,ni_sequenzen,NI_Sequenzen,,,,,,,,,,,,,,
,Screen_2,canvas.Screen,0_2_23_1,,skipped,24,96982.29999995232,,,96980,,96982.59999996424,2021-10-23T11:58:11.076Z,97220.825,1634990186,full,ni_sequenzen,NI_Sequenzen,,,,,,,,,,,,,,
,Screen_3,canvas.Screen,0_2_23_2,,skipped,24,96984.89999997616,,,96980,,96985.19999998808,2021-10-23T11:58:11.079Z,97220.825,1634990186,full,ni_sequenzen,NI_Sequenzen,,,,,,,,,,,,,,
,Screen_4,canvas.Screen,0_2_23_3,,skipped,24,96987.39999997616,,,96980,,96987.59999996424,2021-10-23T11:58:11.081Z,97220.825,1634990186,full,ni_sequenzen,NI_Sequenzen,,,,,,,,,,,,,,
,Screen_5,canvas.Screen,0_2_23_4,,skipped,24,96989.89999997616,,,96980,,96990,2021-10-23T11:58:11.084Z,97220.825,1634990186,full,ni_sequenzen,NI_Sequenzen,,,,,,,,,,,,,,
,Screen_6,canvas.Screen,0_2_23_5,,skipped,24,96992.29999995232,,,96980,,96992.5,2021-10-23T11:58:11.086Z,97220.825,1634990186,full,ni_sequenzen,NI_Sequenzen,,,,,,,,,,,,,,
,Sequence,flow.Sequence,0_2_23,,completion,24,96977.69999998808,,,96980,,96992.89999997616,2021-10-23T11:58:11.087Z,97220.825,1634990186,full,ni_sequenzen,NI_Sequenzen,,,,,,,,,,,,,,
,Screen_1,canvas.Screen,0_2_24_0,,skipped,25,96995.89999997616,,,96996,,96996.09999996424,2021-10-23T11:58:11.090Z,97220.825,1634990186,full,ni_sequenzen,NI_Sequenzen,,,,,,,,,,,,,,
,Screen_2,canvas.Screen,0_2_24_1,,skipped,25,96998.39999997616,,,96996,,96998.79999995232,2021-10-23T11:58:11.092Z,97220.825,1634990186,full,ni_sequenzen,NI_Sequenzen,,,,,,,,,,,,,,
,Screen_3,canvas.Screen,0_2_24_2,,skipped,25,97001,,,96996,,97001.29999995232,2021-10-23T11:58:11.095Z,97220.825,1634990186,full,ni_sequenzen,NI_Sequenzen,,,,,,,,,,,,,,
,Screen_4,canvas.Screen,0_2_24_3,,skipped,25,97003.59999996424,,,96996,,97003.79999995232,2021-10-23T11:58:11.097Z,97220.825,1634990186,full,ni_sequenzen,NI_Sequenzen,,,,,,,,,,,,,,
,Screen_5,canvas.Screen,0_2_24_4,,skipped,25,97006.09999996424,,,96996,,97006.29999995232,2021-10-23T11:58:11.100Z,97220.825,1634990186,full,ni_sequenzen,NI_Sequenzen,,,,,,,,,,,,,,
,Screen_6,canvas.Screen,0_2_24_5,,skipped,25,97008.59999996424,,,96996,,97008.79999995232,2021-10-23T11:58:11.102Z,97220.825,1634990186,full,ni_sequenzen,NI_Sequenzen,,,,,,,,,,,,,,
,Sequence,flow.Sequence,0_2_24,,completion,25,96994,,,96996,,97009.19999998808,2021-10-23T11:58:11.103Z,97220.825,1634990186,full,ni_sequenzen,NI_Sequenzen,,,,,,,,,,,,,,
,Screen_1,canvas.Screen,0_2_25_0,,skipped,26,97013.69999998808,,,97013.69999998808,,97014,2021-10-23T11:58:11.107Z,97220.825,1634990186,full,ni_sequenzen,NI_Sequenzen,,,,,,,,,,,,,,
,Screen_2,canvas.Screen,0_2_25_1,,skipped,26,97016.09999996424,,,97013.69999998808,,97016.39999997616,2021-10-23T11:58:11.110Z,97220.825,1634990186,full,ni_sequenzen,NI_Sequenzen,,,,,,,,,,,,,,
,Screen_3,canvas.Screen,0_2_25_2,,skipped,26,97018.39999997616,,,97013.69999998808,,97018.69999998808,2021-10-23T11:58:11.112Z,97220.825,1634990186,full,ni_sequenzen,NI_Sequenzen,,,,,,,,,,,,,,
,Screen_4,canvas.Screen,0_2_25_3,,skipped,26,97020.79999995232,,,97013.69999998808,,97021,2021-10-23T11:58:11.115Z,97220.825,1634990186,full,ni_sequenzen,NI_Sequenzen,,,,,,,,,,,,,,
,Screen_5,canvas.Screen,0_2_25_4,,skipped,26,97023.39999997616,,,97013.69999998808,,97023.69999998808,2021-10-23T11:58:11.117Z,97220.825,1634990186,full,ni_sequenzen,NI_Sequenzen,,,,,,,,,,,,,,
,Screen_6,canvas.Screen,0_2_25_5,,skipped,26,97025.89999997616,,,97013.69999998808,,97026.09999996424,2021-10-23T11:58:11.120Z,97220.825,1634990186,full,ni_sequenzen,NI_Sequenzen,,,,,,,,,,,,,,
,Sequence,flow.Sequence,0_2_25,,completion,26,97010.19999998808,,,97013.69999998808,,97026.29999995232,2021-10-23T11:58:11.120Z,97220.825,1634990186,full,ni_sequenzen,NI_Sequenzen,,,,,,,,,,,,,,
,Screen_1,canvas.Screen,0_2_26_0,,skipped,27,97029.19999998808,,,97029.19999998808,,97029.39999997616,2021-10-23T11:58:11.123Z,97220.825,1634990186,full,ni_sequenzen,NI_Sequenzen,,,,,,,,,,,,,,
,Screen_2,canvas.Screen,0_2_26_1,,skipped,27,97031.39999997616,,,97029.19999998808,,97032.09999996424,2021-10-23T11:58:11.126Z,97220.825,1634990186,full,ni_sequenzen,NI_Sequenzen,,,,,,,,,,,,,,
,Screen_3,canvas.Screen,0_2_26_2,,skipped,27,97034.79999995232,,,97029.19999998808,,97035,2021-10-23T11:58:11.129Z,97220.825,1634990186,full,ni_sequenzen,NI_Sequenzen,,,,,,,,,,,,,,
,Screen_4,canvas.Screen,0_2_26_3,,skipped,27,97037.09999996424,,,97029.19999998808,,97037.39999997616,2021-10-23T11:58:11.131Z,97220.825,1634990186,full,ni_sequenzen,NI_Sequenzen,,,,,,,,,,,,,,
,Screen_5,canvas.Screen,0_2_26_4,,skipped,27,97039.59999996424,,,97029.19999998808,,97039.79999995232,2021-10-23T11:58:11.133Z,97220.825,1634990186,full,ni_sequenzen,NI_Sequenzen,,,,,,,,,,,,,,
,Screen_6,canvas.Screen,0_2_26_5,,skipped,27,97041.89999997616,,,97029.19999998808,,97042,2021-10-23T11:58:11.136Z,97220.825,1634990186,full,ni_sequenzen,NI_Sequenzen,,,,,,,,,,,,,,
,Sequence,flow.Sequence,0_2_26,,completion,27,97027.29999995232,,,97029.19999998808,,97042.5,2021-10-23T11:58:11.136Z,97220.825,1634990186,full,ni_sequenzen,NI_Sequenzen,,,,,,,,,,,,,,
,Screen_1,canvas.Screen,0_2_27_0,,skipped,28,97045.29999995232,,,97045.29999995232,,97045.5,2021-10-23T11:58:11.139Z,97220.825,1634990186,full,ni_sequenzen,NI_Sequenzen,,,,,,,,,,,,,,
,Screen_2,canvas.Screen,0_2_27_1,,skipped,28,97047.69999998808,,,97045.29999995232,,97047.79999995232,2021-10-23T11:58:11.141Z,97220.825,1634990186,full,ni_sequenzen,NI_Sequenzen,,,,,,,,,,,,,,
,Screen_3,canvas.Screen,0_2_27_2,,skipped,28,97050,,,97045.29999995232,,97050.09999996424,2021-10-23T11:58:11.144Z,97220.825,1634990186,full,ni_sequenzen,NI_Sequenzen,,,,,,,,,,,,,,
,Screen_4,canvas.Screen,0_2_27_3,,skipped,28,97052.39999997616,,,97045.29999995232,,97052.69999998808,2021-10-23T11:58:11.146Z,97220.825,1634990186,full,ni_sequenzen,NI_Sequenzen,,,,,,,,,,,,,,
,Screen_5,canvas.Screen,0_2_27_4,,skipped,28,97056.89999997616,,,97045.29999995232,,97057.09999996424,2021-10-23T11:58:11.151Z,97220.825,1634990186,full,ni_sequenzen,NI_Sequenzen,,,,,,,,,,,,,,
,Screen_6,canvas.Screen,0_2_27_5,,skipped,28,97059.19999998808,,,97045.29999995232,,97059.39999997616,2021-10-23T11:58:11.153Z,97220.825,1634990186,full,ni_sequenzen,NI_Sequenzen,,,,,,,,,,,,,,
,Sequence,flow.Sequence,0_2_27,,completion,28,97043.5,,,97045.29999995232,,97059.69999998808,2021-10-23T11:58:11.153Z,97220.825,1634990186,full,ni_sequenzen,NI_Sequenzen,,,,,,,,,,,,,,
,Screen_1,canvas.Screen,0_2_28_0,,skipped,29,97062.59999996424,,,97062.59999996424,,97062.79999995232,2021-10-23T11:58:11.156Z,97220.825,1634990186,full,ni_sequenzen,NI_Sequenzen,,,,,,,,,,,,,,
,Screen_2,canvas.Screen,0_2_28_1,,skipped,29,97064.89999997616,,,97062.59999996424,,97065.09999996424,2021-10-23T11:58:11.159Z,97220.825,1634990186,full,ni_sequenzen,NI_Sequenzen,,,,,,,,,,,,,,
,Screen_3,canvas.Screen,0_2_28_2,,skipped,29,97067.09999996424,,,97062.59999996424,,97067.39999997616,2021-10-23T11:58:11.161Z,97220.825,1634990186,full,ni_sequenzen,NI_Sequenzen,,,,,,,,,,,,,,
,Screen_4,canvas.Screen,0_2_28_3,,skipped,29,97069.79999995232,,,97062.59999996424,,97070,2021-10-23T11:58:11.164Z,97220.825,1634990186,full,ni_sequenzen,NI_Sequenzen,,,,,,,,,,,,,,
,Screen_5,canvas.Screen,0_2_28_4,,skipped,29,97072.19999998808,,,97062.59999996424,,97072.5,2021-10-23T11:58:11.166Z,97220.825,1634990186,full,ni_sequenzen,NI_Sequenzen,,,,,,,,,,,,,,
,Screen_6,canvas.Screen,0_2_28_5,,skipped,29,97074.59999996424,,,97062.59999996424,,97074.79999995232,2021-10-23T11:58:11.168Z,97220.825,1634990186,full,ni_sequenzen,NI_Sequenzen,,,,,,,,,,,,,,
,Sequence,flow.Sequence,0_2_28,,completion,29,97060.69999998808,,,97062.59999996424,,97075,2021-10-23T11:58:11.169Z,97220.825,1634990186,full,ni_sequenzen,NI_Sequenzen,,,,,,,,,,,,,,
,Screen_1,canvas.Screen,0_2_29_0,,skipped,30,97077.89999997616,,,97077.89999997616,,97078,2021-10-23T11:58:11.172Z,97220.825,1634990186,full,ni_sequenzen,NI_Sequenzen,,,,,,,,,,,,,,
,Screen_2,canvas.Screen,0_2_29_1,,skipped,30,97080.5,,,97077.89999997616,,97080.59999996424,2021-10-23T11:58:11.174Z,97220.825,1634990186,full,ni_sequenzen,NI_Sequenzen,,,,,,,,,,,,,,
,Screen_3,canvas.Screen,0_2_29_2,,skipped,30,97082.69999998808,,,97077.89999997616,,97082.89999997616,2021-10-23T11:58:11.177Z,97220.825,1634990186,full,ni_sequenzen,NI_Sequenzen,,,,,,,,,,,,,,
,Screen_4,canvas.Screen,0_2_29_3,,skipped,30,97085.09999996424,,,97077.89999997616,,97085.39999997616,2021-10-23T11:58:11.179Z,97220.825,1634990186,full,ni_sequenzen,NI_Sequenzen,,,,,,,,,,,,,,
,Screen_5,canvas.Screen,0_2_29_4,,skipped,30,97087.39999997616,,,97077.89999997616,,97087.59999996424,2021-10-23T11:58:11.181Z,97220.825,1634990186,full,ni_sequenzen,NI_Sequenzen,,,,,,,,,,,,,,
,Screen_6,canvas.Screen,0_2_29_5,,skipped,30,97089.59999996424,,,97077.89999997616,,97089.79999995232,2021-10-23T11:58:11.183Z,97220.825,1634990186,full,ni_sequenzen,NI_Sequenzen,,,,,,,,,,,,,,
,Sequence,flow.Sequence,0_2_29,,completion,30,97076,,,97077.89999997616,,97090.19999998808,2021-10-23T11:58:11.184Z,97220.825,1634990186,full,ni_sequenzen,NI_Sequenzen,,,,,,,,,,,,,,
,Instructions_II,flow.Loop,0_2,,completion,,71172.59999996424,71170.92,71187.48,97077.89999997616,25890.419999976162,97090.39999997616,2021-10-23T11:58:11.184Z,97220.825,1634990186,full,ni_sequenzen,NI_Sequenzen,,,,,,,,,,,,,,
,Move,canvas.Screen,0_3_0_0_0_0,right,response,,97193.5,97187.526,97220.825,98544.69999998808,1323.874999988082,98545.69999998808,2021-10-23T11:58:12.639Z,98570.853,1634990186,full,ni_sequenzen,NI_Sequenzen,1,0,,,,,,,,,,,,
,Move,canvas.Screen,0_3_0_0_0_1,down,response,,98557.79999995232,98554.165,98570.853,99391.09999996424,820.2469999642344,99392,2021-10-23T11:58:13.486Z,99404.225,1634990186,full,ni_sequenzen,NI_Sequenzen,2,0,,,,,,,,,,,,
,Move,canvas.Screen,0_3_0_0_0_2,right,response,,99398.39999997616,99387.585,99404.225,100037.19999998808,632.9749999880733,100038.19999998808,2021-10-23T11:58:14.132Z,100070.84,1634990186,full,ni_sequenzen,NI_Sequenzen,3,0,,,,,,,,,,,,
,Move,canvas.Screen,0_3_0_0_0_3,down,response,,100044.39999997616,100037.609,100070.84,100818.09999996424,747.2599999642407,100819.29999995232,2021-10-23T11:58:14.913Z,100904.225,1634990186,full,ni_sequenzen,NI_Sequenzen,4,0,,,,,,,,,,,,
,Move,canvas.Screen,0_3_0_0_0_4,-999,skipped,,100825.5,,,100818.09999996424,,100825.69999998808,2021-10-23T11:58:14.919Z,100904.225,1634990186,full,ni_sequenzen,NI_Sequenzen,5,0,,,,,,,,,,,,
,Move,canvas.Screen,0_3_0_0_0_5,-999,skipped,,100831,,,100818.09999996424,,100831.19999998808,2021-10-23T11:58:14.925Z,100904.225,1634990186,full,ni_sequenzen,NI_Sequenzen,6,0,,,,,,,,,,,,
,Move,canvas.Screen,0_3_0_0_0_6,-999,skipped,,100837.5,,,100818.09999996424,,100837.79999995232,2021-10-23T11:58:14.931Z,100904.225,1634990186,full,ni_sequenzen,NI_Sequenzen,7,0,,,,,,,,,,,,
,Move,canvas.Screen,0_3_0_0_0_7,-999,skipped,,100843.09999996424,,,100818.09999996424,,100843.29999995232,2021-10-23T11:58:14.937Z,100904.225,1634990186,full,ni_sequenzen,NI_Sequenzen,8,0,,,,,,,,,,,,
,Move,canvas.Screen,0_3_0_0_0_8,-999,skipped,,100848.5,,,100818.09999996424,,100848.69999998808,2021-10-23T11:58:14.942Z,100904.225,1634990186,full,ni_sequenzen,NI_Sequenzen,9,0,,,,,,,,,,,,
,Move,canvas.Screen,0_3_0_0_0_9,-999,skipped,,100854.79999995232,,,100818.09999996424,,100855.09999996424,2021-10-23T11:58:14.949Z,100904.225,1634990186,full,ni_sequenzen,NI_Sequenzen,10,0,,,,,,,,,,,,
,Move,canvas.Screen,0_3_0_0_0_10,-999,skipped,,100861.79999995232,,,100818.09999996424,,100862,2021-10-23T11:58:14.956Z,100904.225,1634990186,full,ni_sequenzen,NI_Sequenzen,11,0,,,,,,,,,,,,
,Move,canvas.Screen,0_3_0_0_0_11,-999,skipped,,100867.39999997616,,,100818.09999996424,,100867.69999998808,2021-10-23T11:58:14.961Z,100904.225,1634990186,full,ni_sequenzen,NI_Sequenzen,12,0,,,,,,,,,,,,
,Move,canvas.Screen,0_3_0_0_0_12,-999,skipped,,100874.69999998808,,,100818.09999996424,,100875,2021-10-23T11:58:14.969Z,100904.225,1634990186,full,ni_sequenzen,NI_Sequenzen,13,0,,,,,,,,,,,,
,Move,canvas.Screen,0_3_0_0_0_13,-999,skipped,,100881.89999997616,,,100818.09999996424,,100882,2021-10-23T11:58:14.976Z,100904.225,1634990186,full,ni_sequenzen,NI_Sequenzen,14,0,,,,,,,,,,,,
,Move,canvas.Screen,0_3_0_0_0_14,-999,skipped,,100888.59999996424,,,100818.09999996424,,100888.79999995232,2021-10-23T11:58:14.982Z,100904.225,1634990186,full,ni_sequenzen,NI_Sequenzen,15,0,,,,,,,,,,,,
,Loop,flow.Loop,0_3_0_0_0,-999,completion,,97178.39999997616,97187.526,97220.825,100818.09999996424,3597.27499996424,100889.29999995232,2021-10-23T11:58:14.983Z,100904.225,1634990186,full,ni_sequenzen,NI_Sequenzen,,0,,,,,,,,,,,,
,Feedback,canvas.Screen,0_3_0_0_1,,timeout,,100894.69999998808,100887.525,100904.225,104887.506,4016.62999999999,104888.69999998808,2021-10-23T11:58:18.982Z,104920.855,1634990186,full,ni_sequenzen,NI_Sequenzen,,0,,,,,,,,,,,,
,Trial,flow.Sequence,0_3_0_0,,completion,,97140,97187.526,97220.825,104887.506,7666.680999999997,104889.09999996424,2021-10-23T11:58:18.983Z,104937.556,1634990186,full,ni_sequenzen,NI_Sequenzen,,0,,,,,,,,,,,,
,Move,canvas.Screen,0_3_0_1_0_0,right,response,,104930.29999995232,104920.855,104937.556,106170.79999995232,1233.2439999523194,106172.29999995232,2021-10-23T11:58:20.266Z,106187.528,1634990186,full,ni_sequenzen,NI_Sequenzen,1,1,,,,,,,,,,,,
,Move,canvas.Screen,0_3_0_1_0_1,down,response,,106181.39999997616,106170.845,106187.528,106826.5,638.9719999999943,106827.69999998808,2021-10-23T11:58:20.921Z,106837.527,1634990186,full,ni_sequenzen,NI_Sequenzen,2,1,,,,,,,,,,,,
,Move,canvas.Screen,0_3_0_1_0_2,right,response,,106834.39999997616,106820.949,106837.527,107335.59999996424,498.07299996423535,107336.59999996424,2021-10-23T11:58:21.430Z,107354.212,1634990186,full,ni_sequenzen,NI_Sequenzen,3,1,,,,,,,,,,,,
,Move,canvas.Screen,0_3_0_1_0_3,down,response,,107343.59999996424,107337.619,107354.212,107879.69999998808,525.4879999880795,107880.69999998808,2021-10-23T11:58:21.974Z,108004.194,1634990186,full,ni_sequenzen,NI_Sequenzen,4,1,,,,,,,,,,,,
,Move,canvas.Screen,0_3_0_1_0_4,-999,skipped,,107891.09999996424,,,107879.69999998808,,107891.39999997616,2021-10-23T11:58:21.985Z,108004.194,1634990186,full,ni_sequenzen,NI_Sequenzen,5,1,,,,,,,,,,,,
,Move,canvas.Screen,0_3_0_1_0_5,-999,skipped,,107897.5,,,107879.69999998808,,107897.69999998808,2021-10-23T11:58:21.991Z,108004.194,1634990186,full,ni_sequenzen,NI_Sequenzen,6,1,,,,,,,,,,,,
,Move,canvas.Screen,0_3_0_1_0_6,-999,skipped,,107905.59999996424,,,107879.69999998808,,107906,2021-10-23T11:58:22.000Z,108004.194,1634990186,full,ni_sequenzen,NI_Sequenzen,7,1,,,,,,,,,,,,
,Move,canvas.Screen,0_3_0_1_0_7,-999,skipped,,107914,,,107879.69999998808,,107914.29999995232,2021-10-23T11:58:22.008Z,108004.194,1634990186,full,ni_sequenzen,NI_Sequenzen,8,1,,,,,,,,,,,,
,Move,canvas.Screen,0_3_0_1_0_8,-999,skipped,,107920.59999996424,,,107879.69999998808,,107920.69999998808,2021-10-23T11:58:22.014Z,108004.194,1634990186,full,ni_sequenzen,NI_Sequenzen,9,1,,,,,,,,,,,,
,Move,canvas.Screen,0_3_0_1_0_9,-999,skipped,,107928.29999995232,,,107879.69999998808,,107928.59999996424,2021-10-23T11:58:22.022Z,108004.194,1634990186,full,ni_sequenzen,NI_Sequenzen,10,1,,,,,,,,,,,,
,Move,canvas.Screen,0_3_0_1_0_10,-999,skipped,,107935.5,,,107879.69999998808,,107935.69999998808,2021-10-23T11:58:22.029Z,108004.194,1634990186,full,ni_sequenzen,NI_Sequenzen,11,1,,,,,,,,,,,,
,Move,canvas.Screen,0_3_0_1_0_11,-999,skipped,,107943.09999996424,,,107879.69999998808,,107943.39999997616,2021-10-23T11:58:22.037Z,108004.194,1634990186,full,ni_sequenzen,NI_Sequenzen,12,1,,,,,,,,,,,,
,Move,canvas.Screen,0_3_0_1_0_12,-999,skipped,,107949.19999998808,,,107879.69999998808,,107949.5,2021-10-23T11:58:22.043Z,108004.194,1634990186,full,ni_sequenzen,NI_Sequenzen,13,1,,,,,,,,,,,,
,Move,canvas.Screen,0_3_0_1_0_13,-999,skipped,,107955.69999998808,,,107879.69999998808,,107956,2021-10-23T11:58:22.050Z,108004.194,1634990186,full,ni_sequenzen,NI_Sequenzen,14,1,,,,,,,,,,,,
,Move,canvas.Screen,0_3_0_1_0_14,-999,skipped,,107964.79999995232,,,107879.69999998808,,107965.5,2021-10-23T11:58:22.059Z,108004.194,1634990186,full,ni_sequenzen,NI_Sequenzen,15,1,,,,,,,,,,,,
,Loop,flow.Loop,0_3_0_1_0,-999,completion,,104923.29999995232,104920.855,104937.556,107879.69999998808,2942.143999988082,107966.29999995232,2021-10-23T11:58:22.060Z,108004.194,1634990186,full,ni_sequenzen,NI_Sequenzen,,1,,,,,,,,,,,,
,Feedback,canvas.Screen,0_3_0_1_1,,timeout,,107971.5,107970.996,108004.194,111987.526,4016.6560000000027,111988.39999997616,2021-10-23T11:58:26.082Z,112020.85,1634990186,full,ni_sequenzen,NI_Sequenzen,,1,,,,,,,,,,,,
,Trial,flow.Sequence,0_3_0_1,,completion,,104889.69999998808,104920.855,104937.556,111987.526,7049.970000000001,111988.69999998808,2021-10-23T11:58:26.082Z,112037.532,1634990186,full,ni_sequenzen,NI_Sequenzen,,1,,,,,,,,,,,,
,Move,canvas.Screen,0_3_0_2_0_0,right,response,,112036.79999995232,112020.85,112037.532,113117.19999998808,1079.6679999880726,113118.69999998808,2021-10-23T11:58:27.212Z,113137.503,1634990186,full,ni_sequenzen,NI_Sequenzen,1,2,,,,,,,,,,,,
,Move,canvas.Screen,0_3_0_2_0_1,down,response,,113128.89999997616,113120.83,113137.503,113645,507.497000000003,113645.89999997616,2021-10-23T11:58:27.739Z,113676.399,1634990186,full,ni_sequenzen,NI_Sequenzen,2,2,,,,,,,,,,,,
,Move,canvas.Screen,0_3_0_2_0_2,right,response,,113653.29999995232,113637.6,113676.399,114085.29999995232,408.9009999523114,114086.39999997616,2021-10-23T11:58:28.180Z,114104.264,1634990186,full,ni_sequenzen,NI_Sequenzen,3,2,,,,,,,,,,,,
,Move,canvas.Screen,0_3_0_2_0_3,down,response,,114092.29999995232,114087.538,114104.264,114549.29999995232,445.0359999523207,114550.29999995232,2021-10-23T11:58:28.644Z,114637.534,1634990186,full,ni_sequenzen,NI_Sequenzen,4,2,,,,,,,,,,,,
,Move,canvas.Screen,0_3_0_2_0_4,-999,skipped,,114558.79999995232,,,114549.29999995232,,114559,2021-10-23T11:58:28.653Z,114637.534,1634990186,full,ni_sequenzen,NI_Sequenzen,5,2,,,,,,,,,,,,
,Move,canvas.Screen,0_3_0_2_0_5,-999,skipped,,114565.09999996424,,,114549.29999995232,,114565.29999995232,2021-10-23T11:58:28.659Z,114637.534,1634990186,full,ni_sequenzen,NI_Sequenzen,6,2,,,,,,,,,,,,
,Move,canvas.Screen,0_3_0_2_0_6,-999,skipped,,114571.29999995232,,,114549.29999995232,,114571.5,2021-10-23T11:58:28.665Z,114637.534,1634990186,full,ni_sequenzen,NI_Sequenzen,7,2,,,,,,,,,,,,
,Move,canvas.Screen,0_3_0_2_0_7,-999,skipped,,114579.09999996424,,,114549.29999995232,,114579.29999995232,2021-10-23T11:58:28.673Z,114637.534,1634990186,full,ni_sequenzen,NI_Sequenzen,8,2,,,,,,,,,,,,
,Move,canvas.Screen,0_3_0_2_0_8,-999,skipped,,114586.79999995232,,,114549.29999995232,,114587,2021-10-23T11:58:28.681Z,114637.534,1634990186,full,ni_sequenzen,NI_Sequenzen,9,2,,,,,,,,,,,,
,Move,canvas.Screen,0_3_0_2_0_9,-999,skipped,,114592.79999995232,,,114549.29999995232,,114593.09999996424,2021-10-23T11:58:28.687Z,114637.534,1634990186,full,ni_sequenzen,NI_Sequenzen,10,2,,,,,,,,,,,,
,Move,canvas.Screen,0_3_0_2_0_10,-999,skipped,,114601.09999996424,,,114549.29999995232,,114601.29999995232,2021-10-23T11:58:28.695Z,114637.534,1634990186,full,ni_sequenzen,NI_Sequenzen,11,2,,,,,,,,,,,,
,Move,canvas.Screen,0_3_0_2_0_11,-999,skipped,,114607.5,,,114549.29999995232,,114607.69999998808,2021-10-23T11:58:28.701Z,114637.534,1634990186,full,ni_sequenzen,NI_Sequenzen,12,2,,,,,,,,,,,,
,Move,canvas.Screen,0_3_0_2_0_12,-999,skipped,,114613.59999996424,,,114549.29999995232,,114613.79999995232,2021-10-23T11:58:28.707Z,114637.534,1634990186,full,ni_sequenzen,NI_Sequenzen,13,2,,,,,,,,,,,,
,Move,canvas.Screen,0_3_0_2_0_13,-999,skipped,,114619.79999995232,,,114549.29999995232,,114620,2021-10-23T11:58:28.714Z,114637.534,1634990186,full,ni_sequenzen,NI_Sequenzen,14,2,,,,,,,,,,,,
,Move,canvas.Screen,0_3_0_2_0_14,-999,skipped,,114628.69999998808,,,114549.29999995232,,114628.89999997616,2021-10-23T11:58:28.722Z,114637.534,1634990186,full,ni_sequenzen,NI_Sequenzen,15,2,,,,,,,,,,,,
,Loop,flow.Loop,0_3_0_2_0,-999,completion,,112029.19999998808,112020.85,112037.532,114549.29999995232,2511.7679999523098,114629.29999995232,2021-10-23T11:58:28.723Z,114637.534,1634990186,full,ni_sequenzen,NI_Sequenzen,,2,,,,,,,,,,,,
,Feedback,canvas.Screen,0_3_0_2_1,,timeout,,114634.09999996424,114620.871,114637.534,118620.886,4033.323000000004,118621.79999995232,2021-10-23T11:58:32.715Z,118670.857,1634990186,full,ni_sequenzen,NI_Sequenzen,,2,,,,,,,,,,,,
,Trial,flow.Sequence,0_3_0_2,,completion,,111989.29999995232,112020.85,112037.532,118620.886,6583.353999999992,118622.09999996424,2021-10-23T11:58:32.716Z,118687.537,1634990186,full,ni_sequenzen,NI_Sequenzen,,2,,,,,,,,,,,,
,Move,canvas.Screen,0_3_0_3_0_0,right,response,,118673.79999995232,118670.857,118687.537,120335.69999998808,1648.1629999880824,120337.19999998808,2021-10-23T11:58:34.431Z,120354.166,1634990186,full,ni_sequenzen,NI_Sequenzen,1,3,,,,,,,,,,,,
,Move,canvas.Screen,0_3_0_3_0_1,down,response,,120344.79999995232,120337.435,120354.166,121189.79999995232,835.6339999523188,121191.09999996424,2021-10-23T11:58:35.285Z,121204.177,1634990186,full,ni_sequenzen,NI_Sequenzen,2,3,,,,,,,,,,,,
,Move,canvas.Screen,0_3_0_3_0_2,down,response,,121197.29999995232,121187.601,121204.177,121790.39999997616,586.2229999761621,121791.39999997616,2021-10-23T11:58:35.885Z,121804.191,1634990186,full,ni_sequenzen,NI_Sequenzen,3,3,,,,,,,,,,,,
,Move,canvas.Screen,0_3_0_3_0_3,left,response,,121799,121787.624,121804.191,124075.69999998808,2271.508999988073,124076.69999998808,2021-10-23T11:58:38.170Z,124120.876,1634990186,full,ni_sequenzen,NI_Sequenzen,4,3,,,,,,,,,,,,
,Move,canvas.Screen,0_3_0_3_0_4,right,response,,124082,124070.908,124120.876,124913.79999995232,792.9239999523124,124915,2021-10-23T11:58:39.009Z,125004.205,1634990186,full,ni_sequenzen,NI_Sequenzen,5,3,,,,,,,,,,,,
,Move,canvas.Screen,0_3_0_3_0_5,-999,skipped,,124922.29999995232,,,124913.79999995232,,124922.69999998808,2021-10-23T11:58:39.016Z,125004.205,1634990186,full,ni_sequenzen,NI_Sequenzen,6,3,,,,,,,,,,,,
,Move,canvas.Screen,0_3_0_3_0_6,-999,skipped,,124929.79999995232,,,124913.79999995232,,124930,2021-10-23T11:58:39.024Z,125004.205,1634990186,full,ni_sequenzen,NI_Sequenzen,7,3,,,,,,,,,,,,
,Move,canvas.Screen,0_3_0_3_0_7,-999,skipped,,124936.39999997616,,,124913.79999995232,,124936.59999996424,2021-10-23T11:58:39.030Z,125004.205,1634990186,full,ni_sequenzen,NI_Sequenzen,8,3,,,,,,,,,,,,
,Move,canvas.Screen,0_3_0_3_0_8,-999,skipped,,124944.09999996424,,,124913.79999995232,,124944.29999995232,2021-10-23T11:58:39.038Z,125004.205,1634990186,full,ni_sequenzen,NI_Sequenzen,9,3,,,,,,,,,,,,
,Move,canvas.Screen,0_3_0_3_0_9,-999,skipped,,124950,,,124913.79999995232,,124950.29999995232,2021-10-23T11:58:39.044Z,125004.205,1634990186,full,ni_sequenzen,NI_Sequenzen,10,3,,,,,,,,,,,,
,Move,canvas.Screen,0_3_0_3_0_10,-999,skipped,,124956.19999998808,,,124913.79999995232,,124956.39999997616,2021-10-23T11:58:39.050Z,125004.205,1634990186,full,ni_sequenzen,NI_Sequenzen,11,3,,,,,,,,,,,,
,Move,canvas.Screen,0_3_0_3_0_11,-999,skipped,,124963.79999995232,,,124913.79999995232,,124964.09999996424,2021-10-23T11:58:39.058Z,125004.205,1634990186,full,ni_sequenzen,NI_Sequenzen,12,3,,,,,,,,,,,,
,Move,canvas.Screen,0_3_0_3_0_12,-999,skipped,,124969.69999998808,,,124913.79999995232,,124970,2021-10-23T11:58:39.064Z,125004.205,1634990186,full,ni_sequenzen,NI_Sequenzen,13,3,,,,,,,,,,,,
,Move,canvas.Screen,0_3_0_3_0_13,-999,skipped,,124975.59999996424,,,124913.79999995232,,124975.89999997616,2021-10-23T11:58:39.069Z,125004.205,1634990186,full,ni_sequenzen,NI_Sequenzen,14,3,,,,,,,,,,,,
,Move,canvas.Screen,0_3_0_3_0_14,-999,skipped,,124982.09999996424,,,124913.79999995232,,124982.29999995232,2021-10-23T11:58:39.076Z,125004.205,1634990186,full,ni_sequenzen,NI_Sequenzen,15,3,,,,,,,,,,,,
,Loop,flow.Loop,0_3_0_3_0,-999,completion,,118664.29999995232,118670.857,118687.537,124913.79999995232,6226.26299995232,124982.69999998808,2021-10-23T11:58:39.076Z,125004.205,1634990186,full,ni_sequenzen,NI_Sequenzen,,3,,,,,,,,,,,,
,Feedback,canvas.Screen,0_3_0_3_1,,timeout,,124989.89999997616,124987.503,125004.205,128987.56,4016.6589999999997,128988.39999997616,2021-10-23T11:58:43.082Z,129020.864,1634990186,full,ni_sequenzen,NI_Sequenzen,,3,,,,,,,,,,,,
,Trial,flow.Sequence,0_3_0_3,,completion,,118622.79999995232,118670.857,118687.537,128987.56,10300.023000000001,128988.69999998808,2021-10-23T11:58:43.082Z,129037.57,1634990186,full,ni_sequenzen,NI_Sequenzen,,3,,,,,,,,,,,,
,Move,canvas.Screen,0_3_0_4_0_0,down,response,,129035.39999997616,129020.864,129037.57,129064.59999996424,27.029999964230228,129065.89999997616,2021-10-23T11:58:43.159Z,129104.253,1634990186,full,ni_sequenzen,NI_Sequenzen,1,4,,,,,,,,,,,,
,Move,canvas.Screen,0_3_0_4_0_1,right,response,,129075,129087.597,129104.253,130784.09999996424,1679.8469999642402,130785,2021-10-23T11:58:44.879Z,130804.21,1634990186,full,ni_sequenzen,NI_Sequenzen,2,4,,,,,,,,,,,,
,Move,canvas.Screen,0_3_0_4_0_2,right,response,,130791.09999996424,130787.479,130804.21,131276.59999996424,472.3899999642308,131277.5,2021-10-23T11:58:45.371Z,131287.545,1634990186,full,ni_sequenzen,NI_Sequenzen,3,4,,,,,,,,,,,,
,Move,canvas.Screen,0_3_0_4_0_3,down,response,,131285.89999997616,131270.967,131287.545,132269.59999996424,982.0549999642244,132270.69999998808,2021-10-23T11:58:46.364Z,132370.856,1634990186,full,ni_sequenzen,NI_Sequenzen,4,4,,,,,,,,,,,,
,Move,canvas.Screen,0_3_0_4_0_4,-999,skipped,,132277.39999997616,,,132269.59999996424,,132277.69999998808,2021-10-23T11:58:46.371Z,132370.856,1634990186,full,ni_sequenzen,NI_Sequenzen,5,4,,,,,,,,,,,,
,Move,canvas.Screen,0_3_0_4_0_5,-999,skipped,,132285.69999998808,,,132269.59999996424,,132286,2021-10-23T11:58:46.380Z,132370.856,1634990186,full,ni_sequenzen,NI_Sequenzen,6,4,,,,,,,,,,,,
,Move,canvas.Screen,0_3_0_4_0_6,-999,skipped,,132296.69999998808,,,132269.59999996424,,132297.19999998808,2021-10-23T11:58:46.391Z,132370.856,1634990186,full,ni_sequenzen,NI_Sequenzen,7,4,,,,,,,,,,,,
,Move,canvas.Screen,0_3_0_4_0_7,-999,skipped,,132305.39999997616,,,132269.59999996424,,132305.59999996424,2021-10-23T11:58:46.399Z,132370.856,1634990186,full,ni_sequenzen,NI_Sequenzen,8,4,,,,,,,,,,,,
,Move,canvas.Screen,0_3_0_4_0_8,-999,skipped,,132311.19999998808,,,132269.59999996424,,132311.39999997616,2021-10-23T11:58:46.405Z,132370.856,1634990186,full,ni_sequenzen,NI_Sequenzen,9,4,,,,,,,,,,,,
,Move,canvas.Screen,0_3_0_4_0_9,-999,skipped,,132318.09999996424,,,132269.59999996424,,132318.29999995232,2021-10-23T11:58:46.412Z,132370.856,1634990186,full,ni_sequenzen,NI_Sequenzen,10,4,,,,,,,,,,,,
,Move,canvas.Screen,0_3_0_4_0_10,-999,skipped,,132327.09999996424,,,132269.59999996424,,132327.39999997616,2021-10-23T11:58:46.421Z,132370.856,1634990186,full,ni_sequenzen,NI_Sequenzen,11,4,,,,,,,,,,,,
,Move,canvas.Screen,0_3_0_4_0_11,-999,skipped,,132333.19999998808,,,132269.59999996424,,132333.39999997616,2021-10-23T11:58:46.427Z,132370.856,1634990186,full,ni_sequenzen,NI_Sequenzen,12,4,,,,,,,,,,,,
,Move,canvas.Screen,0_3_0_4_0_12,-999,skipped,,132339,,,132269.59999996424,,132339.09999996424,2021-10-23T11:58:46.433Z,132370.856,1634990186,full,ni_sequenzen,NI_Sequenzen,13,4,,,,,,,,,,,,
,Move,canvas.Screen,0_3_0_4_0_13,-999,skipped,,132344.89999997616,,,132269.59999996424,,132345.19999998808,2021-10-23T11:58:46.439Z,132370.856,1634990186,full,ni_sequenzen,NI_Sequenzen,14,4,,,,,,,,,,,,
,Move,canvas.Screen,0_3_0_4_0_14,-999,skipped,,132352.09999996424,,,132269.59999996424,,132352.39999997616,2021-10-23T11:58:46.446Z,132370.856,1634990186,full,ni_sequenzen,NI_Sequenzen,15,4,,,,,,,,,,,,
,Loop,flow.Loop,0_3_0_4_0,-999,completion,,129026.19999998808,129020.864,129037.57,132269.59999996424,3232.0299999642302,132352.79999995232,2021-10-23T11:58:46.446Z,132370.856,1634990186,full,ni_sequenzen,NI_Sequenzen,,4,,,,,,,,,,,,
,Feedback,canvas.Screen,0_3_0_4_1,,timeout,,132357.59999996424,132354.186,132370.856,136354.186,4050.027000000002,136355.09999996424,2021-10-23T11:58:50.449Z,136420.883,1634990186,full,ni_sequenzen,NI_Sequenzen,,4,,,,,,,,,,,,
,Trial,flow.Sequence,0_3_0_4,,completion,,128989.39999997616,129020.864,129037.57,136354.186,7316.61599999998,136355.5,2021-10-23T11:58:50.449Z,136437.516,1634990186,full,ni_sequenzen,NI_Sequenzen,,4,,,,,,,,,,,,
,Move,canvas.Screen,0_3_0_5_0_0,right,response,,136422,136420.883,136437.516,137588.19999998808,1150.6839999880758,137589.29999995232,2021-10-23T11:58:51.683Z,137604.209,1634990186,full,ni_sequenzen,NI_Sequenzen,1,5,,,,,,,,,,,,
,Move,canvas.Screen,0_3_0_5_0_1,down,response,,137596.19999998808,137587.489,137604.209,138257.29999995232,653.0909999523137,138258.29999995232,2021-10-23T11:58:52.352Z,138270.869,1634990186,full,ni_sequenzen,NI_Sequenzen,2,5,,,,,,,,,,,,
,Move,canvas.Screen,0_3_0_5_0_2,left,response,,138266.19999998808,138254.415,138270.869,139519,1248.130999999994,139519.89999997616,2021-10-23T11:58:53.613Z,139554.207,1634990186,full,ni_sequenzen,NI_Sequenzen,3,5,,,,,,,,,,,,
,Move,canvas.Screen,0_3_0_5_0_3,down,response,,139526.59999996424,139520.893,139554.207,140366.39999997616,812.1929999761633,140367.39999997616,2021-10-23T11:58:54.461Z,140387.603,1634990186,full,ni_sequenzen,NI_Sequenzen,4,5,,,,,,,,,,,,
,Move,canvas.Screen,0_3_0_5_0_4,left,response,,140373.89999997616,140370.847,140387.603,141333.69999998808,946.0969999880763,141334.59999996424,2021-10-23T11:58:55.428Z,141420.937,1634990186,full,ni_sequenzen,NI_Sequenzen,5,5,,,,,,,,,,,,
,Move,canvas.Screen,0_3_0_5_0_5,-999,skipped,,141340.69999998808,,,141333.69999998808,,141341,2021-10-23T11:58:55.435Z,141420.937,1634990186,full,ni_sequenzen,NI_Sequenzen,6,5,,,,,,,,,,,,
,Move,canvas.Screen,0_3_0_5_0_6,-999,skipped,,141346.79999995232,,,141333.69999998808,,141347.09999996424,2021-10-23T11:58:55.441Z,141420.937,1634990186,full,ni_sequenzen,NI_Sequenzen,7,5,,,,,,,,,,,,
,Move,canvas.Screen,0_3_0_5_0_7,-999,skipped,,141354.89999997616,,,141333.69999998808,,141355.19999998808,2021-10-23T11:58:55.449Z,141420.937,1634990186,full,ni_sequenzen,NI_Sequenzen,8,5,,,,,,,,,,,,
,Move,canvas.Screen,0_3_0_5_0_8,-999,skipped,,141360.79999995232,,,141333.69999998808,,141361.09999996424,2021-10-23T11:58:55.455Z,141420.937,1634990186,full,ni_sequenzen,NI_Sequenzen,9,5,,,,,,,,,,,,
,Move,canvas.Screen,0_3_0_5_0_9,-999,skipped,,141367.59999996424,,,141333.69999998808,,141367.79999995232,2021-10-23T11:58:55.461Z,141420.937,1634990186,full,ni_sequenzen,NI_Sequenzen,10,5,,,,,,,,,,,,
,Move,canvas.Screen,0_3_0_5_0_10,-999,skipped,,141375.59999996424,,,141333.69999998808,,141375.89999997616,2021-10-23T11:58:55.469Z,141420.937,1634990186,full,ni_sequenzen,NI_Sequenzen,11,5,,,,,,,,,,,,
,Move,canvas.Screen,0_3_0_5_0_11,-999,skipped,,141381.39999997616,,,141333.69999998808,,141381.69999998808,2021-10-23T11:58:55.475Z,141420.937,1634990186,full,ni_sequenzen,NI_Sequenzen,12,5,,,,,,,,,,,,
,Move,canvas.Screen,0_3_0_5_0_12,-999,skipped,,141387.29999995232,,,141333.69999998808,,141387.59999996424,2021-10-23T11:58:55.481Z,141420.937,1634990186,full,ni_sequenzen,NI_Sequenzen,13,5,,,,,,,,,,,,
,Move,canvas.Screen,0_3_0_5_0_13,-999,skipped,,141393.39999997616,,,141333.69999998808,,141393.69999998808,2021-10-23T11:58:55.487Z,141420.937,1634990186,full,ni_sequenzen,NI_Sequenzen,14,5,,,,,,,,,,,,
,Move,canvas.Screen,0_3_0_5_0_14,-999,skipped,,141400.5,,,141333.69999998808,,141400.69999998808,2021-10-23T11:58:55.494Z,141420.937,1634990186,full,ni_sequenzen,NI_Sequenzen,15,5,,,,,,,,,,,,
,Loop,flow.Loop,0_3_0_5_0,-999,completion,,136414.39999997616,136420.883,136437.516,141333.69999998808,4896.183999988076,141401.09999996424,2021-10-23T11:58:55.495Z,141420.937,1634990186,full,ni_sequenzen,NI_Sequenzen,,5,,,,,,,,,,,,
,Feedback,canvas.Screen,0_3_0_5_1,,timeout,,141406.09999996424,141404.166,141420.937,145404.273,4033.3040000000037,145405.19999998808,2021-10-23T11:58:59.499Z,145454.241,1634990186,full,ni_sequenzen,NI_Sequenzen,,5,,,,,,,,,,,,
,Trial,flow.Sequence,0_3_0_5,,completion,,136356.19999998808,136420.883,136437.516,145404.273,8966.756999999983,145405.5,2021-10-23T11:58:59.499Z,145470.915,1634990186,full,ni_sequenzen,NI_Sequenzen,,5,,,,,,,,,,,,
,Move,canvas.Screen,0_3_0_6_0_0,right,response,,145455.89999997616,145454.241,145470.915,147550.29999995232,2079.384999952308,147552.19999998808,2021-10-23T11:59:01.646Z,147570.874,1634990186,full,ni_sequenzen,NI_Sequenzen,1,6,,,,,,,,,,,,
,Move,canvas.Screen,0_3_0_6_0_1,down,response,,147567,147554.114,147570.874,148034.09999996424,463.2259999642265,148035.09999996424,2021-10-23T11:59:02.129Z,148054.257,1634990186,full,ni_sequenzen,NI_Sequenzen,2,6,,,,,,,,,,,,
,Move,canvas.Screen,0_3_0_6_0_2,right,response,,148040.89999997616,148037.576,148054.257,148440.69999998808,386.44299998806673,148441.59999996424,2021-10-23T11:59:02.535Z,148487.554,1634990186,full,ni_sequenzen,NI_Sequenzen,3,6,,,,,,,,,,,,
,Move,canvas.Screen,0_3_0_6_0_3,down,response,,148447.89999997616,148437.59,148487.554,148853.69999998808,366.14599998807535,148854.79999995232,2021-10-23T11:59:02.948Z,148937.562,1634990186,full,ni_sequenzen,NI_Sequenzen,4,6,,,,,,,,,,,,
,Move,canvas.Screen,0_3_0_6_0_4,-999,skipped,,148861.39999997616,,,148853.69999998808,,148861.79999995232,2021-10-23T11:59:02.955Z,148937.562,1634990186,full,ni_sequenzen,NI_Sequenzen,5,6,,,,,,,,,,,,
,Move,canvas.Screen,0_3_0_6_0_5,-999,skipped,,148868.69999998808,,,148853.69999998808,,148869,2021-10-23T11:59:02.963Z,148937.562,1634990186,full,ni_sequenzen,NI_Sequenzen,6,6,,,,,,,,,,,,
,Move,canvas.Screen,0_3_0_6_0_6,-999,skipped,,148875.09999996424,,,148853.69999998808,,148875.29999995232,2021-10-23T11:59:02.969Z,148937.562,1634990186,full,ni_sequenzen,NI_Sequenzen,7,6,,,,,,,,,,,,
,Move,canvas.Screen,0_3_0_6_0_7,-999,skipped,,148882.39999997616,,,148853.69999998808,,148882.69999998808,2021-10-23T11:59:02.976Z,148937.562,1634990186,full,ni_sequenzen,NI_Sequenzen,8,6,,,,,,,,,,,,
,Move,canvas.Screen,0_3_0_6_0_8,-999,skipped,,148888.39999997616,,,148853.69999998808,,148888.59999996424,2021-10-23T11:59:02.982Z,148937.562,1634990186,full,ni_sequenzen,NI_Sequenzen,9,6,,,,,,,,,,,,
,Move,canvas.Screen,0_3_0_6_0_9,-999,skipped,,148894.19999998808,,,148853.69999998808,,148894.5,2021-10-23T11:59:02.988Z,148937.562,1634990186,full,ni_sequenzen,NI_Sequenzen,10,6,,,,,,,,,,,,
,Move,canvas.Screen,0_3_0_6_0_10,-999,skipped,,148901.69999998808,,,148853.69999998808,,148902,2021-10-23T11:59:02.996Z,148937.562,1634990186,full,ni_sequenzen,NI_Sequenzen,11,6,,,,,,,,,,,,
,Move,canvas.Screen,0_3_0_6_0_11,-999,skipped,,148907.79999995232,,,148853.69999998808,,148908,2021-10-23T11:59:03.002Z,148937.562,1634990186,full,ni_sequenzen,NI_Sequenzen,12,6,,,,,,,,,,,,
,Move,canvas.Screen,0_3_0_6_0_12,-999,skipped,,148913.69999998808,,,148853.69999998808,,148913.79999995232,2021-10-23T11:59:03.007Z,148937.562,1634990186,full,ni_sequenzen,NI_Sequenzen,13,6,,,,,,,,,,,,
,Move,canvas.Screen,0_3_0_6_0_13,-999,skipped,,148920.69999998808,,,148853.69999998808,,148921,2021-10-23T11:59:03.015Z,148937.562,1634990186,full,ni_sequenzen,NI_Sequenzen,14,6,,,,,,,,,,,,
,Move,canvas.Screen,0_3_0_6_0_14,-999,skipped,,148926.79999995232,,,148853.69999998808,,148927,2021-10-23T11:59:03.021Z,148937.562,1634990186,full,ni_sequenzen,NI_Sequenzen,15,6,,,,,,,,,,,,
,Loop,flow.Loop,0_3_0_6_0,-999,completion,,145445.29999995232,145454.241,145470.915,148853.69999998808,3382.784999988071,148927.39999997616,2021-10-23T11:59:03.021Z,148937.562,1634990186,full,ni_sequenzen,NI_Sequenzen,,6,,,,,,,,,,,,
,Feedback,canvas.Screen,0_3_0_6_1,,timeout,,148932.09999996424,148920.859,148937.562,152920.925,4066.665000000008,152921.89999997616,2021-10-23T11:59:07.015Z,153004.227,1634990186,full,ni_sequenzen,NI_Sequenzen,,6,,,,,,,,,,,,
,Trial,flow.Sequence,0_3_0_6,,completion,,145406.5,145454.241,145470.915,152920.925,7450.00999999998,152922.09999996424,2021-10-23T11:59:07.016Z,153020.91,1634990186,full,ni_sequenzen,NI_Sequenzen,,6,,,,,,,,,,,,
,Move,canvas.Screen,0_3_0_7_0_0,right,response,,153016.39999997616,153004.227,153020.91,154249.79999995232,1228.8899999523128,154250.79999995232,2021-10-23T11:59:08.344Z,154270.92,1634990186,full,ni_sequenzen,NI_Sequenzen,1,7,,,,,,,,,,,,
,Move,canvas.Screen,0_3_0_7_0_1,down,response,,154256.5,154254.188,154270.92,154642.29999995232,371.3799999523035,154643.69999998808,2021-10-23T11:59:08.737Z,154654.225,1634990186,full,ni_sequenzen,NI_Sequenzen,2,7,,,,,,,,,,,,
,Move,canvas.Screen,0_3_0_7_0_2,right,response,,154650,154637.583,154654.225,155020.59999996424,366.3749999642314,155021.69999998808,2021-10-23T11:59:09.115Z,155037.576,1634990186,full,ni_sequenzen,NI_Sequenzen,3,7,,,,,,,,,,,,
,Move,canvas.Screen,0_3_0_7_0_3,down,response,,155027.29999995232,155020.99,155037.576,155384.89999997616,347.3239999761572,155386,2021-10-23T11:59:09.479Z,155537.557,1634990186,full,ni_sequenzen,NI_Sequenzen,4,7,,,,,,,,,,,,
,Move,canvas.Screen,0_3_0_7_0_4,-999,skipped,,155392.89999997616,,,155384.89999997616,,155393.19999998808,2021-10-23T11:59:09.486Z,155537.557,1634990186,full,ni_sequenzen,NI_Sequenzen,5,7,,,,,,,,,,,,
,Move,canvas.Screen,0_3_0_7_0_5,-999,skipped,,155398.19999998808,,,155384.89999997616,,155398.5,2021-10-23T11:59:09.492Z,155537.557,1634990186,full,ni_sequenzen,NI_Sequenzen,6,7,,,,,,,,,,,,
,Move,canvas.Screen,0_3_0_7_0_6,-999,skipped,,155404,,,155384.89999997616,,155404.19999998808,2021-10-23T11:59:09.497Z,155537.557,1634990186,full,ni_sequenzen,NI_Sequenzen,7,7,,,,,,,,,,,,
,Move,canvas.Screen,0_3_0_7_0_7,-999,skipped,,155411.39999997616,,,155384.89999997616,,155411.59999996424,2021-10-23T11:59:09.505Z,155537.557,1634990186,full,ni_sequenzen,NI_Sequenzen,8,7,,,,,,,,,,,,
,Move,canvas.Screen,0_3_0_7_0_8,-999,skipped,,155417.19999998808,,,155384.89999997616,,155417.39999997616,2021-10-23T11:59:09.511Z,155537.557,1634990186,full,ni_sequenzen,NI_Sequenzen,9,7,,,,,,,,,,,,
,Move,canvas.Screen,0_3_0_7_0_9,-999,skipped,,155422.89999997616,,,155384.89999997616,,155423.19999998808,2021-10-23T11:59:09.516Z,155537.557,1634990186,full,ni_sequenzen,NI_Sequenzen,10,7,,,,,,,,,,,,
,Move,canvas.Screen,0_3_0_7_0_10,-999,skipped,,155431.5,,,155384.89999997616,,155431.69999998808,2021-10-23T11:59:09.525Z,155537.557,1634990186,full,ni_sequenzen,NI_Sequenzen,11,7,,,,,,,,,,,,
,Move,canvas.Screen,0_3_0_7_0_11,-999,skipped,,155440.09999996424,,,155384.89999997616,,155440.5,2021-10-23T11:59:09.534Z,155537.557,1634990186,full,ni_sequenzen,NI_Sequenzen,12,7,,,,,,,,,,,,
,Move,canvas.Screen,0_3_0_7_0_12,-999,skipped,,155449,,,155384.89999997616,,155449.19999998808,2021-10-23T11:59:09.543Z,155537.557,1634990186,full,ni_sequenzen,NI_Sequenzen,13,7,,,,,,,,,,,,
,Move,canvas.Screen,0_3_0_7_0_13,-999,skipped,,155458,,,155384.89999997616,,155458.29999995232,2021-10-23T11:59:09.552Z,155537.557,1634990186,full,ni_sequenzen,NI_Sequenzen,14,7,,,,,,,,,,,,
,Move,canvas.Screen,0_3_0_7_0_14,-999,skipped,,155468.29999995232,,,155384.89999997616,,155468.5,2021-10-23T11:59:09.562Z,155537.557,1634990186,full,ni_sequenzen,NI_Sequenzen,15,7,,,,,,,,,,,,
,Loop,flow.Loop,0_3_0_7_0,-999,completion,,152968.79999995232,153004.227,153020.91,155384.89999997616,2363.9899999761546,155468.89999997616,2021-10-23T11:59:09.562Z,155537.557,1634990186,full,ni_sequenzen,NI_Sequenzen,,7,,,,,,,,,,,,
,Feedback,canvas.Screen,0_3_0_7_1,,timeout,,155476.09999996424,155470.984,155537.557,159520.917,4016.6570000000065,159521.79999995232,2021-10-23T11:59:13.615Z,159554.214,1634990186,full,ni_sequenzen,NI_Sequenzen,,7,,,,,,,,,,,,
,Trial,flow.Sequence,0_3_0_7,,completion,,152922.89999997616,153004.227,153020.91,159520.917,6500.006999999983,159522.09999996424,2021-10-23T11:59:13.615Z,159570.88,1634990186,full,ni_sequenzen,NI_Sequenzen,,7,,,,,,,,,,,,
,Move,canvas.Screen,0_3_0_8_0_0,down,response,,159568.19999998808,159554.214,159570.88,160469.09999996424,898.2199999642326,160470.09999996424,2021-10-23T11:59:14.563Z,160487.548,1634990186,full,ni_sequenzen,NI_Sequenzen,1,8,,,,,,,,,,,,
,Move,canvas.Screen,0_3_0_8_0_1,right,response,,160478.59999996424,160470.943,160487.548,161899.59999996424,1412.0519999642274,161900.5,2021-10-23T11:59:15.994Z,161920.977,1634990186,full,ni_sequenzen,NI_Sequenzen,2,8,,,,,,,,,,,,
,Move,canvas.Screen,0_3_0_8_0_2,right,response,,161907.29999995232,161904.283,161920.977,162468.09999996424,547.1229999642237,162469.09999996424,2021-10-23T11:59:16.562Z,162487.662,1634990186,full,ni_sequenzen,NI_Sequenzen,3,8,,,,,,,,,,,,
,Move,canvas.Screen,0_3_0_8_0_3,down,response,,162475.09999996424,162470.964,162487.662,162913.19999998808,425.5379999880679,162914.39999997616,2021-10-23T11:59:17.008Z,163037.554,1634990186,full,ni_sequenzen,NI_Sequenzen,4,8,,,,,,,,,,,,
,Move,canvas.Screen,0_3_0_8_0_4,-999,skipped,,162922.5,,,162913.19999998808,,162922.79999995232,2021-10-23T11:59:17.016Z,163037.554,1634990186,full,ni_sequenzen,NI_Sequenzen,5,8,,,,,,,,,,,,
,Move,canvas.Screen,0_3_0_8_0_5,-999,skipped,,162928.59999996424,,,162913.19999998808,,162928.79999995232,2021-10-23T11:59:17.022Z,163037.554,1634990186,full,ni_sequenzen,NI_Sequenzen,6,8,,,,,,,,,,,,
,Move,canvas.Screen,0_3_0_8_0_6,-999,skipped,,162934.39999997616,,,162913.19999998808,,162934.59999996424,2021-10-23T11:59:17.028Z,163037.554,1634990186,full,ni_sequenzen,NI_Sequenzen,7,8,,,,,,,,,,,,
,Move,canvas.Screen,0_3_0_8_0_7,-999,skipped,,162942,,,162913.19999998808,,162942.29999995232,2021-10-23T11:59:17.036Z,163037.554,1634990186,full,ni_sequenzen,NI_Sequenzen,8,8,,,,,,,,,,,,
,Move,canvas.Screen,0_3_0_8_0_8,-999,skipped,,162948,,,162913.19999998808,,162948.29999995232,2021-10-23T11:59:17.041Z,163037.554,1634990186,full,ni_sequenzen,NI_Sequenzen,9,8,,,,,,,,,,,,
,Move,canvas.Screen,0_3_0_8_0_9,-999,skipped,,162955.79999995232,,,162913.19999998808,,162956.09999996424,2021-10-23T11:59:17.049Z,163037.554,1634990186,full,ni_sequenzen,NI_Sequenzen,10,8,,,,,,,,,,,,
,Move,canvas.Screen,0_3_0_8_0_10,-999,skipped,,162963.89999997616,,,162913.19999998808,,162964,2021-10-23T11:59:17.057Z,163037.554,1634990186,full,ni_sequenzen,NI_Sequenzen,11,8,,,,,,,,,,,,
,Move,canvas.Screen,0_3_0_8_0_11,-999,skipped,,162970,,,162913.19999998808,,162970.29999995232,2021-10-23T11:59:17.063Z,163037.554,1634990186,full,ni_sequenzen,NI_Sequenzen,12,8,,,,,,,,,,,,
,Move,canvas.Screen,0_3_0_8_0_12,-999,skipped,,162976.5,,,162913.19999998808,,162976.79999995232,2021-10-23T11:59:17.070Z,163037.554,1634990186,full,ni_sequenzen,NI_Sequenzen,13,8,,,,,,,,,,,,
,Move,canvas.Screen,0_3_0_8_0_13,-999,skipped,,162984,,,162913.19999998808,,162984.39999997616,2021-10-23T11:59:17.078Z,163037.554,1634990186,full,ni_sequenzen,NI_Sequenzen,14,8,,,,,,,,,,,,
,Move,canvas.Screen,0_3_0_8_0_14,-999,skipped,,162991.89999997616,,,162913.19999998808,,162992.19999998808,2021-10-23T11:59:17.085Z,163037.554,1634990186,full,ni_sequenzen,NI_Sequenzen,15,8,,,,,,,,,,,,
