meta,sender,sender_type,sender_id,response,ended_on,instrCount,time_run,time_render,time_show,time_end,duration,time_commit,timestamp,time_switch,openLabId,type,task,project,move,trialN,blockN_Train,blockN,moveCount,currPP,points,movesTrial,visitedFields,diff,reward,Strategie,Zweck,Probleme
[object Object],Screen_1,canvas.Screen,0_0_0_0,cont,response,1,693,694.08,742.6,10063,9320.4,10077,2021-10-22T20:17:28.586Z,10181.28,1634933833,full,ni_sequenzen,NI_Sequenzen,,,,,,,,,,,,,,
,Screen_2,canvas.Screen,0_0_0_1,cont,response,1,10178,10178.2,10181.28,17409,7227.719999999999,17422,2021-10-22T20:17:35.931Z,17498.8,1634933833,full,ni_sequenzen,NI_Sequenzen,,,,,,,,,,,,,,
,Screen_3,canvas.Screen,0_0_0_2,cont,response,1,17497,17497.7,17498.8,37710,20211.2,37721,2021-10-22T20:17:56.232Z,37737.84,1634933833,full,ni_sequenzen,NI_Sequenzen,,,,,,,,,,,,,,
,Screen_4,canvas.Screen,0_0_0_3,cont,response,1,37724,37724.18,37737.84,42049,4311.1600000000035,42061,2021-10-22T20:18:00.571Z,42234.56,1634933833,full,ni_sequenzen,NI_Sequenzen,,,,,,,,,,,,,,
,Sequence,flow.Sequence,0_0_0,,completion,1,632,694.08,742.6,42049,41306.4,42061,2021-10-22T20:18:00.571Z,42234.56,1634933833,full,ni_sequenzen,NI_Sequenzen,,,,,,,,,,,,,,
,Screen_1,canvas.Screen,0_0_1_0,,skipped,2,42063,,,42063,,42063,2021-10-22T20:18:00.574Z,42234.56,1634933833,full,ni_sequenzen,NI_Sequenzen,,,,,,,,,,,,,,
,Screen_2,canvas.Screen,0_0_1_1,,skipped,2,42065,,,42063,,42066,2021-10-22T20:18:00.576Z,42234.56,1634933833,full,ni_sequenzen,NI_Sequenzen,,,,,,,,,,,,,,
,Screen_3,canvas.Screen,0_0_1_2,,skipped,2,42068,,,42063,,42068,2021-10-22T20:18:00.579Z,42234.56,1634933833,full,ni_sequenzen,NI_Sequenzen,,,,,,,,,,,,,,
,Screen_4,canvas.Screen,0_0_1_3,,skipped,2,42072,,,42063,,42072,2021-10-22T20:18:00.582Z,42234.56,1634933833,full,ni_sequenzen,NI_Sequenzen,,,,,,,,,,,,,,
,Sequence,flow.Sequence,0_0_1,,completion,2,42062,,,42063,,42073,2021-10-22T20:18:00.582Z,42234.56,1634933833,full,ni_sequenzen,NI_Sequenzen,,,,,,,,,,,,,,
,Screen_1,canvas.Screen,0_0_2_0,,skipped,3,42075,,,42075,,42075,2021-10-22T20:18:00.585Z,42234.56,1634933833,full,ni_sequenzen,NI_Sequenzen,,,,,,,,,,,,,,
,Screen_2,canvas.Screen,0_0_2_1,,skipped,3,42079,,,42075,,42079,2021-10-22T20:18:00.590Z,42234.56,1634933833,full,ni_sequenzen,NI_Sequenzen,,,,,,,,,,,,,,
,Screen_3,canvas.Screen,0_0_2_2,,skipped,3,42082,,,42075,,42082,2021-10-22T20:18:00.592Z,42234.56,1634933833,full,ni_sequenzen,NI_Sequenzen,,,,,,,,,,,,,,
,Screen_4,canvas.Screen,0_0_2_3,,skipped,3,42083,,,42075,,42083,2021-10-22T20:18:00.594Z,42234.56,1634933833,full,ni_sequenzen,NI_Sequenzen,,,,,,,,,,,,,,
,Sequence,flow.Sequence,0_0_2,,completion,3,42073,,,42075,,42083,2021-10-22T20:18:00.594Z,42234.56,1634933833,full,ni_sequenzen,NI_Sequenzen,,,,,,,,,,,,,,
,Screen_1,canvas.Screen,0_0_3_0,,skipped,4,42086,,,42086,,42086,2021-10-22T20:18:00.596Z,42234.56,1634933833,full,ni_sequenzen,NI_Sequenzen,,,,,,,,,,,,,,
,Screen_2,canvas.Screen,0_0_3_1,,skipped,4,42087,,,42086,,42087,2021-10-22T20:18:00.598Z,42234.56,1634933833,full,ni_sequenzen,NI_Sequenzen,,,,,,,,,,,,,,
,Screen_3,canvas.Screen,0_0_3_2,,skipped,4,42089,,,42086,,42089,2021-10-22T20:18:00.600Z,42234.56,1634933833,full,ni_sequenzen,NI_Sequenzen,,,,,,,,,,,,,,
,Screen_4,canvas.Screen,0_0_3_3,,skipped,4,42091,,,42086,,42091,2021-10-22T20:18:00.602Z,42234.56,1634933833,full,ni_sequenzen,NI_Sequenzen,,,,,,,,,,,,,,
,Sequence,flow.Sequence,0_0_3,,completion,4,42084,,,42086,,42091,2021-10-22T20:18:00.602Z,42234.56,1634933833,full,ni_sequenzen,NI_Sequenzen,,,,,,,,,,,,,,
,Screen_1,canvas.Screen,0_0_4_0,,skipped,5,42095,,,42095,,42095,2021-10-22T20:18:00.606Z,42234.56,1634933833,full,ni_sequenzen,NI_Sequenzen,,,,,,,,,,,,,,
,Screen_2,canvas.Screen,0_0_4_1,,skipped,5,42096,,,42095,,42096,2021-10-22T20:18:00.607Z,42234.56,1634933833,full,ni_sequenzen,NI_Sequenzen,,,,,,,,,,,,,,
,Screen_3,canvas.Screen,0_0_4_2,,skipped,5,42098,,,42095,,42098,2021-10-22T20:18:00.609Z,42234.56,1634933833,full,ni_sequenzen,NI_Sequenzen,,,,,,,,,,,,,,
,Screen_4,canvas.Screen,0_0_4_3,,skipped,5,42101,,,42095,,42101,2021-10-22T20:18:00.611Z,42234.56,1634933833,full,ni_sequenzen,NI_Sequenzen,,,,,,,,,,,,,,
,Sequence,flow.Sequence,0_0_4,,completion,5,42092,,,42095,,42101,2021-10-22T20:18:00.611Z,42234.56,1634933833,full,ni_sequenzen,NI_Sequenzen,,,,,,,,,,,,,,
,Screen_1,canvas.Screen,0_0_5_0,,skipped,6,42103,,,42103,,42103,2021-10-22T20:18:00.613Z,42234.56,1634933833,full,ni_sequenzen,NI_Sequenzen,,,,,,,,,,,,,,
,Screen_2,canvas.Screen,0_0_5_1,,skipped,6,42106,,,42103,,42106,2021-10-22T20:18:00.616Z,42234.56,1634933833,full,ni_sequenzen,NI_Sequenzen,,,,,,,,,,,,,,
,Screen_3,canvas.Screen,0_0_5_2,,skipped,6,42108,,,42103,,42108,2021-10-22T20:18:00.618Z,42234.56,1634933833,full,ni_sequenzen,NI_Sequenzen,,,,,,,,,,,,,,
,Screen_4,canvas.Screen,0_0_5_3,,skipped,6,42110,,,42103,,42110,2021-10-22T20:18:00.620Z,42234.56,1634933833,full,ni_sequenzen,NI_Sequenzen,,,,,,,,,,,,,,
,Sequence,flow.Sequence,0_0_5,,completion,6,42101,,,42103,,42110,2021-10-22T20:18:00.620Z,42234.56,1634933833,full,ni_sequenzen,NI_Sequenzen,,,,,,,,,,,,,,
,Screen_1,canvas.Screen,0_0_6_0,,skipped,7,42112,,,42112,,42112,2021-10-22T20:18:00.622Z,42234.56,1634933833,full,ni_sequenzen,NI_Sequenzen,,,,,,,,,,,,,,
,Screen_2,canvas.Screen,0_0_6_1,,skipped,7,42114,,,42112,,42114,2021-10-22T20:18:00.625Z,42234.56,1634933833,full,ni_sequenzen,NI_Sequenzen,,,,,,,,,,,,,,
,Screen_3,canvas.Screen,0_0_6_2,,skipped,7,42117,,,42112,,42117,2021-10-22T20:18:00.626Z,42234.56,1634933833,full,ni_sequenzen,NI_Sequenzen,,,,,,,,,,,,,,
,Screen_4,canvas.Screen,0_0_6_3,,skipped,7,42118,,,42112,,42118,2021-10-22T20:18:00.628Z,42234.56,1634933833,full,ni_sequenzen,NI_Sequenzen,,,,,,,,,,,,,,
,Sequence,flow.Sequence,0_0_6,,completion,7,42111,,,42112,,42118,2021-10-22T20:18:00.628Z,42234.56,1634933833,full,ni_sequenzen,NI_Sequenzen,,,,,,,,,,,,,,
,Screen_1,canvas.Screen,0_0_7_0,,skipped,8,42121,,,42121,,42121,2021-10-22T20:18:00.631Z,42234.56,1634933833,full,ni_sequenzen,NI_Sequenzen,,,,,,,,,,,,,,
,Screen_2,canvas.Screen,0_0_7_1,,skipped,8,42122,,,42121,,42123,2021-10-22T20:18:00.633Z,42234.56,1634933833,full,ni_sequenzen,NI_Sequenzen,,,,,,,,,,,,,,
,Screen_3,canvas.Screen,0_0_7_2,,skipped,8,42123,,,42121,,42124,2021-10-22T20:18:00.634Z,42234.56,1634933833,full,ni_sequenzen,NI_Sequenzen,,,,,,,,,,,,,,
,Screen_4,canvas.Screen,0_0_7_3,,skipped,8,42128,,,42121,,42128,2021-10-22T20:18:00.638Z,42234.56,1634933833,full,ni_sequenzen,NI_Sequenzen,,,,,,,,,,,,,,
,Sequence,flow.Sequence,0_0_7,,completion,8,42120,,,42121,,42128,2021-10-22T20:18:00.638Z,42234.56,1634933833,full,ni_sequenzen,NI_Sequenzen,,,,,,,,,,,,,,
,Screen_1,canvas.Screen,0_0_8_0,,skipped,9,42130,,,42130,,42130,2021-10-22T20:18:00.640Z,42234.56,1634933833,full,ni_sequenzen,NI_Sequenzen,,,,,,,,,,,,,,
,Screen_2,canvas.Screen,0_0_8_1,,skipped,9,42131,,,42130,,42131,2021-10-22T20:18:00.641Z,42234.56,1634933833,full,ni_sequenzen,NI_Sequenzen,,,,,,,,,,,,,,
,Screen_3,canvas.Screen,0_0_8_2,,skipped,9,42132,,,42130,,42133,2021-10-22T20:18:00.643Z,42234.56,1634933833,full,ni_sequenzen,NI_Sequenzen,,,,,,,,,,,,,,
,Screen_4,canvas.Screen,0_0_8_3,,skipped,9,42135,,,42130,,42135,2021-10-22T20:18:00.645Z,42234.56,1634933833,full,ni_sequenzen,NI_Sequenzen,,,,,,,,,,,,,,
,Sequence,flow.Sequence,0_0_8,,completion,9,42129,,,42130,,42135,2021-10-22T20:18:00.645Z,42234.56,1634933833,full,ni_sequenzen,NI_Sequenzen,,,,,,,,,,,,,,
,Screen_1,canvas.Screen,0_0_9_0,,skipped,10,42137,,,42137,,42137,2021-10-22T20:18:00.647Z,42234.56,1634933833,full,ni_sequenzen,NI_Sequenzen,,,,,,,,,,,,,,
,Screen_2,canvas.Screen,0_0_9_1,,skipped,10,42138,,,42137,,42138,2021-10-22T20:18:00.648Z,42234.56,1634933833,full,ni_sequenzen,NI_Sequenzen,,,,,,,,,,,,,,
,Screen_3,canvas.Screen,0_0_9_2,,skipped,10,42140,,,42137,,42140,2021-10-22T20:18:00.650Z,42234.56,1634933833,full,ni_sequenzen,NI_Sequenzen,,,,,,,,,,,,,,
,Screen_4,canvas.Screen,0_0_9_3,,skipped,10,42141,,,42137,,42141,2021-10-22T20:18:00.652Z,42234.56,1634933833,full,ni_sequenzen,NI_Sequenzen,,,,,,,,,,,,,,
,Sequence,flow.Sequence,0_0_9,,completion,10,42135,,,42137,,42141,2021-10-22T20:18:00.652Z,42234.56,1634933833,full,ni_sequenzen,NI_Sequenzen,,,,,,,,,,,,,,
,Screen_1,canvas.Screen,0_0_10_0,,skipped,11,42145,,,42145,,42145,2021-10-22T20:18:00.656Z,42234.56,1634933833,full,ni_sequenzen,NI_Sequenzen,,,,,,,,,,,,,,
,Screen_2,canvas.Screen,0_0_10_1,,skipped,11,42147,,,42145,,42147,2021-10-22T20:18:00.657Z,42234.56,1634933833,full,ni_sequenzen,NI_Sequenzen,,,,,,,,,,,,,,
,Screen_3,canvas.Screen,0_0_10_2,,skipped,11,42148,,,42145,,42148,2021-10-22T20:18:00.659Z,42234.56,1634933833,full,ni_sequenzen,NI_Sequenzen,,,,,,,,,,,,,,
,Screen_4,canvas.Screen,0_0_10_3,,skipped,11,42150,,,42145,,42150,2021-10-22T20:18:00.660Z,42234.56,1634933833,full,ni_sequenzen,NI_Sequenzen,,,,,,,,,,,,,,
,Sequence,flow.Sequence,0_0_10,,completion,11,42142,,,42145,,42150,2021-10-22T20:18:00.660Z,42234.56,1634933833,full,ni_sequenzen,NI_Sequenzen,,,,,,,,,,,,,,
,Screen_1,canvas.Screen,0_0_11_0,,skipped,12,42152,,,42152,,42152,2021-10-22T20:18:00.662Z,42234.56,1634933833,full,ni_sequenzen,NI_Sequenzen,,,,,,,,,,,,,,
,Screen_2,canvas.Screen,0_0_11_1,,skipped,12,42153,,,42152,,42153,2021-10-22T20:18:00.663Z,42234.56,1634933833,full,ni_sequenzen,NI_Sequenzen,,,,,,,,,,,,,,
,Screen_3,canvas.Screen,0_0_11_2,,skipped,12,42155,,,42152,,42155,2021-10-22T20:18:00.665Z,42234.56,1634933833,full,ni_sequenzen,NI_Sequenzen,,,,,,,,,,,,,,
,Screen_4,canvas.Screen,0_0_11_3,,skipped,12,42158,,,42152,,42158,2021-10-22T20:18:00.668Z,42234.56,1634933833,full,ni_sequenzen,NI_Sequenzen,,,,,,,,,,,,,,
,Sequence,flow.Sequence,0_0_11,,completion,12,42151,,,42152,,42158,2021-10-22T20:18:00.668Z,42234.56,1634933833,full,ni_sequenzen,NI_Sequenzen,,,,,,,,,,,,,,
,Screen_1,canvas.Screen,0_0_12_0,,skipped,13,42161,,,42161,,42161,2021-10-22T20:18:00.671Z,42234.56,1634933833,full,ni_sequenzen,NI_Sequenzen,,,,,,,,,,,,,,
,Screen_2,canvas.Screen,0_0_12_1,,skipped,13,42162,,,42161,,42162,2021-10-22T20:18:00.672Z,42234.56,1634933833,full,ni_sequenzen,NI_Sequenzen,,,,,,,,,,,,,,
,Screen_3,canvas.Screen,0_0_12_2,,skipped,13,42163,,,42161,,42163,2021-10-22T20:18:00.674Z,42234.56,1634933833,full,ni_sequenzen,NI_Sequenzen,,,,,,,,,,,,,,
,Screen_4,canvas.Screen,0_0_12_3,,skipped,13,42166,,,42161,,42166,2021-10-22T20:18:00.676Z,42234.56,1634933833,full,ni_sequenzen,NI_Sequenzen,,,,,,,,,,,,,,
,Sequence,flow.Sequence,0_0_12,,completion,13,42158,,,42161,,42166,2021-10-22T20:18:00.676Z,42234.56,1634933833,full,ni_sequenzen,NI_Sequenzen,,,,,,,,,,,,,,
,Screen_1,canvas.Screen,0_0_13_0,,skipped,14,42169,,,42169,,42169,2021-10-22T20:18:00.680Z,42234.56,1634933833,full,ni_sequenzen,NI_Sequenzen,,,,,,,,,,,,,,
,Screen_2,canvas.Screen,0_0_13_1,,skipped,14,42170,,,42169,,42170,2021-10-22T20:18:00.681Z,42234.56,1634933833,full,ni_sequenzen,NI_Sequenzen,,,,,,,,,,,,,,
,Screen_3,canvas.Screen,0_0_13_2,,skipped,14,42172,,,42169,,42172,2021-10-22T20:18:00.683Z,42234.56,1634933833,full,ni_sequenzen,NI_Sequenzen,,,,,,,,,,,,,,
,Screen_4,canvas.Screen,0_0_13_3,,skipped,14,42174,,,42169,,42174,2021-10-22T20:18:00.684Z,42234.56,1634933833,full,ni_sequenzen,NI_Sequenzen,,,,,,,,,,,,,,
,Sequence,flow.Sequence,0_0_13,,completion,14,42168,,,42169,,42174,2021-10-22T20:18:00.684Z,42234.56,1634933833,full,ni_sequenzen,NI_Sequenzen,,,,,,,,,,,,,,
,Screen_1,canvas.Screen,0_0_14_0,,skipped,15,42176,,,42176,,42176,2021-10-22T20:18:00.686Z,42234.56,1634933833,full,ni_sequenzen,NI_Sequenzen,,,,,,,,,,,,,,
,Screen_2,canvas.Screen,0_0_14_1,,skipped,15,42178,,,42176,,42178,2021-10-22T20:18:00.689Z,42234.56,1634933833,full,ni_sequenzen,NI_Sequenzen,,,,,,,,,,,,,,
,Screen_3,canvas.Screen,0_0_14_2,,skipped,15,42180,,,42176,,42180,2021-10-22T20:18:00.691Z,42234.56,1634933833,full,ni_sequenzen,NI_Sequenzen,,,,,,,,,,,,,,
,Screen_4,canvas.Screen,0_0_14_3,,skipped,15,42182,,,42176,,42182,2021-10-22T20:18:00.692Z,42234.56,1634933833,full,ni_sequenzen,NI_Sequenzen,,,,,,,,,,,,,,
,Sequence,flow.Sequence,0_0_14,,completion,15,42175,,,42176,,42182,2021-10-22T20:18:00.692Z,42234.56,1634933833,full,ni_sequenzen,NI_Sequenzen,,,,,,,,,,,,,,
,Screen_1,canvas.Screen,0_0_15_0,,skipped,16,42184,,,42184,,42184,2021-10-22T20:18:00.695Z,42234.56,1634933833,full,ni_sequenzen,NI_Sequenzen,,,,,,,,,,,,,,
,Screen_2,canvas.Screen,0_0_15_1,,skipped,16,42186,,,42184,,42186,2021-10-22T20:18:00.696Z,42234.56,1634933833,full,ni_sequenzen,NI_Sequenzen,,,,,,,,,,,,,,
,Screen_3,canvas.Screen,0_0_15_2,,skipped,16,42191,,,42184,,42191,2021-10-22T20:18:00.701Z,42234.56,1634933833,full,ni_sequenzen,NI_Sequenzen,,,,,,,,,,,,,,
,Screen_4,canvas.Screen,0_0_15_3,,skipped,16,42192,,,42184,,42192,2021-10-22T20:18:00.703Z,42234.56,1634933833,full,ni_sequenzen,NI_Sequenzen,,,,,,,,,,,,,,
,Sequence,flow.Sequence,0_0_15,,completion,16,42183,,,42184,,42193,2021-10-22T20:18:00.703Z,42234.56,1634933833,full,ni_sequenzen,NI_Sequenzen,,,,,,,,,,,,,,
,Screen_1,canvas.Screen,0_0_16_0,,skipped,17,42194,,,42194,,42194,2021-10-22T20:18:00.704Z,42234.56,1634933833,full,ni_sequenzen,NI_Sequenzen,,,,,,,,,,,,,,
,Screen_2,canvas.Screen,0_0_16_1,,skipped,17,42196,,,42194,,42196,2021-10-22T20:18:00.706Z,42234.56,1634933833,full,ni_sequenzen,NI_Sequenzen,,,,,,,,,,,,,,
,Screen_3,canvas.Screen,0_0_16_2,,skipped,17,42198,,,42194,,42198,2021-10-22T20:18:00.709Z,42234.56,1634933833,full,ni_sequenzen,NI_Sequenzen,,,,,,,,,,,,,,
,Screen_4,canvas.Screen,0_0_16_3,,skipped,17,42200,,,42194,,42200,2021-10-22T20:18:00.710Z,42234.56,1634933833,full,ni_sequenzen,NI_Sequenzen,,,,,,,,,,,,,,
,Sequence,flow.Sequence,0_0_16,,completion,17,42193,,,42194,,42200,2021-10-22T20:18:00.710Z,42234.56,1634933833,full,ni_sequenzen,NI_Sequenzen,,,,,,,,,,,,,,
,Screen_1,canvas.Screen,0_0_17_0,,skipped,18,42202,,,42202,,42202,2021-10-22T20:18:00.712Z,42234.56,1634933833,full,ni_sequenzen,NI_Sequenzen,,,,,,,,,,,,,,
,Screen_2,canvas.Screen,0_0_17_1,,skipped,18,42203,,,42202,,42203,2021-10-22T20:18:00.713Z,42234.56,1634933833,full,ni_sequenzen,NI_Sequenzen,,,,,,,,,,,,,,
,Screen_3,canvas.Screen,0_0_17_2,,skipped,18,42206,,,42202,,42206,2021-10-22T20:18:00.716Z,42234.56,1634933833,full,ni_sequenzen,NI_Sequenzen,,,,,,,,,,,,,,
,Screen_4,canvas.Screen,0_0_17_3,,skipped,18,42207,,,42202,,42207,2021-10-22T20:18:00.718Z,42234.56,1634933833,full,ni_sequenzen,NI_Sequenzen,,,,,,,,,,,,,,
,Sequence,flow.Sequence,0_0_17,,completion,18,42200,,,42202,,42207,2021-10-22T20:18:00.718Z,42234.56,1634933833,full,ni_sequenzen,NI_Sequenzen,,,,,,,,,,,,,,
,Screen_1,canvas.Screen,0_0_18_0,,skipped,19,42209,,,42209,,42209,2021-10-22T20:18:00.720Z,42234.56,1634933833,full,ni_sequenzen,NI_Sequenzen,,,,,,,,,,,,,,
,Screen_2,canvas.Screen,0_0_18_1,,skipped,19,42210,,,42209,,42210,2021-10-22T20:18:00.721Z,42234.56,1634933833,full,ni_sequenzen,NI_Sequenzen,,,,,,,,,,,,,,
,Screen_3,canvas.Screen,0_0_18_2,,skipped,19,42212,,,42209,,42212,2021-10-22T20:18:00.722Z,42234.56,1634933833,full,ni_sequenzen,NI_Sequenzen,,,,,,,,,,,,,,
,Screen_4,canvas.Screen,0_0_18_3,,skipped,19,42213,,,42209,,42213,2021-10-22T20:18:00.724Z,42234.56,1634933833,full,ni_sequenzen,NI_Sequenzen,,,,,,,,,,,,,,
,Sequence,flow.Sequence,0_0_18,,completion,19,42208,,,42209,,42213,2021-10-22T20:18:00.724Z,42234.56,1634933833,full,ni_sequenzen,NI_Sequenzen,,,,,,,,,,,,,,
,Screen_1,canvas.Screen,0_0_19_0,,skipped,20,42215,,,42215,,42215,2021-10-22T20:18:00.726Z,42234.56,1634933833,full,ni_sequenzen,NI_Sequenzen,,,,,,,,,,,,,,
,Screen_2,canvas.Screen,0_0_19_1,,skipped,20,42216,,,42215,,42216,2021-10-22T20:18:00.726Z,42234.56,1634933833,full,ni_sequenzen,NI_Sequenzen,,,,,,,,,,,,,,
,Screen_3,canvas.Screen,0_0_19_2,,skipped,20,42219,,,42215,,42219,2021-10-22T20:18:00.730Z,42234.56,1634933833,full,ni_sequenzen,NI_Sequenzen,,,,,,,,,,,,,,
,Screen_4,canvas.Screen,0_0_19_3,,skipped,20,42221,,,42215,,42221,2021-10-22T20:18:00.732Z,42234.56,1634933833,full,ni_sequenzen,NI_Sequenzen,,,,,,,,,,,,,,
,Sequence,flow.Sequence,0_0_19,,completion,20,42214,,,42215,,42221,2021-10-22T20:18:00.732Z,42234.56,1634933833,full,ni_sequenzen,NI_Sequenzen,,,,,,,,,,,,,,
,Instructions_I,flow.Loop,0_0,,completion,,631,694.08,742.6,42215,41472.4,42222,2021-10-22T20:18:00.732Z,42234.56,1634933833,full,ni_sequenzen,NI_Sequenzen,,,,,,,,,,,,,,
,Move,canvas.Screen,0_1_0_0,left,response,,42233,42233.74,42234.56,43478,1243.4400000000023,43492,2021-10-22T20:18:02.003Z,43501.08,1634933833,full,ni_sequenzen,NI_Sequenzen,1,,,,,,,,,,,,,
,Move,canvas.Screen,0_1_0_1,left,response,,43500,43500.4,43501.08,44034,532.9199999999983,44044,2021-10-22T20:18:02.555Z,44049.02,1634933833,full,ni_sequenzen,NI_Sequenzen,2,,,,,,,,,,,,,
,Move,canvas.Screen,0_1_0_2,right,response,,44048,44048.32,44049.02,44933,883.9800000000032,44945,2021-10-22T20:18:03.456Z,44951.78,1634933833,full,ni_sequenzen,NI_Sequenzen,3,,,,,,,,,,,,,
,Move,canvas.Screen,0_1_0_3,down,response,,44951,44950.86,44951.78,45676,724.2200000000012,45688,2021-10-22T20:18:04.199Z,45693.86,1634933833,full,ni_sequenzen,NI_Sequenzen,4,,,,,,,,,,,,,
,Move,canvas.Screen,0_1_0_4,down,response,,45693,45693.02,45693.86,46218,524.1399999999994,46228,2021-10-22T20:18:04.739Z,46276.28,1634933833,full,ni_sequenzen,NI_Sequenzen,5,,,,,,,,,,,,,
,Move,canvas.Screen,0_1_0_5,right,response,,46235,46234.5,46276.28,47077,800.7200000000012,47089,2021-10-22T20:18:05.598Z,47097.26,1634933833,full,ni_sequenzen,NI_Sequenzen,6,,,,,,,,,,,,,
,Move,canvas.Screen,0_1_0_6,right,response,,47092,47092.2,47097.26,47498,400.73999999999796,47511,2021-10-22T20:18:06.022Z,47539.66,1634933833,full,ni_sequenzen,NI_Sequenzen,7,,,,,,,,,,,,,
,Move,canvas.Screen,0_1_0_7,down,response,,47518,47518.54,47539.66,48161,621.3399999999965,48172,2021-10-22T20:18:06.683Z,48192.02,1634933833,full,ni_sequenzen,NI_Sequenzen,8,,,,,,,,,,,,,
,Move,canvas.Screen,0_1_0_8,down,response,,48178,48178.12,48192.02,48459,266.9800000000032,48470,2021-10-22T20:18:06.982Z,48477.36,1634933833,full,ni_sequenzen,NI_Sequenzen,9,,,,,,,,,,,,,
,Move,canvas.Screen,0_1_0_9,down,response,,48477,48476.44,48477.36,48718,240.63999999999942,48731,2021-10-22T20:18:07.241Z,48735.62,1634933833,full,ni_sequenzen,NI_Sequenzen,10,,,,,,,,,,,,,
,Move,canvas.Screen,0_1_0_10,down,response,,48734,48734.72,48735.62,48984,248.37999999999738,48997,2021-10-22T20:18:07.508Z,49011.12,1634933833,full,ni_sequenzen,NI_Sequenzen,11,,,,,,,,,,,,,
,Move,canvas.Screen,0_1_0_11,left,response,,49003,49002.8,49011.12,49361,349.8799999999974,49372,2021-10-22T20:18:07.883Z,49376.7,1634933833,full,ni_sequenzen,NI_Sequenzen,12,,,,,,,,,,,,,
,Move,canvas.Screen,0_1_0_12,left,response,,49376,49375.98,49376.7,49626,249.3000000000029,49637,2021-10-22T20:18:08.148Z,49641.6,1634933833,full,ni_sequenzen,NI_Sequenzen,13,,,,,,,,,,,,,
,Move,canvas.Screen,0_1_0_13,down,response,,49640,49640.64,49641.6,50351,709.4000000000015,50363,2021-10-22T20:18:08.874Z,50367.28,1634933833,full,ni_sequenzen,NI_Sequenzen,14,,,,,,,,,,,,,
,Move,canvas.Screen,0_1_0_14,down,response,,50366,50366.58,50367.28,50759,391.72000000000116,50771,2021-10-22T20:18:09.281Z,50774.66,1634933833,full,ni_sequenzen,NI_Sequenzen,15,,,,,,,,,,,,,
,Move,canvas.Screen,0_1_0_15,right,response,,50774,50773.9,50774.66,51205,430.3399999999965,51216,2021-10-22T20:18:09.727Z,51220.44,1634933833,full,ni_sequenzen,NI_Sequenzen,16,,,,,,,,,,,,,
,Move,canvas.Screen,0_1_0_16,right,response,,51220,51219.54,51220.44,51476,255.55999999999767,51487,2021-10-22T20:18:09.998Z,51491.48,1634933833,full,ni_sequenzen,NI_Sequenzen,17,,,,,,,,,,,,,
,Move,canvas.Screen,0_1_0_17,right,response,,51490,51490.64,51491.48,51752,260.5199999999968,51764,2021-10-22T20:18:10.275Z,51767.72,1634933833,full,ni_sequenzen,NI_Sequenzen,18,,,,,,,,,,,,,
,Move,canvas.Screen,0_1_0_18,right,response,,51766,51766.9,51767.72,51949,181.27999999999884,51963,2021-10-22T20:18:10.474Z,51986.2,1634933833,full,ni_sequenzen,NI_Sequenzen,19,,,,,,,,,,,,,
,Move,canvas.Screen,0_1_0_19,down,response,,51971,51970.86,51986.2,52386,399.8000000000029,52397,2021-10-22T20:18:10.908Z,52401.42,1634933833,full,ni_sequenzen,NI_Sequenzen,20,,,,,,,,,,,,,
,Move,canvas.Screen,0_1_0_20,down,response,,52401,52400.34,52401.42,52670,268.58000000000175,52691,2021-10-22T20:18:11.202Z,52697,1634933833,full,ni_sequenzen,NI_Sequenzen,21,,,,,,,,,,,,,
,Move,canvas.Screen,0_1_0_21,down,response,,52696,52696.12,52697,52897,200,52907,2021-10-22T20:18:11.418Z,52919.88,1634933833,full,ni_sequenzen,NI_Sequenzen,22,,,,,,,,,,,,,
,Move,canvas.Screen,0_1_0_22,down,response,,52911,52910.4,52919.88,53106,186.12000000000262,53117,2021-10-22T20:18:11.629Z,53121.68,1634933833,full,ni_sequenzen,NI_Sequenzen,23,,,,,,,,,,,,,
,Move,canvas.Screen,0_1_0_23,left,response,,53121,53121,53121.68,53378,256.3199999999997,53394,2021-10-22T20:18:11.904Z,53403.72,1634933833,full,ni_sequenzen,NI_Sequenzen,24,,,,,,,,,,,,,
,Move,canvas.Screen,0_1_0_24,left,response,,53398,53397.18,53403.72,53626,222.27999999999884,53637,2021-10-22T20:18:12.147Z,53657.3,1634933833,full,ni_sequenzen,NI_Sequenzen,25,,,,,,,,,,,,,
,Move,canvas.Screen,0_1_0_25,down,response,,53640,53639.78,53657.3,53823,165.6999999999971,53836,2021-10-22T20:18:12.348Z,53870.38,1634933833,full,ni_sequenzen,NI_Sequenzen,26,,,,,,,,,,,,,
,Move,canvas.Screen,0_1_0_26,down,response,,53840,53839.8,53870.38,54092,221.62000000000262,54101,2021-10-22T20:18:12.612Z,54105.42,1634933833,full,ni_sequenzen,NI_Sequenzen,27,,,,,,,,,,,,,
,Move,canvas.Screen,0_1_0_27,right,response,,54105,54104.36,54105.42,54466,360.58000000000175,54476,2021-10-22T20:18:12.987Z,54480.02,1634933833,full,ni_sequenzen,NI_Sequenzen,28,,,,,,,,,,,,,
,Move,canvas.Screen,0_1_0_28,left,response,,54479,54479.18,54480.02,55196,715.9800000000032,55233,2021-10-22T20:18:13.743Z,55251.78,1634933833,full,ni_sequenzen,NI_Sequenzen,29,,,,,,,,,,,,,
,Move,canvas.Screen,0_1_0_29,left,response,,55235,55235.54,55251.78,55801,549.2200000000012,55813,2021-10-22T20:18:14.324Z,55889.92,1634933833,full,ni_sequenzen,NI_Sequenzen,30,,,,,,,,,,,,,
,Loop,flow.Loop,0_1_0,-999,completion,,42230,42233.74,42234.56,55801,13566.440000000002,55814,2021-10-22T20:18:14.324Z,55889.92,1634933833,full,ni_sequenzen,NI_Sequenzen,,,,,,,,,,,,,,
,Training_I,flow.Sequence,0_1,,completion,,42223,42233.74,42234.56,55801,13566.440000000002,55814,2021-10-22T20:18:14.324Z,55889.92,1634933833,full,ni_sequenzen,NI_Sequenzen,,,,,,,,,,,,,,
,Screen_1,canvas.Screen,0_2_0_0,cont,response,1,55867,55866.84,55889.92,70822,14932.080000000002,70835,2021-10-22T20:18:29.346Z,70937.44,1634933833,full,ni_sequenzen,NI_Sequenzen,,,,,,,,,,,,,,
,Screen_2,canvas.Screen,0_2_0_1,cont,response,1,70936,70935.98,70937.44,77096,6158.559999999998,77109,2021-10-22T20:18:35.620Z,77111.26,1634933833,full,ni_sequenzen,NI_Sequenzen,,,,,,,,,,,,,,
,Screen_3,canvas.Screen,0_2_0_2,cont,response,1,77110,77110.46,77111.26,82911,5799.740000000005,82923,2021-10-22T20:18:41.434Z,83044.36,1634933833,full,ni_sequenzen,NI_Sequenzen,,,,,,,,,,,,,,
,Screen_4,canvas.Screen,0_2_0_3,cont,response,1,83024,83024.02,83044.36,91958,8913.64,91971,2021-10-22T20:18:50.483Z,91973.82,1634933833,full,ni_sequenzen,NI_Sequenzen,,,,,,,,,,,,,,
,Screen_5,canvas.Screen,0_2_0_4,cont,response,1,91973,91972.9,91973.82,95124,3150.179999999993,95136,2021-10-22T20:18:53.648Z,95236.94,1634933833,full,ni_sequenzen,NI_Sequenzen,,,,,,,,,,,,,,
,Screen_6,canvas.Screen,0_2_0_5,cont,response,1,95235,95235.06,95236.94,101719,6482.059999999998,101731,2021-10-22T20:19:00.243Z,102126.28,1634933833,full,ni_sequenzen,NI_Sequenzen,,,,,,,,,,,,,,
,Sequence,flow.Sequence,0_2_0,,completion,1,55864,55866.84,55889.92,101719,45829.08,101731,2021-10-22T20:19:00.243Z,102126.28,1634933833,full,ni_sequenzen,NI_Sequenzen,,,,,,,,,,,,,,
,Screen_1,canvas.Screen,0_2_1_0,,skipped,2,101732,,,101732,,101732,2021-10-22T20:19:00.245Z,102126.28,1634933833,full,ni_sequenzen,NI_Sequenzen,,,,,,,,,,,,,,
,Screen_2,canvas.Screen,0_2_1_1,,skipped,2,101735,,,101732,,101735,2021-10-22T20:19:00.247Z,102126.28,1634933833,full,ni_sequenzen,NI_Sequenzen,,,,,,,,,,,,,,
,Screen_3,canvas.Screen,0_2_1_2,,skipped,2,101736,,,101732,,101736,2021-10-22T20:19:00.248Z,102126.28,1634933833,full,ni_sequenzen,NI_Sequenzen,,,,,,,,,,,,,,
,Screen_4,canvas.Screen,0_2_1_3,,skipped,2,101738,,,101732,,101738,2021-10-22T20:19:00.250Z,102126.28,1634933833,full,ni_sequenzen,NI_Sequenzen,,,,,,,,,,,,,,
,Screen_5,canvas.Screen,0_2_1_4,,skipped,2,101740,,,101732,,101740,2021-10-22T20:19:00.252Z,102126.28,1634933833,full,ni_sequenzen,NI_Sequenzen,,,,,,,,,,,,,,
,Screen_6,canvas.Screen,0_2_1_5,,skipped,2,101743,,,101732,,101743,2021-10-22T20:19:00.255Z,102126.28,1634933833,full,ni_sequenzen,NI_Sequenzen,,,,,,,,,,,,,,
,Sequence,flow.Sequence,0_2_1,,completion,2,101731,,,101732,,101743,2021-10-22T20:19:00.255Z,102126.28,1634933833,full,ni_sequenzen,NI_Sequenzen,,,,,,,,,,,,,,
,Screen_1,canvas.Screen,0_2_2_0,,skipped,3,101745,,,101745,,101746,2021-10-22T20:19:00.258Z,102126.28,1634933833,full,ni_sequenzen,NI_Sequenzen,,,,,,,,,,,,,,
,Screen_2,canvas.Screen,0_2_2_1,,skipped,3,101747,,,101745,,101747,2021-10-22T20:19:00.260Z,102126.28,1634933833,full,ni_sequenzen,NI_Sequenzen,,,,,,,,,,,,,,
,Screen_3,canvas.Screen,0_2_2_2,,skipped,3,101749,,,101745,,101749,2021-10-22T20:19:00.261Z,102126.28,1634933833,full,ni_sequenzen,NI_Sequenzen,,,,,,,,,,,,,,
,Screen_4,canvas.Screen,0_2_2_3,,skipped,3,101751,,,101745,,101751,2021-10-22T20:19:00.263Z,102126.28,1634933833,full,ni_sequenzen,NI_Sequenzen,,,,,,,,,,,,,,
,Screen_5,canvas.Screen,0_2_2_4,,skipped,3,101752,,,101745,,101753,2021-10-22T20:19:00.264Z,102126.28,1634933833,full,ni_sequenzen,NI_Sequenzen,,,,,,,,,,,,,,
,Screen_6,canvas.Screen,0_2_2_5,,skipped,3,101754,,,101745,,101755,2021-10-22T20:19:00.267Z,102126.28,1634933833,full,ni_sequenzen,NI_Sequenzen,,,,,,,,,,,,,,
,Sequence,flow.Sequence,0_2_2,,completion,3,101744,,,101745,,101755,2021-10-22T20:19:00.267Z,102126.28,1634933833,full,ni_sequenzen,NI_Sequenzen,,,,,,,,,,,,,,
,Screen_1,canvas.Screen,0_2_3_0,,skipped,4,101757,,,101757,,101757,2021-10-22T20:19:00.269Z,102126.28,1634933833,full,ni_sequenzen,NI_Sequenzen,,,,,,,,,,,,,,
,Screen_2,canvas.Screen,0_2_3_1,,skipped,4,101759,,,101757,,101759,2021-10-22T20:19:00.271Z,102126.28,1634933833,full,ni_sequenzen,NI_Sequenzen,,,,,,,,,,,,,,
,Screen_3,canvas.Screen,0_2_3_2,,skipped,4,101761,,,101757,,101761,2021-10-22T20:19:00.273Z,102126.28,1634933833,full,ni_sequenzen,NI_Sequenzen,,,,,,,,,,,,,,
,Screen_4,canvas.Screen,0_2_3_3,,skipped,4,101762,,,101757,,101762,2021-10-22T20:19:00.275Z,102126.28,1634933833,full,ni_sequenzen,NI_Sequenzen,,,,,,,,,,,,,,
,Screen_5,canvas.Screen,0_2_3_4,,skipped,4,101764,,,101757,,101764,2021-10-22T20:19:00.277Z,102126.28,1634933833,full,ni_sequenzen,NI_Sequenzen,,,,,,,,,,,,,,
,Screen_6,canvas.Screen,0_2_3_5,,skipped,4,101767,,,101757,,101767,2021-10-22T20:19:00.280Z,102126.28,1634933833,full,ni_sequenzen,NI_Sequenzen,,,,,,,,,,,,,,
,Sequence,flow.Sequence,0_2_3,,completion,4,101756,,,101757,,101767,2021-10-22T20:19:00.280Z,102126.28,1634933833,full,ni_sequenzen,NI_Sequenzen,,,,,,,,,,,,,,
,Screen_1,canvas.Screen,0_2_4_0,,skipped,5,101770,,,101770,,101770,2021-10-22T20:19:00.283Z,102126.28,1634933833,full,ni_sequenzen,NI_Sequenzen,,,,,,,,,,,,,,
,Screen_2,canvas.Screen,0_2_4_1,,skipped,5,101772,,,101770,,101772,2021-10-22T20:19:00.284Z,102126.28,1634933833,full,ni_sequenzen,NI_Sequenzen,,,,,,,,,,,,,,
,Screen_3,canvas.Screen,0_2_4_2,,skipped,5,101773,,,101770,,101774,2021-10-22T20:19:00.286Z,102126.28,1634933833,full,ni_sequenzen,NI_Sequenzen,,,,,,,,,,,,,,
,Screen_4,canvas.Screen,0_2_4_3,,skipped,5,101775,,,101770,,101775,2021-10-22T20:19:00.287Z,102126.28,1634933833,full,ni_sequenzen,NI_Sequenzen,,,,,,,,,,,,,,
,Screen_5,canvas.Screen,0_2_4_4,,skipped,5,101777,,,101770,,101777,2021-10-22T20:19:00.289Z,102126.28,1634933833,full,ni_sequenzen,NI_Sequenzen,,,,,,,,,,,,,,
,Screen_6,canvas.Screen,0_2_4_5,,skipped,5,101778,,,101770,,101778,2021-10-22T20:19:00.291Z,102126.28,1634933833,full,ni_sequenzen,NI_Sequenzen,,,,,,,,,,,,,,
,Sequence,flow.Sequence,0_2_4,,completion,5,101768,,,101770,,101778,2021-10-22T20:19:00.291Z,102126.28,1634933833,full,ni_sequenzen,NI_Sequenzen,,,,,,,,,,,,,,
,Screen_1,canvas.Screen,0_2_5_0,,skipped,6,101780,,,101780,,101781,2021-10-22T20:19:00.293Z,102126.28,1634933833,full,ni_sequenzen,NI_Sequenzen,,,,,,,,,,,,,,
,Screen_2,canvas.Screen,0_2_5_1,,skipped,6,101782,,,101780,,101782,2021-10-22T20:19:00.295Z,102126.28,1634933833,full,ni_sequenzen,NI_Sequenzen,,,,,,,,,,,,,,
,Screen_3,canvas.Screen,0_2_5_2,,skipped,6,101784,,,101780,,101784,2021-10-22T20:19:00.296Z,102126.28,1634933833,full,ni_sequenzen,NI_Sequenzen,,,,,,,,,,,,,,
,Screen_4,canvas.Screen,0_2_5_3,,skipped,6,101785,,,101780,,101786,2021-10-22T20:19:00.298Z,102126.28,1634933833,full,ni_sequenzen,NI_Sequenzen,,,,,,,,,,,,,,
,Screen_5,canvas.Screen,0_2_5_4,,skipped,6,101788,,,101780,,101788,2021-10-22T20:19:00.300Z,102126.28,1634933833,full,ni_sequenzen,NI_Sequenzen,,,,,,,,,,,,,,
,Screen_6,canvas.Screen,0_2_5_5,,skipped,6,101789,,,101780,,101789,2021-10-22T20:19:00.302Z,102126.28,1634933833,full,ni_sequenzen,NI_Sequenzen,,,,,,,,,,,,,,
,Sequence,flow.Sequence,0_2_5,,completion,6,101780,,,101780,,101790,2021-10-22T20:19:00.302Z,102126.28,1634933833,full,ni_sequenzen,NI_Sequenzen,,,,,,,,,,,,,,
,Screen_1,canvas.Screen,0_2_6_0,,skipped,7,101792,,,101792,,101792,2021-10-22T20:19:00.304Z,102126.28,1634933833,full,ni_sequenzen,NI_Sequenzen,,,,,,,,,,,,,,
,Screen_2,canvas.Screen,0_2_6_1,,skipped,7,101793,,,101792,,101794,2021-10-22T20:19:00.305Z,102126.28,1634933833,full,ni_sequenzen,NI_Sequenzen,,,,,,,,,,,,,,
,Screen_3,canvas.Screen,0_2_6_2,,skipped,7,101796,,,101792,,101796,2021-10-22T20:19:00.308Z,102126.28,1634933833,full,ni_sequenzen,NI_Sequenzen,,,,,,,,,,,,,,
,Screen_4,canvas.Screen,0_2_6_3,,skipped,7,101799,,,101792,,101799,2021-10-22T20:19:00.311Z,102126.28,1634933833,full,ni_sequenzen,NI_Sequenzen,,,,,,,,,,,,,,
,Screen_5,canvas.Screen,0_2_6_4,,skipped,7,101800,,,101792,,101800,2021-10-22T20:19:00.313Z,102126.28,1634933833,full,ni_sequenzen,NI_Sequenzen,,,,,,,,,,,,,,
,Screen_6,canvas.Screen,0_2_6_5,,skipped,7,101802,,,101792,,101802,2021-10-22T20:19:00.314Z,102126.28,1634933833,full,ni_sequenzen,NI_Sequenzen,,,,,,,,,,,,,,
,Sequence,flow.Sequence,0_2_6,,completion,7,101791,,,101792,,101802,2021-10-22T20:19:00.315Z,102126.28,1634933833,full,ni_sequenzen,NI_Sequenzen,,,,,,,,,,,,,,
,Screen_1,canvas.Screen,0_2_7_0,,skipped,8,101803,,,101803,,101803,2021-10-22T20:19:00.316Z,102126.28,1634933833,full,ni_sequenzen,NI_Sequenzen,,,,,,,,,,,,,,
,Screen_2,canvas.Screen,0_2_7_1,,skipped,8,101805,,,101803,,101805,2021-10-22T20:19:00.318Z,102126.28,1634933833,full,ni_sequenzen,NI_Sequenzen,,,,,,,,,,,,,,
,Screen_3,canvas.Screen,0_2_7_2,,skipped,8,101806,,,101803,,101806,2021-10-22T20:19:00.319Z,102126.28,1634933833,full,ni_sequenzen,NI_Sequenzen,,,,,,,,,,,,,,
,Screen_4,canvas.Screen,0_2_7_3,,skipped,8,101808,,,101803,,101809,2021-10-22T20:19:00.320Z,102126.28,1634933833,full,ni_sequenzen,NI_Sequenzen,,,,,,,,,,,,,,
,Screen_5,canvas.Screen,0_2_7_4,,skipped,8,101809,,,101803,,101809,2021-10-22T20:19:00.322Z,102126.28,1634933833,full,ni_sequenzen,NI_Sequenzen,,,,,,,,,,,,,,
,Screen_6,canvas.Screen,0_2_7_5,,skipped,8,101810,,,101803,,101810,2021-10-22T20:19:00.323Z,102126.28,1634933833,full,ni_sequenzen,NI_Sequenzen,,,,,,,,,,,,,,
,Sequence,flow.Sequence,0_2_7,,completion,8,101803,,,101803,,101811,2021-10-22T20:19:00.323Z,102126.28,1634933833,full,ni_sequenzen,NI_Sequenzen,,,,,,,,,,,,,,
,Screen_1,canvas.Screen,0_2_8_0,,skipped,9,101813,,,101813,,101813,2021-10-22T20:19:00.326Z,102126.28,1634933833,full,ni_sequenzen,NI_Sequenzen,,,,,,,,,,,,,,
,Screen_2,canvas.Screen,0_2_8_1,,skipped,9,101814,,,101813,,101814,2021-10-22T20:19:00.327Z,102126.28,1634933833,full,ni_sequenzen,NI_Sequenzen,,,,,,,,,,,,,,
,Screen_3,canvas.Screen,0_2_8_2,,skipped,9,101816,,,101813,,101816,2021-10-22T20:19:00.328Z,102126.28,1634933833,full,ni_sequenzen,NI_Sequenzen,,,,,,,,,,,,,,
,Screen_4,canvas.Screen,0_2_8_3,,skipped,9,101818,,,101813,,101818,2021-10-22T20:19:00.330Z,102126.28,1634933833,full,ni_sequenzen,NI_Sequenzen,,,,,,,,,,,,,,
,Screen_5,canvas.Screen,0_2_8_4,,skipped,9,101819,,,101813,,101819,2021-10-22T20:19:00.331Z,102126.28,1634933833,full,ni_sequenzen,NI_Sequenzen,,,,,,,,,,,,,,
,Screen_6,canvas.Screen,0_2_8_5,,skipped,9,101821,,,101813,,101821,2021-10-22T20:19:00.333Z,102126.28,1634933833,full,ni_sequenzen,NI_Sequenzen,,,,,,,,,,,,,,
,Sequence,flow.Sequence,0_2_8,,completion,9,101812,,,101813,,101822,2021-10-22T20:19:00.333Z,102126.28,1634933833,full,ni_sequenzen,NI_Sequenzen,,,,,,,,,,,,,,
,Screen_1,canvas.Screen,0_2_9_0,,skipped,10,101824,,,101824,,101824,2021-10-22T20:19:00.336Z,102126.28,1634933833,full,ni_sequenzen,NI_Sequenzen,,,,,,,,,,,,,,
,Screen_2,canvas.Screen,0_2_9_1,,skipped,10,101825,,,101824,,101825,2021-10-22T20:19:00.337Z,102126.28,1634933833,full,ni_sequenzen,NI_Sequenzen,,,,,,,,,,,,,,
,Screen_3,canvas.Screen,0_2_9_2,,skipped,10,101828,,,101824,,101828,2021-10-22T20:19:00.341Z,102126.28,1634933833,full,ni_sequenzen,NI_Sequenzen,,,,,,,,,,,,,,
,Screen_4,canvas.Screen,0_2_9_3,,skipped,10,101830,,,101824,,101830,2021-10-22T20:19:00.341Z,102126.28,1634933833,full,ni_sequenzen,NI_Sequenzen,,,,,,,,,,,,,,
,Screen_5,canvas.Screen,0_2_9_4,,skipped,10,101831,,,101824,,101831,2021-10-22T20:19:00.343Z,102126.28,1634933833,full,ni_sequenzen,NI_Sequenzen,,,,,,,,,,,,,,
,Screen_6,canvas.Screen,0_2_9_5,,skipped,10,101832,,,101824,,101832,2021-10-22T20:19:00.345Z,102126.28,1634933833,full,ni_sequenzen,NI_Sequenzen,,,,,,,,,,,,,,
,Sequence,flow.Sequence,0_2_9,,completion,10,101822,,,101824,,101833,2021-10-22T20:19:00.345Z,102126.28,1634933833,full,ni_sequenzen,NI_Sequenzen,,,,,,,,,,,,,,
,Screen_1,canvas.Screen,0_2_10_0,,skipped,11,101834,,,101835,,101835,2021-10-22T20:19:00.347Z,102126.28,1634933833,full,ni_sequenzen,NI_Sequenzen,,,,,,,,,,,,,,
,Screen_2,canvas.Screen,0_2_10_1,,skipped,11,101836,,,101835,,101836,2021-10-22T20:19:00.348Z,102126.28,1634933833,full,ni_sequenzen,NI_Sequenzen,,,,,,,,,,,,,,
,Screen_3,canvas.Screen,0_2_10_2,,skipped,11,101838,,,101835,,101838,2021-10-22T20:19:00.350Z,102126.28,1634933833,full,ni_sequenzen,NI_Sequenzen,,,,,,,,,,,,,,
,Screen_4,canvas.Screen,0_2_10_3,,skipped,11,101839,,,101835,,101839,2021-10-22T20:19:00.351Z,102126.28,1634933833,full,ni_sequenzen,NI_Sequenzen,,,,,,,,,,,,,,
,Screen_5,canvas.Screen,0_2_10_4,,skipped,11,101840,,,101835,,101840,2021-10-22T20:19:00.352Z,102126.28,1634933833,full,ni_sequenzen,NI_Sequenzen,,,,,,,,,,,,,,
,Screen_6,canvas.Screen,0_2_10_5,,skipped,11,101841,,,101835,,101842,2021-10-22T20:19:00.353Z,102126.28,1634933833,full,ni_sequenzen,NI_Sequenzen,,,,,,,,,,,,,,
,Sequence,flow.Sequence,0_2_10,,completion,11,101833,,,101835,,101842,2021-10-22T20:19:00.354Z,102126.28,1634933833,full,ni_sequenzen,NI_Sequenzen,,,,,,,,,,,,,,
,Screen_1,canvas.Screen,0_2_11_0,,skipped,12,101843,,,101843,,101843,2021-10-22T20:19:00.356Z,102126.28,1634933833,full,ni_sequenzen,NI_Sequenzen,,,,,,,,,,,,,,
,Screen_2,canvas.Screen,0_2_11_1,,skipped,12,101845,,,101843,,101845,2021-10-22T20:19:00.358Z,102126.28,1634933833,full,ni_sequenzen,NI_Sequenzen,,,,,,,,,,,,,,
,Screen_3,canvas.Screen,0_2_11_2,,skipped,12,101847,,,101843,,101847,2021-10-22T20:19:00.359Z,102126.28,1634933833,full,ni_sequenzen,NI_Sequenzen,,,,,,,,,,,,,,
,Screen_4,canvas.Screen,0_2_11_3,,skipped,12,101849,,,101843,,101849,2021-10-22T20:19:00.361Z,102126.28,1634933833,full,ni_sequenzen,NI_Sequenzen,,,,,,,,,,,,,,
,Screen_5,canvas.Screen,0_2_11_4,,skipped,12,101851,,,101843,,101851,2021-10-22T20:19:00.363Z,102126.28,1634933833,full,ni_sequenzen,NI_Sequenzen,,,,,,,,,,,,,,
,Screen_6,canvas.Screen,0_2_11_5,,skipped,12,101852,,,101843,,101853,2021-10-22T20:19:00.365Z,102126.28,1634933833,full,ni_sequenzen,NI_Sequenzen,,,,,,,,,,,,,,
,Sequence,flow.Sequence,0_2_11,,completion,12,101842,,,101843,,101853,2021-10-22T20:19:00.365Z,102126.28,1634933833,full,ni_sequenzen,NI_Sequenzen,,,,,,,,,,,,,,
,Screen_1,canvas.Screen,0_2_12_0,,skipped,13,101854,,,101854,,101854,2021-10-22T20:19:00.367Z,102126.28,1634933833,full,ni_sequenzen,NI_Sequenzen,,,,,,,,,,,,,,
,Screen_2,canvas.Screen,0_2_12_1,,skipped,13,101856,,,101854,,101856,2021-10-22T20:19:00.368Z,102126.28,1634933833,full,ni_sequenzen,NI_Sequenzen,,,,,,,,,,,,,,
,Screen_3,canvas.Screen,0_2_12_2,,skipped,13,101857,,,101854,,101858,2021-10-22T20:19:00.370Z,102126.28,1634933833,full,ni_sequenzen,NI_Sequenzen,,,,,,,,,,,,,,
,Screen_4,canvas.Screen,0_2_12_3,,skipped,13,101859,,,101854,,101859,2021-10-22T20:19:00.372Z,102126.28,1634933833,full,ni_sequenzen,NI_Sequenzen,,,,,,,,,,,,,,
,Screen_5,canvas.Screen,0_2_12_4,,skipped,13,101861,,,101854,,101861,2021-10-22T20:19:00.374Z,102126.28,1634933833,full,ni_sequenzen,NI_Sequenzen,,,,,,,,,,,,,,
,Screen_6,canvas.Screen,0_2_12_5,,skipped,13,101862,,,101854,,101862,2021-10-22T20:19:00.375Z,102126.28,1634933833,full,ni_sequenzen,NI_Sequenzen,,,,,,,,,,,,,,
,Sequence,flow.Sequence,0_2_12,,completion,13,101853,,,101854,,101863,2021-10-22T20:19:00.376Z,102126.28,1634933833,full,ni_sequenzen,NI_Sequenzen,,,,,,,,,,,,,,
,Screen_1,canvas.Screen,0_2_13_0,,skipped,14,101865,,,101865,,101865,2021-10-22T20:19:00.377Z,102126.28,1634933833,full,ni_sequenzen,NI_Sequenzen,,,,,,,,,,,,,,
,Screen_2,canvas.Screen,0_2_13_1,,skipped,14,101866,,,101865,,101866,2021-10-22T20:19:00.379Z,102126.28,1634933833,full,ni_sequenzen,NI_Sequenzen,,,,,,,,,,,,,,
,Screen_3,canvas.Screen,0_2_13_2,,skipped,14,101868,,,101865,,101868,2021-10-22T20:19:00.380Z,102126.28,1634933833,full,ni_sequenzen,NI_Sequenzen,,,,,,,,,,,,,,
,Screen_4,canvas.Screen,0_2_13_3,,skipped,14,101870,,,101865,,101870,2021-10-22T20:19:00.383Z,102126.28,1634933833,full,ni_sequenzen,NI_Sequenzen,,,,,,,,,,,,,,
,Screen_5,canvas.Screen,0_2_13_4,,skipped,14,101872,,,101865,,101872,2021-10-22T20:19:00.384Z,102126.28,1634933833,full,ni_sequenzen,NI_Sequenzen,,,,,,,,,,,,,,
,Screen_6,canvas.Screen,0_2_13_5,,skipped,14,101874,,,101865,,101874,2021-10-22T20:19:00.385Z,102126.28,1634933833,full,ni_sequenzen,NI_Sequenzen,,,,,,,,,,,,,,
,Sequence,flow.Sequence,0_2_13,,completion,14,101863,,,101865,,101874,2021-10-22T20:19:00.385Z,102126.28,1634933833,full,ni_sequenzen,NI_Sequenzen,,,,,,,,,,,,,,
,Screen_1,canvas.Screen,0_2_14_0,,skipped,15,101875,,,101875,,101875,2021-10-22T20:19:00.387Z,102126.28,1634933833,full,ni_sequenzen,NI_Sequenzen,,,,,,,,,,,,,,
,Screen_2,canvas.Screen,0_2_14_1,,skipped,15,101877,,,101875,,101877,2021-10-22T20:19:00.389Z,102126.28,1634933833,full,ni_sequenzen,NI_Sequenzen,,,,,,,,,,,,,,
,Screen_3,canvas.Screen,0_2_14_2,,skipped,15,101878,,,101875,,101878,2021-10-22T20:19:00.390Z,102126.28,1634933833,full,ni_sequenzen,NI_Sequenzen,,,,,,,,,,,,,,
,Screen_4,canvas.Screen,0_2_14_3,,skipped,15,101879,,,101875,,101879,2021-10-22T20:19:00.392Z,102126.28,1634933833,full,ni_sequenzen,NI_Sequenzen,,,,,,,,,,,,,,
,Screen_5,canvas.Screen,0_2_14_4,,skipped,15,101880,,,101875,,101880,2021-10-22T20:19:00.393Z,102126.28,1634933833,full,ni_sequenzen,NI_Sequenzen,,,,,,,,,,,,,,
,Screen_6,canvas.Screen,0_2_14_5,,skipped,15,101882,,,101875,,101882,2021-10-22T20:19:00.395Z,102126.28,1634933833,full,ni_sequenzen,NI_Sequenzen,,,,,,,,,,,,,,
,Sequence,flow.Sequence,0_2_14,,completion,15,101874,,,101875,,101882,2021-10-22T20:19:00.395Z,102126.28,1634933833,full,ni_sequenzen,NI_Sequenzen,,,,,,,,,,,,,,
,Screen_1,canvas.Screen,0_2_15_0,,skipped,16,101884,,,101884,,101884,2021-10-22T20:19:00.396Z,102126.28,1634933833,full,ni_sequenzen,NI_Sequenzen,,,,,,,,,,,,,,
,Screen_2,canvas.Screen,0_2_15_1,,skipped,16,101886,,,101884,,101886,2021-10-22T20:19:00.398Z,102126.28,1634933833,full,ni_sequenzen,NI_Sequenzen,,,,,,,,,,,,,,
,Screen_3,canvas.Screen,0_2_15_2,,skipped,16,101887,,,101884,,101887,2021-10-22T20:19:00.399Z,102126.28,1634933833,full,ni_sequenzen,NI_Sequenzen,,,,,,,,,,,,,,
,Screen_4,canvas.Screen,0_2_15_3,,skipped,16,101888,,,101884,,101888,2021-10-22T20:19:00.400Z,102126.28,1634933833,full,ni_sequenzen,NI_Sequenzen,,,,,,,,,,,,,,
,Screen_5,canvas.Screen,0_2_15_4,,skipped,16,101889,,,101884,,101889,2021-10-22T20:19:00.402Z,102126.28,1634933833,full,ni_sequenzen,NI_Sequenzen,,,,,,,,,,,,,,
,Screen_6,canvas.Screen,0_2_15_5,,skipped,16,101890,,,101884,,101890,2021-10-22T20:19:00.403Z,102126.28,1634933833,full,ni_sequenzen,NI_Sequenzen,,,,,,,,,,,,,,
,Sequence,flow.Sequence,0_2_15,,completion,16,101883,,,101884,,101891,2021-10-22T20:19:00.403Z,102126.28,1634933833,full,ni_sequenzen,NI_Sequenzen,,,,,,,,,,,,,,
,Screen_1,canvas.Screen,0_2_16_0,,skipped,17,101893,,,101893,,101894,2021-10-22T20:19:00.405Z,102126.28,1634933833,full,ni_sequenzen,NI_Sequenzen,,,,,,,,,,,,,,
,Screen_2,canvas.Screen,0_2_16_1,,skipped,17,101895,,,101893,,101895,2021-10-22T20:19:00.408Z,102126.28,1634933833,full,ni_sequenzen,NI_Sequenzen,,,,,,,,,,,,,,
,Screen_3,canvas.Screen,0_2_16_2,,skipped,17,101897,,,101893,,101897,2021-10-22T20:19:00.409Z,102126.28,1634933833,full,ni_sequenzen,NI_Sequenzen,,,,,,,,,,,,,,
,Screen_4,canvas.Screen,0_2_16_3,,skipped,17,101898,,,101893,,101898,2021-10-22T20:19:00.410Z,102126.28,1634933833,full,ni_sequenzen,NI_Sequenzen,,,,,,,,,,,,,,
,Screen_5,canvas.Screen,0_2_16_4,,skipped,17,101899,,,101893,,101899,2021-10-22T20:19:00.411Z,102126.28,1634933833,full,ni_sequenzen,NI_Sequenzen,,,,,,,,,,,,,,
,Screen_6,canvas.Screen,0_2_16_5,,skipped,17,101900,,,101893,,101901,2021-10-22T20:19:00.412Z,102126.28,1634933833,full,ni_sequenzen,NI_Sequenzen,,,,,,,,,,,,,,
,Sequence,flow.Sequence,0_2_16,,completion,17,101891,,,101893,,101901,2021-10-22T20:19:00.412Z,102126.28,1634933833,full,ni_sequenzen,NI_Sequenzen,,,,,,,,,,,,,,
,Screen_1,canvas.Screen,0_2_17_0,,skipped,18,101902,,,101902,,101902,2021-10-22T20:19:00.414Z,102126.28,1634933833,full,ni_sequenzen,NI_Sequenzen,,,,,,,,,,,,,,
,Screen_2,canvas.Screen,0_2_17_1,,skipped,18,101903,,,101902,,101903,2021-10-22T20:19:00.415Z,102126.28,1634933833,full,ni_sequenzen,NI_Sequenzen,,,,,,,,,,,,,,
,Screen_3,canvas.Screen,0_2_17_2,,skipped,18,101905,,,101902,,101905,2021-10-22T20:19:00.417Z,102126.28,1634933833,full,ni_sequenzen,NI_Sequenzen,,,,,,,,,,,,,,
,Screen_4,canvas.Screen,0_2_17_3,,skipped,18,101906,,,101902,,101906,2021-10-22T20:19:00.418Z,102126.28,1634933833,full,ni_sequenzen,NI_Sequenzen,,,,,,,,,,,,,,
,Screen_5,canvas.Screen,0_2_17_4,,skipped,18,101907,,,101902,,101907,2021-10-22T20:19:00.419Z,102126.28,1634933833,full,ni_sequenzen,NI_Sequenzen,,,,,,,,,,,,,,
,Screen_6,canvas.Screen,0_2_17_5,,skipped,18,101909,,,101902,,101909,2021-10-22T20:19:00.421Z,102126.28,1634933833,full,ni_sequenzen,NI_Sequenzen,,,,,,,,,,,,,,
,Sequence,flow.Sequence,0_2_17,,completion,18,101901,,,101902,,101909,2021-10-22T20:19:00.421Z,102126.28,1634933833,full,ni_sequenzen,NI_Sequenzen,,,,,,,,,,,,,,
,Screen_1,canvas.Screen,0_2_18_0,,skipped,19,101912,,,101912,,101912,2021-10-22T20:19:00.424Z,102126.28,1634933833,full,ni_sequenzen,NI_Sequenzen,,,,,,,,,,,,,,
,Screen_2,canvas.Screen,0_2_18_1,,skipped,19,101914,,,101912,,101914,2021-10-22T20:19:00.427Z,102126.28,1634933833,full,ni_sequenzen,NI_Sequenzen,,,,,,,,,,,,,,
,Screen_3,canvas.Screen,0_2_18_2,,skipped,19,101915,,,101912,,101915,2021-10-22T20:19:00.428Z,102126.28,1634933833,full,ni_sequenzen,NI_Sequenzen,,,,,,,,,,,,,,
,Screen_4,canvas.Screen,0_2_18_3,,skipped,19,101917,,,101912,,101917,2021-10-22T20:19:00.430Z,102126.28,1634933833,full,ni_sequenzen,NI_Sequenzen,,,,,,,,,,,,,,
,Screen_5,canvas.Screen,0_2_18_4,,skipped,19,101918,,,101912,,101918,2021-10-22T20:19:00.431Z,102126.28,1634933833,full,ni_sequenzen,NI_Sequenzen,,,,,,,,,,,,,,
,Screen_6,canvas.Screen,0_2_18_5,,skipped,19,101920,,,101912,,101920,2021-10-22T20:19:00.433Z,102126.28,1634933833,full,ni_sequenzen,NI_Sequenzen,,,,,,,,,,,,,,
,Sequence,flow.Sequence,0_2_18,,completion,19,101909,,,101912,,101920,2021-10-22T20:19:00.433Z,102126.28,1634933833,full,ni_sequenzen,NI_Sequenzen,,,,,,,,,,,,,,
,Screen_1,canvas.Screen,0_2_19_0,,skipped,20,101922,,,101922,,101922,2021-10-22T20:19:00.434Z,102126.28,1634933833,full,ni_sequenzen,NI_Sequenzen,,,,,,,,,,,,,,
,Screen_2,canvas.Screen,0_2_19_1,,skipped,20,101924,,,101922,,101924,2021-10-22T20:19:00.436Z,102126.28,1634933833,full,ni_sequenzen,NI_Sequenzen,,,,,,,,,,,,,,
,Screen_3,canvas.Screen,0_2_19_2,,skipped,20,101925,,,101922,,101925,2021-10-22T20:19:00.438Z,102126.28,1634933833,full,ni_sequenzen,NI_Sequenzen,,,,,,,,,,,,,,
,Screen_4,canvas.Screen,0_2_19_3,,skipped,20,101926,,,101922,,101926,2021-10-22T20:19:00.439Z,102126.28,1634933833,full,ni_sequenzen,NI_Sequenzen,,,,,,,,,,,,,,
,Screen_5,canvas.Screen,0_2_19_4,,skipped,20,101928,,,101922,,101928,2021-10-22T20:19:00.441Z,102126.28,1634933833,full,ni_sequenzen,NI_Sequenzen,,,,,,,,,,,,,,
,Screen_6,canvas.Screen,0_2_19_5,,skipped,20,101929,,,101922,,101929,2021-10-22T20:19:00.442Z,102126.28,1634933833,full,ni_sequenzen,NI_Sequenzen,,,,,,,,,,,,,,
,Sequence,flow.Sequence,0_2_19,,completion,20,101921,,,101922,,101930,2021-10-22T20:19:00.442Z,102126.28,1634933833,full,ni_sequenzen,NI_Sequenzen,,,,,,,,,,,,,,
,Screen_1,canvas.Screen,0_2_20_0,,skipped,21,101932,,,101932,,101932,2021-10-22T20:19:00.444Z,102126.28,1634933833,full,ni_sequenzen,NI_Sequenzen,,,,,,,,,,,,,,
,Screen_2,canvas.Screen,0_2_20_1,,skipped,21,101934,,,101932,,101934,2021-10-22T20:19:00.445Z,102126.28,1634933833,full,ni_sequenzen,NI_Sequenzen,,,,,,,,,,,,,,
,Screen_3,canvas.Screen,0_2_20_2,,skipped,21,101935,,,101932,,101935,2021-10-22T20:19:00.448Z,102126.28,1634933833,full,ni_sequenzen,NI_Sequenzen,,,,,,,,,,,,,,
,Screen_4,canvas.Screen,0_2_20_3,,skipped,21,101936,,,101932,,101937,2021-10-22T20:19:00.448Z,102126.28,1634933833,full,ni_sequenzen,NI_Sequenzen,,,,,,,,,,,,,,
,Screen_5,canvas.Screen,0_2_20_4,,skipped,21,101938,,,101932,,101938,2021-10-22T20:19:00.451Z,102126.28,1634933833,full,ni_sequenzen,NI_Sequenzen,,,,,,,,,,,,,,
,Screen_6,canvas.Screen,0_2_20_5,,skipped,21,101939,,,101932,,101939,2021-10-22T20:19:00.452Z,102126.28,1634933833,full,ni_sequenzen,NI_Sequenzen,,,,,,,,,,,,,,
,Sequence,flow.Sequence,0_2_20,,completion,21,101930,,,101932,,101940,2021-10-22T20:19:00.453Z,102126.28,1634933833,full,ni_sequenzen,NI_Sequenzen,,,,,,,,,,,,,,
,Screen_1,canvas.Screen,0_2_21_0,,skipped,22,101942,,,101942,,101942,2021-10-22T20:19:00.455Z,102126.28,1634933833,full,ni_sequenzen,NI_Sequenzen,,,,,,,,,,,,,,
,Screen_2,canvas.Screen,0_2_21_1,,skipped,22,101944,,,101942,,101944,2021-10-22T20:19:00.456Z,102126.28,1634933833,full,ni_sequenzen,NI_Sequenzen,,,,,,,,,,,,,,
,Screen_3,canvas.Screen,0_2_21_2,,skipped,22,101946,,,101942,,101946,2021-10-22T20:19:00.458Z,102126.28,1634933833,full,ni_sequenzen,NI_Sequenzen,,,,,,,,,,,,,,
,Screen_4,canvas.Screen,0_2_21_3,,skipped,22,101948,,,101942,,101948,2021-10-22T20:19:00.460Z,102126.28,1634933833,full,ni_sequenzen,NI_Sequenzen,,,,,,,,,,,,,,
,Screen_5,canvas.Screen,0_2_21_4,,skipped,22,101952,,,101942,,101953,2021-10-22T20:19:00.466Z,102126.28,1634933833,full,ni_sequenzen,NI_Sequenzen,,,,,,,,,,,,,,
,Screen_6,canvas.Screen,0_2_21_5,,skipped,22,101956,,,101942,,101956,2021-10-22T20:19:00.468Z,102126.28,1634933833,full,ni_sequenzen,NI_Sequenzen,,,,,,,,,,,,,,
,Sequence,flow.Sequence,0_2_21,,completion,22,101940,,,101942,,101956,2021-10-22T20:19:00.469Z,102126.28,1634933833,full,ni_sequenzen,NI_Sequenzen,,,,,,,,,,,,,,
,Screen_1,canvas.Screen,0_2_22_0,,skipped,23,101960,,,101960,,101960,2021-10-22T20:19:00.472Z,102126.28,1634933833,full,ni_sequenzen,NI_Sequenzen,,,,,,,,,,,,,,
,Screen_2,canvas.Screen,0_2_22_1,,skipped,23,101962,,,101960,,101962,2021-10-22T20:19:00.474Z,102126.28,1634933833,full,ni_sequenzen,NI_Sequenzen,,,,,,,,,,,,,,
,Screen_3,canvas.Screen,0_2_22_2,,skipped,23,101964,,,101960,,101964,2021-10-22T20:19:00.476Z,102126.28,1634933833,full,ni_sequenzen,NI_Sequenzen,,,,,,,,,,,,,,
,Screen_4,canvas.Screen,0_2_22_3,,skipped,23,101965,,,101960,,101965,2021-10-22T20:19:00.477Z,102126.28,1634933833,full,ni_sequenzen,NI_Sequenzen,,,,,,,,,,,,,,
,Screen_5,canvas.Screen,0_2_22_4,,skipped,23,101967,,,101960,,101967,2021-10-22T20:19:00.478Z,102126.28,1634933833,full,ni_sequenzen,NI_Sequenzen,,,,,,,,,,,,,,
,Screen_6,canvas.Screen,0_2_22_5,,skipped,23,101968,,,101960,,101968,2021-10-22T20:19:00.479Z,102126.28,1634933833,full,ni_sequenzen,NI_Sequenzen,,,,,,,,,,,,,,
,Sequence,flow.Sequence,0_2_22,,completion,23,101957,,,101960,,101968,2021-10-22T20:19:00.480Z,102126.28,1634933833,full,ni_sequenzen,NI_Sequenzen,,,,,,,,,,,,,,
,Screen_1,canvas.Screen,0_2_23_0,,skipped,24,101970,,,101970,,101970,2021-10-22T20:19:00.482Z,102126.28,1634933833,full,ni_sequenzen,NI_Sequenzen,,,,,,,,,,,,,,
,Screen_2,canvas.Screen,0_2_23_1,,skipped,24,101971,,,101970,,101971,2021-10-22T20:19:00.484Z,102126.28,1634933833,full,ni_sequenzen,NI_Sequenzen,,,,,,,,,,,,,,
,Screen_3,canvas.Screen,0_2_23_2,,skipped,24,101973,,,101970,,101973,2021-10-22T20:19:00.485Z,102126.28,1634933833,full,ni_sequenzen,NI_Sequenzen,,,,,,,,,,,,,,
,Screen_4,canvas.Screen,0_2_23_3,,skipped,24,101974,,,101970,,101974,2021-10-22T20:19:00.486Z,102126.28,1634933833,full,ni_sequenzen,NI_Sequenzen,,,,,,,,,,,,,,
,Screen_5,canvas.Screen,0_2_23_4,,skipped,24,101977,,,101970,,101977,2021-10-22T20:19:00.489Z,102126.28,1634933833,full,ni_sequenzen,NI_Sequenzen,,,,,,,,,,,,,,
,Screen_6,canvas.Screen,0_2_23_5,,skipped,24,101979,,,101970,,101979,2021-10-22T20:19:00.491Z,102126.28,1634933833,full,ni_sequenzen,NI_Sequenzen,,,,,,,,,,,,,,
,Sequence,flow.Sequence,0_2_23,,completion,24,101969,,,101970,,101979,2021-10-22T20:19:00.491Z,102126.28,1634933833,full,ni_sequenzen,NI_Sequenzen,,,,,,,,,,,,,,
,Screen_1,canvas.Screen,0_2_24_0,,skipped,25,101980,,,101980,,101980,2021-10-22T20:19:00.493Z,102126.28,1634933833,full,ni_sequenzen,NI_Sequenzen,,,,,,,,,,,,,,
,Screen_2,canvas.Screen,0_2_24_1,,skipped,25,101982,,,101980,,101982,2021-10-22T20:19:00.495Z,102126.28,1634933833,full,ni_sequenzen,NI_Sequenzen,,,,,,,,,,,,,,
,Screen_3,canvas.Screen,0_2_24_2,,skipped,25,101983,,,101980,,101983,2021-10-22T20:19:00.496Z,102126.28,1634933833,full,ni_sequenzen,NI_Sequenzen,,,,,,,,,,,,,,
,Screen_4,canvas.Screen,0_2_24_3,,skipped,25,101984,,,101980,,101984,2021-10-22T20:19:00.497Z,102126.28,1634933833,full,ni_sequenzen,NI_Sequenzen,,,,,,,,,,,,,,
,Screen_5,canvas.Screen,0_2_24_4,,skipped,25,101987,,,101980,,101987,2021-10-22T20:19:00.499Z,102126.28,1634933833,full,ni_sequenzen,NI_Sequenzen,,,,,,,,,,,,,,
,Screen_6,canvas.Screen,0_2_24_5,,skipped,25,101988,,,101980,,101988,2021-10-22T20:19:00.501Z,102126.28,1634933833,full,ni_sequenzen,NI_Sequenzen,,,,,,,,,,,,,,
,Sequence,flow.Sequence,0_2_24,,completion,25,101979,,,101980,,101989,2021-10-22T20:19:00.501Z,102126.28,1634933833,full,ni_sequenzen,NI_Sequenzen,,,,,,,,,,,,,,
,Screen_1,canvas.Screen,0_2_25_0,,skipped,26,101990,,,101990,,101990,2021-10-22T20:19:00.503Z,102126.28,1634933833,full,ni_sequenzen,NI_Sequenzen,,,,,,,,,,,,,,
,Screen_2,canvas.Screen,0_2_25_1,,skipped,26,101992,,,101990,,101992,2021-10-22T20:19:00.504Z,102126.28,1634933833,full,ni_sequenzen,NI_Sequenzen,,,,,,,,,,,,,,
,Screen_3,canvas.Screen,0_2_25_2,,skipped,26,101993,,,101990,,101993,2021-10-22T20:19:00.505Z,102126.28,1634933833,full,ni_sequenzen,NI_Sequenzen,,,,,,,,,,,,,,
,Screen_4,canvas.Screen,0_2_25_3,,skipped,26,101994,,,101990,,101994,2021-10-22T20:19:00.506Z,102126.28,1634933833,full,ni_sequenzen,NI_Sequenzen,,,,,,,,,,,,,,
,Screen_5,canvas.Screen,0_2_25_4,,skipped,26,101996,,,101990,,101996,2021-10-22T20:19:00.509Z,102126.28,1634933833,full,ni_sequenzen,NI_Sequenzen,,,,,,,,,,,,,,
,Screen_6,canvas.Screen,0_2_25_5,,skipped,26,101998,,,101990,,101998,2021-10-22T20:19:00.510Z,102126.28,1634933833,full,ni_sequenzen,NI_Sequenzen,,,,,,,,,,,,,,
,Sequence,flow.Sequence,0_2_25,,completion,26,101989,,,101990,,101998,2021-10-22T20:19:00.510Z,102126.28,1634933833,full,ni_sequenzen,NI_Sequenzen,,,,,,,,,,,,,,
,Screen_1,canvas.Screen,0_2_26_0,,skipped,27,102000,,,102000,,102000,2021-10-22T20:19:00.512Z,102126.28,1634933833,full,ni_sequenzen,NI_Sequenzen,,,,,,,,,,,,,,
,Screen_2,canvas.Screen,0_2_26_1,,skipped,27,102003,,,102000,,102003,2021-10-22T20:19:00.516Z,102126.28,1634933833,full,ni_sequenzen,NI_Sequenzen,,,,,,,,,,,,,,
,Screen_3,canvas.Screen,0_2_26_2,,skipped,27,102005,,,102000,,102005,2021-10-22T20:19:00.518Z,102126.28,1634933833,full,ni_sequenzen,NI_Sequenzen,,,,,,,,,,,,,,
,Screen_4,canvas.Screen,0_2_26_3,,skipped,27,102007,,,102000,,102007,2021-10-22T20:19:00.519Z,102126.28,1634933833,full,ni_sequenzen,NI_Sequenzen,,,,,,,,,,,,,,
,Screen_5,canvas.Screen,0_2_26_4,,skipped,27,102009,,,102000,,102009,2021-10-22T20:19:00.522Z,102126.28,1634933833,full,ni_sequenzen,NI_Sequenzen,,,,,,,,,,,,,,
,Screen_6,canvas.Screen,0_2_26_5,,skipped,27,102011,,,102000,,102011,2021-10-22T20:19:00.524Z,102126.28,1634933833,full,ni_sequenzen,NI_Sequenzen,,,,,,,,,,,,,,
,Sequence,flow.Sequence,0_2_26,,completion,27,101999,,,102000,,102011,2021-10-22T20:19:00.524Z,102126.28,1634933833,full,ni_sequenzen,NI_Sequenzen,,,,,,,,,,,,,,
,Screen_1,canvas.Screen,0_2_27_0,,skipped,28,102013,,,102013,,102013,2021-10-22T20:19:00.525Z,102126.28,1634933833,full,ni_sequenzen,NI_Sequenzen,,,,,,,,,,,,,,
,Screen_2,canvas.Screen,0_2_27_1,,skipped,28,102014,,,102013,,102015,2021-10-22T20:19:00.527Z,102126.28,1634933833,full,ni_sequenzen,NI_Sequenzen,,,,,,,,,,,,,,
,Screen_3,canvas.Screen,0_2_27_2,,skipped,28,102016,,,102013,,102016,2021-10-22T20:19:00.528Z,102126.28,1634933833,full,ni_sequenzen,NI_Sequenzen,,,,,,,,,,,,,,
,Screen_4,canvas.Screen,0_2_27_3,,skipped,28,102017,,,102013,,102017,2021-10-22T20:19:00.529Z,102126.28,1634933833,full,ni_sequenzen,NI_Sequenzen,,,,,,,,,,,,,,
,Screen_5,canvas.Screen,0_2_27_4,,skipped,28,102019,,,102013,,102019,2021-10-22T20:19:00.531Z,102126.28,1634933833,full,ni_sequenzen,NI_Sequenzen,,,,,,,,,,,,,,
,Screen_6,canvas.Screen,0_2_27_5,,skipped,28,102022,,,102013,,102022,2021-10-22T20:19:00.534Z,102126.28,1634933833,full,ni_sequenzen,NI_Sequenzen,,,,,,,,,,,,,,
,Sequence,flow.Sequence,0_2_27,,completion,28,102012,,,102013,,102022,2021-10-22T20:19:00.534Z,102126.28,1634933833,full,ni_sequenzen,NI_Sequenzen,,,,,,,,,,,,,,
,Screen_1,canvas.Screen,0_2_28_0,,skipped,29,102024,,,102024,,102024,2021-10-22T20:19:00.535Z,102126.28,1634933833,full,ni_sequenzen,NI_Sequenzen,,,,,,,,,,,,,,
,Screen_2,canvas.Screen,0_2_28_1,,skipped,29,102025,,,102024,,102025,2021-10-22T20:19:00.537Z,102126.28,1634933833,full,ni_sequenzen,NI_Sequenzen,,,,,,,,,,,,,,
,Screen_3,canvas.Screen,0_2_28_2,,skipped,29,102026,,,102024,,102026,2021-10-22T20:19:00.538Z,102126.28,1634933833,full,ni_sequenzen,NI_Sequenzen,,,,,,,,,,,,,,
,Screen_4,canvas.Screen,0_2_28_3,,skipped,29,102028,,,102024,,102028,2021-10-22T20:19:00.539Z,102126.28,1634933833,full,ni_sequenzen,NI_Sequenzen,,,,,,,,,,,,,,
,Screen_5,canvas.Screen,0_2_28_4,,skipped,29,102030,,,102024,,102030,2021-10-22T20:19:00.541Z,102126.28,1634933833,full,ni_sequenzen,NI_Sequenzen,,,,,,,,,,,,,,
,Screen_6,canvas.Screen,0_2_28_5,,skipped,29,102031,,,102024,,102031,2021-10-22T20:19:00.543Z,102126.28,1634933833,full,ni_sequenzen,NI_Sequenzen,,,,,,,,,,,,,,
,Sequence,flow.Sequence,0_2_28,,completion,29,102023,,,102024,,102032,2021-10-22T20:19:00.543Z,102126.28,1634933833,full,ni_sequenzen,NI_Sequenzen,,,,,,,,,,,,,,
,Screen_1,canvas.Screen,0_2_29_0,,skipped,30,102033,,,102034,,102034,2021-10-22T20:19:00.546Z,102126.28,1634933833,full,ni_sequenzen,NI_Sequenzen,,,,,,,,,,,,,,
,Screen_2,canvas.Screen,0_2_29_1,,skipped,30,102035,,,102034,,102035,2021-10-22T20:19:00.547Z,102126.28,1634933833,full,ni_sequenzen,NI_Sequenzen,,,,,,,,,,,,,,
,Screen_3,canvas.Screen,0_2_29_2,,skipped,30,102066,,,102034,,102066,2021-10-22T20:19:00.579Z,102126.28,1634933833,full,ni_sequenzen,NI_Sequenzen,,,,,,,,,,,,,,
,Screen_4,canvas.Screen,0_2_29_3,,skipped,30,102068,,,102034,,102068,2021-10-22T20:19:00.581Z,102126.28,1634933833,full,ni_sequenzen,NI_Sequenzen,,,,,,,,,,,,,,
,Screen_5,canvas.Screen,0_2_29_4,,skipped,30,102069,,,102034,,102069,2021-10-22T20:19:00.582Z,102126.28,1634933833,full,ni_sequenzen,NI_Sequenzen,,,,,,,,,,,,,,
,Screen_6,canvas.Screen,0_2_29_5,,skipped,30,102070,,,102034,,102070,2021-10-22T20:19:00.583Z,102126.28,1634933833,full,ni_sequenzen,NI_Sequenzen,,,,,,,,,,,,,,
,Sequence,flow.Sequence,0_2_29,,completion,30,102032,,,102034,,102071,2021-10-22T20:19:00.583Z,102126.28,1634933833,full,ni_sequenzen,NI_Sequenzen,,,,,,,,,,,,,,
,Instructions_II,flow.Loop,0_2,,completion,,55864,55866.84,55889.92,102034,46144.08,102071,2021-10-22T20:19:00.583Z,102126.28,1634933833,full,ni_sequenzen,NI_Sequenzen,,,,,,,,,,,,,,
,Move,canvas.Screen,0_3_0_0_0_0,right,response,,102117,102117.06,102126.28,113268,11141.720000000001,113281,2021-10-22T20:19:11.793Z,113288.44,1634933833,full,ni_sequenzen,NI_Sequenzen,1,0,,,,,,,,,,,,
,Move,canvas.Screen,0_3_0_0_0_1,down,response,,113288,113287.56,113288.44,114185,896.5599999999977,114200,2021-10-22T20:19:12.712Z,114224.46,1634933833,full,ni_sequenzen,NI_Sequenzen,2,0,,,,,,,,,,,,
,Move,canvas.Screen,0_3_0_0_0_2,right,response,,114206,114205.74,114224.46,115102,877.5399999999936,115114,2021-10-22T20:19:13.627Z,115136.2,1634933833,full,ni_sequenzen,NI_Sequenzen,3,0,,,,,,,,,,,,
,Move,canvas.Screen,0_3_0_0_0_3,down,response,,115120,115120.3,115136.2,115829,692.8000000000029,115841,2021-10-22T20:19:14.354Z,115901.24,1634933833,full,ni_sequenzen,NI_Sequenzen,4,0,,,,,,,,,,,,
,Move,canvas.Screen,0_3_0_0_0_4,-999,skipped,,115848,,,115829,,115848,2021-10-22T20:19:14.359Z,115901.24,1634933833,full,ni_sequenzen,NI_Sequenzen,5,0,,,,,,,,,,,,
,Move,canvas.Screen,0_3_0_0_0_5,-999,skipped,,115853,,,115829,,115853,2021-10-22T20:19:14.366Z,115901.24,1634933833,full,ni_sequenzen,NI_Sequenzen,6,0,,,,,,,,,,,,
,Move,canvas.Screen,0_3_0_0_0_6,-999,skipped,,115857,,,115829,,115857,2021-10-22T20:19:14.370Z,115901.24,1634933833,full,ni_sequenzen,NI_Sequenzen,7,0,,,,,,,,,,,,
,Move,canvas.Screen,0_3_0_0_0_7,-999,skipped,,115862,,,115829,,115862,2021-10-22T20:19:14.375Z,115901.24,1634933833,full,ni_sequenzen,NI_Sequenzen,8,0,,,,,,,,,,,,
,Move,canvas.Screen,0_3_0_0_0_8,-999,skipped,,115867,,,115829,,115867,2021-10-22T20:19:14.379Z,115901.24,1634933833,full,ni_sequenzen,NI_Sequenzen,9,0,,,,,,,,,,,,
,Move,canvas.Screen,0_3_0_0_0_9,-999,skipped,,115872,,,115829,,115872,2021-10-22T20:19:14.385Z,115901.24,1634933833,full,ni_sequenzen,NI_Sequenzen,10,0,,,,,,,,,,,,
,Move,canvas.Screen,0_3_0_0_0_10,-999,skipped,,115877,,,115829,,115877,2021-10-22T20:19:14.389Z,115901.24,1634933833,full,ni_sequenzen,NI_Sequenzen,11,0,,,,,,,,,,,,
,Move,canvas.Screen,0_3_0_0_0_11,-999,skipped,,115882,,,115829,,115882,2021-10-22T20:19:14.395Z,115901.24,1634933833,full,ni_sequenzen,NI_Sequenzen,12,0,,,,,,,,,,,,
,Move,canvas.Screen,0_3_0_0_0_12,-999,skipped,,115887,,,115829,,115887,2021-10-22T20:19:14.400Z,115901.24,1634933833,full,ni_sequenzen,NI_Sequenzen,13,0,,,,,,,,,,,,
,Move,canvas.Screen,0_3_0_0_0_13,-999,skipped,,115891,,,115829,,115892,2021-10-22T20:19:14.404Z,115901.24,1634933833,full,ni_sequenzen,NI_Sequenzen,14,0,,,,,,,,,,,,
,Move,canvas.Screen,0_3_0_0_0_14,-999,skipped,,115897,,,115829,,115897,2021-10-22T20:19:14.409Z,115901.24,1634933833,full,ni_sequenzen,NI_Sequenzen,15,0,,,,,,,,,,,,
,Loop,flow.Loop,0_3_0_0_0,-999,completion,,102109,102117.06,102126.28,115829,13702.720000000001,115897,2021-10-22T20:19:14.409Z,115901.24,1634933833,full,ni_sequenzen,NI_Sequenzen,,0,,,,,,,,,,,,
,Feedback,canvas.Screen,0_3_0_0_1,,timeout,,115901,115900.46,115901.24,119891.24,4011.5,119902,2021-10-22T20:19:18.414Z,119912.74,1634933833,full,ni_sequenzen,NI_Sequenzen,,0,,,,,,,,,,,,
,Trial,flow.Sequence,0_3_0_0,,completion,,102099,102117.06,102126.28,119891.24,17764.960000000006,119902,2021-10-22T20:19:18.414Z,119913.52,1634933833,full,ni_sequenzen,NI_Sequenzen,,0,,,,,,,,,,,,
,Move,canvas.Screen,0_3_0_1_0_0,left,response,,119913,119912.74,119913.52,123924,4010.479999999996,123936,2021-10-22T20:19:22.448Z,123941.98,1634933833,full,ni_sequenzen,NI_Sequenzen,1,1,,,,,,,,,,,,
,Move,canvas.Screen,0_3_0_1_0_1,down,response,,123940,123941.1,123941.98,125652,1710.020000000004,125664,2021-10-22T20:19:24.177Z,125684.58,1634933833,full,ni_sequenzen,NI_Sequenzen,2,1,,,,,,,,,,,,
,Move,canvas.Screen,0_3_0_1_0_2,down,response,,125669,125669.18,125684.58,126851,1166.4199999999983,126867,2021-10-22T20:19:25.379Z,126874.14,1634933833,full,ni_sequenzen,NI_Sequenzen,3,1,,,,,,,,,,,,
,Move,canvas.Screen,0_3_0_1_0_3,left,response,,126873,126872.96,126874.14,127473,598.8600000000006,127485,2021-10-22T20:19:25.998Z,127540.28,1634933833,full,ni_sequenzen,NI_Sequenzen,4,1,,,,,,,,,,,,
,Move,canvas.Screen,0_3_0_1_0_4,-999,skipped,,127489,,,127473,,127489,2021-10-22T20:19:26.002Z,127540.28,1634933833,full,ni_sequenzen,NI_Sequenzen,5,1,,,,,,,,,,,,
,Move,canvas.Screen,0_3_0_1_0_5,-999,skipped,,127495,,,127473,,127495,2021-10-22T20:19:26.007Z,127540.28,1634933833,full,ni_sequenzen,NI_Sequenzen,6,1,,,,,,,,,,,,
,Move,canvas.Screen,0_3_0_1_0_6,-999,skipped,,127499,,,127473,,127499,2021-10-22T20:19:26.012Z,127540.28,1634933833,full,ni_sequenzen,NI_Sequenzen,7,1,,,,,,,,,,,,
,Move,canvas.Screen,0_3_0_1_0_7,-999,skipped,,127504,,,127473,,127504,2021-10-22T20:19:26.016Z,127540.28,1634933833,full,ni_sequenzen,NI_Sequenzen,8,1,,,,,,,,,,,,
,Move,canvas.Screen,0_3_0_1_0_8,-999,skipped,,127508,,,127473,,127508,2021-10-22T20:19:26.021Z,127540.28,1634933833,full,ni_sequenzen,NI_Sequenzen,9,1,,,,,,,,,,,,
,Move,canvas.Screen,0_3_0_1_0_9,-999,skipped,,127512,,,127473,,127512,2021-10-22T20:19:26.026Z,127540.28,1634933833,full,ni_sequenzen,NI_Sequenzen,10,1,,,,,,,,,,,,
,Move,canvas.Screen,0_3_0_1_0_10,-999,skipped,,127517,,,127473,,127517,2021-10-22T20:19:26.030Z,127540.28,1634933833,full,ni_sequenzen,NI_Sequenzen,11,1,,,,,,,,,,,,
,Move,canvas.Screen,0_3_0_1_0_11,-999,skipped,,127522,,,127473,,127522,2021-10-22T20:19:26.034Z,127540.28,1634933833,full,ni_sequenzen,NI_Sequenzen,12,1,,,,,,,,,,,,
,Move,canvas.Screen,0_3_0_1_0_12,-999,skipped,,127527,,,127473,,127527,2021-10-22T20:19:26.040Z,127540.28,1634933833,full,ni_sequenzen,NI_Sequenzen,13,1,,,,,,,,,,,,
,Move,canvas.Screen,0_3_0_1_0_13,-999,skipped,,127531,,,127473,,127532,2021-10-22T20:19:26.045Z,127540.28,1634933833,full,ni_sequenzen,NI_Sequenzen,14,1,,,,,,,,,,,,
,Move,canvas.Screen,0_3_0_1_0_14,-999,skipped,,127536,,,127473,,127536,2021-10-22T20:19:26.049Z,127540.28,1634933833,full,ni_sequenzen,NI_Sequenzen,15,1,,,,,,,,,,,,
,Loop,flow.Loop,0_3_0_1_0,-999,completion,,119908,119912.74,119913.52,127473,7559.479999999996,127536,2021-10-22T20:19:26.049Z,127540.28,1634933833,full,ni_sequenzen,NI_Sequenzen,,1,,,,,,,,,,,,
,Feedback,canvas.Screen,0_3_0_1_1,,timeout,,127539,127539.48,127540.28,131524.42,4001.8399999999965,131532,2021-10-22T20:19:30.045Z,131542.12,1634933833,full,ni_sequenzen,NI_Sequenzen,,1,,,,,,,,,,,,
,Trial,flow.Sequence,0_3_0_1,,completion,,119902,119912.74,119913.52,131524.42,11610.900000000009,131532,2021-10-22T20:19:30.045Z,131556.86,1634933833,full,ni_sequenzen,NI_Sequenzen,,1,,,,,,,,,,,,
,Move,canvas.Screen,0_3_0_2_0_0,right,response,,131542,131542.12,131556.86,135627,4070.140000000014,135639,2021-10-22T20:19:34.152Z,135658.56,1634933833,full,ni_sequenzen,NI_Sequenzen,1,2,,,,,,,,,,,,
,Move,canvas.Screen,0_3_0_2_0_1,down,response,,135644,135643.78,135658.56,136283,624.4400000000023,136295,2021-10-22T20:19:34.808Z,136300.36,1634933833,full,ni_sequenzen,NI_Sequenzen,2,2,,,,,,,,,,,,
,Move,canvas.Screen,0_3_0_2_0_2,right,response,,136300,136299.5,136300.36,137011,710.640000000014,137024,2021-10-22T20:19:35.538Z,137038.1,1634933833,full,ni_sequenzen,NI_Sequenzen,3,2,,,,,,,,,,,,
,Move,canvas.Screen,0_3_0_2_0_3,down,response,,137036,137036.56,137038.1,137600,561.8999999999942,137612,2021-10-22T20:19:36.125Z,137689.86,1634933833,full,ni_sequenzen,NI_Sequenzen,4,2,,,,,,,,,,,,
,Move,canvas.Screen,0_3_0_2_0_4,-999,skipped,,137620,,,137600,,137620,2021-10-22T20:19:36.134Z,137689.86,1634933833,full,ni_sequenzen,NI_Sequenzen,5,2,,,,,,,,,,,,
,Move,canvas.Screen,0_3_0_2_0_5,-999,skipped,,137628,,,137600,,137628,2021-10-22T20:19:36.142Z,137689.86,1634933833,full,ni_sequenzen,NI_Sequenzen,6,2,,,,,,,,,,,,
,Move,canvas.Screen,0_3_0_2_0_6,-999,skipped,,137636,,,137600,,137636,2021-10-22T20:19:36.149Z,137689.86,1634933833,full,ni_sequenzen,NI_Sequenzen,7,2,,,,,,,,,,,,
,Move,canvas.Screen,0_3_0_2_0_7,-999,skipped,,137642,,,137600,,137642,2021-10-22T20:19:36.156Z,137689.86,1634933833,full,ni_sequenzen,NI_Sequenzen,8,2,,,,,,,,,,,,
,Move,canvas.Screen,0_3_0_2_0_8,-999,skipped,,137648,,,137600,,137649,2021-10-22T20:19:36.162Z,137689.86,1634933833,full,ni_sequenzen,NI_Sequenzen,9,2,,,,,,,,,,,,
,Move,canvas.Screen,0_3_0_2_0_9,-999,skipped,,137654,,,137600,,137654,2021-10-22T20:19:36.167Z,137689.86,1634933833,full,ni_sequenzen,NI_Sequenzen,10,2,,,,,,,,,,,,
,Move,canvas.Screen,0_3_0_2_0_10,-999,skipped,,137659,,,137600,,137660,2021-10-22T20:19:36.173Z,137689.86,1634933833,full,ni_sequenzen,NI_Sequenzen,11,2,,,,,,,,,,,,
,Move,canvas.Screen,0_3_0_2_0_11,-999,skipped,,137666,,,137600,,137666,2021-10-22T20:19:36.179Z,137689.86,1634933833,full,ni_sequenzen,NI_Sequenzen,12,2,,,,,,,,,,,,
,Move,canvas.Screen,0_3_0_2_0_12,-999,skipped,,137671,,,137600,,137671,2021-10-22T20:19:36.184Z,137689.86,1634933833,full,ni_sequenzen,NI_Sequenzen,13,2,,,,,,,,,,,,
,Move,canvas.Screen,0_3_0_2_0_13,-999,skipped,,137678,,,137600,,137678,2021-10-22T20:19:36.191Z,137689.86,1634933833,full,ni_sequenzen,NI_Sequenzen,14,2,,,,,,,,,,,,
,Move,canvas.Screen,0_3_0_2_0_14,-999,skipped,,137684,,,137600,,137684,2021-10-22T20:19:36.198Z,137689.86,1634933833,full,ni_sequenzen,NI_Sequenzen,15,2,,,,,,,,,,,,
,Loop,flow.Loop,0_3_0_2_0,-999,completion,,131537,131542.12,131556.86,137600,6043.140000000014,137684,2021-10-22T20:19:36.198Z,137689.86,1634933833,full,ni_sequenzen,NI_Sequenzen,,2,,,,,,,,,,,,
,Feedback,canvas.Screen,0_3_0_2_1,,timeout,,137689,137689.1,137689.86,141665.32,4003.0200000000186,141675,2021-10-22T20:19:40.188Z,141692.88,1634933833,full,ni_sequenzen,NI_Sequenzen,,2,,,,,,,,,,,,
,Trial,flow.Sequence,0_3_0_2,,completion,,131532,131542.12,131556.86,141665.32,10108.460000000021,141675,2021-10-22T20:19:40.189Z,141698.58,1634933833,full,ni_sequenzen,NI_Sequenzen,,2,,,,,,,,,,,,
,Move,canvas.Screen,0_3_0_3_0_0,left,response,,141693,141692.88,141698.58,144822,3123.420000000013,144834,2021-10-22T20:19:43.348Z,144840.72,1634933833,full,ni_sequenzen,NI_Sequenzen,1,3,,,,,,,,,,,,
,Move,canvas.Screen,0_3_0_3_0_1,down,response,,144840,144839.92,144840.72,146209,1368.2799999999988,146221,2021-10-22T20:19:44.734Z,146234.6,1634933833,full,ni_sequenzen,NI_Sequenzen,2,3,,,,,,,,,,,,
,Move,canvas.Screen,0_3_0_3_0_2,down,response,,146227,146226.5,146234.6,148918,2683.399999999994,148930,2021-10-22T20:19:47.444Z,148936.54,1634933833,full,ni_sequenzen,NI_Sequenzen,3,3,,,,,,,,,,,,
,Move,canvas.Screen,0_3_0_3_0_3,left,response,,148936,148935.78,148936.54,149710,773.4599999999919,149728,2021-10-22T20:19:48.241Z,149790.7,1634933833,full,ni_sequenzen,NI_Sequenzen,4,3,,,,,,,,,,,,
,Move,canvas.Screen,0_3_0_3_0_4,-999,skipped,,149733,,,149710,,149733,2021-10-22T20:19:48.247Z,149790.7,1634933833,full,ni_sequenzen,NI_Sequenzen,5,3,,,,,,,,,,,,
,Move,canvas.Screen,0_3_0_3_0_5,-999,skipped,,149739,,,149710,,149739,2021-10-22T20:19:48.253Z,149790.7,1634933833,full,ni_sequenzen,NI_Sequenzen,6,3,,,,,,,,,,,,
,Move,canvas.Screen,0_3_0_3_0_6,-999,skipped,,149744,,,149710,,149745,2021-10-22T20:19:48.259Z,149790.7,1634933833,full,ni_sequenzen,NI_Sequenzen,7,3,,,,,,,,,,,,
,Move,canvas.Screen,0_3_0_3_0_7,-999,skipped,,149752,,,149710,,149752,2021-10-22T20:19:48.265Z,149790.7,1634933833,full,ni_sequenzen,NI_Sequenzen,8,3,,,,,,,,,,,,
,Move,canvas.Screen,0_3_0_3_0_8,-999,skipped,,149757,,,149710,,149757,2021-10-22T20:19:48.271Z,149790.7,1634933833,full,ni_sequenzen,NI_Sequenzen,9,3,,,,,,,,,,,,
,Move,canvas.Screen,0_3_0_3_0_9,-999,skipped,,149761,,,149710,,149761,2021-10-22T20:19:48.275Z,149790.7,1634933833,full,ni_sequenzen,NI_Sequenzen,10,3,,,,,,,,,,,,
,Move,canvas.Screen,0_3_0_3_0_10,-999,skipped,,149766,,,149710,,149766,2021-10-22T20:19:48.280Z,149790.7,1634933833,full,ni_sequenzen,NI_Sequenzen,11,3,,,,,,,,,,,,
,Move,canvas.Screen,0_3_0_3_0_11,-999,skipped,,149771,,,149710,,149771,2021-10-22T20:19:48.285Z,149790.7,1634933833,full,ni_sequenzen,NI_Sequenzen,12,3,,,,,,,,,,,,
,Move,canvas.Screen,0_3_0_3_0_12,-999,skipped,,149776,,,149710,,149776,2021-10-22T20:19:48.290Z,149790.7,1634933833,full,ni_sequenzen,NI_Sequenzen,13,3,,,,,,,,,,,,
,Move,canvas.Screen,0_3_0_3_0_13,-999,skipped,,149781,,,149710,,149781,2021-10-22T20:19:48.295Z,149790.7,1634933833,full,ni_sequenzen,NI_Sequenzen,14,3,,,,,,,,,,,,
,Move,canvas.Screen,0_3_0_3_0_14,-999,skipped,,149786,,,149710,,149786,2021-10-22T20:19:48.300Z,149790.7,1634933833,full,ni_sequenzen,NI_Sequenzen,15,3,,,,,,,,,,,,
,Loop,flow.Loop,0_3_0_3_0,-999,completion,,141687,141692.88,141698.58,149710,8011.420000000013,149786,2021-10-22T20:19:48.300Z,149790.7,1634933833,full,ni_sequenzen,NI_Sequenzen,,3,,,,,,,,,,,,
,Feedback,canvas.Screen,0_3_0_3_1,,timeout,,149790,149789.96,149790.7,153778.04,4010.679999999993,153788,2021-10-22T20:19:52.301Z,153801.38,1634933833,full,ni_sequenzen,NI_Sequenzen,,3,,,,,,,,,,,,
,Trial,flow.Sequence,0_3_0_3,,completion,,141676,141692.88,141698.58,153778.04,12079.460000000021,153788,2021-10-22T20:19:52.301Z,153802.18,1634933833,full,ni_sequenzen,NI_Sequenzen,,3,,,,,,,,,,,,
,Move,canvas.Screen,0_3_0_4_0_0,down,response,,153802,153801.38,153802.18,155217,1414.820000000007,155235,2021-10-22T20:19:53.748Z,155260.94,1634933833,full,ni_sequenzen,NI_Sequenzen,1,4,,,,,,,,,,,,
,Move,canvas.Screen,0_3_0_4_0_1,left,response,,155242,155241.82,155260.94,155791,530.0599999999977,155804,2021-10-22T20:19:54.317Z,155811.9,1634933833,full,ni_sequenzen,NI_Sequenzen,2,4,,,,,,,,,,,,
,Move,canvas.Screen,0_3_0_4_0_2,down,response,,155810,155810.82,155811.9,156486,674.1000000000058,156507,2021-10-22T20:19:55.021Z,156526.8,1634933833,full,ni_sequenzen,NI_Sequenzen,3,4,,,,,,,,,,,,
,Move,canvas.Screen,0_3_0_4_0_3,left,response,,156517,156517.86,156526.8,156969,442.20000000001164,156984,2021-10-22T20:19:55.498Z,157079.44,1634933833,full,ni_sequenzen,NI_Sequenzen,4,4,,,,,,,,,,,,
,Move,canvas.Screen,0_3_0_4_0_4,-999,skipped,,156989,,,156969,,156990,2021-10-22T20:19:55.504Z,157079.44,1634933833,full,ni_sequenzen,NI_Sequenzen,5,4,,,,,,,,,,,,
,Move,canvas.Screen,0_3_0_4_0_5,-999,skipped,,156995,,,156969,,156995,2021-10-22T20:19:55.509Z,157079.44,1634933833,full,ni_sequenzen,NI_Sequenzen,6,4,,,,,,,,,,,,
,Move,canvas.Screen,0_3_0_4_0_6,-999,skipped,,157000,,,156969,,157001,2021-10-22T20:19:55.514Z,157079.44,1634933833,full,ni_sequenzen,NI_Sequenzen,7,4,,,,,,,,,,,,
,Move,canvas.Screen,0_3_0_4_0_7,-999,skipped,,157004,,,156969,,157005,2021-10-22T20:19:55.518Z,157079.44,1634933833,full,ni_sequenzen,NI_Sequenzen,8,4,,,,,,,,,,,,
,Move,canvas.Screen,0_3_0_4_0_8,-999,skipped,,157011,,,156969,,157011,2021-10-22T20:19:55.525Z,157079.44,1634933833,full,ni_sequenzen,NI_Sequenzen,9,4,,,,,,,,,,,,
,Move,canvas.Screen,0_3_0_4_0_9,-999,skipped,,157015,,,156969,,157015,2021-10-22T20:19:55.530Z,157079.44,1634933833,full,ni_sequenzen,NI_Sequenzen,10,4,,,,,,,,,,,,
,Move,canvas.Screen,0_3_0_4_0_10,-999,skipped,,157021,,,156969,,157021,2021-10-22T20:19:55.534Z,157079.44,1634933833,full,ni_sequenzen,NI_Sequenzen,11,4,,,,,,,,,,,,
,Move,canvas.Screen,0_3_0_4_0_11,-999,skipped,,157026,,,156969,,157026,2021-10-22T20:19:55.540Z,157079.44,1634933833,full,ni_sequenzen,NI_Sequenzen,12,4,,,,,,,,,,,,
,Move,canvas.Screen,0_3_0_4_0_12,-999,skipped,,157032,,,156969,,157032,2021-10-22T20:19:55.546Z,157079.44,1634933833,full,ni_sequenzen,NI_Sequenzen,13,4,,,,,,,,,,,,
,Move,canvas.Screen,0_3_0_4_0_13,-999,skipped,,157037,,,156969,,157037,2021-10-22T20:19:55.551Z,157079.44,1634933833,full,ni_sequenzen,NI_Sequenzen,14,4,,,,,,,,,,,,
,Move,canvas.Screen,0_3_0_4_0_14,-999,skipped,,157042,,,156969,,157042,2021-10-22T20:19:55.556Z,157079.44,1634933833,full,ni_sequenzen,NI_Sequenzen,15,4,,,,,,,,,,,,
,Loop,flow.Loop,0_3_0_4_0,-999,completion,,153797,153801.38,153802.18,156969,3166.820000000007,157043,2021-10-22T20:19:55.557Z,157079.44,1634933833,full,ni_sequenzen,NI_Sequenzen,,4,,,,,,,,,,,,
,Feedback,canvas.Screen,0_3_0_4_1,,timeout,,157047,157047.08,157079.44,161064.66,4003.8800000000047,161073,2021-10-22T20:19:59.586Z,161083.32,1634933833,full,ni_sequenzen,NI_Sequenzen,,4,,,,,,,,,,,,
,Trial,flow.Sequence,0_3_0_4,,completion,,153788,153801.38,153802.18,161064.66,7262.4800000000105,161073,2021-10-22T20:19:59.587Z,161097.4,1634933833,full,ni_sequenzen,NI_Sequenzen,,4,,,,,,,,,,,,
,Move,canvas.Screen,0_3_0_5_0_0,right,response,,161083,161083.32,161097.4,166745,5647.600000000006,166756,2021-10-22T20:20:05.271Z,166762.36,1634933833,full,ni_sequenzen,NI_Sequenzen,1,5,,,,,,,,,,,,
,Move,canvas.Screen,0_3_0_5_0_1,down,response,,166762,166761.58,166762.36,167199,436.64000000001397,167247,2021-10-22T20:20:05.761Z,167307.4,1634933833,full,ni_sequenzen,NI_Sequenzen,2,5,,,,,,,,,,,,
,Move,canvas.Screen,0_3_0_5_0_2,right,response,,167251,167251.36,167307.4,167775,467.6000000000058,167786,2021-10-22T20:20:06.300Z,167800.38,1634933833,full,ni_sequenzen,NI_Sequenzen,3,5,,,,,,,,,,,,
,Move,canvas.Screen,0_3_0_5_0_3,down,response,,167791,167790.54,167800.38,168278,477.61999999999534,168289,2021-10-22T20:20:06.804Z,168361.84,1634933833,full,ni_sequenzen,NI_Sequenzen,4,5,,,,,,,,,,,,
,Move,canvas.Screen,0_3_0_5_0_4,-999,skipped,,168295,,,168278,,168295,2021-10-22T20:20:06.810Z,168361.84,1634933833,full,ni_sequenzen,NI_Sequenzen,5,5,,,,,,,,,,,,
,Move,canvas.Screen,0_3_0_5_0_5,-999,skipped,,168300,,,168278,,168300,2021-10-22T20:20:06.814Z,168361.84,1634933833,full,ni_sequenzen,NI_Sequenzen,6,5,,,,,,,,,,,,
,Move,canvas.Screen,0_3_0_5_0_6,-999,skipped,,168304,,,168278,,168304,2021-10-22T20:20:06.819Z,168361.84,1634933833,full,ni_sequenzen,NI_Sequenzen,7,5,,,,,,,,,,,,
,Move,canvas.Screen,0_3_0_5_0_7,-999,skipped,,168310,,,168278,,168310,2021-10-22T20:20:06.824Z,168361.84,1634933833,full,ni_sequenzen,NI_Sequenzen,8,5,,,,,,,,,,,,
,Move,canvas.Screen,0_3_0_5_0_8,-999,skipped,,168315,,,168278,,168315,2021-10-22T20:20:06.829Z,168361.84,1634933833,full,ni_sequenzen,NI_Sequenzen,9,5,,,,,,,,,,,,
,Move,canvas.Screen,0_3_0_5_0_9,-999,skipped,,168320,,,168278,,168320,2021-10-22T20:20:06.834Z,168361.84,1634933833,full,ni_sequenzen,NI_Sequenzen,10,5,,,,,,,,,,,,
,Move,canvas.Screen,0_3_0_5_0_10,-999,skipped,,168324,,,168278,,168324,2021-10-22T20:20:06.838Z,168361.84,1634933833,full,ni_sequenzen,NI_Sequenzen,11,5,,,,,,,,,,,,
,Move,canvas.Screen,0_3_0_5_0_11,-999,skipped,,168329,,,168278,,168329,2021-10-22T20:20:06.843Z,168361.84,1634933833,full,ni_sequenzen,NI_Sequenzen,12,5,,,,,,,,,,,,
,Move,canvas.Screen,0_3_0_5_0_12,-999,skipped,,168334,,,168278,,168334,2021-10-22T20:20:06.848Z,168361.84,1634933833,full,ni_sequenzen,NI_Sequenzen,13,5,,,,,,,,,,,,
,Move,canvas.Screen,0_3_0_5_0_13,-999,skipped,,168338,,,168278,,168338,2021-10-22T20:20:06.852Z,168361.84,1634933833,full,ni_sequenzen,NI_Sequenzen,14,5,,,,,,,,,,,,
,Move,canvas.Screen,0_3_0_5_0_14,-999,skipped,,168344,,,168278,,168344,2021-10-22T20:20:06.857Z,168361.84,1634933833,full,ni_sequenzen,NI_Sequenzen,15,5,,,,,,,,,,,,
,Loop,flow.Loop,0_3_0_5_0,-999,completion,,161078,161083.32,161097.4,168278,7180.600000000006,168344,2021-10-22T20:20:06.857Z,168361.84,1634933833,full,ni_sequenzen,NI_Sequenzen,,5,,,,,,,,,,,,
,Feedback,canvas.Screen,0_3_0_5_1,,timeout,,168347,168347.38,168361.84,172347.24,4005.179999999993,172356,2021-10-22T20:20:10.871Z,172367.02,1634933833,full,ni_sequenzen,NI_Sequenzen,,5,,,,,,,,,,,,
,Trial,flow.Sequence,0_3_0_5,,completion,,161073,161083.32,161097.4,172347.24,11249.839999999997,172357,2021-10-22T20:20:10.871Z,172368.16,1634933833,full,ni_sequenzen,NI_Sequenzen,,5,,,,,,,,,,,,
,Move,canvas.Screen,0_3_0_6_0_0,right,response,,172367,172367.02,172368.16,178129,5760.8399999999965,178141,2021-10-22T20:20:16.655Z,178159.06,1634933833,full,ni_sequenzen,NI_Sequenzen,1,6,,,,,,,,,,,,
,Move,canvas.Screen,0_3_0_6_0_1,down,response,,178146,178145.34,178159.06,178545,385.9400000000023,178556,2021-10-22T20:20:17.071Z,178575.8,1634933833,full,ni_sequenzen,NI_Sequenzen,2,6,,,,,,,,,,,,
,Move,canvas.Screen,0_3_0_6_0_2,right,response,,178561,178561,178575.8,178794,218.20000000001164,178805,2021-10-22T20:20:17.320Z,178824.3,1634933833,full,ni_sequenzen,NI_Sequenzen,3,6,,,,,,,,,,,,
,Move,canvas.Screen,0_3_0_6_0_3,down,response,,178810,178810.64,178824.3,179171,346.70000000001164,179183,2021-10-22T20:20:17.698Z,179247.24,1634933833,full,ni_sequenzen,NI_Sequenzen,4,6,,,,,,,,,,,,
,Move,canvas.Screen,0_3_0_6_0_4,-999,skipped,,179190,,,179171,,179190,2021-10-22T20:20:17.704Z,179247.24,1634933833,full,ni_sequenzen,NI_Sequenzen,5,6,,,,,,,,,,,,
,Move,canvas.Screen,0_3_0_6_0_5,-999,skipped,,179195,,,179171,,179195,2021-10-22T20:20:17.709Z,179247.24,1634933833,full,ni_sequenzen,NI_Sequenzen,6,6,,,,,,,,,,,,
,Move,canvas.Screen,0_3_0_6_0_6,-999,skipped,,179199,,,179171,,179199,2021-10-22T20:20:17.714Z,179247.24,1634933833,full,ni_sequenzen,NI_Sequenzen,7,6,,,,,,,,,,,,
,Move,canvas.Screen,0_3_0_6_0_7,-999,skipped,,179204,,,179171,,179204,2021-10-22T20:20:17.718Z,179247.24,1634933833,full,ni_sequenzen,NI_Sequenzen,8,6,,,,,,,,,,,,
,Move,canvas.Screen,0_3_0_6_0_8,-999,skipped,,179209,,,179171,,179209,2021-10-22T20:20:17.723Z,179247.24,1634933833,full,ni_sequenzen,NI_Sequenzen,9,6,,,,,,,,,,,,
,Move,canvas.Screen,0_3_0_6_0_9,-999,skipped,,179214,,,179171,,179214,2021-10-22T20:20:17.728Z,179247.24,1634933833,full,ni_sequenzen,NI_Sequenzen,10,6,,,,,,,,,,,,
,Move,canvas.Screen,0_3_0_6_0_10,-999,skipped,,179218,,,179171,,179218,2021-10-22T20:20:17.733Z,179247.24,1634933833,full,ni_sequenzen,NI_Sequenzen,11,6,,,,,,,,,,,,
,Move,canvas.Screen,0_3_0_6_0_11,-999,skipped,,179224,,,179171,,179224,2021-10-22T20:20:17.738Z,179247.24,1634933833,full,ni_sequenzen,NI_Sequenzen,12,6,,,,,,,,,,,,
,Move,canvas.Screen,0_3_0_6_0_12,-999,skipped,,179228,,,179171,,179228,2021-10-22T20:20:17.743Z,179247.24,1634933833,full,ni_sequenzen,NI_Sequenzen,13,6,,,,,,,,,,,,
,Move,canvas.Screen,0_3_0_6_0_13,-999,skipped,,179234,,,179171,,179234,2021-10-22T20:20:17.748Z,179247.24,1634933833,full,ni_sequenzen,NI_Sequenzen,14,6,,,,,,,,,,,,
,Move,canvas.Screen,0_3_0_6_0_14,-999,skipped,,179238,,,179171,,179238,2021-10-22T20:20:17.753Z,179247.24,1634933833,full,ni_sequenzen,NI_Sequenzen,15,6,,,,,,,,,,,,
,Loop,flow.Loop,0_3_0_6_0,-999,completion,,172362,172367.02,172368.16,179171,6802.8399999999965,179238,2021-10-22T20:20:17.753Z,179247.24,1634933833,full,ni_sequenzen,NI_Sequenzen,,6,,,,,,,,,,,,
,Feedback,canvas.Screen,0_3_0_6_1,,timeout,,179243,179242.96,179247.24,183225.66,3997.6600000000035,183234,2021-10-22T20:20:21.749Z,183244.9,1634933833,full,ni_sequenzen,NI_Sequenzen,,6,,,,,,,,,,,,
,Trial,flow.Sequence,0_3_0_6,,completion,,172357,172367.02,172368.16,183225.66,10857.5,183234,2021-10-22T20:20:21.749Z,183258.02,1634933833,full,ni_sequenzen,NI_Sequenzen,,6,,,,,,,,,,,,
,Move,canvas.Screen,0_3_0_7_0_0,down,response,,183245,183244.9,183258.02,185710,2451.9800000000105,185723,2021-10-22T20:20:24.237Z,185728.42,1634933833,full,ni_sequenzen,NI_Sequenzen,1,7,,,,,,,,,,,,
,Move,canvas.Screen,0_3_0_7_0_1,left,response,,185728,185727.7,185728.42,186285,556.5799999999872,186298,2021-10-22T20:20:24.813Z,186304.3,1634933833,full,ni_sequenzen,NI_Sequenzen,2,7,,,,,,,,,,,,
,Move,canvas.Screen,0_3_0_7_0_2,down,response,,186303,186303.4,186304.3,186691,386.70000000001164,186702,2021-10-22T20:20:25.217Z,186710.36,1634933833,full,ni_sequenzen,NI_Sequenzen,3,7,,,,,,,,,,,,
,Move,canvas.Screen,0_3_0_7_0_3,left,response,,186709,186709.12,186710.36,187496,785.640000000014,187508,2021-10-22T20:20:26.023Z,187586.22,1634933833,full,ni_sequenzen,NI_Sequenzen,4,7,,,,,,,,,,,,
,Move,canvas.Screen,0_3_0_7_0_4,-999,skipped,,187514,,,187496,,187514,2021-10-22T20:20:26.029Z,187586.22,1634933833,full,ni_sequenzen,NI_Sequenzen,5,7,,,,,,,,,,,,
,Move,canvas.Screen,0_3_0_7_0_5,-999,skipped,,187518,,,187496,,187519,2021-10-22T20:20:26.033Z,187586.22,1634933833,full,ni_sequenzen,NI_Sequenzen,6,7,,,,,,,,,,,,
,Move,canvas.Screen,0_3_0_7_0_6,-999,skipped,,187523,,,187496,,187524,2021-10-22T20:20:26.038Z,187586.22,1634933833,full,ni_sequenzen,NI_Sequenzen,7,7,,,,,,,,,,,,
,Move,canvas.Screen,0_3_0_7_0_7,-999,skipped,,187528,,,187496,,187528,2021-10-22T20:20:26.043Z,187586.22,1634933833,full,ni_sequenzen,NI_Sequenzen,8,7,,,,,,,,,,,,
,Move,canvas.Screen,0_3_0_7_0_8,-999,skipped,,187533,,,187496,,187533,2021-10-22T20:20:26.048Z,187586.22,1634933833,full,ni_sequenzen,NI_Sequenzen,9,7,,,,,,,,,,,,
,Move,canvas.Screen,0_3_0_7_0_9,-999,skipped,,187538,,,187496,,187538,2021-10-22T20:20:26.053Z,187586.22,1634933833,full,ni_sequenzen,NI_Sequenzen,10,7,,,,,,,,,,,,
,Move,canvas.Screen,0_3_0_7_0_10,-999,skipped,,187543,,,187496,,187543,2021-10-22T20:20:26.057Z,187586.22,1634933833,full,ni_sequenzen,NI_Sequenzen,11,7,,,,,,,,,,,,
,Move,canvas.Screen,0_3_0_7_0_11,-999,skipped,,187547,,,187496,,187547,2021-10-22T20:20:26.063Z,187586.22,1634933833,full,ni_sequenzen,NI_Sequenzen,12,7,,,,,,,,,,,,
,Move,canvas.Screen,0_3_0_7_0_12,-999,skipped,,187553,,,187496,,187553,2021-10-22T20:20:26.068Z,187586.22,1634933833,full,ni_sequenzen,NI_Sequenzen,13,7,,,,,,,,,,,,
,Move,canvas.Screen,0_3_0_7_0_13,-999,skipped,,187557,,,187496,,187557,2021-10-22T20:20:26.072Z,187586.22,1634933833,full,ni_sequenzen,NI_Sequenzen,14,7,,,,,,,,,,,,
,Move,canvas.Screen,0_3_0_7_0_14,-999,skipped,,187563,,,187496,,187563,2021-10-22T20:20:26.078Z,187586.22,1634933833,full,ni_sequenzen,NI_Sequenzen,15,7,,,,,,,,,,,,
,Loop,flow.Loop,0_3_0_7_0,-999,completion,,183239,183244.9,183258.02,187496,4237.9800000000105,187563,2021-10-22T20:20:26.078Z,187586.22,1634933833,full,ni_sequenzen,NI_Sequenzen,,7,,,,,,,,,,,,
,Feedback,canvas.Screen,0_3_0_7_1,,timeout,,187567,187567.12,187586.22,191568.66,4015.320000000007,191578,2021-10-22T20:20:30.094Z,191601.54,1634933833,full,ni_sequenzen,NI_Sequenzen,,7,,,,,,,,,,,,
,Trial,flow.Sequence,0_3_0_7,,completion,,183234,183244.9,183258.02,191568.66,8310.640000000014,191579,2021-10-22T20:20:30.094Z,191602.6,1634933833,full,ni_sequenzen,NI_Sequenzen,,7,,,,,,,,,,,,
,Move,canvas.Screen,0_3_0_8_0_0,right,response,,191602,191601.54,191602.6,193064,1461.3999999999942,193076,2021-10-22T20:20:31.592Z,193086.16,1634933833,full,ni_sequenzen,NI_Sequenzen,1,8,,,,,,,,,,,,
,Move,canvas.Screen,0_3_0_8_0_1,down,response,,193085,193085.42,193086.16,193324,237.8399999999965,193336,2021-10-22T20:20:31.852Z,193345.08,1634933833,full,ni_sequenzen,NI_Sequenzen,2,8,,,,,,,,,,,,
,Move,canvas.Screen,0_3_0_8_0_2,right,response,,193344,193344.2,193345.08,193567,221.9200000000128,193579,2021-10-22T20:20:32.094Z,193605.18,1634933833,full,ni_sequenzen,NI_Sequenzen,3,8,,,,,,,,,,,,
,Move,canvas.Screen,0_3_0_8_0_3,down,response,,193586,193586.34,193605.18,193914,308.820000000007,193926,2021-10-22T20:20:32.441Z,193995.48,1634933833,full,ni_sequenzen,NI_Sequenzen,4,8,,,,,,,,,,,,
,Move,canvas.Screen,0_3_0_8_0_4,-999,skipped,,193935,,,193914,,193935,2021-10-22T20:20:32.449Z,193995.48,1634933833,full,ni_sequenzen,NI_Sequenzen,5,8,,,,,,,,,,,,
,Move,canvas.Screen,0_3_0_8_0_5,-999,skipped,,193940,,,193914,,193940,2021-10-22T20:20:32.455Z,193995.48,1634933833,full,ni_sequenzen,NI_Sequenzen,6,8,,,,,,,,,,,,
,Move,canvas.Screen,0_3_0_8_0_6,-999,skipped,,193946,,,193914,,193946,2021-10-22T20:20:32.461Z,193995.48,1634933833,full,ni_sequenzen,NI_Sequenzen,7,8,,,,,,,,,,,,
,Move,canvas.Screen,0_3_0_8_0_7,-999,skipped,,193951,,,193914,,193951,2021-10-22T20:20:32.466Z,193995.48,1634933833,full,ni_sequenzen,NI_Sequenzen,8,8,,,,,,,,,,,,
,Move,canvas.Screen,0_3_0_8_0_8,-999,skipped,,193956,,,193914,,193956,2021-10-22T20:20:32.472Z,193995.48,1634933833,full,ni_sequenzen,NI_Sequenzen,9,8,,,,,,,,,,,,
,Move,canvas.Screen,0_3_0_8_0_9,-999,skipped,,193961,,,193914,,193961,2021-10-22T20:20:32.477Z,193995.48,1634933833,full,ni_sequenzen,NI_Sequenzen,10,8,,,,,,,,,,,,
,Move,canvas.Screen,0_3_0_8_0_10,-999,skipped,,193967,,,193914,,193967,2021-10-22T20:20:32.482Z,193995.48,1634933833,full,ni_sequenzen,NI_Sequenzen,11,8,,,,,,,,,,,,
,Move,canvas.Screen,0_3_0_8_0_11,-999,skipped,,193973,,,193914,,193973,2021-10-22T20:20:32.487Z,193995.48,1634933833,full,ni_sequenzen,NI_Sequenzen,12,8,,,,,,,,,,,,
,Move,canvas.Screen,0_3_0_8_0_12,-999,skipped,,193978,,,193914,,193978,2021-10-22T20:20:32.493Z,193995.48,1634933833,full,ni_sequenzen,NI_Sequenzen,13,8,,,,,,,,,,,,
,Move,canvas.Screen,0_3_0_8_0_13,-999,skipped,,193985,,,193914,,193985,2021-10-22T20:20:32.499Z,193995.48,1634933833,full,ni_sequenzen,NI_Sequenzen,14,8,,,,,,,,,,,,
,Move,canvas.Screen,0_3_0_8_0_14,-999,skipped,,193990,,,193914,,193990,2021-10-22T20:20:32.505Z,193995.48,1634933833,full,ni_sequenzen,NI_Sequenzen,15,8,,,,,,,,,,,,
,Loop,flow.Loop,0_3_0_8_0,-999,completion,,191593,191601.54,191602.6,193914,2311.399999999994,193990,2021-10-22T20:20:32.506Z,193995.48,1634933833,full,ni_sequenzen,NI_Sequenzen,,8,,,,,,,,,,,,
,Feedback,canvas.Screen,0_3_0_8_1,,timeout,,193994,193994.68,193995.48,197977.58,4003.1199999999953,197985,2021-10-22T20:20:36.500Z,197998.6,1634933833,full,ni_sequenzen,NI_Sequenzen,,8,,,,,,,,,,,,
,Trial,flow.Sequence,0_3_0_8,,completion,,191580,191601.54,191602.6,197977.58,6374.979999999981,197985,2021-10-22T20:20:36.500Z,198011,1634933833,full,ni_sequenzen,NI_Sequenzen,,8,,,,,,,,,,,,
,Move,canvas.Screen,0_3_0_9_0_0,down,response,,197998,197998.6,198011,201956,3945,201967,2021-10-22T20:20:40.483Z,201973.52,1634933833,full,ni_sequenzen,NI_Sequenzen,1,9,,,,,,,,,,,,
,Move,canvas.Screen,0_3_0_9_0_1,left,response,,201973,201972.82,201973.52,202820,846.4800000000105,202833,2021-10-22T20:20:41.349Z,202838.64,1634933833,full,ni_sequenzen,NI_Sequenzen,2,9,,,,,,,,,,,,
,Move,canvas.Screen,0_3_0_9_0_2,down,response,,202838,202837.94,202838.64,203579,740.359999999986,203592,2021-10-22T20:20:42.107Z,203598.92,1634933833,full,ni_sequenzen,NI_Sequenzen,3,9,,,,,,,,,,,,
,Move,canvas.Screen,0_3_0_9_0_3,left,response,,203597,203597.3,203598.92,203995,396.0799999999872,204006,2021-10-22T20:20:42.521Z,204061.26,1634933833,full,ni_sequenzen,NI_Sequenzen,4,9,,,,,,,,,,,,
,Move,canvas.Screen,0_3_0_9_0_4,-999,skipped,,204012,,,203995,,204012,2021-10-22T20:20:42.527Z,204061.26,1634933833,full,ni_sequenzen,NI_Sequenzen,5,9,,,,,,,,,,,,
,Move,canvas.Screen,0_3_0_9_0_5,-999,skipped,,204017,,,203995,,204017,2021-10-22T20:20:42.532Z,204061.26,1634933833,full,ni_sequenzen,NI_Sequenzen,6,9,,,,,,,,,,,,
,Move,canvas.Screen,0_3_0_9_0_6,-999,skipped,,204021,,,203995,,204021,2021-10-22T20:20:42.536Z,204061.26,1634933833,full,ni_sequenzen,NI_Sequenzen,7,9,,,,,,,,,,,,
,Move,canvas.Screen,0_3_0_9_0_7,-999,skipped,,204025,,,203995,,204025,2021-10-22T20:20:42.540Z,204061.26,1634933833,full,ni_sequenzen,NI_Sequenzen,8,9,,,,,,,,,,,,
,Move,canvas.Screen,0_3_0_9_0_8,-999,skipped,,204030,,,203995,,204030,2021-10-22T20:20:42.545Z,204061.26,1634933833,full,ni_sequenzen,NI_Sequenzen,9,9,,,,,,,,,,,,
,Move,canvas.Screen,0_3_0_9_0_9,-999,skipped,,204034,,,203995,,204034,2021-10-22T20:20:42.549Z,204061.26,1634933833,full,ni_sequenzen,NI_Sequenzen,10,9,,,,,,,,,,,,
,Move,canvas.Screen,0_3_0_9_0_10,-999,skipped,,204038,,,203995,,204039,2021-10-22T20:20:42.554Z,204061.26,1634933833,full,ni_sequenzen,NI_Sequenzen,11,9,,,,,,,,,,,,
,Move,canvas.Screen,0_3_0_9_0_11,-999,skipped,,204043,,,203995,,204043,2021-10-22T20:20:42.558Z,204061.26,1634933833,full,ni_sequenzen,NI_Sequenzen,12,9,,,,,,,,,,,,
,Move,canvas.Screen,0_3_0_9_0_12,-999,skipped,,204047,,,203995,,204047,2021-10-22T20:20:42.563Z,204061.26,1634933833,full,ni_sequenzen,NI_Sequenzen,13,9,,,,,,,,,,,,
,Move,canvas.Screen,0_3_0_9_0_13,-999,skipped,,204052,,,203995,,204053,2021-10-22T20:20:42.568Z,204061.26,1634933833,full,ni_sequenzen,NI_Sequenzen,14,9,,,,,,,,,,,,
,Move,canvas.Screen,0_3_0_9_0_14,-999,skipped,,204056,,,203995,,204056,2021-10-22T20:20:42.572Z,204061.26,1634933833,full,ni_sequenzen,NI_Sequenzen,15,9,,,,,,,,,,,,
,Loop,flow.Loop,0_3_0_9_0,-999,completion,,197994,197998.6,198011,203995,5984,204057,2021-10-22T20:20:42.572Z,204061.26,1634933833,full,ni_sequenzen,NI_Sequenzen,,9,,,,,,,,,,,,
,Feedback,canvas.Screen,0_3_0_9_1,,timeout,,204061,204060.46,204061.26,208041.56,4061.3800000000047,208051,2021-10-22T20:20:46.566Z,208122.64,1634933833,full,ni_sequenzen,NI_Sequenzen,,9,,,,,,,,,,,,
,Trial,flow.Sequence,0_3_0_9,,completion,,197986,197998.6,198011,208041.56,10030.559999999998,208052,2021-10-22T20:20:46.567Z,208123.72,1634933833,full,ni_sequenzen,NI_Sequenzen,,9,,,,,,,,,,,,
,Block,flow.Loop,0_3_0,,completion,,102098,102117.06,102126.28,208041.56,105915.28,208052,2021-10-22T20:20:46.567Z,208123.72,1634933833,full,ni_sequenzen,NI_Sequenzen,,,,,,,,,,,,,,
,Training_II,flow.Sequence,0_3,,completion,,102082,102117.06,102126.28,208041.56,105915.28,208052,2021-10-22T20:20:46.567Z,208123.72,1634933833,full,ni_sequenzen,NI_Sequenzen,,,,,,,,,,,,,,
,Screen_1,canvas.Screen,0_4_0_0,cont,response,1,208122,208122.64,208123.72,214080,5956.279999999999,214092,2021-10-22T20:20:52.608Z,214094.82,1634933833,full,ni_sequenzen,NI_Sequenzen,,,,,,,,,,,,,,
,Screen_2,canvas.Screen,0_4_0_1,cont,response,1,214094,214094.1,214094.82,220228,6133.179999999993,220241,2021-10-22T20:20:58.756Z,220338.72,1634933833,full,ni_sequenzen,NI_Sequenzen,,,,,,,,,,,,,,
,Screen_3,canvas.Screen,0_4_0_2,cont,response,1,220337,220336.9,220338.72,230656,10317.279999999999,230669,2021-10-22T20:21:09.185Z,230810.52,1634933833,full,ni_sequenzen,NI_Sequenzen,,,,,,,,,,,,,,
,Sequence,flow.Sequence,0_4_0,,completion,1,208074,208122.64,208123.72,230656,22532.28,230669,2021-10-22T20:21:09.185Z,230810.52,1634933833,full,ni_sequenzen,NI_Sequenzen,,,,,,,,,,,,,,
,Screen_1,canvas.Screen,0_4_1_0,,skipped,2,230671,,,230671,,230672,2021-10-22T20:21:09.188Z,230810.52,1634933833,full,ni_sequenzen,NI_Sequenzen,,,,,,,,,,,,,,
,Screen_2,canvas.Screen,0_4_1_1,,skipped,2,230673,,,230671,,230673,2021-10-22T20:21:09.190Z,230810.52,1634933833,full,ni_sequenzen,NI_Sequenzen,,,,,,,,,,,,,,
,Screen_3,canvas.Screen,0_4_1_2,,skipped,2,230675,,,230671,,230675,2021-10-22T20:21:09.191Z,230810.52,1634933833,full,ni_sequenzen,NI_Sequenzen,,,,,,,,,,,,,,
,Sequence,flow.Sequence,0_4_1,,completion,2,230669,,,230671,,230675,2021-10-22T20:21:09.191Z,230810.52,1634933833,full,ni_sequenzen,NI_Sequenzen,,,,,,,,,,,,,,
,Screen_1,canvas.Screen,0_4_2_0,,skipped,3,230678,,,230678,,230678,2021-10-22T20:21:09.194Z,230810.52,1634933833,full,ni_sequenzen,NI_Sequenzen,,,,,,,,,,,,,,
,Screen_2,canvas.Screen,0_4_2_1,,skipped,3,230679,,,230678,,230679,2021-10-22T20:21:09.195Z,230810.52,1634933833,full,ni_sequenzen,NI_Sequenzen,,,,,,,,,,,,,,
,Screen_3,canvas.Screen,0_4_2_2,,skipped,3,230680,,,230678,,230680,2021-10-22T20:21:09.196Z,230810.52,1634933833,full,ni_sequenzen,NI_Sequenzen,,,,,,,,,,,,,,
,Sequence,flow.Sequence,0_4_2,,completion,3,230675,,,230678,,230681,2021-10-22T20:21:09.196Z,230810.52,1634933833,full,ni_sequenzen,NI_Sequenzen,,,,,,,,,,,,,,
,Screen_1,canvas.Screen,0_4_3_0,,skipped,4,230682,,,230682,,230682,2021-10-22T20:21:09.198Z,230810.52,1634933833,full,ni_sequenzen,NI_Sequenzen,,,,,,,,,,,,,,
,Screen_2,canvas.Screen,0_4_3_1,,skipped,4,230683,,,230682,,230683,2021-10-22T20:21:09.200Z,230810.52,1634933833,full,ni_sequenzen,NI_Sequenzen,,,,,,,,,,,,,,
,Screen_3,canvas.Screen,0_4_3_2,,skipped,4,230685,,,230682,,230685,2021-10-22T20:21:09.201Z,230810.52,1634933833,full,ni_sequenzen,NI_Sequenzen,,,,,,,,,,,,,,
,Sequence,flow.Sequence,0_4_3,,completion,4,230681,,,230682,,230685,2021-10-22T20:21:09.201Z,230810.52,1634933833,full,ni_sequenzen,NI_Sequenzen,,,,,,,,,,,,,,
,Screen_1,canvas.Screen,0_4_4_0,,skipped,5,230686,,,230686,,230686,2021-10-22T20:21:09.203Z,230810.52,1634933833,full,ni_sequenzen,NI_Sequenzen,,,,,,,,,,,,,,
,Screen_2,canvas.Screen,0_4_4_1,,skipped,5,230687,,,230686,,230687,2021-10-22T20:21:09.204Z,230810.52,1634933833,full,ni_sequenzen,NI_Sequenzen,,,,,,,,,,,,,,
,Screen_3,canvas.Screen,0_4_4_2,,skipped,5,230688,,,230686,,230688,2021-10-22T20:21:09.205Z,230810.52,1634933833,full,ni_sequenzen,NI_Sequenzen,,,,,,,,,,,,,,
,Sequence,flow.Sequence,0_4_4,,completion,5,230685,,,230686,,230689,2021-10-22T20:21:09.205Z,230810.52,1634933833,full,ni_sequenzen,NI_Sequenzen,,,,,,,,,,,,,,
,Screen_1,canvas.Screen,0_4_5_0,,skipped,6,230691,,,230691,,230691,2021-10-22T20:21:09.206Z,230810.52,1634933833,full,ni_sequenzen,NI_Sequenzen,,,,,,,,,,,,,,
,Screen_2,canvas.Screen,0_4_5_1,,skipped,6,230691,,,230691,,230691,2021-10-22T20:21:09.207Z,230810.52,1634933833,full,ni_sequenzen,NI_Sequenzen,,,,,,,,,,,,,,
,Screen_3,canvas.Screen,0_4_5_2,,skipped,6,230693,,,230691,,230693,2021-10-22T20:21:09.209Z,230810.52,1634933833,full,ni_sequenzen,NI_Sequenzen,,,,,,,,,,,,,,
,Sequence,flow.Sequence,0_4_5,,completion,6,230690,,,230691,,230693,2021-10-22T20:21:09.209Z,230810.52,1634933833,full,ni_sequenzen,NI_Sequenzen,,,,,,,,,,,,,,
,Screen_1,canvas.Screen,0_4_6_0,,skipped,7,230695,,,230695,,230695,2021-10-22T20:21:09.212Z,230810.52,1634933833,full,ni_sequenzen,NI_Sequenzen,,,,,,,,,,,,,,
,Screen_2,canvas.Screen,0_4_6_1,,skipped,7,230696,,,230695,,230696,2021-10-22T20:21:09.213Z,230810.52,1634933833,full,ni_sequenzen,NI_Sequenzen,,,,,,,,,,,,,,
,Screen_3,canvas.Screen,0_4_6_2,,skipped,7,230697,,,230695,,230697,2021-10-22T20:21:09.214Z,230810.52,1634933833,full,ni_sequenzen,NI_Sequenzen,,,,,,,,,,,,,,
,Sequence,flow.Sequence,0_4_6,,completion,7,230694,,,230695,,230697,2021-10-22T20:21:09.214Z,230810.52,1634933833,full,ni_sequenzen,NI_Sequenzen,,,,,,,,,,,,,,
,Screen_1,canvas.Screen,0_4_7_0,,skipped,8,230699,,,230699,,230699,2021-10-22T20:21:09.215Z,230810.52,1634933833,full,ni_sequenzen,NI_Sequenzen,,,,,,,,,,,,,,
,Screen_2,canvas.Screen,0_4_7_1,,skipped,8,230700,,,230699,,230701,2021-10-22T20:21:09.217Z,230810.52,1634933833,full,ni_sequenzen,NI_Sequenzen,,,,,,,,,,,,,,
,Screen_3,canvas.Screen,0_4_7_2,,skipped,8,230702,,,230699,,230702,2021-10-22T20:21:09.218Z,230810.52,1634933833,full,ni_sequenzen,NI_Sequenzen,,,,,,,,,,,,,,
,Sequence,flow.Sequence,0_4_7,,completion,8,230698,,,230699,,230702,2021-10-22T20:21:09.218Z,230810.52,1634933833,full,ni_sequenzen,NI_Sequenzen,,,,,,,,,,,,,,
,Screen_1,canvas.Screen,0_4_8_0,,skipped,9,230703,,,230703,,230704,2021-10-22T20:21:09.220Z,230810.52,1634933833,full,ni_sequenzen,NI_Sequenzen,,,,,,,,,,,,,,
,Screen_2,canvas.Screen,0_4_8_1,,skipped,9,230704,,,230703,,230704,2021-10-22T20:21:09.221Z,230810.52,1634933833,full,ni_sequenzen,NI_Sequenzen,,,,,,,,,,,,,,
,Screen_3,canvas.Screen,0_4_8_2,,skipped,9,230705,,,230703,,230705,2021-10-22T20:21:09.222Z,230810.52,1634933833,full,ni_sequenzen,NI_Sequenzen,,,,,,,,,,,,,,
,Sequence,flow.Sequence,0_4_8,,completion,9,230703,,,230703,,230705,2021-10-22T20:21:09.222Z,230810.52,1634933833,full,ni_sequenzen,NI_Sequenzen,,,,,,,,,,,,,,
,Screen_1,canvas.Screen,0_4_9_0,,skipped,10,230707,,,230707,,230707,2021-10-22T20:21:09.224Z,230810.52,1634933833,full,ni_sequenzen,NI_Sequenzen,,,,,,,,,,,,,,
,Screen_2,canvas.Screen,0_4_9_1,,skipped,10,230709,,,230707,,230709,2021-10-22T20:21:09.225Z,230810.52,1634933833,full,ni_sequenzen,NI_Sequenzen,,,,,,,,,,,,,,
,Screen_3,canvas.Screen,0_4_9_2,,skipped,10,230710,,,230707,,230710,2021-10-22T20:21:09.226Z,230810.52,1634933833,full,ni_sequenzen,NI_Sequenzen,,,,,,,,,,,,,,
,Sequence,flow.Sequence,0_4_9,,completion,10,230706,,,230707,,230710,2021-10-22T20:21:09.226Z,230810.52,1634933833,full,ni_sequenzen,NI_Sequenzen,,,,,,,,,,,,,,
,Screen_1,canvas.Screen,0_4_10_0,,skipped,11,230712,,,230712,,230712,2021-10-22T20:21:09.228Z,230810.52,1634933833,full,ni_sequenzen,NI_Sequenzen,,,,,,,,,,,,,,
,Screen_2,canvas.Screen,0_4_10_1,,skipped,11,230713,,,230712,,230713,2021-10-22T20:21:09.229Z,230810.52,1634933833,full,ni_sequenzen,NI_Sequenzen,,,,,,,,,,,,,,
,Screen_3,canvas.Screen,0_4_10_2,,skipped,11,230714,,,230712,,230714,2021-10-22T20:21:09.230Z,230810.52,1634933833,full,ni_sequenzen,NI_Sequenzen,,,,,,,,,,,,,,
,Sequence,flow.Sequence,0_4_10,,completion,11,230711,,,230712,,230714,2021-10-22T20:21:09.230Z,230810.52,1634933833,full,ni_sequenzen,NI_Sequenzen,,,,,,,,,,,,,,
,Screen_1,canvas.Screen,0_4_11_0,,skipped,12,230716,,,230716,,230716,2021-10-22T20:21:09.232Z,230810.52,1634933833,full,ni_sequenzen,NI_Sequenzen,,,,,,,,,,,,,,
,Screen_2,canvas.Screen,0_4_11_1,,skipped,12,230717,,,230716,,230717,2021-10-22T20:21:09.233Z,230810.52,1634933833,full,ni_sequenzen,NI_Sequenzen,,,,,,,,,,,,,,
,Screen_3,canvas.Screen,0_4_11_2,,skipped,12,230718,,,230716,,230718,2021-10-22T20:21:09.235Z,230810.52,1634933833,full,ni_sequenzen,NI_Sequenzen,,,,,,,,,,,,,,
,Sequence,flow.Sequence,0_4_11,,completion,12,230715,,,230716,,230718,2021-10-22T20:21:09.235Z,230810.52,1634933833,full,ni_sequenzen,NI_Sequenzen,,,,,,,,,,,,,,
,Screen_1,canvas.Screen,0_4_12_0,,skipped,13,230720,,,230720,,230720,2021-10-22T20:21:09.236Z,230810.52,1634933833,full,ni_sequenzen,NI_Sequenzen,,,,,,,,,,,,,,
,Screen_2,canvas.Screen,0_4_12_1,,skipped,13,230721,,,230720,,230721,2021-10-22T20:21:09.237Z,230810.52,1634933833,full,ni_sequenzen,NI_Sequenzen,,,,,,,,,,,,,,
,Screen_3,canvas.Screen,0_4_12_2,,skipped,13,230722,,,230720,,230722,2021-10-22T20:21:09.238Z,230810.52,1634933833,full,ni_sequenzen,NI_Sequenzen,,,,,,,,,,,,,,
,Sequence,flow.Sequence,0_4_12,,completion,13,230719,,,230720,,230722,2021-10-22T20:21:09.239Z,230810.52,1634933833,full,ni_sequenzen,NI_Sequenzen,,,,,,,,,,,,,,
,Screen_1,canvas.Screen,0_4_13_0,,skipped,14,230725,,,230725,,230725,2021-10-22T20:21:09.240Z,230810.52,1634933833,full,ni_sequenzen,NI_Sequenzen,,,,,,,,,,,,,,
,Screen_2,canvas.Screen,0_4_13_1,,skipped,14,230726,,,230725,,230726,2021-10-22T20:21:09.241Z,230810.52,1634933833,full,ni_sequenzen,NI_Sequenzen,,,,,,,,,,,,,,
,Screen_3,canvas.Screen,0_4_13_2,,skipped,14,230726,,,230725,,230726,2021-10-22T20:21:09.243Z,230810.52,1634933833,full,ni_sequenzen,NI_Sequenzen,,,,,,,,,,,,,,
,Sequence,flow.Sequence,0_4_13,,completion,14,230723,,,230725,,230726,2021-10-22T20:21:09.243Z,230810.52,1634933833,full,ni_sequenzen,NI_Sequenzen,,,,,,,,,,,,,,
,Screen_1,canvas.Screen,0_4_14_0,,skipped,15,230729,,,230729,,230729,2021-10-22T20:21:09.245Z,230810.52,1634933833,full,ni_sequenzen,NI_Sequenzen,,,,,,,,,,,,,,
,Screen_2,canvas.Screen,0_4_14_1,,skipped,15,230730,,,230729,,230730,2021-10-22T20:21:09.246Z,230810.52,1634933833,full,ni_sequenzen,NI_Sequenzen,,,,,,,,,,,,,,
,Screen_3,canvas.Screen,0_4_14_2,,skipped,15,230731,,,230729,,230731,2021-10-22T20:21:09.247Z,230810.52,1634933833,full,ni_sequenzen,NI_Sequenzen,,,,,,,,,,,,,,
,Sequence,flow.Sequence,0_4_14,,completion,15,230727,,,230729,,230731,2021-10-22T20:21:09.247Z,230810.52,1634933833,full,ni_sequenzen,NI_Sequenzen,,,,,,,,,,,,,,
,Screen_1,canvas.Screen,0_4_15_0,,skipped,16,230732,,,230732,,230732,2021-10-22T20:21:09.249Z,230810.52,1634933833,full,ni_sequenzen,NI_Sequenzen,,,,,,,,,,,,,,
,Screen_2,canvas.Screen,0_4_15_1,,skipped,16,230734,,,230732,,230734,2021-10-22T20:21:09.251Z,230810.52,1634933833,full,ni_sequenzen,NI_Sequenzen,,,,,,,,,,,,,,
,Screen_3,canvas.Screen,0_4_15_2,,skipped,16,230735,,,230732,,230735,2021-10-22T20:21:09.252Z,230810.52,1634933833,full,ni_sequenzen,NI_Sequenzen,,,,,,,,,,,,,,
,Sequence,flow.Sequence,0_4_15,,completion,16,230732,,,230732,,230735,2021-10-22T20:21:09.252Z,230810.52,1634933833,full,ni_sequenzen,NI_Sequenzen,,,,,,,,,,,,,,
,Screen_1,canvas.Screen,0_4_16_0,,skipped,17,230737,,,230737,,230737,2021-10-22T20:21:09.254Z,230810.52,1634933833,full,ni_sequenzen,NI_Sequenzen,,,,,,,,,,,,,,
,Screen_2,canvas.Screen,0_4_16_1,,skipped,17,230738,,,230737,,230739,2021-10-22T20:21:09.254Z,230810.52,1634933833,full,ni_sequenzen,NI_Sequenzen,,,,,,,,,,,,,,
,Screen_3,canvas.Screen,0_4_16_2,,skipped,17,230739,,,230737,,230740,2021-10-22T20:21:09.256Z,230810.52,1634933833,full,ni_sequenzen,NI_Sequenzen,,,,,,,,,,,,,,
,Sequence,flow.Sequence,0_4_16,,completion,17,230736,,,230737,,230740,2021-10-22T20:21:09.256Z,230810.52,1634933833,full,ni_sequenzen,NI_Sequenzen,,,,,,,,,,,,,,
,Screen_1,canvas.Screen,0_4_17_0,,skipped,18,230743,,,230743,,230743,2021-10-22T20:21:09.259Z,230810.52,1634933833,full,ni_sequenzen,NI_Sequenzen,,,,,,,,,,,,,,
