meta,sender,sender_type,sender_id,response,ended_on,instrCount,time_run,time_render,time_show,time_end,duration,time_commit,timestamp,time_switch,openLabId,type,task,project,move,trialN,blockN_Train,blockN,moveCount,currPP,points,movesTrial,visitedFields,diff,reward,Strategie,Zweck,Probleme
[object Object],Screen_1,canvas.Screen,0_0_0_0,cont,response,1,1681,1681.4,1734.66,3704,1969.34,3724,2021-10-22T07:17:41.933Z,3834.44,1634753718,full,ni_sequenzen,NI_Sequenzen,,,,,,,,,,,,,,
,Screen_2,canvas.Screen,0_0_0_1,cont,response,1,3830,3830.4,3834.44,4188,353.55999999999995,4203,2021-10-22T07:17:42.412Z,4267.76,1634753718,full,ni_sequenzen,NI_Sequenzen,,,,,,,,,,,,,,
,Screen_3,canvas.Screen,0_0_0_2,cont,response,1,4257,4256.96,4267.76,4548,280.2399999999998,4562,2021-10-22T07:17:42.772Z,4567.96,1634753718,full,ni_sequenzen,NI_Sequenzen,,,,,,,,,,,,,,
,Screen_4,canvas.Screen,0_0_0_3,cont,response,1,4567,4567.4,4567.96,4985,417.03999999999996,5011,2021-10-22T07:17:43.221Z,5400.92,1634753718,full,ni_sequenzen,NI_Sequenzen,,,,,,,,,,,,,,
,Sequence,flow.Sequence,0_0_0,,completion,1,1603,1681.4,1734.66,4985,3250.34,5012,2021-10-22T07:17:43.222Z,5400.92,1634753718,full,ni_sequenzen,NI_Sequenzen,,,,,,,,,,,,,,
,Screen_1,canvas.Screen,0_0_1_0,,skipped,2,5019,,,5019,,5019,2021-10-22T07:17:43.229Z,5400.92,1634753718,full,ni_sequenzen,NI_Sequenzen,,,,,,,,,,,,,,
,Screen_2,canvas.Screen,0_0_1_1,,skipped,2,5023,,,5019,,5023,2021-10-22T07:17:43.233Z,5400.92,1634753718,full,ni_sequenzen,NI_Sequenzen,,,,,,,,,,,,,,
,Screen_3,canvas.Screen,0_0_1_2,,skipped,2,5029,,,5019,,5029,2021-10-22T07:17:43.239Z,5400.92,1634753718,full,ni_sequenzen,NI_Sequenzen,,,,,,,,,,,,,,
,Screen_4,canvas.Screen,0_0_1_3,,skipped,2,5033,,,5019,,5033,2021-10-22T07:17:43.243Z,5400.92,1634753718,full,ni_sequenzen,NI_Sequenzen,,,,,,,,,,,,,,
,Sequence,flow.Sequence,0_0_1,,completion,2,5015,,,5019,,5033,2021-10-22T07:17:43.244Z,5400.92,1634753718,full,ni_sequenzen,NI_Sequenzen,,,,,,,,,,,,,,
,Screen_1,canvas.Screen,0_0_2_0,,skipped,3,5038,,,5038,,5039,2021-10-22T07:17:43.249Z,5400.92,1634753718,full,ni_sequenzen,NI_Sequenzen,,,,,,,,,,,,,,
,Screen_2,canvas.Screen,0_0_2_1,,skipped,3,5042,,,5038,,5042,2021-10-22T07:17:43.252Z,5400.92,1634753718,full,ni_sequenzen,NI_Sequenzen,,,,,,,,,,,,,,
,Screen_3,canvas.Screen,0_0_2_2,,skipped,3,5047,,,5038,,5047,2021-10-22T07:17:43.257Z,5400.92,1634753718,full,ni_sequenzen,NI_Sequenzen,,,,,,,,,,,,,,
,Screen_4,canvas.Screen,0_0_2_3,,skipped,3,5051,,,5038,,5051,2021-10-22T07:17:43.261Z,5400.92,1634753718,full,ni_sequenzen,NI_Sequenzen,,,,,,,,,,,,,,
,Sequence,flow.Sequence,0_0_2,,completion,3,5035,,,5038,,5051,2021-10-22T07:17:43.261Z,5400.92,1634753718,full,ni_sequenzen,NI_Sequenzen,,,,,,,,,,,,,,
,Screen_1,canvas.Screen,0_0_3_0,,skipped,4,5057,,,5057,,5057,2021-10-22T07:17:43.266Z,5400.92,1634753718,full,ni_sequenzen,NI_Sequenzen,,,,,,,,,,,,,,
,Screen_2,canvas.Screen,0_0_3_1,,skipped,4,5060,,,5057,,5060,2021-10-22T07:17:43.271Z,5400.92,1634753718,full,ni_sequenzen,NI_Sequenzen,,,,,,,,,,,,,,
,Screen_3,canvas.Screen,0_0_3_2,,skipped,4,5064,,,5057,,5064,2021-10-22T07:17:43.275Z,5400.92,1634753718,full,ni_sequenzen,NI_Sequenzen,,,,,,,,,,,,,,
,Screen_4,canvas.Screen,0_0_3_3,,skipped,4,5069,,,5057,,5069,2021-10-22T07:17:43.278Z,5400.92,1634753718,full,ni_sequenzen,NI_Sequenzen,,,,,,,,,,,,,,
,Sequence,flow.Sequence,0_0_3,,completion,4,5053,,,5057,,5069,2021-10-22T07:17:43.279Z,5400.92,1634753718,full,ni_sequenzen,NI_Sequenzen,,,,,,,,,,,,,,
,Screen_1,canvas.Screen,0_0_4_0,,skipped,5,5074,,,5074,,5074,2021-10-22T07:17:43.284Z,5400.92,1634753718,full,ni_sequenzen,NI_Sequenzen,,,,,,,,,,,,,,
,Screen_2,canvas.Screen,0_0_4_1,,skipped,5,5078,,,5074,,5078,2021-10-22T07:17:43.288Z,5400.92,1634753718,full,ni_sequenzen,NI_Sequenzen,,,,,,,,,,,,,,
,Screen_3,canvas.Screen,0_0_4_2,,skipped,5,5082,,,5074,,5082,2021-10-22T07:17:43.292Z,5400.92,1634753718,full,ni_sequenzen,NI_Sequenzen,,,,,,,,,,,,,,
,Screen_4,canvas.Screen,0_0_4_3,,skipped,5,5087,,,5074,,5087,2021-10-22T07:17:43.297Z,5400.92,1634753718,full,ni_sequenzen,NI_Sequenzen,,,,,,,,,,,,,,
,Sequence,flow.Sequence,0_0_4,,completion,5,5071,,,5074,,5087,2021-10-22T07:17:43.297Z,5400.92,1634753718,full,ni_sequenzen,NI_Sequenzen,,,,,,,,,,,,,,
,Screen_1,canvas.Screen,0_0_5_0,,skipped,6,5092,,,5092,,5092,2021-10-22T07:17:43.302Z,5400.92,1634753718,full,ni_sequenzen,NI_Sequenzen,,,,,,,,,,,,,,
,Screen_2,canvas.Screen,0_0_5_1,,skipped,6,5095,,,5092,,5095,2021-10-22T07:17:43.305Z,5400.92,1634753718,full,ni_sequenzen,NI_Sequenzen,,,,,,,,,,,,,,
,Screen_3,canvas.Screen,0_0_5_2,,skipped,6,5099,,,5092,,5099,2021-10-22T07:17:43.308Z,5400.92,1634753718,full,ni_sequenzen,NI_Sequenzen,,,,,,,,,,,,,,
,Screen_4,canvas.Screen,0_0_5_3,,skipped,6,5102,,,5092,,5102,2021-10-22T07:17:43.312Z,5400.92,1634753718,full,ni_sequenzen,NI_Sequenzen,,,,,,,,,,,,,,
,Sequence,flow.Sequence,0_0_5,,completion,6,5089,,,5092,,5103,2021-10-22T07:17:43.313Z,5400.92,1634753718,full,ni_sequenzen,NI_Sequenzen,,,,,,,,,,,,,,
,Screen_1,canvas.Screen,0_0_6_0,,skipped,7,5107,,,5107,,5107,2021-10-22T07:17:43.318Z,5400.92,1634753718,full,ni_sequenzen,NI_Sequenzen,,,,,,,,,,,,,,
,Screen_2,canvas.Screen,0_0_6_1,,skipped,7,5111,,,5107,,5112,2021-10-22T07:17:43.322Z,5400.92,1634753718,full,ni_sequenzen,NI_Sequenzen,,,,,,,,,,,,,,
,Screen_3,canvas.Screen,0_0_6_2,,skipped,7,5115,,,5107,,5115,2021-10-22T07:17:43.326Z,5400.92,1634753718,full,ni_sequenzen,NI_Sequenzen,,,,,,,,,,,,,,
,Screen_4,canvas.Screen,0_0_6_3,,skipped,7,5119,,,5107,,5119,2021-10-22T07:17:43.329Z,5400.92,1634753718,full,ni_sequenzen,NI_Sequenzen,,,,,,,,,,,,,,
,Sequence,flow.Sequence,0_0_6,,completion,7,5104,,,5107,,5120,2021-10-22T07:17:43.330Z,5400.92,1634753718,full,ni_sequenzen,NI_Sequenzen,,,,,,,,,,,,,,
,Screen_1,canvas.Screen,0_0_7_0,,skipped,8,5125,,,5125,,5125,2021-10-22T07:17:43.335Z,5400.92,1634753718,full,ni_sequenzen,NI_Sequenzen,,,,,,,,,,,,,,
,Screen_2,canvas.Screen,0_0_7_1,,skipped,8,5128,,,5125,,5129,2021-10-22T07:17:43.339Z,5400.92,1634753718,full,ni_sequenzen,NI_Sequenzen,,,,,,,,,,,,,,
,Screen_3,canvas.Screen,0_0_7_2,,skipped,8,5132,,,5125,,5132,2021-10-22T07:17:43.343Z,5400.92,1634753718,full,ni_sequenzen,NI_Sequenzen,,,,,,,,,,,,,,
,Screen_4,canvas.Screen,0_0_7_3,,skipped,8,5137,,,5125,,5137,2021-10-22T07:17:43.347Z,5400.92,1634753718,full,ni_sequenzen,NI_Sequenzen,,,,,,,,,,,,,,
,Sequence,flow.Sequence,0_0_7,,completion,8,5121,,,5125,,5138,2021-10-22T07:17:43.348Z,5400.92,1634753718,full,ni_sequenzen,NI_Sequenzen,,,,,,,,,,,,,,
,Screen_1,canvas.Screen,0_0_8_0,,skipped,9,5142,,,5142,,5142,2021-10-22T07:17:43.352Z,5400.92,1634753718,full,ni_sequenzen,NI_Sequenzen,,,,,,,,,,,,,,
,Screen_2,canvas.Screen,0_0_8_1,,skipped,9,5146,,,5142,,5146,2021-10-22T07:17:43.356Z,5400.92,1634753718,full,ni_sequenzen,NI_Sequenzen,,,,,,,,,,,,,,
,Screen_3,canvas.Screen,0_0_8_2,,skipped,9,5150,,,5142,,5150,2021-10-22T07:17:43.360Z,5400.92,1634753718,full,ni_sequenzen,NI_Sequenzen,,,,,,,,,,,,,,
,Screen_4,canvas.Screen,0_0_8_3,,skipped,9,5153,,,5142,,5154,2021-10-22T07:17:43.364Z,5400.92,1634753718,full,ni_sequenzen,NI_Sequenzen,,,,,,,,,,,,,,
,Sequence,flow.Sequence,0_0_8,,completion,9,5139,,,5142,,5154,2021-10-22T07:17:43.364Z,5400.92,1634753718,full,ni_sequenzen,NI_Sequenzen,,,,,,,,,,,,,,
,Screen_1,canvas.Screen,0_0_9_0,,skipped,10,5159,,,5159,,5159,2021-10-22T07:17:43.369Z,5400.92,1634753718,full,ni_sequenzen,NI_Sequenzen,,,,,,,,,,,,,,
,Screen_2,canvas.Screen,0_0_9_1,,skipped,10,5163,,,5159,,5163,2021-10-22T07:17:43.373Z,5400.92,1634753718,full,ni_sequenzen,NI_Sequenzen,,,,,,,,,,,,,,
,Screen_3,canvas.Screen,0_0_9_2,,skipped,10,5167,,,5159,,5167,2021-10-22T07:17:43.377Z,5400.92,1634753718,full,ni_sequenzen,NI_Sequenzen,,,,,,,,,,,,,,
,Screen_4,canvas.Screen,0_0_9_3,,skipped,10,5170,,,5159,,5171,2021-10-22T07:17:43.381Z,5400.92,1634753718,full,ni_sequenzen,NI_Sequenzen,,,,,,,,,,,,,,
,Sequence,flow.Sequence,0_0_9,,completion,10,5156,,,5159,,5171,2021-10-22T07:17:43.381Z,5400.92,1634753718,full,ni_sequenzen,NI_Sequenzen,,,,,,,,,,,,,,
,Screen_1,canvas.Screen,0_0_10_0,,skipped,11,5176,,,5176,,5176,2021-10-22T07:17:43.386Z,5400.92,1634753718,full,ni_sequenzen,NI_Sequenzen,,,,,,,,,,,,,,
,Screen_2,canvas.Screen,0_0_10_1,,skipped,11,5179,,,5176,,5179,2021-10-22T07:17:43.390Z,5400.92,1634753718,full,ni_sequenzen,NI_Sequenzen,,,,,,,,,,,,,,
,Screen_3,canvas.Screen,0_0_10_2,,skipped,11,5183,,,5176,,5183,2021-10-22T07:17:43.393Z,5400.92,1634753718,full,ni_sequenzen,NI_Sequenzen,,,,,,,,,,,,,,
,Screen_4,canvas.Screen,0_0_10_3,,skipped,11,5187,,,5176,,5188,2021-10-22T07:17:43.398Z,5400.92,1634753718,full,ni_sequenzen,NI_Sequenzen,,,,,,,,,,,,,,
,Sequence,flow.Sequence,0_0_10,,completion,11,5173,,,5176,,5188,2021-10-22T07:17:43.398Z,5400.92,1634753718,full,ni_sequenzen,NI_Sequenzen,,,,,,,,,,,,,,
,Screen_1,canvas.Screen,0_0_11_0,,skipped,12,5193,,,5193,,5193,2021-10-22T07:17:43.403Z,5400.92,1634753718,full,ni_sequenzen,NI_Sequenzen,,,,,,,,,,,,,,
,Screen_2,canvas.Screen,0_0_11_1,,skipped,12,5196,,,5193,,5196,2021-10-22T07:17:43.407Z,5400.92,1634753718,full,ni_sequenzen,NI_Sequenzen,,,,,,,,,,,,,,
,Screen_3,canvas.Screen,0_0_11_2,,skipped,12,5200,,,5193,,5200,2021-10-22T07:17:43.410Z,5400.92,1634753718,full,ni_sequenzen,NI_Sequenzen,,,,,,,,,,,,,,
,Screen_4,canvas.Screen,0_0_11_3,,skipped,12,5205,,,5193,,5205,2021-10-22T07:17:43.414Z,5400.92,1634753718,full,ni_sequenzen,NI_Sequenzen,,,,,,,,,,,,,,
,Sequence,flow.Sequence,0_0_11,,completion,12,5190,,,5193,,5205,2021-10-22T07:17:43.415Z,5400.92,1634753718,full,ni_sequenzen,NI_Sequenzen,,,,,,,,,,,,,,
,Screen_1,canvas.Screen,0_0_12_0,,skipped,13,5210,,,5210,,5210,2021-10-22T07:17:43.420Z,5400.92,1634753718,full,ni_sequenzen,NI_Sequenzen,,,,,,,,,,,,,,
,Screen_2,canvas.Screen,0_0_12_1,,skipped,13,5214,,,5210,,5215,2021-10-22T07:17:43.424Z,5400.92,1634753718,full,ni_sequenzen,NI_Sequenzen,,,,,,,,,,,,,,
,Screen_3,canvas.Screen,0_0_12_2,,skipped,13,5218,,,5210,,5218,2021-10-22T07:17:43.429Z,5400.92,1634753718,full,ni_sequenzen,NI_Sequenzen,,,,,,,,,,,,,,
,Screen_4,canvas.Screen,0_0_12_3,,skipped,13,5221,,,5210,,5223,2021-10-22T07:17:43.432Z,5400.92,1634753718,full,ni_sequenzen,NI_Sequenzen,,,,,,,,,,,,,,
,Sequence,flow.Sequence,0_0_12,,completion,13,5206,,,5210,,5223,2021-10-22T07:17:43.432Z,5400.92,1634753718,full,ni_sequenzen,NI_Sequenzen,,,,,,,,,,,,,,
,Screen_1,canvas.Screen,0_0_13_0,,skipped,14,5227,,,5227,,5227,2021-10-22T07:17:43.437Z,5400.92,1634753718,full,ni_sequenzen,NI_Sequenzen,,,,,,,,,,,,,,
,Screen_2,canvas.Screen,0_0_13_1,,skipped,14,5231,,,5227,,5231,2021-10-22T07:17:43.441Z,5400.92,1634753718,full,ni_sequenzen,NI_Sequenzen,,,,,,,,,,,,,,
,Screen_3,canvas.Screen,0_0_13_2,,skipped,14,5235,,,5227,,5235,2021-10-22T07:17:43.445Z,5400.92,1634753718,full,ni_sequenzen,NI_Sequenzen,,,,,,,,,,,,,,
,Screen_4,canvas.Screen,0_0_13_3,,skipped,14,5239,,,5227,,5239,2021-10-22T07:17:43.449Z,5400.92,1634753718,full,ni_sequenzen,NI_Sequenzen,,,,,,,,,,,,,,
,Sequence,flow.Sequence,0_0_13,,completion,14,5225,,,5227,,5240,2021-10-22T07:17:43.449Z,5400.92,1634753718,full,ni_sequenzen,NI_Sequenzen,,,,,,,,,,,,,,
,Screen_1,canvas.Screen,0_0_14_0,,skipped,15,5244,,,5244,,5244,2021-10-22T07:17:43.454Z,5400.92,1634753718,full,ni_sequenzen,NI_Sequenzen,,,,,,,,,,,,,,
,Screen_2,canvas.Screen,0_0_14_1,,skipped,15,5248,,,5244,,5248,2021-10-22T07:17:43.458Z,5400.92,1634753718,full,ni_sequenzen,NI_Sequenzen,,,,,,,,,,,,,,
,Screen_3,canvas.Screen,0_0_14_2,,skipped,15,5252,,,5244,,5252,2021-10-22T07:17:43.463Z,5400.92,1634753718,full,ni_sequenzen,NI_Sequenzen,,,,,,,,,,,,,,
,Screen_4,canvas.Screen,0_0_14_3,,skipped,15,5257,,,5244,,5257,2021-10-22T07:17:43.468Z,5400.92,1634753718,full,ni_sequenzen,NI_Sequenzen,,,,,,,,,,,,,,
,Sequence,flow.Sequence,0_0_14,,completion,15,5241,,,5244,,5257,2021-10-22T07:17:43.468Z,5400.92,1634753718,full,ni_sequenzen,NI_Sequenzen,,,,,,,,,,,,,,
,Screen_1,canvas.Screen,0_0_15_0,,skipped,16,5263,,,5263,,5263,2021-10-22T07:17:43.473Z,5400.92,1634753718,full,ni_sequenzen,NI_Sequenzen,,,,,,,,,,,,,,
,Screen_2,canvas.Screen,0_0_15_1,,skipped,16,5266,,,5263,,5266,2021-10-22T07:17:43.476Z,5400.92,1634753718,full,ni_sequenzen,NI_Sequenzen,,,,,,,,,,,,,,
,Screen_3,canvas.Screen,0_0_15_2,,skipped,16,5270,,,5263,,5270,2021-10-22T07:17:43.480Z,5400.92,1634753718,full,ni_sequenzen,NI_Sequenzen,,,,,,,,,,,,,,
,Screen_4,canvas.Screen,0_0_15_3,,skipped,16,5274,,,5263,,5274,2021-10-22T07:17:43.484Z,5400.92,1634753718,full,ni_sequenzen,NI_Sequenzen,,,,,,,,,,,,,,
,Sequence,flow.Sequence,0_0_15,,completion,16,5260,,,5263,,5275,2021-10-22T07:17:43.484Z,5400.92,1634753718,full,ni_sequenzen,NI_Sequenzen,,,,,,,,,,,,,,
,Screen_1,canvas.Screen,0_0_16_0,,skipped,17,5279,,,5279,,5279,2021-10-22T07:17:43.489Z,5400.92,1634753718,full,ni_sequenzen,NI_Sequenzen,,,,,,,,,,,,,,
,Screen_2,canvas.Screen,0_0_16_1,,skipped,17,5283,,,5279,,5283,2021-10-22T07:17:43.493Z,5400.92,1634753718,full,ni_sequenzen,NI_Sequenzen,,,,,,,,,,,,,,
,Screen_3,canvas.Screen,0_0_16_2,,skipped,17,5286,,,5279,,5286,2021-10-22T07:17:43.496Z,5400.92,1634753718,full,ni_sequenzen,NI_Sequenzen,,,,,,,,,,,,,,
,Screen_4,canvas.Screen,0_0_16_3,,skipped,17,5290,,,5279,,5290,2021-10-22T07:17:43.500Z,5400.92,1634753718,full,ni_sequenzen,NI_Sequenzen,,,,,,,,,,,,,,
,Sequence,flow.Sequence,0_0_16,,completion,17,5276,,,5279,,5291,2021-10-22T07:17:43.500Z,5400.92,1634753718,full,ni_sequenzen,NI_Sequenzen,,,,,,,,,,,,,,
,Screen_1,canvas.Screen,0_0_17_0,,skipped,18,5295,,,5295,,5295,2021-10-22T07:17:43.506Z,5400.92,1634753718,full,ni_sequenzen,NI_Sequenzen,,,,,,,,,,,,,,
,Screen_2,canvas.Screen,0_0_17_1,,skipped,18,5298,,,5295,,5298,2021-10-22T07:17:43.508Z,5400.92,1634753718,full,ni_sequenzen,NI_Sequenzen,,,,,,,,,,,,,,
,Screen_3,canvas.Screen,0_0_17_2,,skipped,18,5302,,,5295,,5302,2021-10-22T07:17:43.513Z,5400.92,1634753718,full,ni_sequenzen,NI_Sequenzen,,,,,,,,,,,,,,
,Screen_4,canvas.Screen,0_0_17_3,,skipped,18,5306,,,5295,,5306,2021-10-22T07:17:43.516Z,5400.92,1634753718,full,ni_sequenzen,NI_Sequenzen,,,,,,,,,,,,,,
,Sequence,flow.Sequence,0_0_17,,completion,18,5292,,,5295,,5307,2021-10-22T07:17:43.517Z,5400.92,1634753718,full,ni_sequenzen,NI_Sequenzen,,,,,,,,,,,,,,
,Screen_1,canvas.Screen,0_0_18_0,,skipped,19,5312,,,5312,,5312,2021-10-22T07:17:43.521Z,5400.92,1634753718,full,ni_sequenzen,NI_Sequenzen,,,,,,,,,,,,,,
,Screen_2,canvas.Screen,0_0_18_1,,skipped,19,5314,,,5312,,5315,2021-10-22T07:17:43.525Z,5400.92,1634753718,full,ni_sequenzen,NI_Sequenzen,,,,,,,,,,,,,,
,Screen_3,canvas.Screen,0_0_18_2,,skipped,19,5318,,,5312,,5319,2021-10-22T07:17:43.529Z,5400.92,1634753718,full,ni_sequenzen,NI_Sequenzen,,,,,,,,,,,,,,
,Screen_4,canvas.Screen,0_0_18_3,,skipped,19,5322,,,5312,,5322,2021-10-22T07:17:43.533Z,5400.92,1634753718,full,ni_sequenzen,NI_Sequenzen,,,,,,,,,,,,,,
,Sequence,flow.Sequence,0_0_18,,completion,19,5308,,,5312,,5323,2021-10-22T07:17:43.533Z,5400.92,1634753718,full,ni_sequenzen,NI_Sequenzen,,,,,,,,,,,,,,
,Screen_1,canvas.Screen,0_0_19_0,,skipped,20,5328,,,5328,,5328,2021-10-22T07:17:43.538Z,5400.92,1634753718,full,ni_sequenzen,NI_Sequenzen,,,,,,,,,,,,,,
,Screen_2,canvas.Screen,0_0_19_1,,skipped,20,5332,,,5328,,5332,2021-10-22T07:17:43.542Z,5400.92,1634753718,full,ni_sequenzen,NI_Sequenzen,,,,,,,,,,,,,,
,Screen_3,canvas.Screen,0_0_19_2,,skipped,20,5336,,,5328,,5336,2021-10-22T07:17:43.546Z,5400.92,1634753718,full,ni_sequenzen,NI_Sequenzen,,,,,,,,,,,,,,
,Screen_4,canvas.Screen,0_0_19_3,,skipped,20,5340,,,5328,,5340,2021-10-22T07:17:43.549Z,5400.92,1634753718,full,ni_sequenzen,NI_Sequenzen,,,,,,,,,,,,,,
,Sequence,flow.Sequence,0_0_19,,completion,20,5325,,,5328,,5341,2021-10-22T07:17:43.550Z,5400.92,1634753718,full,ni_sequenzen,NI_Sequenzen,,,,,,,,,,,,,,
,Instructions_I,flow.Loop,0_0,,completion,,1600,1681.4,1734.66,5328,3593.34,5342,2021-10-22T07:17:43.551Z,5400.92,1634753718,full,ni_sequenzen,NI_Sequenzen,,,,,,,,,,,,,,
,Move,canvas.Screen,0_1_0_0,right,response,,5372,5371.86,5400.92,6455,1054.08,6466,2021-10-22T07:17:44.676Z,6474.28,1634753718,full,ni_sequenzen,NI_Sequenzen,1,,,,,,,,,,,,,
,Move,canvas.Screen,0_1_0_1,right,response,,6474,6473.86,6474.28,6829,354.72000000000025,6842,2021-10-22T07:17:45.052Z,6850.62,1634753718,full,ni_sequenzen,NI_Sequenzen,2,,,,,,,,,,,,,
,Move,canvas.Screen,0_1_0_2,right,response,,6850,6850.16,6850.62,7033,182.3800000000001,7051,2021-10-22T07:17:45.261Z,7069.78,1634753718,full,ni_sequenzen,NI_Sequenzen,3,,,,,,,,,,,,,
,Move,canvas.Screen,0_1_0_3,right,response,,7069,7069.52,7069.78,7173,103.22000000000025,7187,2021-10-22T07:17:45.397Z,7200.66,1634753718,full,ni_sequenzen,NI_Sequenzen,4,,,,,,,,,,,,,
,Move,canvas.Screen,0_1_0_4,right,response,,7196,7196.28,7200.66,7361,160.34000000000015,7379,2021-10-22T07:17:45.589Z,7400.64,1634753718,full,ni_sequenzen,NI_Sequenzen,5,,,,,,,,,,,,,
,Move,canvas.Screen,0_1_0_5,down,response,,7389,7389.44,7400.64,8017,616.3599999999997,8043,2021-10-22T07:17:46.253Z,8052.16,1634753718,full,ni_sequenzen,NI_Sequenzen,6,,,,,,,,,,,,,
,Move,canvas.Screen,0_1_0_6,down,response,,8052,8051.92,8052.16,8219,166.84000000000015,8235,2021-10-22T07:17:46.445Z,8250.54,1634753718,full,ni_sequenzen,NI_Sequenzen,7,,,,,,,,,,,,,
,Move,canvas.Screen,0_1_0_7,down,response,,8245,8245.02,8250.54,8407,156.45999999999913,8426,2021-10-22T07:17:46.636Z,8435.6,1634753718,full,ni_sequenzen,NI_Sequenzen,8,,,,,,,,,,,,,
,Move,canvas.Screen,0_1_0_8,left,response,,8436,8435.34,8435.6,8705,269.39999999999964,8722,2021-10-22T07:17:46.932Z,8733.86,1634753718,full,ni_sequenzen,NI_Sequenzen,9,,,,,,,,,,,,,
,Move,canvas.Screen,0_1_0_9,left,response,,8730,8730.42,8733.86,8924,190.13999999999942,8930,2021-10-22T07:17:47.140Z,8950.44,1634753718,full,ni_sequenzen,NI_Sequenzen,10,,,,,,,,,,,,,
,Move,canvas.Screen,0_1_0_10,left,response,,8939,8939.08,8950.44,9110,159.5599999999995,9122,2021-10-22T07:17:47.332Z,9133.74,1634753718,full,ni_sequenzen,NI_Sequenzen,11,,,,,,,,,,,,,
,Move,canvas.Screen,0_1_0_11,left,response,,9131,9130.84,9133.74,9299,165.26000000000022,9314,2021-10-22T07:17:47.524Z,9323.56,1634753718,full,ni_sequenzen,NI_Sequenzen,12,,,,,,,,,,,,,
,Move,canvas.Screen,0_1_0_12,down,response,,9323,9323.28,9323.56,9486,162.4400000000005,9506,2021-10-22T07:17:47.716Z,9517,1634753718,full,ni_sequenzen,NI_Sequenzen,13,,,,,,,,,,,,,
,Move,canvas.Screen,0_1_0_13,down,response,,9513,9513.26,9517,9688,171,9698,2021-10-22T07:17:47.908Z,9716.98,1634753718,full,ni_sequenzen,NI_Sequenzen,14,,,,,,,,,,,,,
,Move,canvas.Screen,0_1_0_14,down,response,,9705,9705.02,9716.98,9877,160.02000000000044,9882,2021-10-22T07:17:48.091Z,9900.28,1634753718,full,ni_sequenzen,NI_Sequenzen,15,,,,,,,,,,,,,
,Move,canvas.Screen,0_1_0_15,down,response,,9890,9890.16,9900.28,10064,163.71999999999935,10074,2021-10-22T07:17:48.283Z,10083.58,1634753718,full,ni_sequenzen,NI_Sequenzen,16,,,,,,,,,,,,,
,Move,canvas.Screen,0_1_0_16,right,response,,10080,10079.76,10083.58,10266,182.42000000000007,10290,2021-10-22T07:17:48.500Z,10300.22,1634753718,full,ni_sequenzen,NI_Sequenzen,17,,,,,,,,,,,,,
,Move,canvas.Screen,0_1_0_17,right,response,,10296,10295.46,10300.22,10502,201.78000000000065,10514,2021-10-22T07:17:48.724Z,10520.56,1634753718,full,ni_sequenzen,NI_Sequenzen,18,,,,,,,,,,,,,
,Move,canvas.Screen,0_1_0_18,left,response,,10520,10520.24,10520.56,10860,339.4400000000005,10874,2021-10-22T07:17:49.084Z,10883.68,1634753718,full,ni_sequenzen,NI_Sequenzen,19,,,,,,,,,,,,,
,Move,canvas.Screen,0_1_0_19,left,response,,10882,10881.56,10883.68,11079,195.3199999999997,11082,2021-10-22T07:17:49.292Z,11100.16,1634753718,full,ni_sequenzen,NI_Sequenzen,20,,,,,,,,,,,,,
,Move,canvas.Screen,0_1_0_20,down,response,,11090,11090.18,11100.16,11330,229.84000000000015,11345,2021-10-22T07:17:49.556Z,11353.02,1634753718,full,ni_sequenzen,NI_Sequenzen,21,,,,,,,,,,,,,
,Move,canvas.Screen,0_1_0_21,down,response,,11352,11352.46,11353.02,11658,304.97999999999956,11674,2021-10-22T07:17:49.883Z,11680.06,1634753718,full,ni_sequenzen,NI_Sequenzen,22,,,,,,,,,,,,,
,Move,canvas.Screen,0_1_0_22,right,response,,11679,11679.48,11680.06,12486,805.9400000000005,12498,2021-10-22T07:17:50.708Z,12503.6,1634753718,full,ni_sequenzen,NI_Sequenzen,23,,,,,,,,,,,,,
,Move,canvas.Screen,0_1_0_23,down,response,,12503,12503.46,12503.6,12829,325.39999999999964,12843,2021-10-22T07:17:51.053Z,12850.34,1634753718,full,ni_sequenzen,NI_Sequenzen,24,,,,,,,,,,,,,
,Move,canvas.Screen,0_1_0_24,down,response,,12850,12849.82,12850.34,13048,197.65999999999985,13058,2021-10-22T07:17:51.268Z,13066.58,1634753718,full,ni_sequenzen,NI_Sequenzen,25,,,,,,,,,,,,,
,Move,canvas.Screen,0_1_0_25,down,response,,13066,13065.88,13066.58,13251,184.42000000000007,13258,2021-10-22T07:17:51.468Z,13266.54,1634753718,full,ni_sequenzen,NI_Sequenzen,26,,,,,,,,,,,,,
,Move,canvas.Screen,0_1_0_26,right,response,,13263,13263.18,13266.54,13689,422.4599999999991,13706,2021-10-22T07:17:51.915Z,13714.22,1634753718,full,ni_sequenzen,NI_Sequenzen,27,,,,,,,,,,,,,
,Move,canvas.Screen,0_1_0_27,left,response,,13713,13713.64,13714.22,16141,2426.7800000000007,16153,2021-10-22T07:17:54.363Z,16160.7,1634753718,full,ni_sequenzen,NI_Sequenzen,28,,,,,,,,,,,,,
,Move,canvas.Screen,0_1_0_28,left,response,,16160,16160.1,16160.7,16313,152.29999999999927,16322,2021-10-22T07:17:54.532Z,16332.8,1634753718,full,ni_sequenzen,NI_Sequenzen,29,,,,,,,,,,,,,
,Move,canvas.Screen,0_1_0_29,down,response,,16328,16328,16332.8,16563,230.20000000000073,16578,2021-10-22T07:17:54.788Z,16649.46,1634753718,full,ni_sequenzen,NI_Sequenzen,30,,,,,,,,,,,,,
,Loop,flow.Loop,0_1_0,-999,completion,,5363,5371.86,5400.92,16563,11162.08,16579,2021-10-22T07:17:54.788Z,16649.46,1634753718,full,ni_sequenzen,NI_Sequenzen,,,,,,,,,,,,,,
,Training_I,flow.Sequence,0_1,,completion,,5343,5371.86,5400.92,16563,11162.08,16579,2021-10-22T07:17:54.788Z,16649.46,1634753718,full,ni_sequenzen,NI_Sequenzen,,,,,,,,,,,,,,
,Screen_1,canvas.Screen,0_2_0_0,cont,response,1,16648,16648,16649.46,16799,149.54000000000087,16810,2021-10-22T07:17:55.020Z,16932.76,1634753718,full,ni_sequenzen,NI_Sequenzen,,,,,,,,,,,,,,
,Screen_2,canvas.Screen,0_2_0_1,cont,response,1,16922,16921.26,16932.76,18002,1069.2400000000016,18018,2021-10-22T07:17:56.228Z,18021.74,1634753718,full,ni_sequenzen,NI_Sequenzen,,,,,,,,,,,,,,
,Screen_3,canvas.Screen,0_2_0_2,cont,response,1,18020,18020.94,18021.74,18299,277.2599999999984,18314,2021-10-22T07:17:56.524Z,18453.5,1634753718,full,ni_sequenzen,NI_Sequenzen,,,,,,,,,,,,,,
,Screen_4,canvas.Screen,0_2_0_3,cont,response,1,18453,18453.32,18453.5,18579,125.5,18593,2021-10-22T07:17:56.804Z,18599.16,1634753718,full,ni_sequenzen,NI_Sequenzen,,,,,,,,,,,,,,
,Screen_5,canvas.Screen,0_2_0_4,cont,response,1,18596,18596.46,18599.16,19376,776.8400000000001,19394,2021-10-22T07:17:57.604Z,19499.08,1634753718,full,ni_sequenzen,NI_Sequenzen,,,,,,,,,,,,,,
,Screen_6,canvas.Screen,0_2_0_5,cont,response,1,19495,19494.42,19499.08,19891,391.91999999999825,19898,2021-10-22T07:17:58.108Z,20332.34,1634753718,full,ni_sequenzen,NI_Sequenzen,,,,,,,,,,,,,,
,Sequence,flow.Sequence,0_2_0,,completion,1,16646,16648,16649.46,19891,3241.540000000001,19899,2021-10-22T07:17:58.108Z,20332.34,1634753718,full,ni_sequenzen,NI_Sequenzen,,,,,,,,,,,,,,
,Screen_1,canvas.Screen,0_2_1_0,,skipped,2,19902,,,19902,,19903,2021-10-22T07:17:58.113Z,20332.34,1634753718,full,ni_sequenzen,NI_Sequenzen,,,,,,,,,,,,,,
,Screen_2,canvas.Screen,0_2_1_1,,skipped,2,19906,,,19902,,19906,2021-10-22T07:17:58.116Z,20332.34,1634753718,full,ni_sequenzen,NI_Sequenzen,,,,,,,,,,,,,,
,Screen_3,canvas.Screen,0_2_1_2,,skipped,2,19909,,,19902,,19909,2021-10-22T07:17:58.119Z,20332.34,1634753718,full,ni_sequenzen,NI_Sequenzen,,,,,,,,,,,,,,
,Screen_4,canvas.Screen,0_2_1_3,,skipped,2,19911,,,19902,,19911,2021-10-22T07:17:58.122Z,20332.34,1634753718,full,ni_sequenzen,NI_Sequenzen,,,,,,,,,,,,,,
,Screen_5,canvas.Screen,0_2_1_4,,skipped,2,19913,,,19902,,19914,2021-10-22T07:17:58.124Z,20332.34,1634753718,full,ni_sequenzen,NI_Sequenzen,,,,,,,,,,,,,,
,Screen_6,canvas.Screen,0_2_1_5,,skipped,2,19916,,,19902,,19916,2021-10-22T07:17:58.126Z,20332.34,1634753718,full,ni_sequenzen,NI_Sequenzen,,,,,,,,,,,,,,
,Sequence,flow.Sequence,0_2_1,,completion,2,19900,,,19902,,19917,2021-10-22T07:17:58.127Z,20332.34,1634753718,full,ni_sequenzen,NI_Sequenzen,,,,,,,,,,,,,,
,Screen_1,canvas.Screen,0_2_2_0,,skipped,3,19921,,,19921,,19921,2021-10-22T07:17:58.130Z,20332.34,1634753718,full,ni_sequenzen,NI_Sequenzen,,,,,,,,,,,,,,
,Screen_2,canvas.Screen,0_2_2_1,,skipped,3,19925,,,19921,,19925,2021-10-22T07:17:58.135Z,20332.34,1634753718,full,ni_sequenzen,NI_Sequenzen,,,,,,,,,,,,,,
,Screen_3,canvas.Screen,0_2_2_2,,skipped,3,19927,,,19921,,19927,2021-10-22T07:17:58.138Z,20332.34,1634753718,full,ni_sequenzen,NI_Sequenzen,,,,,,,,,,,,,,
,Screen_4,canvas.Screen,0_2_2_3,,skipped,3,19929,,,19921,,19929,2021-10-22T07:17:58.140Z,20332.34,1634753718,full,ni_sequenzen,NI_Sequenzen,,,,,,,,,,,,,,
,Screen_5,canvas.Screen,0_2_2_4,,skipped,3,19932,,,19921,,19932,2021-10-22T07:17:58.142Z,20332.34,1634753718,full,ni_sequenzen,NI_Sequenzen,,,,,,,,,,,,,,
,Screen_6,canvas.Screen,0_2_2_5,,skipped,3,19934,,,19921,,19935,2021-10-22T07:17:58.144Z,20332.34,1634753718,full,ni_sequenzen,NI_Sequenzen,,,,,,,,,,,,,,
,Sequence,flow.Sequence,0_2_2,,completion,3,19918,,,19921,,19935,2021-10-22T07:17:58.145Z,20332.34,1634753718,full,ni_sequenzen,NI_Sequenzen,,,,,,,,,,,,,,
,Screen_1,canvas.Screen,0_2_3_0,,skipped,4,19938,,,19938,,19938,2021-10-22T07:17:58.148Z,20332.34,1634753718,full,ni_sequenzen,NI_Sequenzen,,,,,,,,,,,,,,
,Screen_2,canvas.Screen,0_2_3_1,,skipped,4,19940,,,19938,,19940,2021-10-22T07:17:58.150Z,20332.34,1634753718,full,ni_sequenzen,NI_Sequenzen,,,,,,,,,,,,,,
,Screen_3,canvas.Screen,0_2_3_2,,skipped,4,19942,,,19938,,19942,2021-10-22T07:17:58.153Z,20332.34,1634753718,full,ni_sequenzen,NI_Sequenzen,,,,,,,,,,,,,,
,Screen_4,canvas.Screen,0_2_3_3,,skipped,4,19945,,,19938,,19945,2021-10-22T07:17:58.155Z,20332.34,1634753718,full,ni_sequenzen,NI_Sequenzen,,,,,,,,,,,,,,
,Screen_5,canvas.Screen,0_2_3_4,,skipped,4,19948,,,19938,,19948,2021-10-22T07:17:58.157Z,20332.34,1634753718,full,ni_sequenzen,NI_Sequenzen,,,,,,,,,,,,,,
,Screen_6,canvas.Screen,0_2_3_5,,skipped,4,19950,,,19938,,19950,2021-10-22T07:17:58.160Z,20332.34,1634753718,full,ni_sequenzen,NI_Sequenzen,,,,,,,,,,,,,,
,Sequence,flow.Sequence,0_2_3,,completion,4,19936,,,19938,,19950,2021-10-22T07:17:58.161Z,20332.34,1634753718,full,ni_sequenzen,NI_Sequenzen,,,,,,,,,,,,,,
,Screen_1,canvas.Screen,0_2_4_0,,skipped,5,19954,,,19954,,19954,2021-10-22T07:17:58.164Z,20332.34,1634753718,full,ni_sequenzen,NI_Sequenzen,,,,,,,,,,,,,,
,Screen_2,canvas.Screen,0_2_4_1,,skipped,5,19957,,,19954,,19957,2021-10-22T07:17:58.167Z,20332.34,1634753718,full,ni_sequenzen,NI_Sequenzen,,,,,,,,,,,,,,
,Screen_3,canvas.Screen,0_2_4_2,,skipped,5,19959,,,19954,,19959,2021-10-22T07:17:58.169Z,20332.34,1634753718,full,ni_sequenzen,NI_Sequenzen,,,,,,,,,,,,,,
,Screen_4,canvas.Screen,0_2_4_3,,skipped,5,19962,,,19954,,19962,2021-10-22T07:17:58.172Z,20332.34,1634753718,full,ni_sequenzen,NI_Sequenzen,,,,,,,,,,,,,,
,Screen_5,canvas.Screen,0_2_4_4,,skipped,5,19964,,,19954,,19964,2021-10-22T07:17:58.173Z,20332.34,1634753718,full,ni_sequenzen,NI_Sequenzen,,,,,,,,,,,,,,
,Screen_6,canvas.Screen,0_2_4_5,,skipped,5,19966,,,19954,,19966,2021-10-22T07:17:58.176Z,20332.34,1634753718,full,ni_sequenzen,NI_Sequenzen,,,,,,,,,,,,,,
,Sequence,flow.Sequence,0_2_4,,completion,5,19951,,,19954,,19966,2021-10-22T07:17:58.177Z,20332.34,1634753718,full,ni_sequenzen,NI_Sequenzen,,,,,,,,,,,,,,
,Screen_1,canvas.Screen,0_2_5_0,,skipped,6,19970,,,19970,,19970,2021-10-22T07:17:58.180Z,20332.34,1634753718,full,ni_sequenzen,NI_Sequenzen,,,,,,,,,,,,,,
,Screen_2,canvas.Screen,0_2_5_1,,skipped,6,19973,,,19970,,19973,2021-10-22T07:17:58.183Z,20332.34,1634753718,full,ni_sequenzen,NI_Sequenzen,,,,,,,,,,,,,,
,Screen_3,canvas.Screen,0_2_5_2,,skipped,6,19975,,,19970,,19975,2021-10-22T07:17:58.185Z,20332.34,1634753718,full,ni_sequenzen,NI_Sequenzen,,,,,,,,,,,,,,
,Screen_4,canvas.Screen,0_2_5_3,,skipped,6,19977,,,19970,,19977,2021-10-22T07:17:58.187Z,20332.34,1634753718,full,ni_sequenzen,NI_Sequenzen,,,,,,,,,,,,,,
,Screen_5,canvas.Screen,0_2_5_4,,skipped,6,19979,,,19970,,19979,2021-10-22T07:17:58.190Z,20332.34,1634753718,full,ni_sequenzen,NI_Sequenzen,,,,,,,,,,,,,,
,Screen_6,canvas.Screen,0_2_5_5,,skipped,6,19982,,,19970,,19982,2021-10-22T07:17:58.191Z,20332.34,1634753718,full,ni_sequenzen,NI_Sequenzen,,,,,,,,,,,,,,
,Sequence,flow.Sequence,0_2_5,,completion,6,19968,,,19970,,19982,2021-10-22T07:17:58.191Z,20332.34,1634753718,full,ni_sequenzen,NI_Sequenzen,,,,,,,,,,,,,,
,Screen_1,canvas.Screen,0_2_6_0,,skipped,7,19985,,,19985,,19985,2021-10-22T07:17:58.195Z,20332.34,1634753718,full,ni_sequenzen,NI_Sequenzen,,,,,,,,,,,,,,
,Screen_2,canvas.Screen,0_2_6_1,,skipped,7,19987,,,19985,,19988,2021-10-22T07:17:58.197Z,20332.34,1634753718,full,ni_sequenzen,NI_Sequenzen,,,,,,,,,,,,,,
,Screen_3,canvas.Screen,0_2_6_2,,skipped,7,19989,,,19985,,19989,2021-10-22T07:17:58.199Z,20332.34,1634753718,full,ni_sequenzen,NI_Sequenzen,,,,,,,,,,,,,,
,Screen_4,canvas.Screen,0_2_6_3,,skipped,7,19992,,,19985,,19992,2021-10-22T07:17:58.202Z,20332.34,1634753718,full,ni_sequenzen,NI_Sequenzen,,,,,,,,,,,,,,
,Screen_5,canvas.Screen,0_2_6_4,,skipped,7,19993,,,19985,,19993,2021-10-22T07:17:58.204Z,20332.34,1634753718,full,ni_sequenzen,NI_Sequenzen,,,,,,,,,,,,,,
,Screen_6,canvas.Screen,0_2_6_5,,skipped,7,19996,,,19985,,19996,2021-10-22T07:17:58.206Z,20332.34,1634753718,full,ni_sequenzen,NI_Sequenzen,,,,,,,,,,,,,,
,Sequence,flow.Sequence,0_2_6,,completion,7,19983,,,19985,,19997,2021-10-22T07:17:58.206Z,20332.34,1634753718,full,ni_sequenzen,NI_Sequenzen,,,,,,,,,,,,,,
,Screen_1,canvas.Screen,0_2_7_0,,skipped,8,20002,,,20002,,20002,2021-10-22T07:17:58.212Z,20332.34,1634753718,full,ni_sequenzen,NI_Sequenzen,,,,,,,,,,,,,,
,Screen_2,canvas.Screen,0_2_7_1,,skipped,8,20004,,,20002,,20005,2021-10-22T07:17:58.215Z,20332.34,1634753718,full,ni_sequenzen,NI_Sequenzen,,,,,,,,,,,,,,
,Screen_3,canvas.Screen,0_2_7_2,,skipped,8,20007,,,20002,,20007,2021-10-22T07:17:58.217Z,20332.34,1634753718,full,ni_sequenzen,NI_Sequenzen,,,,,,,,,,,,,,
,Screen_4,canvas.Screen,0_2_7_3,,skipped,8,20009,,,20002,,20009,2021-10-22T07:17:58.219Z,20332.34,1634753718,full,ni_sequenzen,NI_Sequenzen,,,,,,,,,,,,,,
,Screen_5,canvas.Screen,0_2_7_4,,skipped,8,20011,,,20002,,20012,2021-10-22T07:17:58.221Z,20332.34,1634753718,full,ni_sequenzen,NI_Sequenzen,,,,,,,,,,,,,,
,Screen_6,canvas.Screen,0_2_7_5,,skipped,8,20013,,,20002,,20013,2021-10-22T07:17:58.223Z,20332.34,1634753718,full,ni_sequenzen,NI_Sequenzen,,,,,,,,,,,,,,
,Sequence,flow.Sequence,0_2_7,,completion,8,20000,,,20002,,20014,2021-10-22T07:17:58.223Z,20332.34,1634753718,full,ni_sequenzen,NI_Sequenzen,,,,,,,,,,,,,,
,Screen_1,canvas.Screen,0_2_8_0,,skipped,9,20016,,,20016,,20016,2021-10-22T07:17:58.226Z,20332.34,1634753718,full,ni_sequenzen,NI_Sequenzen,,,,,,,,,,,,,,
,Screen_2,canvas.Screen,0_2_8_1,,skipped,9,20018,,,20016,,20018,2021-10-22T07:17:58.228Z,20332.34,1634753718,full,ni_sequenzen,NI_Sequenzen,,,,,,,,,,,,,,
,Screen_3,canvas.Screen,0_2_8_2,,skipped,9,20020,,,20016,,20020,2021-10-22T07:17:58.230Z,20332.34,1634753718,full,ni_sequenzen,NI_Sequenzen,,,,,,,,,,,,,,
,Screen_4,canvas.Screen,0_2_8_3,,skipped,9,20022,,,20016,,20022,2021-10-22T07:17:58.232Z,20332.34,1634753718,full,ni_sequenzen,NI_Sequenzen,,,,,,,,,,,,,,
,Screen_5,canvas.Screen,0_2_8_4,,skipped,9,20024,,,20016,,20024,2021-10-22T07:17:58.234Z,20332.34,1634753718,full,ni_sequenzen,NI_Sequenzen,,,,,,,,,,,,,,
,Screen_6,canvas.Screen,0_2_8_5,,skipped,9,20026,,,20016,,20026,2021-10-22T07:17:58.235Z,20332.34,1634753718,full,ni_sequenzen,NI_Sequenzen,,,,,,,,,,,,,,
,Sequence,flow.Sequence,0_2_8,,completion,9,20014,,,20016,,20026,2021-10-22T07:17:58.236Z,20332.34,1634753718,full,ni_sequenzen,NI_Sequenzen,,,,,,,,,,,,,,
,Screen_1,canvas.Screen,0_2_9_0,,skipped,10,20029,,,20029,,20029,2021-10-22T07:17:58.239Z,20332.34,1634753718,full,ni_sequenzen,NI_Sequenzen,,,,,,,,,,,,,,
,Screen_2,canvas.Screen,0_2_9_1,,skipped,10,20030,,,20029,,20030,2021-10-22T07:17:58.241Z,20332.34,1634753718,full,ni_sequenzen,NI_Sequenzen,,,,,,,,,,,,,,
,Screen_3,canvas.Screen,0_2_9_2,,skipped,10,20032,,,20029,,20032,2021-10-22T07:17:58.243Z,20332.34,1634753718,full,ni_sequenzen,NI_Sequenzen,,,,,,,,,,,,,,
,Screen_4,canvas.Screen,0_2_9_3,,skipped,10,20035,,,20029,,20035,2021-10-22T07:17:58.245Z,20332.34,1634753718,full,ni_sequenzen,NI_Sequenzen,,,,,,,,,,,,,,
,Screen_5,canvas.Screen,0_2_9_4,,skipped,10,20038,,,20029,,20038,2021-10-22T07:17:58.248Z,20332.34,1634753718,full,ni_sequenzen,NI_Sequenzen,,,,,,,,,,,,,,
,Screen_6,canvas.Screen,0_2_9_5,,skipped,10,20040,,,20029,,20040,2021-10-22T07:17:58.250Z,20332.34,1634753718,full,ni_sequenzen,NI_Sequenzen,,,,,,,,,,,,,,
,Sequence,flow.Sequence,0_2_9,,completion,10,20027,,,20029,,20040,2021-10-22T07:17:58.250Z,20332.34,1634753718,full,ni_sequenzen,NI_Sequenzen,,,,,,,,,,,,,,
,Screen_1,canvas.Screen,0_2_10_0,,skipped,11,20043,,,20043,,20043,2021-10-22T07:17:58.252Z,20332.34,1634753718,full,ni_sequenzen,NI_Sequenzen,,,,,,,,,,,,,,
,Screen_2,canvas.Screen,0_2_10_1,,skipped,11,20044,,,20043,,20044,2021-10-22T07:17:58.254Z,20332.34,1634753718,full,ni_sequenzen,NI_Sequenzen,,,,,,,,,,,,,,
,Screen_3,canvas.Screen,0_2_10_2,,skipped,11,20046,,,20043,,20046,2021-10-22T07:17:58.256Z,20332.34,1634753718,full,ni_sequenzen,NI_Sequenzen,,,,,,,,,,,,,,
,Screen_4,canvas.Screen,0_2_10_3,,skipped,11,20048,,,20043,,20048,2021-10-22T07:17:58.258Z,20332.34,1634753718,full,ni_sequenzen,NI_Sequenzen,,,,,,,,,,,,,,
,Screen_5,canvas.Screen,0_2_10_4,,skipped,11,20050,,,20043,,20050,2021-10-22T07:17:58.260Z,20332.34,1634753718,full,ni_sequenzen,NI_Sequenzen,,,,,,,,,,,,,,
,Screen_6,canvas.Screen,0_2_10_5,,skipped,11,20052,,,20043,,20052,2021-10-22T07:17:58.262Z,20332.34,1634753718,full,ni_sequenzen,NI_Sequenzen,,,,,,,,,,,,,,
,Sequence,flow.Sequence,0_2_10,,completion,11,20041,,,20043,,20052,2021-10-22T07:17:58.262Z,20332.34,1634753718,full,ni_sequenzen,NI_Sequenzen,,,,,,,,,,,,,,
,Screen_1,canvas.Screen,0_2_11_0,,skipped,12,20054,,,20054,,20054,2021-10-22T07:17:58.265Z,20332.34,1634753718,full,ni_sequenzen,NI_Sequenzen,,,,,,,,,,,,,,
,Screen_2,canvas.Screen,0_2_11_1,,skipped,12,20056,,,20054,,20056,2021-10-22T07:17:58.266Z,20332.34,1634753718,full,ni_sequenzen,NI_Sequenzen,,,,,,,,,,,,,,
,Screen_3,canvas.Screen,0_2_11_2,,skipped,12,20057,,,20054,,20057,2021-10-22T07:17:58.268Z,20332.34,1634753718,full,ni_sequenzen,NI_Sequenzen,,,,,,,,,,,,,,
,Screen_4,canvas.Screen,0_2_11_3,,skipped,12,20059,,,20054,,20059,2021-10-22T07:17:58.270Z,20332.34,1634753718,full,ni_sequenzen,NI_Sequenzen,,,,,,,,,,,,,,
,Screen_5,canvas.Screen,0_2_11_4,,skipped,12,20061,,,20054,,20061,2021-10-22T07:17:58.272Z,20332.34,1634753718,full,ni_sequenzen,NI_Sequenzen,,,,,,,,,,,,,,
,Screen_6,canvas.Screen,0_2_11_5,,skipped,12,20063,,,20054,,20063,2021-10-22T07:17:58.272Z,20332.34,1634753718,full,ni_sequenzen,NI_Sequenzen,,,,,,,,,,,,,,
,Sequence,flow.Sequence,0_2_11,,completion,12,20053,,,20054,,20064,2021-10-22T07:17:58.273Z,20332.34,1634753718,full,ni_sequenzen,NI_Sequenzen,,,,,,,,,,,,,,
,Screen_1,canvas.Screen,0_2_12_0,,skipped,13,20065,,,20065,,20065,2021-10-22T07:17:58.276Z,20332.34,1634753718,full,ni_sequenzen,NI_Sequenzen,,,,,,,,,,,,,,
,Screen_2,canvas.Screen,0_2_12_1,,skipped,13,20067,,,20065,,20067,2021-10-22T07:17:58.278Z,20332.34,1634753718,full,ni_sequenzen,NI_Sequenzen,,,,,,,,,,,,,,
,Screen_3,canvas.Screen,0_2_12_2,,skipped,13,20069,,,20065,,20069,2021-10-22T07:17:58.279Z,20332.34,1634753718,full,ni_sequenzen,NI_Sequenzen,,,,,,,,,,,,,,
,Screen_4,canvas.Screen,0_2_12_3,,skipped,13,20071,,,20065,,20071,2021-10-22T07:17:58.281Z,20332.34,1634753718,full,ni_sequenzen,NI_Sequenzen,,,,,,,,,,,,,,
,Screen_5,canvas.Screen,0_2_12_4,,skipped,13,20072,,,20065,,20073,2021-10-22T07:17:58.282Z,20332.34,1634753718,full,ni_sequenzen,NI_Sequenzen,,,,,,,,,,,,,,
,Screen_6,canvas.Screen,0_2_12_5,,skipped,13,20074,,,20065,,20074,2021-10-22T07:17:58.284Z,20332.34,1634753718,full,ni_sequenzen,NI_Sequenzen,,,,,,,,,,,,,,
,Sequence,flow.Sequence,0_2_12,,completion,13,20064,,,20065,,20075,2021-10-22T07:17:58.285Z,20332.34,1634753718,full,ni_sequenzen,NI_Sequenzen,,,,,,,,,,,,,,
,Screen_1,canvas.Screen,0_2_13_0,,skipped,14,20077,,,20077,,20077,2021-10-22T07:17:58.287Z,20332.34,1634753718,full,ni_sequenzen,NI_Sequenzen,,,,,,,,,,,,,,
,Screen_2,canvas.Screen,0_2_13_1,,skipped,14,20079,,,20077,,20079,2021-10-22T07:17:58.289Z,20332.34,1634753718,full,ni_sequenzen,NI_Sequenzen,,,,,,,,,,,,,,
,Screen_3,canvas.Screen,0_2_13_2,,skipped,14,20080,,,20077,,20080,2021-10-22T07:17:58.291Z,20332.34,1634753718,full,ni_sequenzen,NI_Sequenzen,,,,,,,,,,,,,,
,Screen_4,canvas.Screen,0_2_13_3,,skipped,14,20082,,,20077,,20082,2021-10-22T07:17:58.291Z,20332.34,1634753718,full,ni_sequenzen,NI_Sequenzen,,,,,,,,,,,,,,
,Screen_5,canvas.Screen,0_2_13_4,,skipped,14,20084,,,20077,,20084,2021-10-22T07:17:58.293Z,20332.34,1634753718,full,ni_sequenzen,NI_Sequenzen,,,,,,,,,,,,,,
,Screen_6,canvas.Screen,0_2_13_5,,skipped,14,20085,,,20077,,20085,2021-10-22T07:17:58.295Z,20332.34,1634753718,full,ni_sequenzen,NI_Sequenzen,,,,,,,,,,,,,,
,Sequence,flow.Sequence,0_2_13,,completion,14,20076,,,20077,,20086,2021-10-22T07:17:58.295Z,20332.34,1634753718,full,ni_sequenzen,NI_Sequenzen,,,,,,,,,,,,,,
,Screen_1,canvas.Screen,0_2_14_0,,skipped,15,20089,,,20089,,20089,2021-10-22T07:17:58.299Z,20332.34,1634753718,full,ni_sequenzen,NI_Sequenzen,,,,,,,,,,,,,,
,Screen_2,canvas.Screen,0_2_14_1,,skipped,15,20091,,,20089,,20091,2021-10-22T07:17:58.300Z,20332.34,1634753718,full,ni_sequenzen,NI_Sequenzen,,,,,,,,,,,,,,
,Screen_3,canvas.Screen,0_2_14_2,,skipped,15,20092,,,20089,,20092,2021-10-22T07:17:58.302Z,20332.34,1634753718,full,ni_sequenzen,NI_Sequenzen,,,,,,,,,,,,,,
,Screen_4,canvas.Screen,0_2_14_3,,skipped,15,20094,,,20089,,20094,2021-10-22T07:17:58.304Z,20332.34,1634753718,full,ni_sequenzen,NI_Sequenzen,,,,,,,,,,,,,,
,Screen_5,canvas.Screen,0_2_14_4,,skipped,15,20095,,,20089,,20095,2021-10-22T07:17:58.306Z,20332.34,1634753718,full,ni_sequenzen,NI_Sequenzen,,,,,,,,,,,,,,
,Screen_6,canvas.Screen,0_2_14_5,,skipped,15,20098,,,20089,,20098,2021-10-22T07:17:58.307Z,20332.34,1634753718,full,ni_sequenzen,NI_Sequenzen,,,,,,,,,,,,,,
,Sequence,flow.Sequence,0_2_14,,completion,15,20086,,,20089,,20098,2021-10-22T07:17:58.307Z,20332.34,1634753718,full,ni_sequenzen,NI_Sequenzen,,,,,,,,,,,,,,
,Screen_1,canvas.Screen,0_2_15_0,,skipped,16,20100,,,20100,,20100,2021-10-22T07:17:58.310Z,20332.34,1634753718,full,ni_sequenzen,NI_Sequenzen,,,,,,,,,,,,,,
,Screen_2,canvas.Screen,0_2_15_1,,skipped,16,20102,,,20100,,20102,2021-10-22T07:17:58.312Z,20332.34,1634753718,full,ni_sequenzen,NI_Sequenzen,,,,,,,,,,,,,,
,Screen_3,canvas.Screen,0_2_15_2,,skipped,16,20104,,,20100,,20104,2021-10-22T07:17:58.313Z,20332.34,1634753718,full,ni_sequenzen,NI_Sequenzen,,,,,,,,,,,,,,
,Screen_4,canvas.Screen,0_2_15_3,,skipped,16,20106,,,20100,,20106,2021-10-22T07:17:58.315Z,20332.34,1634753718,full,ni_sequenzen,NI_Sequenzen,,,,,,,,,,,,,,
,Screen_5,canvas.Screen,0_2_15_4,,skipped,16,20107,,,20100,,20107,2021-10-22T07:17:58.316Z,20332.34,1634753718,full,ni_sequenzen,NI_Sequenzen,,,,,,,,,,,,,,
,Screen_6,canvas.Screen,0_2_15_5,,skipped,16,20108,,,20100,,20108,2021-10-22T07:17:58.318Z,20332.34,1634753718,full,ni_sequenzen,NI_Sequenzen,,,,,,,,,,,,,,
,Sequence,flow.Sequence,0_2_15,,completion,16,20099,,,20100,,20109,2021-10-22T07:17:58.318Z,20332.34,1634753718,full,ni_sequenzen,NI_Sequenzen,,,,,,,,,,,,,,
,Screen_1,canvas.Screen,0_2_16_0,,skipped,17,20111,,,20111,,20111,2021-10-22T07:17:58.321Z,20332.34,1634753718,full,ni_sequenzen,NI_Sequenzen,,,,,,,,,,,,,,
,Screen_2,canvas.Screen,0_2_16_1,,skipped,17,20112,,,20111,,20112,2021-10-22T07:17:58.323Z,20332.34,1634753718,full,ni_sequenzen,NI_Sequenzen,,,,,,,,,,,,,,
,Screen_3,canvas.Screen,0_2_16_2,,skipped,17,20114,,,20111,,20114,2021-10-22T07:17:58.325Z,20332.34,1634753718,full,ni_sequenzen,NI_Sequenzen,,,,,,,,,,,,,,
,Screen_4,canvas.Screen,0_2_16_3,,skipped,17,20116,,,20111,,20116,2021-10-22T07:17:58.326Z,20332.34,1634753718,full,ni_sequenzen,NI_Sequenzen,,,,,,,,,,,,,,
,Screen_5,canvas.Screen,0_2_16_4,,skipped,17,20117,,,20111,,20118,2021-10-22T07:17:58.328Z,20332.34,1634753718,full,ni_sequenzen,NI_Sequenzen,,,,,,,,,,,,,,
,Screen_6,canvas.Screen,0_2_16_5,,skipped,17,20120,,,20111,,20120,2021-10-22T07:17:58.330Z,20332.34,1634753718,full,ni_sequenzen,NI_Sequenzen,,,,,,,,,,,,,,
,Sequence,flow.Sequence,0_2_16,,completion,17,20109,,,20111,,20120,2021-10-22T07:17:58.330Z,20332.34,1634753718,full,ni_sequenzen,NI_Sequenzen,,,,,,,,,,,,,,
,Screen_1,canvas.Screen,0_2_17_0,,skipped,18,20122,,,20122,,20122,2021-10-22T07:17:58.332Z,20332.34,1634753718,full,ni_sequenzen,NI_Sequenzen,,,,,,,,,,,,,,
,Screen_2,canvas.Screen,0_2_17_1,,skipped,18,20123,,,20122,,20124,2021-10-22T07:17:58.334Z,20332.34,1634753718,full,ni_sequenzen,NI_Sequenzen,,,,,,,,,,,,,,
,Screen_3,canvas.Screen,0_2_17_2,,skipped,18,20125,,,20122,,20126,2021-10-22T07:17:58.336Z,20332.34,1634753718,full,ni_sequenzen,NI_Sequenzen,,,,,,,,,,,,,,
,Screen_4,canvas.Screen,0_2_17_3,,skipped,18,20127,,,20122,,20127,2021-10-22T07:17:58.337Z,20332.34,1634753718,full,ni_sequenzen,NI_Sequenzen,,,,,,,,,,,,,,
,Screen_5,canvas.Screen,0_2_17_4,,skipped,18,20129,,,20122,,20129,2021-10-22T07:17:58.340Z,20332.34,1634753718,full,ni_sequenzen,NI_Sequenzen,,,,,,,,,,,,,,
,Screen_6,canvas.Screen,0_2_17_5,,skipped,18,20131,,,20122,,20131,2021-10-22T07:17:58.341Z,20332.34,1634753718,full,ni_sequenzen,NI_Sequenzen,,,,,,,,,,,,,,
,Sequence,flow.Sequence,0_2_17,,completion,18,20120,,,20122,,20131,2021-10-22T07:17:58.342Z,20332.34,1634753718,full,ni_sequenzen,NI_Sequenzen,,,,,,,,,,,,,,
,Screen_1,canvas.Screen,0_2_18_0,,skipped,19,20133,,,20133,,20133,2021-10-22T07:17:58.343Z,20332.34,1634753718,full,ni_sequenzen,NI_Sequenzen,,,,,,,,,,,,,,
,Screen_2,canvas.Screen,0_2_18_1,,skipped,19,20135,,,20133,,20135,2021-10-22T07:17:58.345Z,20332.34,1634753718,full,ni_sequenzen,NI_Sequenzen,,,,,,,,,,,,,,
,Screen_3,canvas.Screen,0_2_18_2,,skipped,19,20137,,,20133,,20137,2021-10-22T07:17:58.347Z,20332.34,1634753718,full,ni_sequenzen,NI_Sequenzen,,,,,,,,,,,,,,
,Screen_4,canvas.Screen,0_2_18_3,,skipped,19,20139,,,20133,,20139,2021-10-22T07:17:58.349Z,20332.34,1634753718,full,ni_sequenzen,NI_Sequenzen,,,,,,,,,,,,,,
,Screen_5,canvas.Screen,0_2_18_4,,skipped,19,20141,,,20133,,20141,2021-10-22T07:17:58.351Z,20332.34,1634753718,full,ni_sequenzen,NI_Sequenzen,,,,,,,,,,,,,,
,Screen_6,canvas.Screen,0_2_18_5,,skipped,19,20143,,,20133,,20143,2021-10-22T07:17:58.352Z,20332.34,1634753718,full,ni_sequenzen,NI_Sequenzen,,,,,,,,,,,,,,
,Sequence,flow.Sequence,0_2_18,,completion,19,20132,,,20133,,20143,2021-10-22T07:17:58.353Z,20332.34,1634753718,full,ni_sequenzen,NI_Sequenzen,,,,,,,,,,,,,,
,Screen_1,canvas.Screen,0_2_19_0,,skipped,20,20145,,,20145,,20145,2021-10-22T07:17:58.355Z,20332.34,1634753718,full,ni_sequenzen,NI_Sequenzen,,,,,,,,,,,,,,
,Screen_2,canvas.Screen,0_2_19_1,,skipped,20,20147,,,20145,,20147,2021-10-22T07:17:58.357Z,20332.34,1634753718,full,ni_sequenzen,NI_Sequenzen,,,,,,,,,,,,,,
,Screen_3,canvas.Screen,0_2_19_2,,skipped,20,20149,,,20145,,20149,2021-10-22T07:17:58.358Z,20332.34,1634753718,full,ni_sequenzen,NI_Sequenzen,,,,,,,,,,,,,,
,Screen_4,canvas.Screen,0_2_19_3,,skipped,20,20150,,,20145,,20150,2021-10-22T07:17:58.360Z,20332.34,1634753718,full,ni_sequenzen,NI_Sequenzen,,,,,,,,,,,,,,
,Screen_5,canvas.Screen,0_2_19_4,,skipped,20,20152,,,20145,,20152,2021-10-22T07:17:58.362Z,20332.34,1634753718,full,ni_sequenzen,NI_Sequenzen,,,,,,,,,,,,,,
,Screen_6,canvas.Screen,0_2_19_5,,skipped,20,20154,,,20145,,20154,2021-10-22T07:17:58.364Z,20332.34,1634753718,full,ni_sequenzen,NI_Sequenzen,,,,,,,,,,,,,,
,Sequence,flow.Sequence,0_2_19,,completion,20,20144,,,20145,,20154,2021-10-22T07:17:58.364Z,20332.34,1634753718,full,ni_sequenzen,NI_Sequenzen,,,,,,,,,,,,,,
,Screen_1,canvas.Screen,0_2_20_0,,skipped,21,20157,,,20157,,20157,2021-10-22T07:17:58.367Z,20332.34,1634753718,full,ni_sequenzen,NI_Sequenzen,,,,,,,,,,,,,,
,Screen_2,canvas.Screen,0_2_20_1,,skipped,21,20159,,,20157,,20159,2021-10-22T07:17:58.368Z,20332.34,1634753718,full,ni_sequenzen,NI_Sequenzen,,,,,,,,,,,,,,
,Screen_3,canvas.Screen,0_2_20_2,,skipped,21,20161,,,20157,,20161,2021-10-22T07:17:58.371Z,20332.34,1634753718,full,ni_sequenzen,NI_Sequenzen,,,,,,,,,,,,,,
,Screen_4,canvas.Screen,0_2_20_3,,skipped,21,20163,,,20157,,20163,2021-10-22T07:17:58.372Z,20332.34,1634753718,full,ni_sequenzen,NI_Sequenzen,,,,,,,,,,,,,,
,Screen_5,canvas.Screen,0_2_20_4,,skipped,21,20165,,,20157,,20165,2021-10-22T07:17:58.375Z,20332.34,1634753718,full,ni_sequenzen,NI_Sequenzen,,,,,,,,,,,,,,
,Screen_6,canvas.Screen,0_2_20_5,,skipped,21,20167,,,20157,,20167,2021-10-22T07:17:58.377Z,20332.34,1634753718,full,ni_sequenzen,NI_Sequenzen,,,,,,,,,,,,,,
,Sequence,flow.Sequence,0_2_20,,completion,21,20155,,,20157,,20167,2021-10-22T07:17:58.377Z,20332.34,1634753718,full,ni_sequenzen,NI_Sequenzen,,,,,,,,,,,,,,
,Screen_1,canvas.Screen,0_2_21_0,,skipped,22,20170,,,20170,,20170,2021-10-22T07:17:58.379Z,20332.34,1634753718,full,ni_sequenzen,NI_Sequenzen,,,,,,,,,,,,,,
,Screen_2,canvas.Screen,0_2_21_1,,skipped,22,20171,,,20170,,20171,2021-10-22T07:17:58.381Z,20332.34,1634753718,full,ni_sequenzen,NI_Sequenzen,,,,,,,,,,,,,,
,Screen_3,canvas.Screen,0_2_21_2,,skipped,22,20173,,,20170,,20173,2021-10-22T07:17:58.383Z,20332.34,1634753718,full,ni_sequenzen,NI_Sequenzen,,,,,,,,,,,,,,
,Screen_4,canvas.Screen,0_2_21_3,,skipped,22,20175,,,20170,,20175,2021-10-22T07:17:58.385Z,20332.34,1634753718,full,ni_sequenzen,NI_Sequenzen,,,,,,,,,,,,,,
,Screen_5,canvas.Screen,0_2_21_4,,skipped,22,20177,,,20170,,20177,2021-10-22T07:17:58.387Z,20332.34,1634753718,full,ni_sequenzen,NI_Sequenzen,,,,,,,,,,,,,,
,Screen_6,canvas.Screen,0_2_21_5,,skipped,22,20178,,,20170,,20178,2021-10-22T07:17:58.389Z,20332.34,1634753718,full,ni_sequenzen,NI_Sequenzen,,,,,,,,,,,,,,
,Sequence,flow.Sequence,0_2_21,,completion,22,20168,,,20170,,20178,2021-10-22T07:17:58.389Z,20332.34,1634753718,full,ni_sequenzen,NI_Sequenzen,,,,,,,,,,,,,,
,Screen_1,canvas.Screen,0_2_22_0,,skipped,23,20181,,,20181,,20181,2021-10-22T07:17:58.391Z,20332.34,1634753718,full,ni_sequenzen,NI_Sequenzen,,,,,,,,,,,,,,
,Screen_2,canvas.Screen,0_2_22_1,,skipped,23,20183,,,20181,,20183,2021-10-22T07:17:58.393Z,20332.34,1634753718,full,ni_sequenzen,NI_Sequenzen,,,,,,,,,,,,,,
,Screen_3,canvas.Screen,0_2_22_2,,skipped,23,20185,,,20181,,20185,2021-10-22T07:17:58.395Z,20332.34,1634753718,full,ni_sequenzen,NI_Sequenzen,,,,,,,,,,,,,,
,Screen_4,canvas.Screen,0_2_22_3,,skipped,23,20187,,,20181,,20187,2021-10-22T07:17:58.397Z,20332.34,1634753718,full,ni_sequenzen,NI_Sequenzen,,,,,,,,,,,,,,
,Screen_5,canvas.Screen,0_2_22_4,,skipped,23,20188,,,20181,,20188,2021-10-22T07:17:58.399Z,20332.34,1634753718,full,ni_sequenzen,NI_Sequenzen,,,,,,,,,,,,,,
,Screen_6,canvas.Screen,0_2_22_5,,skipped,23,20190,,,20181,,20190,2021-10-22T07:17:58.401Z,20332.34,1634753718,full,ni_sequenzen,NI_Sequenzen,,,,,,,,,,,,,,
,Sequence,flow.Sequence,0_2_22,,completion,23,20179,,,20181,,20191,2021-10-22T07:17:58.401Z,20332.34,1634753718,full,ni_sequenzen,NI_Sequenzen,,,,,,,,,,,,,,
,Screen_1,canvas.Screen,0_2_23_0,,skipped,24,20194,,,20194,,20194,2021-10-22T07:17:58.403Z,20332.34,1634753718,full,ni_sequenzen,NI_Sequenzen,,,,,,,,,,,,,,
,Screen_2,canvas.Screen,0_2_23_1,,skipped,24,20195,,,20194,,20195,2021-10-22T07:17:58.405Z,20332.34,1634753718,full,ni_sequenzen,NI_Sequenzen,,,,,,,,,,,,,,
,Screen_3,canvas.Screen,0_2_23_2,,skipped,24,20197,,,20194,,20197,2021-10-22T07:17:58.407Z,20332.34,1634753718,full,ni_sequenzen,NI_Sequenzen,,,,,,,,,,,,,,
,Screen_4,canvas.Screen,0_2_23_3,,skipped,24,20199,,,20194,,20199,2021-10-22T07:17:58.409Z,20332.34,1634753718,full,ni_sequenzen,NI_Sequenzen,,,,,,,,,,,,,,
,Screen_5,canvas.Screen,0_2_23_4,,skipped,24,20201,,,20194,,20201,2021-10-22T07:17:58.411Z,20332.34,1634753718,full,ni_sequenzen,NI_Sequenzen,,,,,,,,,,,,,,
,Screen_6,canvas.Screen,0_2_23_5,,skipped,24,20203,,,20194,,20203,2021-10-22T07:17:58.413Z,20332.34,1634753718,full,ni_sequenzen,NI_Sequenzen,,,,,,,,,,,,,,
,Sequence,flow.Sequence,0_2_23,,completion,24,20191,,,20194,,20203,2021-10-22T07:17:58.413Z,20332.34,1634753718,full,ni_sequenzen,NI_Sequenzen,,,,,,,,,,,,,,
,Screen_1,canvas.Screen,0_2_24_0,,skipped,25,20206,,,20206,,20206,2021-10-22T07:17:58.416Z,20332.34,1634753718,full,ni_sequenzen,NI_Sequenzen,,,,,,,,,,,,,,
,Screen_2,canvas.Screen,0_2_24_1,,skipped,25,20207,,,20206,,20208,2021-10-22T07:17:58.418Z,20332.34,1634753718,full,ni_sequenzen,NI_Sequenzen,,,,,,,,,,,,,,
,Screen_3,canvas.Screen,0_2_24_2,,skipped,25,20210,,,20206,,20210,2021-10-22T07:17:58.420Z,20332.34,1634753718,full,ni_sequenzen,NI_Sequenzen,,,,,,,,,,,,,,
,Screen_4,canvas.Screen,0_2_24_3,,skipped,25,20212,,,20206,,20212,2021-10-22T07:17:58.422Z,20332.34,1634753718,full,ni_sequenzen,NI_Sequenzen,,,,,,,,,,,,,,
,Screen_5,canvas.Screen,0_2_24_4,,skipped,25,20214,,,20206,,20214,2021-10-22T07:17:58.424Z,20332.34,1634753718,full,ni_sequenzen,NI_Sequenzen,,,,,,,,,,,,,,
,Screen_6,canvas.Screen,0_2_24_5,,skipped,25,20215,,,20206,,20216,2021-10-22T07:17:58.425Z,20332.34,1634753718,full,ni_sequenzen,NI_Sequenzen,,,,,,,,,,,,,,
,Sequence,flow.Sequence,0_2_24,,completion,25,20204,,,20206,,20216,2021-10-22T07:17:58.426Z,20332.34,1634753718,full,ni_sequenzen,NI_Sequenzen,,,,,,,,,,,,,,
,Screen_1,canvas.Screen,0_2_25_0,,skipped,26,20219,,,20219,,20219,2021-10-22T07:17:58.429Z,20332.34,1634753718,full,ni_sequenzen,NI_Sequenzen,,,,,,,,,,,,,,
,Screen_2,canvas.Screen,0_2_25_1,,skipped,26,20221,,,20219,,20221,2021-10-22T07:17:58.430Z,20332.34,1634753718,full,ni_sequenzen,NI_Sequenzen,,,,,,,,,,,,,,
,Screen_3,canvas.Screen,0_2_25_2,,skipped,26,20222,,,20219,,20223,2021-10-22T07:17:58.432Z,20332.34,1634753718,full,ni_sequenzen,NI_Sequenzen,,,,,,,,,,,,,,
,Screen_4,canvas.Screen,0_2_25_3,,skipped,26,20224,,,20219,,20224,2021-10-22T07:17:58.434Z,20332.34,1634753718,full,ni_sequenzen,NI_Sequenzen,,,,,,,,,,,,,,
,Screen_5,canvas.Screen,0_2_25_4,,skipped,26,20226,,,20219,,20226,2021-10-22T07:17:58.436Z,20332.34,1634753718,full,ni_sequenzen,NI_Sequenzen,,,,,,,,,,,,,,
,Screen_6,canvas.Screen,0_2_25_5,,skipped,26,20228,,,20219,,20228,2021-10-22T07:17:58.437Z,20332.34,1634753718,full,ni_sequenzen,NI_Sequenzen,,,,,,,,,,,,,,
,Sequence,flow.Sequence,0_2_25,,completion,26,20217,,,20219,,20228,2021-10-22T07:17:58.438Z,20332.34,1634753718,full,ni_sequenzen,NI_Sequenzen,,,,,,,,,,,,,,
,Screen_1,canvas.Screen,0_2_26_0,,skipped,27,20231,,,20231,,20231,2021-10-22T07:17:58.441Z,20332.34,1634753718,full,ni_sequenzen,NI_Sequenzen,,,,,,,,,,,,,,
,Screen_2,canvas.Screen,0_2_26_1,,skipped,27,20233,,,20231,,20233,2021-10-22T07:17:58.443Z,20332.34,1634753718,full,ni_sequenzen,NI_Sequenzen,,,,,,,,,,,,,,
,Screen_3,canvas.Screen,0_2_26_2,,skipped,27,20234,,,20231,,20235,2021-10-22T07:17:58.444Z,20332.34,1634753718,full,ni_sequenzen,NI_Sequenzen,,,,,,,,,,,,,,
,Screen_4,canvas.Screen,0_2_26_3,,skipped,27,20236,,,20231,,20236,2021-10-22T07:17:58.446Z,20332.34,1634753718,full,ni_sequenzen,NI_Sequenzen,,,,,,,,,,,,,,
,Screen_5,canvas.Screen,0_2_26_4,,skipped,27,20238,,,20231,,20238,2021-10-22T07:17:58.448Z,20332.34,1634753718,full,ni_sequenzen,NI_Sequenzen,,,,,,,,,,,,,,
,Screen_6,canvas.Screen,0_2_26_5,,skipped,27,20240,,,20231,,20240,2021-10-22T07:17:58.450Z,20332.34,1634753718,full,ni_sequenzen,NI_Sequenzen,,,,,,,,,,,,,,
,Sequence,flow.Sequence,0_2_26,,completion,27,20229,,,20231,,20240,2021-10-22T07:17:58.450Z,20332.34,1634753718,full,ni_sequenzen,NI_Sequenzen,,,,,,,,,,,,,,
,Screen_1,canvas.Screen,0_2_27_0,,skipped,28,20243,,,20243,,20243,2021-10-22T07:17:58.453Z,20332.34,1634753718,full,ni_sequenzen,NI_Sequenzen,,,,,,,,,,,,,,
,Screen_2,canvas.Screen,0_2_27_1,,skipped,28,20244,,,20243,,20244,2021-10-22T07:17:58.455Z,20332.34,1634753718,full,ni_sequenzen,NI_Sequenzen,,,,,,,,,,,,,,
,Screen_3,canvas.Screen,0_2_27_2,,skipped,28,20247,,,20243,,20247,2021-10-22T07:17:58.457Z,20332.34,1634753718,full,ni_sequenzen,NI_Sequenzen,,,,,,,,,,,,,,
,Screen_4,canvas.Screen,0_2_27_3,,skipped,28,20249,,,20243,,20249,2021-10-22T07:17:58.459Z,20332.34,1634753718,full,ni_sequenzen,NI_Sequenzen,,,,,,,,,,,,,,
,Screen_5,canvas.Screen,0_2_27_4,,skipped,28,20251,,,20243,,20251,2021-10-22T07:17:58.460Z,20332.34,1634753718,full,ni_sequenzen,NI_Sequenzen,,,,,,,,,,,,,,
,Screen_6,canvas.Screen,0_2_27_5,,skipped,28,20252,,,20243,,20252,2021-10-22T07:17:58.463Z,20332.34,1634753718,full,ni_sequenzen,NI_Sequenzen,,,,,,,,,,,,,,
,Sequence,flow.Sequence,0_2_27,,completion,28,20241,,,20243,,20252,2021-10-22T07:17:58.463Z,20332.34,1634753718,full,ni_sequenzen,NI_Sequenzen,,,,,,,,,,,,,,
,Screen_1,canvas.Screen,0_2_28_0,,skipped,29,20255,,,20255,,20255,2021-10-22T07:17:58.465Z,20332.34,1634753718,full,ni_sequenzen,NI_Sequenzen,,,,,,,,,,,,,,
,Screen_2,canvas.Screen,0_2_28_1,,skipped,29,20257,,,20255,,20257,2021-10-22T07:17:58.467Z,20332.34,1634753718,full,ni_sequenzen,NI_Sequenzen,,,,,,,,,,,,,,
,Screen_3,canvas.Screen,0_2_28_2,,skipped,29,20259,,,20255,,20259,2021-10-22T07:17:58.469Z,20332.34,1634753718,full,ni_sequenzen,NI_Sequenzen,,,,,,,,,,,,,,
,Screen_4,canvas.Screen,0_2_28_3,,skipped,29,20261,,,20255,,20261,2021-10-22T07:17:58.471Z,20332.34,1634753718,full,ni_sequenzen,NI_Sequenzen,,,,,,,,,,,,,,
,Screen_5,canvas.Screen,0_2_28_4,,skipped,29,20263,,,20255,,20263,2021-10-22T07:17:58.473Z,20332.34,1634753718,full,ni_sequenzen,NI_Sequenzen,,,,,,,,,,,,,,
,Screen_6,canvas.Screen,0_2_28_5,,skipped,29,20265,,,20255,,20265,2021-10-22T07:17:58.475Z,20332.34,1634753718,full,ni_sequenzen,NI_Sequenzen,,,,,,,,,,,,,,
,Sequence,flow.Sequence,0_2_28,,completion,29,20253,,,20255,,20265,2021-10-22T07:17:58.475Z,20332.34,1634753718,full,ni_sequenzen,NI_Sequenzen,,,,,,,,,,,,,,
,Screen_1,canvas.Screen,0_2_29_0,,skipped,30,20268,,,20268,,20268,2021-10-22T07:17:58.478Z,20332.34,1634753718,full,ni_sequenzen,NI_Sequenzen,,,,,,,,,,,,,,
,Screen_2,canvas.Screen,0_2_29_1,,skipped,30,20269,,,20268,,20269,2021-10-22T07:17:58.480Z,20332.34,1634753718,full,ni_sequenzen,NI_Sequenzen,,,,,,,,,,,,,,
,Screen_3,canvas.Screen,0_2_29_2,,skipped,30,20271,,,20268,,20271,2021-10-22T07:17:58.481Z,20332.34,1634753718,full,ni_sequenzen,NI_Sequenzen,,,,,,,,,,,,,,
,Screen_4,canvas.Screen,0_2_29_3,,skipped,30,20273,,,20268,,20273,2021-10-22T07:17:58.483Z,20332.34,1634753718,full,ni_sequenzen,NI_Sequenzen,,,,,,,,,,,,,,
,Screen_5,canvas.Screen,0_2_29_4,,skipped,30,20275,,,20268,,20275,2021-10-22T07:17:58.485Z,20332.34,1634753718,full,ni_sequenzen,NI_Sequenzen,,,,,,,,,,,,,,
,Screen_6,canvas.Screen,0_2_29_5,,skipped,30,20277,,,20268,,20277,2021-10-22T07:17:58.487Z,20332.34,1634753718,full,ni_sequenzen,NI_Sequenzen,,,,,,,,,,,,,,
,Sequence,flow.Sequence,0_2_29,,completion,30,20266,,,20268,,20278,2021-10-22T07:17:58.487Z,20332.34,1634753718,full,ni_sequenzen,NI_Sequenzen,,,,,,,,,,,,,,
,Instructions_II,flow.Loop,0_2,,completion,,16645,16648,16649.46,20268,3618.540000000001,20278,2021-10-22T07:17:58.487Z,20332.34,1634753718,full,ni_sequenzen,NI_Sequenzen,,,,,,,,,,,,,,
,Move,canvas.Screen,0_3_0_0_0_0,right,response,,20320,20319.76,20332.34,21579,1246.6599999999999,21594,2021-10-22T07:17:59.804Z,21607.9,1634753718,full,ni_sequenzen,NI_Sequenzen,1,0,,,,,,,,,,,,
,Move,canvas.Screen,0_3_0_0_0_1,down,response,,21607,21607.74,21607.9,22767,1159.0999999999985,22772,2021-10-22T07:18:00.983Z,22816.54,1634753718,full,ni_sequenzen,NI_Sequenzen,2,0,,,,,,,,,,,,
,Move,canvas.Screen,0_3_0_0_0_2,left,response,,22811,22811.38,22816.54,24626,1809.4599999999991,24636,2021-10-22T07:18:02.846Z,24669.86,1634753718,full,ni_sequenzen,NI_Sequenzen,3,0,,,,,,,,,,,,
,Move,canvas.Screen,0_3_0_0_0_3,down,response,,24670,24669.64,24669.86,25361,691.1399999999994,25372,2021-10-22T07:18:03.583Z,25403.64,1634753718,full,ni_sequenzen,NI_Sequenzen,4,0,,,,,,,,,,,,
,Move,canvas.Screen,0_3_0_0_0_4,left,response,,25403,25402.82,25403.64,26063,659.3600000000006,26076,2021-10-22T07:18:04.286Z,26281.68,1634753718,full,ni_sequenzen,NI_Sequenzen,5,0,,,,,,,,,,,,
,Move,canvas.Screen,0_3_0_0_0_5,-999,skipped,,26108,,,26063,,26108,2021-10-22T07:18:04.319Z,26281.68,1634753718,full,ni_sequenzen,NI_Sequenzen,6,0,,,,,,,,,,,,
,Move,canvas.Screen,0_3_0_0_0_6,-999,skipped,,26140,,,26063,,26141,2021-10-22T07:18:04.350Z,26281.68,1634753718,full,ni_sequenzen,NI_Sequenzen,7,0,,,,,,,,,,,,
,Move,canvas.Screen,0_3_0_0_0_7,-999,skipped,,26174,,,26063,,26174,2021-10-22T07:18:04.385Z,26281.68,1634753718,full,ni_sequenzen,NI_Sequenzen,8,0,,,,,,,,,,,,
,Move,canvas.Screen,0_3_0_0_0_8,-999,skipped,,26213,,,26063,,26213,2021-10-22T07:18:04.424Z,26281.68,1634753718,full,ni_sequenzen,NI_Sequenzen,9,0,,,,,,,,,,,,
,Move,canvas.Screen,0_3_0_0_0_9,-999,skipped,,26227,,,26063,,26228,2021-10-22T07:18:04.438Z,26281.68,1634753718,full,ni_sequenzen,NI_Sequenzen,10,0,,,,,,,,,,,,
,Move,canvas.Screen,0_3_0_0_0_10,-999,skipped,,26237,,,26063,,26237,2021-10-22T07:18:04.448Z,26281.68,1634753718,full,ni_sequenzen,NI_Sequenzen,11,0,,,,,,,,,,,,
,Move,canvas.Screen,0_3_0_0_0_11,-999,skipped,,26247,,,26063,,26247,2021-10-22T07:18:04.457Z,26281.68,1634753718,full,ni_sequenzen,NI_Sequenzen,12,0,,,,,,,,,,,,
,Move,canvas.Screen,0_3_0_0_0_12,-999,skipped,,26257,,,26063,,26257,2021-10-22T07:18:04.466Z,26281.68,1634753718,full,ni_sequenzen,NI_Sequenzen,13,0,,,,,,,,,,,,
,Move,canvas.Screen,0_3_0_0_0_13,-999,skipped,,26265,,,26063,,26265,2021-10-22T07:18:04.475Z,26281.68,1634753718,full,ni_sequenzen,NI_Sequenzen,14,0,,,,,,,,,,,,
,Move,canvas.Screen,0_3_0_0_0_14,-999,skipped,,26274,,,26063,,26274,2021-10-22T07:18:04.484Z,26281.68,1634753718,full,ni_sequenzen,NI_Sequenzen,15,0,,,,,,,,,,,,
,Loop,flow.Loop,0_3_0_0_0,-999,completion,,20309,20319.76,20332.34,26063,5730.66,26274,2021-10-22T07:18:04.485Z,26281.68,1634753718,full,ni_sequenzen,NI_Sequenzen,,0,,,,,,,,,,,,
,Feedback,canvas.Screen,0_3_0_0_1,,timeout,,26281,26281.28,26281.68,30264.6,4052,30266,2021-10-22T07:18:08.477Z,30333.68,1634753718,full,ni_sequenzen,NI_Sequenzen,,0,,,,,,,,,,,,
,Trial,flow.Sequence,0_3_0_0,,completion,,20301,20319.76,20332.34,30264.6,9932.259999999998,30267,2021-10-22T07:18:08.478Z,30347.7,1634753718,full,ni_sequenzen,NI_Sequenzen,,0,,,,,,,,,,,,
,Move,canvas.Screen,0_3_0_1_0_0,down,response,,30334,30333.68,30347.7,31752,1404.2999999999993,31764,2021-10-22T07:18:09.974Z,31801.76,1634753718,full,ni_sequenzen,NI_Sequenzen,1,1,,,,,,,,,,,,
,Move,canvas.Screen,0_3_0_1_0_1,left,response,,31801,31801.26,31801.76,32705,903.2400000000016,32716,2021-10-22T07:18:10.926Z,32752.14,1634753718,full,ni_sequenzen,NI_Sequenzen,2,1,,,,,,,,,,,,
,Move,canvas.Screen,0_3_0_1_0_2,down,response,,32752,32751.68,32752.14,34563,1810.8600000000006,34581,2021-10-22T07:18:12.790Z,34616.36,1634753718,full,ni_sequenzen,NI_Sequenzen,3,1,,,,,,,,,,,,
,Move,canvas.Screen,0_3_0_1_0_3,left,response,,34616,34615.56,34616.36,35719,1102.6399999999994,35740,2021-10-22T07:18:13.950Z,35880.9,1634753718,full,ni_sequenzen,NI_Sequenzen,4,1,,,,,,,,,,,,
,Move,canvas.Screen,0_3_0_1_0_4,-999,skipped,,35770,,,35719,,35770,2021-10-22T07:18:13.980Z,35880.9,1634753718,full,ni_sequenzen,NI_Sequenzen,5,1,,,,,,,,,,,,
,Move,canvas.Screen,0_3_0_1_0_5,-999,skipped,,35798,,,35719,,35798,2021-10-22T07:18:14.008Z,35880.9,1634753718,full,ni_sequenzen,NI_Sequenzen,6,1,,,,,,,,,,,,
,Move,canvas.Screen,0_3_0_1_0_6,-999,skipped,,35811,,,35719,,35811,2021-10-22T07:18:14.022Z,35880.9,1634753718,full,ni_sequenzen,NI_Sequenzen,7,1,,,,,,,,,,,,
,Move,canvas.Screen,0_3_0_1_0_7,-999,skipped,,35820,,,35719,,35820,2021-10-22T07:18:14.029Z,35880.9,1634753718,full,ni_sequenzen,NI_Sequenzen,8,1,,,,,,,,,,,,
,Move,canvas.Screen,0_3_0_1_0_8,-999,skipped,,35827,,,35719,,35827,2021-10-22T07:18:14.038Z,35880.9,1634753718,full,ni_sequenzen,NI_Sequenzen,9,1,,,,,,,,,,,,
,Move,canvas.Screen,0_3_0_1_0_9,-999,skipped,,35836,,,35719,,35836,2021-10-22T07:18:14.046Z,35880.9,1634753718,full,ni_sequenzen,NI_Sequenzen,10,1,,,,,,,,,,,,
,Move,canvas.Screen,0_3_0_1_0_10,-999,skipped,,35843,,,35719,,35843,2021-10-22T07:18:14.053Z,35880.9,1634753718,full,ni_sequenzen,NI_Sequenzen,11,1,,,,,,,,,,,,
,Move,canvas.Screen,0_3_0_1_0_11,-999,skipped,,35850,,,35719,,35850,2021-10-22T07:18:14.060Z,35880.9,1634753718,full,ni_sequenzen,NI_Sequenzen,12,1,,,,,,,,,,,,
,Move,canvas.Screen,0_3_0_1_0_12,-999,skipped,,35858,,,35719,,35858,2021-10-22T07:18:14.068Z,35880.9,1634753718,full,ni_sequenzen,NI_Sequenzen,13,1,,,,,,,,,,,,
,Move,canvas.Screen,0_3_0_1_0_13,-999,skipped,,35864,,,35719,,35864,2021-10-22T07:18:14.075Z,35880.9,1634753718,full,ni_sequenzen,NI_Sequenzen,14,1,,,,,,,,,,,,
,Move,canvas.Screen,0_3_0_1_0_14,-999,skipped,,35872,,,35719,,35872,2021-10-22T07:18:14.081Z,35880.9,1634753718,full,ni_sequenzen,NI_Sequenzen,15,1,,,,,,,,,,,,
,Loop,flow.Loop,0_3_0_1_0,-999,completion,,30299,30333.68,30347.7,35719,5371.299999999999,35872,2021-10-22T07:18:14.082Z,35880.9,1634753718,full,ni_sequenzen,NI_Sequenzen,,1,,,,,,,,,,,,
,Feedback,canvas.Screen,0_3_0_1_1,,timeout,,35878,35878.32,35880.9,39863.16,4038.9000000000015,39865,2021-10-22T07:18:18.074Z,39919.8,1634753718,full,ni_sequenzen,NI_Sequenzen,,1,,,,,,,,,,,,
,Trial,flow.Sequence,0_3_0_1,,completion,,30270,30333.68,30347.7,39863.16,9515.460000000003,39865,2021-10-22T07:18:18.075Z,39929.82,1634753718,full,ni_sequenzen,NI_Sequenzen,,1,,,,,,,,,,,,
,Move,canvas.Screen,0_3_0_2_0_0,down,response,,39920,39919.8,39929.82,41736,1806.1800000000003,41748,2021-10-22T07:18:19.958Z,41779.6,1634753718,full,ni_sequenzen,NI_Sequenzen,1,2,,,,,,,,,,,,
,Move,canvas.Screen,0_3_0_2_0_1,left,response,,41777,41777.54,41779.6,43689,1909.4000000000015,43700,2021-10-22T07:18:21.910Z,43734.56,1634753718,full,ni_sequenzen,NI_Sequenzen,2,2,,,,,,,,,,,,
,Move,canvas.Screen,0_3_0_2_0_2,down,response,,43734,43733.58,43734.56,44095,360.4400000000023,44098,2021-10-22T07:18:22.308Z,44112.66,1634753718,full,ni_sequenzen,NI_Sequenzen,3,2,,,,,,,,,,,,
,Move,canvas.Screen,0_3_0_2_0_3,left,response,,44109,44108.38,44112.66,44564,451.3399999999965,44579,2021-10-22T07:18:22.789Z,44687.38,1634753718,full,ni_sequenzen,NI_Sequenzen,4,2,,,,,,,,,,,,
,Move,canvas.Screen,0_3_0_2_0_4,-999,skipped,,44591,,,44564,,44592,2021-10-22T07:18:22.801Z,44687.38,1634753718,full,ni_sequenzen,NI_Sequenzen,5,2,,,,,,,,,,,,
,Move,canvas.Screen,0_3_0_2_0_5,-999,skipped,,44600,,,44564,,44600,2021-10-22T07:18:22.810Z,44687.38,1634753718,full,ni_sequenzen,NI_Sequenzen,6,2,,,,,,,,,,,,
,Move,canvas.Screen,0_3_0_2_0_6,-999,skipped,,44608,,,44564,,44608,2021-10-22T07:18:22.818Z,44687.38,1634753718,full,ni_sequenzen,NI_Sequenzen,7,2,,,,,,,,,,,,
,Move,canvas.Screen,0_3_0_2_0_7,-999,skipped,,44616,,,44564,,44616,2021-10-22T07:18:22.827Z,44687.38,1634753718,full,ni_sequenzen,NI_Sequenzen,8,2,,,,,,,,,,,,
,Move,canvas.Screen,0_3_0_2_0_8,-999,skipped,,44625,,,44564,,44625,2021-10-22T07:18:22.835Z,44687.38,1634753718,full,ni_sequenzen,NI_Sequenzen,9,2,,,,,,,,,,,,
,Move,canvas.Screen,0_3_0_2_0_9,-999,skipped,,44634,,,44564,,44634,2021-10-22T07:18:22.844Z,44687.38,1634753718,full,ni_sequenzen,NI_Sequenzen,10,2,,,,,,,,,,,,
,Move,canvas.Screen,0_3_0_2_0_10,-999,skipped,,44642,,,44564,,44642,2021-10-22T07:18:22.852Z,44687.38,1634753718,full,ni_sequenzen,NI_Sequenzen,11,2,,,,,,,,,,,,
,Move,canvas.Screen,0_3_0_2_0_11,-999,skipped,,44651,,,44564,,44652,2021-10-22T07:18:22.861Z,44687.38,1634753718,full,ni_sequenzen,NI_Sequenzen,12,2,,,,,,,,,,,,
,Move,canvas.Screen,0_3_0_2_0_12,-999,skipped,,44660,,,44564,,44660,2021-10-22T07:18:22.870Z,44687.38,1634753718,full,ni_sequenzen,NI_Sequenzen,13,2,,,,,,,,,,,,
,Move,canvas.Screen,0_3_0_2_0_13,-999,skipped,,44668,,,44564,,44668,2021-10-22T07:18:22.879Z,44687.38,1634753718,full,ni_sequenzen,NI_Sequenzen,14,2,,,,,,,,,,,,
,Move,canvas.Screen,0_3_0_2_0_14,-999,skipped,,44679,,,44564,,44679,2021-10-22T07:18:22.889Z,44687.38,1634753718,full,ni_sequenzen,NI_Sequenzen,15,2,,,,,,,,,,,,
,Loop,flow.Loop,0_3_0_2_0,-999,completion,,39902,39919.8,39929.82,44564,4634.18,44680,2021-10-22T07:18:22.890Z,44687.38,1634753718,full,ni_sequenzen,NI_Sequenzen,,2,,,,,,,,,,,,
,Feedback,canvas.Screen,0_3_0_2_1,,timeout,,44687,44686.96,44687.38,48678.74,4051.520000000004,48683,2021-10-22T07:18:26.893Z,48738.9,1634753718,full,ni_sequenzen,NI_Sequenzen,,2,,,,,,,,,,,,
,Trial,flow.Sequence,0_3_0_2,,completion,,39868,39919.8,39929.82,48678.74,8748.919999999998,48692,2021-10-22T07:18:26.903Z,48745.34,1634753718,full,ni_sequenzen,NI_Sequenzen,,2,,,,,,,,,,,,
,Move,canvas.Screen,0_3_0_3_0_0,down,response,,48739,48738.9,48745.34,49501,755.6600000000035,49525,2021-10-22T07:18:27.735Z,49578.6,1634753718,full,ni_sequenzen,NI_Sequenzen,1,3,,,,,,,,,,,,
,Move,canvas.Screen,0_3_0_3_0_1,left,response,,49574,49573.74,49578.6,50049,470.40000000000146,50068,2021-10-22T07:18:28.279Z,50111.88,1634753718,full,ni_sequenzen,NI_Sequenzen,2,3,,,,,,,,,,,,
,Move,canvas.Screen,0_3_0_3_0_2,down,response,,50108,50108.7,50111.88,50595,483.1200000000026,50612,2021-10-22T07:18:28.823Z,50650.9,1634753718,full,ni_sequenzen,NI_Sequenzen,3,3,,,,,,,,,,,,
,Move,canvas.Screen,0_3_0_3_0_3,left,response,,50650,50650.34,50650.9,52033,1382.0999999999985,52061,2021-10-22T07:18:30.271Z,52239.18,1634753718,full,ni_sequenzen,NI_Sequenzen,4,3,,,,,,,,,,,,
,Move,canvas.Screen,0_3_0_3_0_4,-999,skipped,,52097,,,52033,,52098,2021-10-22T07:18:30.307Z,52239.18,1634753718,full,ni_sequenzen,NI_Sequenzen,5,3,,,,,,,,,,,,
,Move,canvas.Screen,0_3_0_3_0_5,-999,skipped,,52129,,,52033,,52129,2021-10-22T07:18:30.340Z,52239.18,1634753718,full,ni_sequenzen,NI_Sequenzen,6,3,,,,,,,,,,,,
,Move,canvas.Screen,0_3_0_3_0_6,-999,skipped,,52162,,,52033,,52162,2021-10-22T07:18:30.373Z,52239.18,1634753718,full,ni_sequenzen,NI_Sequenzen,7,3,,,,,,,,,,,,
,Move,canvas.Screen,0_3_0_3_0_7,-999,skipped,,52171,,,52033,,52171,2021-10-22T07:18:30.381Z,52239.18,1634753718,full,ni_sequenzen,NI_Sequenzen,8,3,,,,,,,,,,,,
,Move,canvas.Screen,0_3_0_3_0_8,-999,skipped,,52180,,,52033,,52181,2021-10-22T07:18:30.391Z,52239.18,1634753718,full,ni_sequenzen,NI_Sequenzen,9,3,,,,,,,,,,,,
,Move,canvas.Screen,0_3_0_3_0_9,-999,skipped,,52188,,,52033,,52188,2021-10-22T07:18:30.399Z,52239.18,1634753718,full,ni_sequenzen,NI_Sequenzen,10,3,,,,,,,,,,,,
,Move,canvas.Screen,0_3_0_3_0_10,-999,skipped,,52197,,,52033,,52197,2021-10-22T07:18:30.407Z,52239.18,1634753718,full,ni_sequenzen,NI_Sequenzen,11,3,,,,,,,,,,,,
,Move,canvas.Screen,0_3_0_3_0_11,-999,skipped,,52205,,,52033,,52205,2021-10-22T07:18:30.416Z,52239.18,1634753718,full,ni_sequenzen,NI_Sequenzen,12,3,,,,,,,,,,,,
,Move,canvas.Screen,0_3_0_3_0_12,-999,skipped,,52214,,,52033,,52214,2021-10-22T07:18:30.424Z,52239.18,1634753718,full,ni_sequenzen,NI_Sequenzen,13,3,,,,,,,,,,,,
,Move,canvas.Screen,0_3_0_3_0_13,-999,skipped,,52223,,,52033,,52223,2021-10-22T07:18:30.432Z,52239.18,1634753718,full,ni_sequenzen,NI_Sequenzen,14,3,,,,,,,,,,,,
,Move,canvas.Screen,0_3_0_3_0_14,-999,skipped,,52230,,,52033,,52231,2021-10-22T07:18:30.440Z,52239.18,1634753718,full,ni_sequenzen,NI_Sequenzen,15,3,,,,,,,,,,,,
,Loop,flow.Loop,0_3_0_3_0,-999,completion,,48724,48738.9,48745.34,52033,3287.6600000000035,52231,2021-10-22T07:18:30.441Z,52239.18,1634753718,full,ni_sequenzen,NI_Sequenzen,,3,,,,,,,,,,,,
,Feedback,canvas.Screen,0_3_0_3_1,,timeout,,52239,52238.84,52239.18,56227.94,4054.459999999999,56230,2021-10-22T07:18:34.440Z,56293.64,1634753718,full,ni_sequenzen,NI_Sequenzen,,3,,,,,,,,,,,,
,Trial,flow.Sequence,0_3_0_3,,completion,,48697,48738.9,48745.34,56227.94,7482.600000000006,56231,2021-10-22T07:18:34.440Z,56294.36,1634753718,full,ni_sequenzen,NI_Sequenzen,,3,,,,,,,,,,,,
,Move,canvas.Screen,0_3_0_4_0_0,down,response,,56293,56293.64,56294.36,57142,847.6399999999994,57149,2021-10-22T07:18:35.358Z,57180.78,1634753718,full,ni_sequenzen,NI_Sequenzen,1,4,,,,,,,,,,,,
,Move,canvas.Screen,0_3_0_4_0_1,right,response,,57180,57179.94,57180.78,59626,2445.220000000001,59637,2021-10-22T07:18:37.847Z,59677.3,1634753718,full,ni_sequenzen,NI_Sequenzen,2,4,,,,,,,,,,,,
,Move,canvas.Screen,0_3_0_4_0_2,down,response,,59673,59673.86,59677.3,60033,355.6999999999971,60044,2021-10-22T07:18:38.255Z,60070.12,1634753718,full,ni_sequenzen,NI_Sequenzen,3,4,,,,,,,,,,,,
,Move,canvas.Screen,0_3_0_4_0_3,right,response,,60070,60069.96,60070.12,61469,1398.8799999999974,61476,2021-10-22T07:18:39.686Z,61594.34,1634753718,full,ni_sequenzen,NI_Sequenzen,4,4,,,,,,,,,,,,
,Move,canvas.Screen,0_3_0_4_0_4,-999,skipped,,61509,,,61469,,61509,2021-10-22T07:18:39.719Z,61594.34,1634753718,full,ni_sequenzen,NI_Sequenzen,5,4,,,,,,,,,,,,
,Move,canvas.Screen,0_3_0_4_0_5,-999,skipped,,61517,,,61469,,61517,2021-10-22T07:18:39.728Z,61594.34,1634753718,full,ni_sequenzen,NI_Sequenzen,6,4,,,,,,,,,,,,
,Move,canvas.Screen,0_3_0_4_0_6,-999,skipped,,61526,,,61469,,61526,2021-10-22T07:18:39.736Z,61594.34,1634753718,full,ni_sequenzen,NI_Sequenzen,7,4,,,,,,,,,,,,
,Move,canvas.Screen,0_3_0_4_0_7,-999,skipped,,61534,,,61469,,61534,2021-10-22T07:18:39.744Z,61594.34,1634753718,full,ni_sequenzen,NI_Sequenzen,8,4,,,,,,,,,,,,
,Move,canvas.Screen,0_3_0_4_0_8,-999,skipped,,61541,,,61469,,61541,2021-10-22T07:18:39.751Z,61594.34,1634753718,full,ni_sequenzen,NI_Sequenzen,9,4,,,,,,,,,,,,
,Move,canvas.Screen,0_3_0_4_0_9,-999,skipped,,61549,,,61469,,61549,2021-10-22T07:18:39.758Z,61594.34,1634753718,full,ni_sequenzen,NI_Sequenzen,10,4,,,,,,,,,,,,
,Move,canvas.Screen,0_3_0_4_0_10,-999,skipped,,61557,,,61469,,61557,2021-10-22T07:18:39.767Z,61594.34,1634753718,full,ni_sequenzen,NI_Sequenzen,11,4,,,,,,,,,,,,
,Move,canvas.Screen,0_3_0_4_0_11,-999,skipped,,61565,,,61469,,61565,2021-10-22T07:18:39.774Z,61594.34,1634753718,full,ni_sequenzen,NI_Sequenzen,12,4,,,,,,,,,,,,
,Move,canvas.Screen,0_3_0_4_0_12,-999,skipped,,61572,,,61469,,61573,2021-10-22T07:18:39.782Z,61594.34,1634753718,full,ni_sequenzen,NI_Sequenzen,13,4,,,,,,,,,,,,
,Move,canvas.Screen,0_3_0_4_0_13,-999,skipped,,61580,,,61469,,61580,2021-10-22T07:18:39.789Z,61594.34,1634753718,full,ni_sequenzen,NI_Sequenzen,14,4,,,,,,,,,,,,
,Move,canvas.Screen,0_3_0_4_0_14,-999,skipped,,61587,,,61469,,61587,2021-10-22T07:18:39.797Z,61594.34,1634753718,full,ni_sequenzen,NI_Sequenzen,15,4,,,,,,,,,,,,
,Loop,flow.Loop,0_3_0_4_0,-999,completion,,56276,56293.64,56294.36,61469,5174.639999999999,61587,2021-10-22T07:18:39.798Z,61594.34,1634753718,full,ni_sequenzen,NI_Sequenzen,,4,,,,,,,,,,,,
,Feedback,canvas.Screen,0_3_0_4_1,,timeout,,61594,61593.96,61594.34,65576.72,4037.5800000000017,65579,2021-10-22T07:18:43.788Z,65631.92,1634753718,full,ni_sequenzen,NI_Sequenzen,,4,,,,,,,,,,,,
,Trial,flow.Sequence,0_3_0_4,,completion,,56233,56293.64,56294.36,65576.72,9282.36,65579,2021-10-22T07:18:43.789Z,65643.18,1634753718,full,ni_sequenzen,NI_Sequenzen,,4,,,,,,,,,,,,
,Move,canvas.Screen,0_3_0_5_0_0,down,response,,65631,65631.92,65643.18,69110,3466.820000000007,69124,2021-10-22T07:18:47.334Z,69152,1634753718,full,ni_sequenzen,NI_Sequenzen,1,5,,,,,,,,,,,,
,Move,canvas.Screen,0_3_0_5_0_1,left,response,,69152,69151.78,69152,70205,1053,70212,2021-10-22T07:18:48.422Z,70242.46,1634753718,full,ni_sequenzen,NI_Sequenzen,2,5,,,,,,,,,,,,
,Move,canvas.Screen,0_3_0_5_0_2,down,response,,70242,70242,70242.46,70627,384.5399999999936,70644,2021-10-22T07:18:48.855Z,70675.86,1634753718,full,ni_sequenzen,NI_Sequenzen,3,5,,,,,,,,,,,,
,Move,canvas.Screen,0_3_0_5_0_3,left,response,,70674,70673.56,70675.86,71876,1200.1399999999994,71892,2021-10-22T07:18:50.102Z,72019.48,1634753718,full,ni_sequenzen,NI_Sequenzen,4,5,,,,,,,,,,,,
,Move,canvas.Screen,0_3_0_5_0_4,-999,skipped,,71921,,,71876,,71922,2021-10-22T07:18:50.131Z,72019.48,1634753718,full,ni_sequenzen,NI_Sequenzen,5,5,,,,,,,,,,,,
,Move,canvas.Screen,0_3_0_5_0_5,-999,skipped,,71935,,,71876,,71936,2021-10-22T07:18:50.145Z,72019.48,1634753718,full,ni_sequenzen,NI_Sequenzen,6,5,,,,,,,,,,,,
,Move,canvas.Screen,0_3_0_5_0_6,-999,skipped,,71943,,,71876,,71943,2021-10-22T07:18:50.153Z,72019.48,1634753718,full,ni_sequenzen,NI_Sequenzen,7,5,,,,,,,,,,,,
,Move,canvas.Screen,0_3_0_5_0_7,-999,skipped,,71951,,,71876,,71951,2021-10-22T07:18:50.160Z,72019.48,1634753718,full,ni_sequenzen,NI_Sequenzen,8,5,,,,,,,,,,,,
,Move,canvas.Screen,0_3_0_5_0_8,-999,skipped,,71958,,,71876,,71958,2021-10-22T07:18:50.168Z,72019.48,1634753718,full,ni_sequenzen,NI_Sequenzen,9,5,,,,,,,,,,,,
,Move,canvas.Screen,0_3_0_5_0_9,-999,skipped,,71966,,,71876,,71966,2021-10-22T07:18:50.176Z,72019.48,1634753718,full,ni_sequenzen,NI_Sequenzen,10,5,,,,,,,,,,,,
,Move,canvas.Screen,0_3_0_5_0_10,-999,skipped,,71976,,,71876,,71976,2021-10-22T07:18:50.186Z,72019.48,1634753718,full,ni_sequenzen,NI_Sequenzen,11,5,,,,,,,,,,,,
,Move,canvas.Screen,0_3_0_5_0_11,-999,skipped,,71984,,,71876,,71984,2021-10-22T07:18:50.194Z,72019.48,1634753718,full,ni_sequenzen,NI_Sequenzen,12,5,,,,,,,,,,,,
,Move,canvas.Screen,0_3_0_5_0_12,-999,skipped,,71992,,,71876,,71992,2021-10-22T07:18:50.203Z,72019.48,1634753718,full,ni_sequenzen,NI_Sequenzen,13,5,,,,,,,,,,,,
,Move,canvas.Screen,0_3_0_5_0_13,-999,skipped,,72001,,,71876,,72001,2021-10-22T07:18:50.212Z,72019.48,1634753718,full,ni_sequenzen,NI_Sequenzen,14,5,,,,,,,,,,,,
,Move,canvas.Screen,0_3_0_5_0_14,-999,skipped,,72010,,,71876,,72010,2021-10-22T07:18:50.220Z,72019.48,1634753718,full,ni_sequenzen,NI_Sequenzen,15,5,,,,,,,,,,,,
,Loop,flow.Loop,0_3_0_5_0,-999,completion,,65613,65631.92,65643.18,71876,6232.820000000007,72011,2021-10-22T07:18:50.221Z,72019.48,1634753718,full,ni_sequenzen,NI_Sequenzen,,5,,,,,,,,,,,,
,Feedback,canvas.Screen,0_3_0_5_1,,timeout,,72019,72019.12,72019.48,76008.72,4046.5599999999977,76011,2021-10-22T07:18:54.220Z,76066.04,1634753718,full,ni_sequenzen,NI_Sequenzen,,5,,,,,,,,,,,,
,Trial,flow.Sequence,0_3_0_5,,completion,,65581,65631.92,65643.18,76008.72,10365.540000000008,76011,2021-10-22T07:18:54.221Z,76075.14,1634753718,full,ni_sequenzen,NI_Sequenzen,,5,,,,,,,,,,,,
,Move,canvas.Screen,0_3_0_6_0_0,down,response,,76066,76066.04,76075.14,78313,2237.8600000000006,78325,2021-10-22T07:18:56.534Z,78358.22,1634753718,full,ni_sequenzen,NI_Sequenzen,1,6,,,,,,,,,,,,
,Move,canvas.Screen,0_3_0_6_0_1,left,response,,78353,78352.78,78358.22,78924,565.7799999999988,78948,2021-10-22T07:18:57.158Z,78976.3,1634753718,full,ni_sequenzen,NI_Sequenzen,2,6,,,,,,,,,,,,
,Move,canvas.Screen,0_3_0_6_0_2,down,response,,78976,78975.48,78976.3,79314,337.6999999999971,79332,2021-10-22T07:18:57.541Z,79365.14,1634753718,full,ni_sequenzen,NI_Sequenzen,3,6,,,,,,,,,,,,
,Move,canvas.Screen,0_3_0_6_0_3,left,response,,79365,79364.54,79365.14,79908,542.8600000000006,79922,2021-10-22T07:18:58.132Z,80045.72,1634753718,full,ni_sequenzen,NI_Sequenzen,4,6,,,,,,,,,,,,
,Move,canvas.Screen,0_3_0_6_0_4,-999,skipped,,79951,,,79908,,79951,2021-10-22T07:18:58.161Z,80045.72,1634753718,full,ni_sequenzen,NI_Sequenzen,5,6,,,,,,,,,,,,
,Move,canvas.Screen,0_3_0_6_0_5,-999,skipped,,79973,,,79908,,79973,2021-10-22T07:18:58.182Z,80045.72,1634753718,full,ni_sequenzen,NI_Sequenzen,6,6,,,,,,,,,,,,
,Move,canvas.Screen,0_3_0_6_0_6,-999,skipped,,79980,,,79908,,79980,2021-10-22T07:18:58.190Z,80045.72,1634753718,full,ni_sequenzen,NI_Sequenzen,7,6,,,,,,,,,,,,
,Move,canvas.Screen,0_3_0_6_0_7,-999,skipped,,79987,,,79908,,79987,2021-10-22T07:18:58.197Z,80045.72,1634753718,full,ni_sequenzen,NI_Sequenzen,8,6,,,,,,,,,,,,
,Move,canvas.Screen,0_3_0_6_0_8,-999,skipped,,79994,,,79908,,79994,2021-10-22T07:18:58.204Z,80045.72,1634753718,full,ni_sequenzen,NI_Sequenzen,9,6,,,,,,,,,,,,
,Move,canvas.Screen,0_3_0_6_0_9,-999,skipped,,80001,,,79908,,80001,2021-10-22T07:18:58.211Z,80045.72,1634753718,full,ni_sequenzen,NI_Sequenzen,10,6,,,,,,,,,,,,
,Move,canvas.Screen,0_3_0_6_0_10,-999,skipped,,80009,,,79908,,80009,2021-10-22T07:18:58.219Z,80045.72,1634753718,full,ni_sequenzen,NI_Sequenzen,11,6,,,,,,,,,,,,
,Move,canvas.Screen,0_3_0_6_0_11,-999,skipped,,80016,,,79908,,80016,2021-10-22T07:18:58.226Z,80045.72,1634753718,full,ni_sequenzen,NI_Sequenzen,12,6,,,,,,,,,,,,
,Move,canvas.Screen,0_3_0_6_0_12,-999,skipped,,80023,,,79908,,80023,2021-10-22T07:18:58.233Z,80045.72,1634753718,full,ni_sequenzen,NI_Sequenzen,13,6,,,,,,,,,,,,
,Move,canvas.Screen,0_3_0_6_0_13,-999,skipped,,80030,,,79908,,80030,2021-10-22T07:18:58.241Z,80045.72,1634753718,full,ni_sequenzen,NI_Sequenzen,14,6,,,,,,,,,,,,
,Move,canvas.Screen,0_3_0_6_0_14,-999,skipped,,80039,,,79908,,80039,2021-10-22T07:18:58.248Z,80045.72,1634753718,full,ni_sequenzen,NI_Sequenzen,15,6,,,,,,,,,,,,
,Loop,flow.Loop,0_3_0_6_0,-999,completion,,76045,76066.04,76075.14,79908,3832.8600000000006,80039,2021-10-22T07:18:58.249Z,80045.72,1634753718,full,ni_sequenzen,NI_Sequenzen,,6,,,,,,,,,,,,
,Feedback,canvas.Screen,0_3_0_6_1,,timeout,,80046,80045.38,80045.72,84024.36,4033.2400000000052,84026,2021-10-22T07:19:02.235Z,84078.96,1634753718,full,ni_sequenzen,NI_Sequenzen,,6,,,,,,,,,,,,
,Trial,flow.Sequence,0_3_0_6,,completion,,76016,76066.04,76075.14,84024.36,7949.220000000001,84026,2021-10-22T07:19:02.236Z,84090.78,1634753718,full,ni_sequenzen,NI_Sequenzen,,6,,,,,,,,,,,,
,Move,canvas.Screen,0_3_0_7_0_0,down,response,,84079,84078.96,84090.78,84720,629.2200000000012,84748,2021-10-22T07:19:02.958Z,84777.6,1634753718,full,ni_sequenzen,NI_Sequenzen,1,7,,,,,,,,,,,,
,Move,canvas.Screen,0_3_0_7_0_1,right,response,,84777,84776.82,84777.6,85344,566.3999999999942,85356,2021-10-22T07:19:03.566Z,85390.7,1634753718,full,ni_sequenzen,NI_Sequenzen,2,7,,,,,,,,,,,,
,Move,canvas.Screen,0_3_0_7_0_2,down,response,,85385,85385.16,85390.7,85908,517.3000000000029,85932,2021-10-22T07:19:04.142Z,85961.4,1634753718,full,ni_sequenzen,NI_Sequenzen,3,7,,,,,,,,,,,,
,Move,canvas.Screen,0_3_0_7_0_3,right,response,,85960,85960.7,85961.4,86908,946.6000000000058,86924,2021-10-22T07:19:05.134Z,87057.94,1634753718,full,ni_sequenzen,NI_Sequenzen,4,7,,,,,,,,,,,,
,Move,canvas.Screen,0_3_0_7_0_4,-999,skipped,,86953,,,86908,,86954,2021-10-22T07:19:05.163Z,87057.94,1634753718,full,ni_sequenzen,NI_Sequenzen,5,7,,,,,,,,,,,,
,Move,canvas.Screen,0_3_0_7_0_5,-999,skipped,,86980,,,86908,,86980,2021-10-22T07:19:05.191Z,87057.94,1634753718,full,ni_sequenzen,NI_Sequenzen,6,7,,,,,,,,,,,,
,Move,canvas.Screen,0_3_0_7_0_6,-999,skipped,,86989,,,86908,,86990,2021-10-22T07:19:05.199Z,87057.94,1634753718,full,ni_sequenzen,NI_Sequenzen,7,7,,,,,,,,,,,,
,Move,canvas.Screen,0_3_0_7_0_7,-999,skipped,,86997,,,86908,,86997,2021-10-22T07:19:05.207Z,87057.94,1634753718,full,ni_sequenzen,NI_Sequenzen,8,7,,,,,,,,,,,,
,Move,canvas.Screen,0_3_0_7_0_8,-999,skipped,,87004,,,86908,,87004,2021-10-22T07:19:05.214Z,87057.94,1634753718,full,ni_sequenzen,NI_Sequenzen,9,7,,,,,,,,,,,,
,Move,canvas.Screen,0_3_0_7_0_9,-999,skipped,,87013,,,86908,,87013,2021-10-22T07:19:05.223Z,87057.94,1634753718,full,ni_sequenzen,NI_Sequenzen,10,7,,,,,,,,,,,,
,Move,canvas.Screen,0_3_0_7_0_10,-999,skipped,,87020,,,86908,,87020,2021-10-22T07:19:05.231Z,87057.94,1634753718,full,ni_sequenzen,NI_Sequenzen,11,7,,,,,,,,,,,,
,Move,canvas.Screen,0_3_0_7_0_11,-999,skipped,,87028,,,86908,,87028,2021-10-22T07:19:05.238Z,87057.94,1634753718,full,ni_sequenzen,NI_Sequenzen,12,7,,,,,,,,,,,,
,Move,canvas.Screen,0_3_0_7_0_12,-999,skipped,,87035,,,86908,,87036,2021-10-22T07:19:05.245Z,87057.94,1634753718,full,ni_sequenzen,NI_Sequenzen,13,7,,,,,,,,,,,,
,Move,canvas.Screen,0_3_0_7_0_13,-999,skipped,,87043,,,86908,,87043,2021-10-22T07:19:05.252Z,87057.94,1634753718,full,ni_sequenzen,NI_Sequenzen,14,7,,,,,,,,,,,,
,Move,canvas.Screen,0_3_0_7_0_14,-999,skipped,,87050,,,86908,,87050,2021-10-22T07:19:05.260Z,87057.94,1634753718,full,ni_sequenzen,NI_Sequenzen,15,7,,,,,,,,,,,,
,Loop,flow.Loop,0_3_0_7_0,-999,completion,,84055,84078.96,84090.78,86908,2817.220000000001,87050,2021-10-22T07:19:05.260Z,87057.94,1634753718,full,ni_sequenzen,NI_Sequenzen,,7,,,,,,,,,,,,
,Feedback,canvas.Screen,0_3_0_7_1,,timeout,,87058,87057.6,87057.94,91040.12,4036.699999999997,91041,2021-10-22T07:19:09.251Z,91094.64,1634753718,full,ni_sequenzen,NI_Sequenzen,,7,,,,,,,,,,,,
,Trial,flow.Sequence,0_3_0_7,,completion,,84027,84078.96,84090.78,91040.12,6949.3399999999965,91042,2021-10-22T07:19:09.252Z,91106.56,1634753718,full,ni_sequenzen,NI_Sequenzen,,7,,,,,,,,,,,,
,Move,canvas.Screen,0_3_0_8_0_0,down,response,,91095,91094.64,91106.56,91814,707.4400000000023,91820,2021-10-22T07:19:10.030Z,91849.3,1634753718,full,ni_sequenzen,NI_Sequenzen,1,8,,,,,,,,,,,,
,Move,canvas.Screen,0_3_0_8_0_1,left,response,,91848,91848.54,91849.3,92329,479.6999999999971,92340,2021-10-22T07:19:10.550Z,92373.1,1634753718,full,ni_sequenzen,NI_Sequenzen,2,8,,,,,,,,,,,,
,Move,canvas.Screen,0_3_0_8_0_2,down,response,,92369,92368.76,92373.1,92704,330.8999999999942,92724,2021-10-22T07:19:10.935Z,92756.38,1634753718,full,ni_sequenzen,NI_Sequenzen,3,8,,,,,,,,,,,,
,Move,canvas.Screen,0_3_0_8_0_3,left,response,,92753,92752.96,92756.38,93219,462.61999999999534,93226,2021-10-22T07:19:11.436Z,93314.94,1634753718,full,ni_sequenzen,NI_Sequenzen,4,8,,,,,,,,,,,,
,Move,canvas.Screen,0_3_0_8_0_4,-999,skipped,,93235,,,93219,,93235,2021-10-22T07:19:11.445Z,93314.94,1634753718,full,ni_sequenzen,NI_Sequenzen,5,8,,,,,,,,,,,,
,Move,canvas.Screen,0_3_0_8_0_5,-999,skipped,,93243,,,93219,,93243,2021-10-22T07:19:11.453Z,93314.94,1634753718,full,ni_sequenzen,NI_Sequenzen,6,8,,,,,,,,,,,,
,Move,canvas.Screen,0_3_0_8_0_6,-999,skipped,,93251,,,93219,,93251,2021-10-22T07:19:11.461Z,93314.94,1634753718,full,ni_sequenzen,NI_Sequenzen,7,8,,,,,,,,,,,,
,Move,canvas.Screen,0_3_0_8_0_7,-999,skipped,,93258,,,93219,,93259,2021-10-22T07:19:11.469Z,93314.94,1634753718,full,ni_sequenzen,NI_Sequenzen,8,8,,,,,,,,,,,,
,Move,canvas.Screen,0_3_0_8_0_8,-999,skipped,,93266,,,93219,,93266,2021-10-22T07:19:11.476Z,93314.94,1634753718,full,ni_sequenzen,NI_Sequenzen,9,8,,,,,,,,,,,,
,Move,canvas.Screen,0_3_0_8_0_9,-999,skipped,,93273,,,93219,,93273,2021-10-22T07:19:11.483Z,93314.94,1634753718,full,ni_sequenzen,NI_Sequenzen,10,8,,,,,,,,,,,,
,Move,canvas.Screen,0_3_0_8_0_10,-999,skipped,,93280,,,93219,,93281,2021-10-22T07:19:11.490Z,93314.94,1634753718,full,ni_sequenzen,NI_Sequenzen,11,8,,,,,,,,,,,,
,Move,canvas.Screen,0_3_0_8_0_11,-999,skipped,,93287,,,93219,,93287,2021-10-22T07:19:11.497Z,93314.94,1634753718,full,ni_sequenzen,NI_Sequenzen,12,8,,,,,,,,,,,,
,Move,canvas.Screen,0_3_0_8_0_12,-999,skipped,,93294,,,93219,,93294,2021-10-22T07:19:11.504Z,93314.94,1634753718,full,ni_sequenzen,NI_Sequenzen,13,8,,,,,,,,,,,,
,Move,canvas.Screen,0_3_0_8_0_13,-999,skipped,,93302,,,93219,,93302,2021-10-22T07:19:11.511Z,93314.94,1634753718,full,ni_sequenzen,NI_Sequenzen,14,8,,,,,,,,,,,,
,Move,canvas.Screen,0_3_0_8_0_14,-999,skipped,,93309,,,93219,,93309,2021-10-22T07:19:11.519Z,93314.94,1634753718,full,ni_sequenzen,NI_Sequenzen,15,8,,,,,,,,,,,,
,Loop,flow.Loop,0_3_0_8_0,-999,completion,,91070,91094.64,91106.56,93219,2112.4400000000023,93309,2021-10-22T07:19:11.519Z,93314.94,1634753718,full,ni_sequenzen,NI_Sequenzen,,8,,,,,,,,,,,,
,Feedback,canvas.Screen,0_3_0_8_1,,timeout,,93315,93314.56,93314.94,97305.8,4036.699999999997,97309,2021-10-22T07:19:15.519Z,97351.64,1634753718,full,ni_sequenzen,NI_Sequenzen,,8,,,,,,,,,,,,
,Trial,flow.Sequence,0_3_0_8,,completion,,91043,91094.64,91106.56,97305.8,6199.240000000005,97311,2021-10-22T07:19:15.521Z,97355.76,1634753718,full,ni_sequenzen,NI_Sequenzen,,8,,,,,,,,,,,,
,Move,canvas.Screen,0_3_0_9_0_0,down,response,,97351,97351.64,97355.76,98033,677.2400000000052,98053,2021-10-22T07:19:16.263Z,98095.26,1634753718,full,ni_sequenzen,NI_Sequenzen,1,9,,,,,,,,,,,,
,Move,canvas.Screen,0_3_0_9_0_1,left,response,,98095,98094.72,98095.26,98813,717.7400000000052,98821,2021-10-22T07:19:17.030Z,98859.46,1634753718,full,ni_sequenzen,NI_Sequenzen,2,9,,,,,,,,,,,,
,Move,canvas.Screen,0_3_0_9_0_2,down,response,,98858,98859,98859.46,99267,407.5399999999936,99285,2021-10-22T07:19:17.494Z,99314.88,1634753718,full,ni_sequenzen,NI_Sequenzen,3,9,,,,,,,,,,,,
,Move,canvas.Screen,0_3_0_9_0_3,left,response,,99314,99314.48,99314.88,99877,562.1199999999953,99887,2021-10-22T07:19:18.097Z,100001.36,1634753718,full,ni_sequenzen,NI_Sequenzen,4,9,,,,,,,,,,,,
,Move,canvas.Screen,0_3_0_9_0_4,-999,skipped,,99902,,,99877,,99902,2021-10-22T07:19:18.113Z,100001.36,1634753718,full,ni_sequenzen,NI_Sequenzen,5,9,,,,,,,,,,,,
,Move,canvas.Screen,0_3_0_9_0_5,-999,skipped,,99912,,,99877,,99912,2021-10-22T07:19:18.123Z,100001.36,1634753718,full,ni_sequenzen,NI_Sequenzen,6,9,,,,,,,,,,,,
,Move,canvas.Screen,0_3_0_9_0_6,-999,skipped,,99923,,,99877,,99923,2021-10-22T07:19:18.134Z,100001.36,1634753718,full,ni_sequenzen,NI_Sequenzen,7,9,,,,,,,,,,,,
,Move,canvas.Screen,0_3_0_9_0_7,-999,skipped,,99932,,,99877,,99933,2021-10-22T07:19:18.143Z,100001.36,1634753718,full,ni_sequenzen,NI_Sequenzen,8,9,,,,,,,,,,,,
,Move,canvas.Screen,0_3_0_9_0_8,-999,skipped,,99940,,,99877,,99941,2021-10-22T07:19:18.151Z,100001.36,1634753718,full,ni_sequenzen,NI_Sequenzen,9,9,,,,,,,,,,,,
,Move,canvas.Screen,0_3_0_9_0_9,-999,skipped,,99949,,,99877,,99949,2021-10-22T07:19:18.159Z,100001.36,1634753718,full,ni_sequenzen,NI_Sequenzen,10,9,,,,,,,,,,,,
,Move,canvas.Screen,0_3_0_9_0_10,-999,skipped,,99958,,,99877,,99958,2021-10-22T07:19:18.168Z,100001.36,1634753718,full,ni_sequenzen,NI_Sequenzen,11,9,,,,,,,,,,,,
,Move,canvas.Screen,0_3_0_9_0_11,-999,skipped,,99966,,,99877,,99966,2021-10-22T07:19:18.176Z,100001.36,1634753718,full,ni_sequenzen,NI_Sequenzen,12,9,,,,,,,,,,,,
,Move,canvas.Screen,0_3_0_9_0_12,-999,skipped,,99974,,,99877,,99974,2021-10-22T07:19:18.185Z,100001.36,1634753718,full,ni_sequenzen,NI_Sequenzen,13,9,,,,,,,,,,,,
,Move,canvas.Screen,0_3_0_9_0_13,-999,skipped,,99983,,,99877,,99983,2021-10-22T07:19:18.193Z,100001.36,1634753718,full,ni_sequenzen,NI_Sequenzen,14,9,,,,,,,,,,,,
,Move,canvas.Screen,0_3_0_9_0_14,-999,skipped,,99994,,,99877,,99994,2021-10-22T07:19:18.203Z,100001.36,1634753718,full,ni_sequenzen,NI_Sequenzen,15,9,,,,,,,,,,,,
,Loop,flow.Loop,0_3_0_9_0,-999,completion,,97336,97351.64,97355.76,99877,2521.2400000000052,99994,2021-10-22T07:19:18.204Z,100001.36,1634753718,full,ni_sequenzen,NI_Sequenzen,,9,,,,,,,,,,,,
,Feedback,canvas.Screen,0_3_0_9_1,,timeout,,100001,100001.02,100001.36,103988.3,4110.259999999995,103990,2021-10-22T07:19:22.200Z,104111.62,1634753718,full,ni_sequenzen,NI_Sequenzen,,9,,,,,,,,,,,,
,Trial,flow.Sequence,0_3_0_9,,completion,,97313,97351.64,97355.76,103988.3,6632.540000000008,103991,2021-10-22T07:19:22.201Z,104121.54,1634753718,full,ni_sequenzen,NI_Sequenzen,,9,,,,,,,,,,,,
,Block,flow.Loop,0_3_0,,completion,,20300,20319.76,20332.34,103988.3,83655.96,103992,2021-10-22T07:19:22.202Z,104121.54,1634753718,full,ni_sequenzen,NI_Sequenzen,,,,,,,,,,,,,,
,Training_II,flow.Sequence,0_3,,completion,,20278,20319.76,20332.34,103988.3,83655.96,103993,2021-10-22T07:19:22.202Z,104121.54,1634753718,full,ni_sequenzen,NI_Sequenzen,,,,,,,,,,,,,,
,Screen_1,canvas.Screen,0_4_0_0,cont,response,1,104112,104111.62,104121.54,106001,1879.4600000000064,106019,2021-10-22T07:19:24.228Z,106021.94,1634753718,full,ni_sequenzen,NI_Sequenzen,,,,,,,,,,,,,,
,Screen_2,canvas.Screen,0_4_0_1,cont,response,1,106022,106021.74,106021.94,108642,2620.0599999999977,108660,2021-10-22T07:19:26.870Z,108787.64,1634753718,full,ni_sequenzen,NI_Sequenzen,,,,,,,,,,,,,,
,Screen_3,canvas.Screen,0_4_0_2,cont,response,1,108757,108756.92,108787.64,120127,11339.36,120141,2021-10-22T07:19:38.351Z,120391.8,1634753718,full,ni_sequenzen,NI_Sequenzen,,,,,,,,,,,,,,
,Sequence,flow.Sequence,0_4_0,,completion,1,104053,104111.62,104121.54,120127,16005.460000000006,120143,2021-10-22T07:19:38.353Z,120391.8,1634753718,full,ni_sequenzen,NI_Sequenzen,,,,,,,,,,,,,,
,Screen_1,canvas.Screen,0_4_1_0,,skipped,2,120154,,,120154,,120154,2021-10-22T07:19:38.364Z,120391.8,1634753718,full,ni_sequenzen,NI_Sequenzen,,,,,,,,,,,,,,
,Screen_2,canvas.Screen,0_4_1_1,,skipped,2,120160,,,120154,,120161,2021-10-22T07:19:38.371Z,120391.8,1634753718,full,ni_sequenzen,NI_Sequenzen,,,,,,,,,,,,,,
,Screen_3,canvas.Screen,0_4_1_2,,skipped,2,120167,,,120154,,120167,2021-10-22T07:19:38.377Z,120391.8,1634753718,full,ni_sequenzen,NI_Sequenzen,,,,,,,,,,,,,,
,Sequence,flow.Sequence,0_4_1,,completion,2,120146,,,120154,,120168,2021-10-22T07:19:38.378Z,120391.8,1634753718,full,ni_sequenzen,NI_Sequenzen,,,,,,,,,,,,,,
,Screen_1,canvas.Screen,0_4_2_0,,skipped,3,120177,,,120177,,120177,2021-10-22T07:19:38.387Z,120391.8,1634753718,full,ni_sequenzen,NI_Sequenzen,,,,,,,,,,,,,,
,Screen_2,canvas.Screen,0_4_2_1,,skipped,3,120182,,,120177,,120183,2021-10-22T07:19:38.393Z,120391.8,1634753718,full,ni_sequenzen,NI_Sequenzen,,,,,,,,,,,,,,
,Screen_3,canvas.Screen,0_4_2_2,,skipped,3,120189,,,120177,,120190,2021-10-22T07:19:38.399Z,120391.8,1634753718,full,ni_sequenzen,NI_Sequenzen,,,,,,,,,,,,,,
,Sequence,flow.Sequence,0_4_2,,completion,3,120171,,,120177,,120190,2021-10-22T07:19:38.400Z,120391.8,1634753718,full,ni_sequenzen,NI_Sequenzen,,,,,,,,,,,,,,
,Screen_1,canvas.Screen,0_4_3_0,,skipped,4,120198,,,120198,,120199,2021-10-22T07:19:38.409Z,120391.8,1634753718,full,ni_sequenzen,NI_Sequenzen,,,,,,,,,,,,,,
,Screen_2,canvas.Screen,0_4_3_1,,skipped,4,120203,,,120198,,120203,2021-10-22T07:19:38.412Z,120391.8,1634753718,full,ni_sequenzen,NI_Sequenzen,,,,,,,,,,,,,,
,Screen_3,canvas.Screen,0_4_3_2,,skipped,4,120205,,,120198,,120205,2021-10-22T07:19:38.416Z,120391.8,1634753718,full,ni_sequenzen,NI_Sequenzen,,,,,,,,,,,,,,
,Sequence,flow.Sequence,0_4_3,,completion,4,120193,,,120198,,120205,2021-10-22T07:19:38.416Z,120391.8,1634753718,full,ni_sequenzen,NI_Sequenzen,,,,,,,,,,,,,,
,Screen_1,canvas.Screen,0_4_4_0,,skipped,5,120209,,,120209,,120209,2021-10-22T07:19:38.419Z,120391.8,1634753718,full,ni_sequenzen,NI_Sequenzen,,,,,,,,,,,,,,
,Screen_2,canvas.Screen,0_4_4_1,,skipped,5,120213,,,120209,,120213,2021-10-22T07:19:38.423Z,120391.8,1634753718,full,ni_sequenzen,NI_Sequenzen,,,,,,,,,,,,,,
,Screen_3,canvas.Screen,0_4_4_2,,skipped,5,120216,,,120209,,120216,2021-10-22T07:19:38.425Z,120391.8,1634753718,full,ni_sequenzen,NI_Sequenzen,,,,,,,,,,,,,,
,Sequence,flow.Sequence,0_4_4,,completion,5,120207,,,120209,,120216,2021-10-22T07:19:38.426Z,120391.8,1634753718,full,ni_sequenzen,NI_Sequenzen,,,,,,,,,,,,,,
,Screen_1,canvas.Screen,0_4_5_0,,skipped,6,120219,,,120219,,120219,2021-10-22T07:19:38.430Z,120391.8,1634753718,full,ni_sequenzen,NI_Sequenzen,,,,,,,,,,,,,,
,Screen_2,canvas.Screen,0_4_5_1,,skipped,6,120222,,,120219,,120222,2021-10-22T07:19:38.431Z,120391.8,1634753718,full,ni_sequenzen,NI_Sequenzen,,,,,,,,,,,,,,
,Screen_3,canvas.Screen,0_4_5_2,,skipped,6,120224,,,120219,,120225,2021-10-22T07:19:38.434Z,120391.8,1634753718,full,ni_sequenzen,NI_Sequenzen,,,,,,,,,,,,,,
,Sequence,flow.Sequence,0_4_5,,completion,6,120217,,,120219,,120225,2021-10-22T07:19:38.434Z,120391.8,1634753718,full,ni_sequenzen,NI_Sequenzen,,,,,,,,,,,,,,
,Screen_1,canvas.Screen,0_4_6_0,,skipped,7,120228,,,120228,,120228,2021-10-22T07:19:38.438Z,120391.8,1634753718,full,ni_sequenzen,NI_Sequenzen,,,,,,,,,,,,,,
,Screen_2,canvas.Screen,0_4_6_1,,skipped,7,120230,,,120228,,120230,2021-10-22T07:19:38.439Z,120391.8,1634753718,full,ni_sequenzen,NI_Sequenzen,,,,,,,,,,,,,,
,Screen_3,canvas.Screen,0_4_6_2,,skipped,7,120232,,,120228,,120232,2021-10-22T07:19:38.441Z,120391.8,1634753718,full,ni_sequenzen,NI_Sequenzen,,,,,,,,,,,,,,
,Sequence,flow.Sequence,0_4_6,,completion,7,120226,,,120228,,120232,2021-10-22T07:19:38.441Z,120391.8,1634753718,full,ni_sequenzen,NI_Sequenzen,,,,,,,,,,,,,,
,Screen_1,canvas.Screen,0_4_7_0,,skipped,8,120234,,,120234,,120234,2021-10-22T07:19:38.444Z,120391.8,1634753718,full,ni_sequenzen,NI_Sequenzen,,,,,,,,,,,,,,
,Screen_2,canvas.Screen,0_4_7_1,,skipped,8,120236,,,120234,,120236,2021-10-22T07:19:38.446Z,120391.8,1634753718,full,ni_sequenzen,NI_Sequenzen,,,,,,,,,,,,,,
,Screen_3,canvas.Screen,0_4_7_2,,skipped,8,120238,,,120234,,120238,2021-10-22T07:19:38.448Z,120391.8,1634753718,full,ni_sequenzen,NI_Sequenzen,,,,,,,,,,,,,,
,Sequence,flow.Sequence,0_4_7,,completion,8,120233,,,120234,,120238,2021-10-22T07:19:38.448Z,120391.8,1634753718,full,ni_sequenzen,NI_Sequenzen,,,,,,,,,,,,,,
,Screen_1,canvas.Screen,0_4_8_0,,skipped,9,120241,,,120241,,120241,2021-10-22T07:19:38.451Z,120391.8,1634753718,full,ni_sequenzen,NI_Sequenzen,,,,,,,,,,,,,,
,Screen_2,canvas.Screen,0_4_8_1,,skipped,9,120242,,,120241,,120243,2021-10-22T07:19:38.452Z,120391.8,1634753718,full,ni_sequenzen,NI_Sequenzen,,,,,,,,,,,,,,
,Screen_3,canvas.Screen,0_4_8_2,,skipped,9,120245,,,120241,,120245,2021-10-22T07:19:38.455Z,120391.8,1634753718,full,ni_sequenzen,NI_Sequenzen,,,,,,,,,,,,,,
,Sequence,flow.Sequence,0_4_8,,completion,9,120239,,,120241,,120246,2021-10-22T07:19:38.455Z,120391.8,1634753718,full,ni_sequenzen,NI_Sequenzen,,,,,,,,,,,,,,
,Screen_1,canvas.Screen,0_4_9_0,,skipped,10,120248,,,120248,,120248,2021-10-22T07:19:38.458Z,120391.8,1634753718,full,ni_sequenzen,NI_Sequenzen,,,,,,,,,,,,,,
,Screen_2,canvas.Screen,0_4_9_1,,skipped,10,120250,,,120248,,120250,2021-10-22T07:19:38.460Z,120391.8,1634753718,full,ni_sequenzen,NI_Sequenzen,,,,,,,,,,,,,,
,Screen_3,canvas.Screen,0_4_9_2,,skipped,10,120251,,,120248,,120252,2021-10-22T07:19:38.462Z,120391.8,1634753718,full,ni_sequenzen,NI_Sequenzen,,,,,,,,,,,,,,
,Sequence,flow.Sequence,0_4_9,,completion,10,120246,,,120248,,120252,2021-10-22T07:19:38.462Z,120391.8,1634753718,full,ni_sequenzen,NI_Sequenzen,,,,,,,,,,,,,,
,Screen_1,canvas.Screen,0_4_10_0,,skipped,11,120254,,,120254,,120254,2021-10-22T07:19:38.465Z,120391.8,1634753718,full,ni_sequenzen,NI_Sequenzen,,,,,,,,,,,,,,
,Screen_2,canvas.Screen,0_4_10_1,,skipped,11,120256,,,120254,,120256,2021-10-22T07:19:38.466Z,120391.8,1634753718,full,ni_sequenzen,NI_Sequenzen,,,,,,,,,,,,,,
,Screen_3,canvas.Screen,0_4_10_2,,skipped,11,120258,,,120254,,120258,2021-10-22T07:19:38.469Z,120391.8,1634753718,full,ni_sequenzen,NI_Sequenzen,,,,,,,,,,,,,,
,Sequence,flow.Sequence,0_4_10,,completion,11,120252,,,120254,,120259,2021-10-22T07:19:38.469Z,120391.8,1634753718,full,ni_sequenzen,NI_Sequenzen,,,,,,,,,,,,,,
,Screen_1,canvas.Screen,0_4_11_0,,skipped,12,120260,,,120260,,120261,2021-10-22T07:19:38.471Z,120391.8,1634753718,full,ni_sequenzen,NI_Sequenzen,,,,,,,,,,,,,,
,Screen_2,canvas.Screen,0_4_11_1,,skipped,12,120262,,,120260,,120262,2021-10-22T07:19:38.473Z,120391.8,1634753718,full,ni_sequenzen,NI_Sequenzen,,,,,,,,,,,,,,
,Screen_3,canvas.Screen,0_4_11_2,,skipped,12,120264,,,120260,,120264,2021-10-22T07:19:38.475Z,120391.8,1634753718,full,ni_sequenzen,NI_Sequenzen,,,,,,,,,,,,,,
,Sequence,flow.Sequence,0_4_11,,completion,12,120259,,,120260,,120265,2021-10-22T07:19:38.475Z,120391.8,1634753718,full,ni_sequenzen,NI_Sequenzen,,,,,,,,,,,,,,
,Screen_1,canvas.Screen,0_4_12_0,,skipped,13,120268,,,120268,,120268,2021-10-22T07:19:38.478Z,120391.8,1634753718,full,ni_sequenzen,NI_Sequenzen,,,,,,,,,,,,,,
,Screen_2,canvas.Screen,0_4_12_1,,skipped,13,120269,,,120268,,120269,2021-10-22T07:19:38.480Z,120391.8,1634753718,full,ni_sequenzen,NI_Sequenzen,,,,,,,,,,,,,,
,Screen_3,canvas.Screen,0_4_12_2,,skipped,13,120272,,,120268,,120272,2021-10-22T07:19:38.482Z,120391.8,1634753718,full,ni_sequenzen,NI_Sequenzen,,,,,,,,,,,,,,
,Sequence,flow.Sequence,0_4_12,,completion,13,120266,,,120268,,120272,2021-10-22T07:19:38.482Z,120391.8,1634753718,full,ni_sequenzen,NI_Sequenzen,,,,,,,,,,,,,,
,Screen_1,canvas.Screen,0_4_13_0,,skipped,14,120276,,,120276,,120276,2021-10-22T07:19:38.486Z,120391.8,1634753718,full,ni_sequenzen,NI_Sequenzen,,,,,,,,,,,,,,
,Screen_2,canvas.Screen,0_4_13_1,,skipped,14,120277,,,120276,,120277,2021-10-22T07:19:38.487Z,120391.8,1634753718,full,ni_sequenzen,NI_Sequenzen,,,,,,,,,,,,,,
,Screen_3,canvas.Screen,0_4_13_2,,skipped,14,120280,,,120276,,120280,2021-10-22T07:19:38.489Z,120391.8,1634753718,full,ni_sequenzen,NI_Sequenzen,,,,,,,,,,,,,,
,Sequence,flow.Sequence,0_4_13,,completion,14,120274,,,120276,,120280,2021-10-22T07:19:38.490Z,120391.8,1634753718,full,ni_sequenzen,NI_Sequenzen,,,,,,,,,,,,,,
,Screen_1,canvas.Screen,0_4_14_0,,skipped,15,120282,,,120282,,120282,2021-10-22T07:19:38.491Z,120391.8,1634753718,full,ni_sequenzen,NI_Sequenzen,,,,,,,,,,,,,,
,Screen_2,canvas.Screen,0_4_14_1,,skipped,15,120284,,,120282,,120284,2021-10-22T07:19:38.493Z,120391.8,1634753718,full,ni_sequenzen,NI_Sequenzen,,,,,,,,,,,,,,
,Screen_3,canvas.Screen,0_4_14_2,,skipped,15,120285,,,120282,,120285,2021-10-22T07:19:38.495Z,120391.8,1634753718,full,ni_sequenzen,NI_Sequenzen,,,,,,,,,,,,,,
,Sequence,flow.Sequence,0_4_14,,completion,15,120281,,,120282,,120285,2021-10-22T07:19:38.496Z,120391.8,1634753718,full,ni_sequenzen,NI_Sequenzen,,,,,,,,,,,,,,
,Screen_1,canvas.Screen,0_4_15_0,,skipped,16,120287,,,120287,,120287,2021-10-22T07:19:38.497Z,120391.8,1634753718,full,ni_sequenzen,NI_Sequenzen,,,,,,,,,,,,,,
,Screen_2,canvas.Screen,0_4_15_1,,skipped,16,120289,,,120287,,120289,2021-10-22T07:19:38.499Z,120391.8,1634753718,full,ni_sequenzen,NI_Sequenzen,,,,,,,,,,,,,,
,Screen_3,canvas.Screen,0_4_15_2,,skipped,16,120290,,,120287,,120290,2021-10-22T07:19:38.500Z,120391.8,1634753718,full,ni_sequenzen,NI_Sequenzen,,,,,,,,,,,,,,
,Sequence,flow.Sequence,0_4_15,,completion,16,120286,,,120287,,120290,2021-10-22T07:19:38.501Z,120391.8,1634753718,full,ni_sequenzen,NI_Sequenzen,,,,,,,,,,,,,,
,Screen_1,canvas.Screen,0_4_16_0,,skipped,17,120293,,,120293,,120293,2021-10-22T07:19:38.503Z,120391.8,1634753718,full,ni_sequenzen,NI_Sequenzen,,,,,,,,,,,,,,
,Screen_2,canvas.Screen,0_4_16_1,,skipped,17,120294,,,120293,,120295,2021-10-22T07:19:38.504Z,120391.8,1634753718,full,ni_sequenzen,NI_Sequenzen,,,,,,,,,,,,,,
,Screen_3,canvas.Screen,0_4_16_2,,skipped,17,120296,,,120293,,120296,2021-10-22T07:19:38.506Z,120391.8,1634753718,full,ni_sequenzen,NI_Sequenzen,,,,,,,,,,,,,,
,Sequence,flow.Sequence,0_4_16,,completion,17,120291,,,120293,,120296,2021-10-22T07:19:38.506Z,120391.8,1634753718,full,ni_sequenzen,NI_Sequenzen,,,,,,,,,,,,,,
,Screen_1,canvas.Screen,0_4_17_0,,skipped,18,120298,,,120298,,120298,2021-10-22T07:19:38.508Z,120391.8,1634753718,full,ni_sequenzen,NI_Sequenzen,,,,,,,,,,,,,,
,Screen_2,canvas.Screen,0_4_17_1,,skipped,18,120299,,,120298,,120299,2021-10-22T07:19:38.510Z,120391.8,1634753718,full,ni_sequenzen,NI_Sequenzen,,,,,,,,,,,,,,
,Screen_3,canvas.Screen,0_4_17_2,,skipped,18,120302,,,120298,,120302,2021-10-22T07:19:38.511Z,120391.8,1634753718,full,ni_sequenzen,NI_Sequenzen,,,,,,,,,,,,,,
,Sequence,flow.Sequence,0_4_17,,completion,18,120297,,,120298,,120302,2021-10-22T07:19:38.511Z,120391.8,1634753718,full,ni_sequenzen,NI_Sequenzen,,,,,,,,,,,,,,
,Screen_1,canvas.Screen,0_4_18_0,,skipped,19,120304,,,120304,,120304,2021-10-22T07:19:38.514Z,120391.8,1634753718,full,ni_sequenzen,NI_Sequenzen,,,,,,,,,,,,,,
,Screen_2,canvas.Screen,0_4_18_1,,skipped,19,120306,,,120304,,120306,2021-10-22T07:19:38.516Z,120391.8,1634753718,full,ni_sequenzen,NI_Sequenzen,,,,,,,,,,,,,,
,Screen_3,canvas.Screen,0_4_18_2,,skipped,19,120307,,,120304,,120307,2021-10-22T07:19:38.517Z,120391.8,1634753718,full,ni_sequenzen,NI_Sequenzen,,,,,,,,,,,,,,
,Sequence,flow.Sequence,0_4_18,,completion,19,120303,,,120304,,120307,2021-10-22T07:19:38.517Z,120391.8,1634753718,full,ni_sequenzen,NI_Sequenzen,,,,,,,,,,,,,,
,Screen_1,canvas.Screen,0_4_19_0,,skipped,20,120309,,,120309,,120309,2021-10-22T07:19:38.519Z,120391.8,1634753718,full,ni_sequenzen,NI_Sequenzen,,,,,,,,,,,,,,
,Screen_2,canvas.Screen,0_4_19_1,,skipped,20,120310,,,120309,,120310,2021-10-22T07:19:38.521Z,120391.8,1634753718,full,ni_sequenzen,NI_Sequenzen,,,,,,,,,,,,,,
,Screen_3,canvas.Screen,0_4_19_2,,skipped,20,120312,,,120309,,120312,2021-10-22T07:19:38.522Z,120391.8,1634753718,full,ni_sequenzen,NI_Sequenzen,,,,,,,,,,,,,,
,Sequence,flow.Sequence,0_4_19,,completion,20,120308,,,120309,,120312,2021-10-22T07:19:38.522Z,120391.8,1634753718,full,ni_sequenzen,NI_Sequenzen,,,,,,,,,,,,,,
,Screen_1,canvas.Screen,0_4_20_0,,skipped,21,120314,,,120314,,120314,2021-10-22T07:19:38.525Z,120391.8,1634753718,full,ni_sequenzen,NI_Sequenzen,,,,,,,,,,,,,,
,Screen_2,canvas.Screen,0_4_20_1,,skipped,21,120316,,,120314,,120316,2021-10-22T07:19:38.526Z,120391.8,1634753718,full,ni_sequenzen,NI_Sequenzen,,,,,,,,,,,,,,
