meta,sender,sender_type,sender_id,response,ended_on,instrCount,time_run,time_render,time_show,time_end,duration,time_commit,timestamp,time_switch,openLabId,type,task,project,move,trialN,blockN_Train,blockN,moveCount,currPP,points,movesTrial,visitedFields,diff,reward,Strategie,Zweck,Probleme
[object Object],Screen_1,canvas.Screen,0_0_0_0,cont,response,1,699,709.42,726.08,9647,8920.92,9676,2021-10-22T09:01:43.721Z,9788.72,1634893289,full,ni_sequenzen,NI_Sequenzen,,,,,,,,,,,,,,
,Screen_2,canvas.Screen,0_0_0_1,cont,response,1,9777,9776.82,9788.72,25803,16014.28,25817,2021-10-22T09:01:59.863Z,25898.08,1634893289,full,ni_sequenzen,NI_Sequenzen,,,,,,,,,,,,,,
,Screen_3,canvas.Screen,0_0_0_2,cont,response,1,25892,25892.44,25898.08,33539,7640.919999999998,33544,2021-10-22T09:02:07.589Z,33547.96,1634893289,full,ni_sequenzen,NI_Sequenzen,,,,,,,,,,,,,,
,Screen_4,canvas.Screen,0_0_0_3,cont,response,1,33548,33547.86,33547.96,36272,2724.040000000001,36288,2021-10-22T09:02:10.333Z,36398.18,1634893289,full,ni_sequenzen,NI_Sequenzen,,,,,,,,,,,,,,
,Sequence,flow.Sequence,0_0_0,,completion,1,646,709.42,726.08,36272,35545.92,36288,2021-10-22T09:02:10.333Z,36398.18,1634893289,full,ni_sequenzen,NI_Sequenzen,,,,,,,,,,,,,,
,Screen_1,canvas.Screen,0_0_1_0,,skipped,2,36291,,,36291,,36291,2021-10-22T09:02:10.337Z,36398.18,1634893289,full,ni_sequenzen,NI_Sequenzen,,,,,,,,,,,,,,
,Screen_2,canvas.Screen,0_0_1_1,,skipped,2,36293,,,36291,,36293,2021-10-22T09:02:10.338Z,36398.18,1634893289,full,ni_sequenzen,NI_Sequenzen,,,,,,,,,,,,,,
,Screen_3,canvas.Screen,0_0_1_2,,skipped,2,36295,,,36291,,36295,2021-10-22T09:02:10.339Z,36398.18,1634893289,full,ni_sequenzen,NI_Sequenzen,,,,,,,,,,,,,,
,Screen_4,canvas.Screen,0_0_1_3,,skipped,2,36296,,,36291,,36296,2021-10-22T09:02:10.341Z,36398.18,1634893289,full,ni_sequenzen,NI_Sequenzen,,,,,,,,,,,,,,
,Sequence,flow.Sequence,0_0_1,,completion,2,36289,,,36291,,36296,2021-10-22T09:02:10.341Z,36398.18,1634893289,full,ni_sequenzen,NI_Sequenzen,,,,,,,,,,,,,,
,Screen_1,canvas.Screen,0_0_2_0,,skipped,3,36298,,,36298,,36298,2021-10-22T09:02:10.343Z,36398.18,1634893289,full,ni_sequenzen,NI_Sequenzen,,,,,,,,,,,,,,
,Screen_2,canvas.Screen,0_0_2_1,,skipped,3,36300,,,36298,,36300,2021-10-22T09:02:10.345Z,36398.18,1634893289,full,ni_sequenzen,NI_Sequenzen,,,,,,,,,,,,,,
,Screen_3,canvas.Screen,0_0_2_2,,skipped,3,36301,,,36298,,36301,2021-10-22T09:02:10.346Z,36398.18,1634893289,full,ni_sequenzen,NI_Sequenzen,,,,,,,,,,,,,,
,Screen_4,canvas.Screen,0_0_2_3,,skipped,3,36303,,,36298,,36303,2021-10-22T09:02:10.348Z,36398.18,1634893289,full,ni_sequenzen,NI_Sequenzen,,,,,,,,,,,,,,
,Sequence,flow.Sequence,0_0_2,,completion,3,36297,,,36298,,36303,2021-10-22T09:02:10.348Z,36398.18,1634893289,full,ni_sequenzen,NI_Sequenzen,,,,,,,,,,,,,,
,Screen_1,canvas.Screen,0_0_3_0,,skipped,4,36304,,,36304,,36305,2021-10-22T09:02:10.350Z,36398.18,1634893289,full,ni_sequenzen,NI_Sequenzen,,,,,,,,,,,,,,
,Screen_2,canvas.Screen,0_0_3_1,,skipped,4,36305,,,36304,,36305,2021-10-22T09:02:10.351Z,36398.18,1634893289,full,ni_sequenzen,NI_Sequenzen,,,,,,,,,,,,,,
,Screen_3,canvas.Screen,0_0_3_2,,skipped,4,36306,,,36304,,36306,2021-10-22T09:02:10.352Z,36398.18,1634893289,full,ni_sequenzen,NI_Sequenzen,,,,,,,,,,,,,,
,Screen_4,canvas.Screen,0_0_3_3,,skipped,4,36308,,,36304,,36308,2021-10-22T09:02:10.353Z,36398.18,1634893289,full,ni_sequenzen,NI_Sequenzen,,,,,,,,,,,,,,
,Sequence,flow.Sequence,0_0_3,,completion,4,36303,,,36304,,36308,2021-10-22T09:02:10.354Z,36398.18,1634893289,full,ni_sequenzen,NI_Sequenzen,,,,,,,,,,,,,,
,Screen_1,canvas.Screen,0_0_4_0,,skipped,5,36310,,,36310,,36310,2021-10-22T09:02:10.355Z,36398.18,1634893289,full,ni_sequenzen,NI_Sequenzen,,,,,,,,,,,,,,
,Screen_2,canvas.Screen,0_0_4_1,,skipped,5,36311,,,36310,,36311,2021-10-22T09:02:10.356Z,36398.18,1634893289,full,ni_sequenzen,NI_Sequenzen,,,,,,,,,,,,,,
,Screen_3,canvas.Screen,0_0_4_2,,skipped,5,36312,,,36310,,36312,2021-10-22T09:02:10.357Z,36398.18,1634893289,full,ni_sequenzen,NI_Sequenzen,,,,,,,,,,,,,,
,Screen_4,canvas.Screen,0_0_4_3,,skipped,5,36313,,,36310,,36313,2021-10-22T09:02:10.359Z,36398.18,1634893289,full,ni_sequenzen,NI_Sequenzen,,,,,,,,,,,,,,
,Sequence,flow.Sequence,0_0_4,,completion,5,36309,,,36310,,36314,2021-10-22T09:02:10.359Z,36398.18,1634893289,full,ni_sequenzen,NI_Sequenzen,,,,,,,,,,,,,,
,Screen_1,canvas.Screen,0_0_5_0,,skipped,6,36315,,,36315,,36315,2021-10-22T09:02:10.360Z,36398.18,1634893289,full,ni_sequenzen,NI_Sequenzen,,,,,,,,,,,,,,
,Screen_2,canvas.Screen,0_0_5_1,,skipped,6,36316,,,36315,,36316,2021-10-22T09:02:10.361Z,36398.18,1634893289,full,ni_sequenzen,NI_Sequenzen,,,,,,,,,,,,,,
,Screen_3,canvas.Screen,0_0_5_2,,skipped,6,36317,,,36315,,36317,2021-10-22T09:02:10.362Z,36398.18,1634893289,full,ni_sequenzen,NI_Sequenzen,,,,,,,,,,,,,,
,Screen_4,canvas.Screen,0_0_5_3,,skipped,6,36318,,,36315,,36318,2021-10-22T09:02:10.364Z,36398.18,1634893289,full,ni_sequenzen,NI_Sequenzen,,,,,,,,,,,,,,
,Sequence,flow.Sequence,0_0_5,,completion,6,36314,,,36315,,36319,2021-10-22T09:02:10.364Z,36398.18,1634893289,full,ni_sequenzen,NI_Sequenzen,,,,,,,,,,,,,,
,Screen_1,canvas.Screen,0_0_6_0,,skipped,7,36320,,,36320,,36320,2021-10-22T09:02:10.366Z,36398.18,1634893289,full,ni_sequenzen,NI_Sequenzen,,,,,,,,,,,,,,
,Screen_2,canvas.Screen,0_0_6_1,,skipped,7,36321,,,36320,,36321,2021-10-22T09:02:10.366Z,36398.18,1634893289,full,ni_sequenzen,NI_Sequenzen,,,,,,,,,,,,,,
,Screen_3,canvas.Screen,0_0_6_2,,skipped,7,36323,,,36320,,36324,2021-10-22T09:02:10.368Z,36398.18,1634893289,full,ni_sequenzen,NI_Sequenzen,,,,,,,,,,,,,,
,Screen_4,canvas.Screen,0_0_6_3,,skipped,7,36325,,,36320,,36325,2021-10-22T09:02:10.370Z,36398.18,1634893289,full,ni_sequenzen,NI_Sequenzen,,,,,,,,,,,,,,
,Sequence,flow.Sequence,0_0_6,,completion,7,36319,,,36320,,36325,2021-10-22T09:02:10.370Z,36398.18,1634893289,full,ni_sequenzen,NI_Sequenzen,,,,,,,,,,,,,,
,Screen_1,canvas.Screen,0_0_7_0,,skipped,8,36326,,,36326,,36326,2021-10-22T09:02:10.371Z,36398.18,1634893289,full,ni_sequenzen,NI_Sequenzen,,,,,,,,,,,,,,
,Screen_2,canvas.Screen,0_0_7_1,,skipped,8,36326,,,36326,,36326,2021-10-22T09:02:10.372Z,36398.18,1634893289,full,ni_sequenzen,NI_Sequenzen,,,,,,,,,,,,,,
,Screen_3,canvas.Screen,0_0_7_2,,skipped,8,36327,,,36326,,36327,2021-10-22T09:02:10.373Z,36398.18,1634893289,full,ni_sequenzen,NI_Sequenzen,,,,,,,,,,,,,,
,Screen_4,canvas.Screen,0_0_7_3,,skipped,8,36329,,,36326,,36329,2021-10-22T09:02:10.374Z,36398.18,1634893289,full,ni_sequenzen,NI_Sequenzen,,,,,,,,,,,,,,
,Sequence,flow.Sequence,0_0_7,,completion,8,36325,,,36326,,36329,2021-10-22T09:02:10.374Z,36398.18,1634893289,full,ni_sequenzen,NI_Sequenzen,,,,,,,,,,,,,,
,Screen_1,canvas.Screen,0_0_8_0,,skipped,9,36330,,,36330,,36330,2021-10-22T09:02:10.376Z,36398.18,1634893289,full,ni_sequenzen,NI_Sequenzen,,,,,,,,,,,,,,
,Screen_2,canvas.Screen,0_0_8_1,,skipped,9,36331,,,36330,,36331,2021-10-22T09:02:10.377Z,36398.18,1634893289,full,ni_sequenzen,NI_Sequenzen,,,,,,,,,,,,,,
,Screen_3,canvas.Screen,0_0_8_2,,skipped,9,36332,,,36330,,36333,2021-10-22T09:02:10.378Z,36398.18,1634893289,full,ni_sequenzen,NI_Sequenzen,,,,,,,,,,,,,,
,Screen_4,canvas.Screen,0_0_8_3,,skipped,9,36334,,,36330,,36334,2021-10-22T09:02:10.379Z,36398.18,1634893289,full,ni_sequenzen,NI_Sequenzen,,,,,,,,,,,,,,
,Sequence,flow.Sequence,0_0_8,,completion,9,36330,,,36330,,36334,2021-10-22T09:02:10.379Z,36398.18,1634893289,full,ni_sequenzen,NI_Sequenzen,,,,,,,,,,,,,,
,Screen_1,canvas.Screen,0_0_9_0,,skipped,10,36335,,,36335,,36335,2021-10-22T09:02:10.381Z,36398.18,1634893289,full,ni_sequenzen,NI_Sequenzen,,,,,,,,,,,,,,
,Screen_2,canvas.Screen,0_0_9_1,,skipped,10,36336,,,36335,,36336,2021-10-22T09:02:10.381Z,36398.18,1634893289,full,ni_sequenzen,NI_Sequenzen,,,,,,,,,,,,,,
,Screen_3,canvas.Screen,0_0_9_2,,skipped,10,36338,,,36335,,36338,2021-10-22T09:02:10.383Z,36398.18,1634893289,full,ni_sequenzen,NI_Sequenzen,,,,,,,,,,,,,,
,Screen_4,canvas.Screen,0_0_9_3,,skipped,10,36339,,,36335,,36339,2021-10-22T09:02:10.383Z,36398.18,1634893289,full,ni_sequenzen,NI_Sequenzen,,,,,,,,,,,,,,
,Sequence,flow.Sequence,0_0_9,,completion,10,36335,,,36335,,36339,2021-10-22T09:02:10.384Z,36398.18,1634893289,full,ni_sequenzen,NI_Sequenzen,,,,,,,,,,,,,,
,Screen_1,canvas.Screen,0_0_10_0,,skipped,11,36340,,,36340,,36340,2021-10-22T09:02:10.385Z,36398.18,1634893289,full,ni_sequenzen,NI_Sequenzen,,,,,,,,,,,,,,
,Screen_2,canvas.Screen,0_0_10_1,,skipped,11,36341,,,36340,,36341,2021-10-22T09:02:10.386Z,36398.18,1634893289,full,ni_sequenzen,NI_Sequenzen,,,,,,,,,,,,,,
,Screen_3,canvas.Screen,0_0_10_2,,skipped,11,36342,,,36340,,36342,2021-10-22T09:02:10.387Z,36398.18,1634893289,full,ni_sequenzen,NI_Sequenzen,,,,,,,,,,,,,,
,Screen_4,canvas.Screen,0_0_10_3,,skipped,11,36343,,,36340,,36343,2021-10-22T09:02:10.388Z,36398.18,1634893289,full,ni_sequenzen,NI_Sequenzen,,,,,,,,,,,,,,
,Sequence,flow.Sequence,0_0_10,,completion,11,36339,,,36340,,36344,2021-10-22T09:02:10.389Z,36398.18,1634893289,full,ni_sequenzen,NI_Sequenzen,,,,,,,,,,,,,,
,Screen_1,canvas.Screen,0_0_11_0,,skipped,12,36345,,,36345,,36345,2021-10-22T09:02:10.391Z,36398.18,1634893289,full,ni_sequenzen,NI_Sequenzen,,,,,,,,,,,,,,
,Screen_2,canvas.Screen,0_0_11_1,,skipped,12,36346,,,36345,,36346,2021-10-22T09:02:10.392Z,36398.18,1634893289,full,ni_sequenzen,NI_Sequenzen,,,,,,,,,,,,,,
,Screen_3,canvas.Screen,0_0_11_2,,skipped,12,36347,,,36345,,36347,2021-10-22T09:02:10.392Z,36398.18,1634893289,full,ni_sequenzen,NI_Sequenzen,,,,,,,,,,,,,,
,Screen_4,canvas.Screen,0_0_11_3,,skipped,12,36349,,,36345,,36349,2021-10-22T09:02:10.394Z,36398.18,1634893289,full,ni_sequenzen,NI_Sequenzen,,,,,,,,,,,,,,
,Sequence,flow.Sequence,0_0_11,,completion,12,36344,,,36345,,36349,2021-10-22T09:02:10.395Z,36398.18,1634893289,full,ni_sequenzen,NI_Sequenzen,,,,,,,,,,,,,,
,Screen_1,canvas.Screen,0_0_12_0,,skipped,13,36350,,,36350,,36350,2021-10-22T09:02:10.395Z,36398.18,1634893289,full,ni_sequenzen,NI_Sequenzen,,,,,,,,,,,,,,
,Screen_2,canvas.Screen,0_0_12_1,,skipped,13,36351,,,36350,,36351,2021-10-22T09:02:10.396Z,36398.18,1634893289,full,ni_sequenzen,NI_Sequenzen,,,,,,,,,,,,,,
,Screen_3,canvas.Screen,0_0_12_2,,skipped,13,36352,,,36350,,36352,2021-10-22T09:02:10.397Z,36398.18,1634893289,full,ni_sequenzen,NI_Sequenzen,,,,,,,,,,,,,,
,Screen_4,canvas.Screen,0_0_12_3,,skipped,13,36353,,,36350,,36353,2021-10-22T09:02:10.398Z,36398.18,1634893289,full,ni_sequenzen,NI_Sequenzen,,,,,,,,,,,,,,
,Sequence,flow.Sequence,0_0_12,,completion,13,36349,,,36350,,36353,2021-10-22T09:02:10.398Z,36398.18,1634893289,full,ni_sequenzen,NI_Sequenzen,,,,,,,,,,,,,,
,Screen_1,canvas.Screen,0_0_13_0,,skipped,14,36355,,,36355,,36355,2021-10-22T09:02:10.401Z,36398.18,1634893289,full,ni_sequenzen,NI_Sequenzen,,,,,,,,,,,,,,
,Screen_2,canvas.Screen,0_0_13_1,,skipped,14,36356,,,36355,,36356,2021-10-22T09:02:10.402Z,36398.18,1634893289,full,ni_sequenzen,NI_Sequenzen,,,,,,,,,,,,,,
,Screen_3,canvas.Screen,0_0_13_2,,skipped,14,36357,,,36355,,36357,2021-10-22T09:02:10.402Z,36398.18,1634893289,full,ni_sequenzen,NI_Sequenzen,,,,,,,,,,,,,,
,Screen_4,canvas.Screen,0_0_13_3,,skipped,14,36358,,,36355,,36359,2021-10-22T09:02:10.404Z,36398.18,1634893289,full,ni_sequenzen,NI_Sequenzen,,,,,,,,,,,,,,
,Sequence,flow.Sequence,0_0_13,,completion,14,36354,,,36355,,36359,2021-10-22T09:02:10.404Z,36398.18,1634893289,full,ni_sequenzen,NI_Sequenzen,,,,,,,,,,,,,,
,Screen_1,canvas.Screen,0_0_14_0,,skipped,15,36360,,,36360,,36360,2021-10-22T09:02:10.405Z,36398.18,1634893289,full,ni_sequenzen,NI_Sequenzen,,,,,,,,,,,,,,
,Screen_2,canvas.Screen,0_0_14_1,,skipped,15,36361,,,36360,,36361,2021-10-22T09:02:10.406Z,36398.18,1634893289,full,ni_sequenzen,NI_Sequenzen,,,,,,,,,,,,,,
,Screen_3,canvas.Screen,0_0_14_2,,skipped,15,36362,,,36360,,36362,2021-10-22T09:02:10.407Z,36398.18,1634893289,full,ni_sequenzen,NI_Sequenzen,,,,,,,,,,,,,,
,Screen_4,canvas.Screen,0_0_14_3,,skipped,15,36363,,,36360,,36363,2021-10-22T09:02:10.408Z,36398.18,1634893289,full,ni_sequenzen,NI_Sequenzen,,,,,,,,,,,,,,
,Sequence,flow.Sequence,0_0_14,,completion,15,36359,,,36360,,36364,2021-10-22T09:02:10.408Z,36398.18,1634893289,full,ni_sequenzen,NI_Sequenzen,,,,,,,,,,,,,,
,Screen_1,canvas.Screen,0_0_15_0,,skipped,16,36365,,,36365,,36365,2021-10-22T09:02:10.409Z,36398.18,1634893289,full,ni_sequenzen,NI_Sequenzen,,,,,,,,,,,,,,
,Screen_2,canvas.Screen,0_0_15_1,,skipped,16,36366,,,36365,,36366,2021-10-22T09:02:10.410Z,36398.18,1634893289,full,ni_sequenzen,NI_Sequenzen,,,,,,,,,,,,,,
,Screen_3,canvas.Screen,0_0_15_2,,skipped,16,36366,,,36365,,36367,2021-10-22T09:02:10.412Z,36398.18,1634893289,full,ni_sequenzen,NI_Sequenzen,,,,,,,,,,,,,,
,Screen_4,canvas.Screen,0_0_15_3,,skipped,16,36368,,,36365,,36368,2021-10-22T09:02:10.413Z,36398.18,1634893289,full,ni_sequenzen,NI_Sequenzen,,,,,,,,,,,,,,
,Sequence,flow.Sequence,0_0_15,,completion,16,36364,,,36365,,36369,2021-10-22T09:02:10.414Z,36398.18,1634893289,full,ni_sequenzen,NI_Sequenzen,,,,,,,,,,,,,,
,Screen_1,canvas.Screen,0_0_16_0,,skipped,17,36369,,,36369,,36369,2021-10-22T09:02:10.415Z,36398.18,1634893289,full,ni_sequenzen,NI_Sequenzen,,,,,,,,,,,,,,
,Screen_2,canvas.Screen,0_0_16_1,,skipped,17,36371,,,36369,,36371,2021-10-22T09:02:10.415Z,36398.18,1634893289,full,ni_sequenzen,NI_Sequenzen,,,,,,,,,,,,,,
,Screen_3,canvas.Screen,0_0_16_2,,skipped,17,36371,,,36369,,36371,2021-10-22T09:02:10.416Z,36398.18,1634893289,full,ni_sequenzen,NI_Sequenzen,,,,,,,,,,,,,,
,Screen_4,canvas.Screen,0_0_16_3,,skipped,17,36371,,,36369,,36372,2021-10-22T09:02:10.418Z,36398.18,1634893289,full,ni_sequenzen,NI_Sequenzen,,,,,,,,,,,,,,
,Sequence,flow.Sequence,0_0_16,,completion,17,36369,,,36369,,36372,2021-10-22T09:02:10.418Z,36398.18,1634893289,full,ni_sequenzen,NI_Sequenzen,,,,,,,,,,,,,,
,Screen_1,canvas.Screen,0_0_17_0,,skipped,18,36373,,,36373,,36373,2021-10-22T09:02:10.418Z,36398.18,1634893289,full,ni_sequenzen,NI_Sequenzen,,,,,,,,,,,,,,
,Screen_2,canvas.Screen,0_0_17_1,,skipped,18,36373,,,36373,,36373,2021-10-22T09:02:10.419Z,36398.18,1634893289,full,ni_sequenzen,NI_Sequenzen,,,,,,,,,,,,,,
,Screen_3,canvas.Screen,0_0_17_2,,skipped,18,36375,,,36373,,36375,2021-10-22T09:02:10.420Z,36398.18,1634893289,full,ni_sequenzen,NI_Sequenzen,,,,,,,,,,,,,,
,Screen_4,canvas.Screen,0_0_17_3,,skipped,18,36376,,,36373,,36376,2021-10-22T09:02:10.420Z,36398.18,1634893289,full,ni_sequenzen,NI_Sequenzen,,,,,,,,,,,,,,
,Sequence,flow.Sequence,0_0_17,,completion,18,36372,,,36373,,36376,2021-10-22T09:02:10.421Z,36398.18,1634893289,full,ni_sequenzen,NI_Sequenzen,,,,,,,,,,,,,,
,Screen_1,canvas.Screen,0_0_18_0,,skipped,19,36377,,,36377,,36377,2021-10-22T09:02:10.422Z,36398.18,1634893289,full,ni_sequenzen,NI_Sequenzen,,,,,,,,,,,,,,
,Screen_2,canvas.Screen,0_0_18_1,,skipped,19,36378,,,36377,,36378,2021-10-22T09:02:10.423Z,36398.18,1634893289,full,ni_sequenzen,NI_Sequenzen,,,,,,,,,,,,,,
,Screen_3,canvas.Screen,0_0_18_2,,skipped,19,36379,,,36377,,36379,2021-10-22T09:02:10.424Z,36398.18,1634893289,full,ni_sequenzen,NI_Sequenzen,,,,,,,,,,,,,,
,Screen_4,canvas.Screen,0_0_18_3,,skipped,19,36380,,,36377,,36380,2021-10-22T09:02:10.425Z,36398.18,1634893289,full,ni_sequenzen,NI_Sequenzen,,,,,,,,,,,,,,
,Sequence,flow.Sequence,0_0_18,,completion,19,36376,,,36377,,36380,2021-10-22T09:02:10.425Z,36398.18,1634893289,full,ni_sequenzen,NI_Sequenzen,,,,,,,,,,,,,,
,Screen_1,canvas.Screen,0_0_19_0,,skipped,20,36381,,,36381,,36381,2021-10-22T09:02:10.426Z,36398.18,1634893289,full,ni_sequenzen,NI_Sequenzen,,,,,,,,,,,,,,
,Screen_2,canvas.Screen,0_0_19_1,,skipped,20,36382,,,36381,,36382,2021-10-22T09:02:10.427Z,36398.18,1634893289,full,ni_sequenzen,NI_Sequenzen,,,,,,,,,,,,,,
,Screen_3,canvas.Screen,0_0_19_2,,skipped,20,36383,,,36381,,36384,2021-10-22T09:02:10.429Z,36398.18,1634893289,full,ni_sequenzen,NI_Sequenzen,,,,,,,,,,,,,,
,Screen_4,canvas.Screen,0_0_19_3,,skipped,20,36385,,,36381,,36385,2021-10-22T09:02:10.430Z,36398.18,1634893289,full,ni_sequenzen,NI_Sequenzen,,,,,,,,,,,,,,
,Sequence,flow.Sequence,0_0_19,,completion,20,36380,,,36381,,36385,2021-10-22T09:02:10.430Z,36398.18,1634893289,full,ni_sequenzen,NI_Sequenzen,,,,,,,,,,,,,,
,Instructions_I,flow.Loop,0_0,,completion,,645,709.42,726.08,36381,35654.92,36385,2021-10-22T09:02:10.430Z,36398.18,1634893289,full,ni_sequenzen,NI_Sequenzen,,,,,,,,,,,,,,
,Move,canvas.Screen,0_1_0_0,left,response,,36398,36397.86,36398.18,37225,826.8199999999997,37258,2021-10-22T09:02:11.303Z,37264.48,1634893289,full,ni_sequenzen,NI_Sequenzen,1,,,,,,,,,,,,,
,Move,canvas.Screen,0_1_0_1,left,response,,37264,37264.22,37264.48,37600,335.5199999999968,37627,2021-10-22T09:02:11.672Z,37637.54,1634893289,full,ni_sequenzen,NI_Sequenzen,2,,,,,,,,,,,,,
,Move,canvas.Screen,0_1_0_2,left,response,,37637,37637.36,37637.54,37881,243.45999999999913,37898,2021-10-22T09:02:11.944Z,37905.52,1634893289,full,ni_sequenzen,NI_Sequenzen,3,,,,,,,,,,,,,
,Move,canvas.Screen,0_1_0_3,right,response,,37905,37905.18,37905.52,38475,569.4800000000032,38504,2021-10-22T09:02:12.549Z,38511.18,1634893289,full,ni_sequenzen,NI_Sequenzen,4,,,,,,,,,,,,,
,Move,canvas.Screen,0_1_0_4,right,response,,38511,38510.88,38511.18,39539,1027.8199999999997,39546,2021-10-22T09:02:13.592Z,39558.6,1634893289,full,ni_sequenzen,NI_Sequenzen,5,,,,,,,,,,,,,
,Move,canvas.Screen,0_1_0_5,down,response,,39554,39553.38,39558.6,40538,979.4000000000015,40552,2021-10-22T09:02:14.597Z,40558.08,1634893289,full,ni_sequenzen,NI_Sequenzen,6,,,,,,,,,,,,,
,Move,canvas.Screen,0_1_0_6,down,response,,40557,40556.64,40558.08,40928,369.91999999999825,40938,2021-10-22T09:02:14.983Z,40945.04,1634893289,full,ni_sequenzen,NI_Sequenzen,7,,,,,,,,,,,,,
,Move,canvas.Screen,0_1_0_7,right,response,,40945,40944.7,40945.04,41366,420.9599999999991,41394,2021-10-22T09:02:15.439Z,41400.3,1634893289,full,ni_sequenzen,NI_Sequenzen,8,,,,,,,,,,,,,
,Move,canvas.Screen,0_1_0_8,right,response,,41400,41400.02,41400.3,41772,371.6999999999971,41786,2021-10-22T09:02:15.831Z,41792.5,1634893289,full,ni_sequenzen,NI_Sequenzen,9,,,,,,,,,,,,,
,Move,canvas.Screen,0_1_0_9,down,response,,41792,41792.16,41792.5,42069,276.5,42097,2021-10-22T09:02:16.143Z,42105.54,1634893289,full,ni_sequenzen,NI_Sequenzen,10,,,,,,,,,,,,,
,Move,canvas.Screen,0_1_0_10,down,response,,42105,42105.22,42105.54,42319,213.45999999999913,42338,2021-10-22T09:02:16.384Z,42344.72,1634893289,full,ni_sequenzen,NI_Sequenzen,11,,,,,,,,,,,,,
,Move,canvas.Screen,0_1_0_11,down,response,,42344,42344.4,42344.72,42475,130.27999999999884,42498,2021-10-22T09:02:16.543Z,42523.96,1634893289,full,ni_sequenzen,NI_Sequenzen,12,,,,,,,,,,,,,
,Move,canvas.Screen,0_1_0_12,down,response,,42509,42508.8,42523.96,42773,249.04000000000087,42793,2021-10-22T09:02:16.839Z,42800.2,1634893289,full,ni_sequenzen,NI_Sequenzen,13,,,,,,,,,,,,,
,Move,canvas.Screen,0_1_0_13,right,response,,42800,42799.86,42800.2,42960,159.8000000000029,42978,2021-10-22T09:02:17.023Z,42990.36,1634893289,full,ni_sequenzen,NI_Sequenzen,14,,,,,,,,,,,,,
,Move,canvas.Screen,0_1_0_14,left,response,,42987,42987.22,42990.36,43725,734.6399999999994,43754,2021-10-22T09:02:17.799Z,43760.66,1634893289,full,ni_sequenzen,NI_Sequenzen,15,,,,,,,,,,,,,
,Move,canvas.Screen,0_1_0_15,left,response,,43760,43760.38,43760.66,43928,167.3399999999965,43946,2021-10-22T09:02:17.991Z,43956.58,1634893289,full,ni_sequenzen,NI_Sequenzen,16,,,,,,,,,,,,,
,Move,canvas.Screen,0_1_0_16,right,response,,43954,43953.98,43956.58,44038,81.41999999999825,44050,2021-10-22T09:02:18.095Z,44056.44,1634893289,full,ni_sequenzen,NI_Sequenzen,17,,,,,,,,,,,,,
,Move,canvas.Screen,0_1_0_17,left,response,,44056,44056.1,44056.44,44303,246.55999999999767,44322,2021-10-22T09:02:18.367Z,44332.84,1634893289,full,ni_sequenzen,NI_Sequenzen,18,,,,,,,,,,,,,
,Move,canvas.Screen,0_1_0_18,down,response,,44333,44332.32,44332.84,44554,221.1600000000035,44562,2021-10-22T09:02:18.607Z,44568.22,1634893289,full,ni_sequenzen,NI_Sequenzen,19,,,,,,,,,,,,,
,Move,canvas.Screen,0_1_0_19,down,response,,44568,44567.88,44568.22,45022,453.77999999999884,45042,2021-10-22T09:02:19.087Z,45048.12,1634893289,full,ni_sequenzen,NI_Sequenzen,20,,,,,,,,,,,,,
,Move,canvas.Screen,0_1_0_20,down,response,,45048,45047.82,45048.12,45225,176.87999999999738,45234,2021-10-22T09:02:19.279Z,45256.04,1634893289,full,ni_sequenzen,NI_Sequenzen,21,,,,,,,,,,,,,
,Move,canvas.Screen,0_1_0_21,down,response,,45242,45242.36,45256.04,45366,109.95999999999913,45383,2021-10-22T09:02:19.429Z,45389.24,1634893289,full,ni_sequenzen,NI_Sequenzen,22,,,,,,,,,,,,,
,Move,canvas.Screen,0_1_0_22,down,response,,45386,45386.78,45389.24,45506,116.76000000000204,45522,2021-10-22T09:02:19.567Z,45539.18,1634893289,full,ni_sequenzen,NI_Sequenzen,23,,,,,,,,,,,,,
,Move,canvas.Screen,0_1_0_23,down,response,,45531,45531.02,45539.18,45632,92.81999999999971,45649,2021-10-22T09:02:19.695Z,45672.48,1634893289,full,ni_sequenzen,NI_Sequenzen,24,,,,,,,,,,,,,
,Move,canvas.Screen,0_1_0_24,right,response,,45660,45659.74,45672.48,47256,1583.5199999999968,47271,2021-10-22T09:02:21.316Z,47275.12,1634893289,full,ni_sequenzen,NI_Sequenzen,25,,,,,,,,,,,,,
,Move,canvas.Screen,0_1_0_25,left,response,,47274,47274.86,47275.12,47725,449.8799999999974,47737,2021-10-22T09:02:21.782Z,47743.6,1634893289,full,ni_sequenzen,NI_Sequenzen,26,,,,,,,,,,,,,
,Move,canvas.Screen,0_1_0_26,left,response,,47743,47743.28,47743.6,48022,278.40000000000146,48050,2021-10-22T09:02:22.095Z,48056,1634893289,full,ni_sequenzen,NI_Sequenzen,27,,,,,,,,,,,,,
,Move,canvas.Screen,0_1_0_27,left,response,,48055,48055.72,48056,48303,247,48329,2021-10-22T09:02:22.374Z,48337.7,1634893289,full,ni_sequenzen,NI_Sequenzen,28,,,,,,,,,,,,,
,Move,canvas.Screen,0_1_0_28,right,response,,48338,48337.26,48337.7,48913,575.3000000000029,48930,2021-10-22T09:02:22.975Z,48935.44,1634893289,full,ni_sequenzen,NI_Sequenzen,29,,,,,,,,,,,,,
,Move,canvas.Screen,0_1_0_29,down,response,,48935,48935.14,48935.44,49444,508.5599999999977,49457,2021-10-22T09:02:23.503Z,49511.66,1634893289,full,ni_sequenzen,NI_Sequenzen,30,,,,,,,,,,,,,
,Loop,flow.Loop,0_1_0,-999,completion,,36395,36397.86,36398.18,49444,13045.82,49458,2021-10-22T09:02:23.503Z,49511.66,1634893289,full,ni_sequenzen,NI_Sequenzen,,,,,,,,,,,,,,
,Training_I,flow.Sequence,0_1,,completion,,36386,36397.86,36398.18,49444,13045.82,49458,2021-10-22T09:02:23.503Z,49511.66,1634893289,full,ni_sequenzen,NI_Sequenzen,,,,,,,,,,,,,,
,Screen_1,canvas.Screen,0_2_0_0,cont,response,1,49512,49511.46,49511.66,59897,10385.339999999997,59907,2021-10-22T09:02:33.952Z,60016,1634893289,full,ni_sequenzen,NI_Sequenzen,,,,,,,,,,,,,,
,Screen_2,canvas.Screen,0_2_0_1,cont,response,1,60011,60011.2,60016,65944,5928,65962,2021-10-22T09:02:40.007Z,65967.44,1634893289,full,ni_sequenzen,NI_Sequenzen,,,,,,,,,,,,,,
,Screen_3,canvas.Screen,0_2_0_2,cont,response,1,65967,65967.12,65967.44,73742,7774.559999999998,73754,2021-10-22T09:02:47.799Z,73862.58,1634893289,full,ni_sequenzen,NI_Sequenzen,,,,,,,,,,,,,,
,Screen_4,canvas.Screen,0_2_0_3,cont,response,1,73862,73862.22,73862.58,79742,5879.419999999998,79754,2021-10-22T09:02:53.800Z,79759.42,1634893289,full,ni_sequenzen,NI_Sequenzen,,,,,,,,,,,,,,
,Screen_5,canvas.Screen,0_2_0_4,cont,response,1,79759,79759.08,79759.42,86991,7231.580000000002,87000,2021-10-22T09:03:01.045Z,87087.12,1634893289,full,ni_sequenzen,NI_Sequenzen,,,,,,,,,,,,,,
,Screen_6,canvas.Screen,0_2_0_5,cont,response,1,87081,87080.76,87087.12,97960,10872.880000000005,97979,2021-10-22T09:03:12.023Z,98182.66,1634893289,full,ni_sequenzen,NI_Sequenzen,,,,,,,,,,,,,,
,Sequence,flow.Sequence,0_2_0,,completion,1,49511,49511.46,49511.66,97960,48448.34,97979,2021-10-22T09:03:12.024Z,98182.66,1634893289,full,ni_sequenzen,NI_Sequenzen,,,,,,,,,,,,,,
,Screen_1,canvas.Screen,0_2_1_0,,skipped,2,97984,,,97984,,97984,2021-10-22T09:03:12.030Z,98182.66,1634893289,full,ni_sequenzen,NI_Sequenzen,,,,,,,,,,,,,,
,Screen_2,canvas.Screen,0_2_1_1,,skipped,2,97986,,,97984,,97986,2021-10-22T09:03:12.031Z,98182.66,1634893289,full,ni_sequenzen,NI_Sequenzen,,,,,,,,,,,,,,
,Screen_3,canvas.Screen,0_2_1_2,,skipped,2,97987,,,97984,,97987,2021-10-22T09:03:12.032Z,98182.66,1634893289,full,ni_sequenzen,NI_Sequenzen,,,,,,,,,,,,,,
,Screen_4,canvas.Screen,0_2_1_3,,skipped,2,97988,,,97984,,97988,2021-10-22T09:03:12.033Z,98182.66,1634893289,full,ni_sequenzen,NI_Sequenzen,,,,,,,,,,,,,,
,Screen_5,canvas.Screen,0_2_1_4,,skipped,2,97990,,,97984,,97990,2021-10-22T09:03:12.035Z,98182.66,1634893289,full,ni_sequenzen,NI_Sequenzen,,,,,,,,,,,,,,
,Screen_6,canvas.Screen,0_2_1_5,,skipped,2,97992,,,97984,,97992,2021-10-22T09:03:12.037Z,98182.66,1634893289,full,ni_sequenzen,NI_Sequenzen,,,,,,,,,,,,,,
,Sequence,flow.Sequence,0_2_1,,completion,2,97982,,,97984,,97992,2021-10-22T09:03:12.037Z,98182.66,1634893289,full,ni_sequenzen,NI_Sequenzen,,,,,,,,,,,,,,
,Screen_1,canvas.Screen,0_2_2_0,,skipped,3,97994,,,97994,,97994,2021-10-22T09:03:12.040Z,98182.66,1634893289,full,ni_sequenzen,NI_Sequenzen,,,,,,,,,,,,,,
,Screen_2,canvas.Screen,0_2_2_1,,skipped,3,97995,,,97994,,97995,2021-10-22T09:03:12.040Z,98182.66,1634893289,full,ni_sequenzen,NI_Sequenzen,,,,,,,,,,,,,,
,Screen_3,canvas.Screen,0_2_2_2,,skipped,3,97996,,,97994,,97996,2021-10-22T09:03:12.042Z,98182.66,1634893289,full,ni_sequenzen,NI_Sequenzen,,,,,,,,,,,,,,
,Screen_4,canvas.Screen,0_2_2_3,,skipped,3,97997,,,97994,,97997,2021-10-22T09:03:12.042Z,98182.66,1634893289,full,ni_sequenzen,NI_Sequenzen,,,,,,,,,,,,,,
,Screen_5,canvas.Screen,0_2_2_4,,skipped,3,97999,,,97994,,97999,2021-10-22T09:03:12.044Z,98182.66,1634893289,full,ni_sequenzen,NI_Sequenzen,,,,,,,,,,,,,,
,Screen_6,canvas.Screen,0_2_2_5,,skipped,3,97999,,,97994,,98000,2021-10-22T09:03:12.045Z,98182.66,1634893289,full,ni_sequenzen,NI_Sequenzen,,,,,,,,,,,,,,
,Sequence,flow.Sequence,0_2_2,,completion,3,97993,,,97994,,98000,2021-10-22T09:03:12.045Z,98182.66,1634893289,full,ni_sequenzen,NI_Sequenzen,,,,,,,,,,,,,,
,Screen_1,canvas.Screen,0_2_3_0,,skipped,4,98001,,,98001,,98001,2021-10-22T09:03:12.047Z,98182.66,1634893289,full,ni_sequenzen,NI_Sequenzen,,,,,,,,,,,,,,
,Screen_2,canvas.Screen,0_2_3_1,,skipped,4,98002,,,98001,,98002,2021-10-22T09:03:12.047Z,98182.66,1634893289,full,ni_sequenzen,NI_Sequenzen,,,,,,,,,,,,,,
,Screen_3,canvas.Screen,0_2_3_2,,skipped,4,98004,,,98001,,98004,2021-10-22T09:03:12.049Z,98182.66,1634893289,full,ni_sequenzen,NI_Sequenzen,,,,,,,,,,,,,,
,Screen_4,canvas.Screen,0_2_3_3,,skipped,4,98005,,,98001,,98005,2021-10-22T09:03:12.050Z,98182.66,1634893289,full,ni_sequenzen,NI_Sequenzen,,,,,,,,,,,,,,
,Screen_5,canvas.Screen,0_2_3_4,,skipped,4,98006,,,98001,,98006,2021-10-22T09:03:12.052Z,98182.66,1634893289,full,ni_sequenzen,NI_Sequenzen,,,,,,,,,,,,,,
,Screen_6,canvas.Screen,0_2_3_5,,skipped,4,98007,,,98001,,98007,2021-10-22T09:03:12.053Z,98182.66,1634893289,full,ni_sequenzen,NI_Sequenzen,,,,,,,,,,,,,,
,Sequence,flow.Sequence,0_2_3,,completion,4,98000,,,98001,,98007,2021-10-22T09:03:12.053Z,98182.66,1634893289,full,ni_sequenzen,NI_Sequenzen,,,,,,,,,,,,,,
,Screen_1,canvas.Screen,0_2_4_0,,skipped,5,98009,,,98009,,98009,2021-10-22T09:03:12.054Z,98182.66,1634893289,full,ni_sequenzen,NI_Sequenzen,,,,,,,,,,,,,,
,Screen_2,canvas.Screen,0_2_4_1,,skipped,5,98010,,,98009,,98010,2021-10-22T09:03:12.055Z,98182.66,1634893289,full,ni_sequenzen,NI_Sequenzen,,,,,,,,,,,,,,
,Screen_3,canvas.Screen,0_2_4_2,,skipped,5,98011,,,98009,,98011,2021-10-22T09:03:12.056Z,98182.66,1634893289,full,ni_sequenzen,NI_Sequenzen,,,,,,,,,,,,,,
,Screen_4,canvas.Screen,0_2_4_3,,skipped,5,98013,,,98009,,98013,2021-10-22T09:03:12.058Z,98182.66,1634893289,full,ni_sequenzen,NI_Sequenzen,,,,,,,,,,,,,,
,Screen_5,canvas.Screen,0_2_4_4,,skipped,5,98014,,,98009,,98014,2021-10-22T09:03:12.059Z,98182.66,1634893289,full,ni_sequenzen,NI_Sequenzen,,,,,,,,,,,,,,
,Screen_6,canvas.Screen,0_2_4_5,,skipped,5,98014,,,98009,,98014,2021-10-22T09:03:12.059Z,98182.66,1634893289,full,ni_sequenzen,NI_Sequenzen,,,,,,,,,,,,,,
,Sequence,flow.Sequence,0_2_4,,completion,5,98008,,,98009,,98015,2021-10-22T09:03:12.059Z,98182.66,1634893289,full,ni_sequenzen,NI_Sequenzen,,,,,,,,,,,,,,
,Screen_1,canvas.Screen,0_2_5_0,,skipped,6,98016,,,98016,,98016,2021-10-22T09:03:12.061Z,98182.66,1634893289,full,ni_sequenzen,NI_Sequenzen,,,,,,,,,,,,,,
,Screen_2,canvas.Screen,0_2_5_1,,skipped,6,98017,,,98016,,98017,2021-10-22T09:03:12.062Z,98182.66,1634893289,full,ni_sequenzen,NI_Sequenzen,,,,,,,,,,,,,,
,Screen_3,canvas.Screen,0_2_5_2,,skipped,6,98017,,,98016,,98017,2021-10-22T09:03:12.062Z,98182.66,1634893289,full,ni_sequenzen,NI_Sequenzen,,,,,,,,,,,,,,
,Screen_4,canvas.Screen,0_2_5_3,,skipped,6,98019,,,98016,,98019,2021-10-22T09:03:12.063Z,98182.66,1634893289,full,ni_sequenzen,NI_Sequenzen,,,,,,,,,,,,,,
,Screen_5,canvas.Screen,0_2_5_4,,skipped,6,98020,,,98016,,98020,2021-10-22T09:03:12.064Z,98182.66,1634893289,full,ni_sequenzen,NI_Sequenzen,,,,,,,,,,,,,,
,Screen_6,canvas.Screen,0_2_5_5,,skipped,6,98020,,,98016,,98021,2021-10-22T09:03:12.066Z,98182.66,1634893289,full,ni_sequenzen,NI_Sequenzen,,,,,,,,,,,,,,
,Sequence,flow.Sequence,0_2_5,,completion,6,98015,,,98016,,98021,2021-10-22T09:03:12.066Z,98182.66,1634893289,full,ni_sequenzen,NI_Sequenzen,,,,,,,,,,,,,,
,Screen_1,canvas.Screen,0_2_6_0,,skipped,7,98023,,,98023,,98023,2021-10-22T09:03:12.068Z,98182.66,1634893289,full,ni_sequenzen,NI_Sequenzen,,,,,,,,,,,,,,
,Screen_2,canvas.Screen,0_2_6_1,,skipped,7,98024,,,98023,,98024,2021-10-22T09:03:12.069Z,98182.66,1634893289,full,ni_sequenzen,NI_Sequenzen,,,,,,,,,,,,,,
,Screen_3,canvas.Screen,0_2_6_2,,skipped,7,98025,,,98023,,98025,2021-10-22T09:03:12.070Z,98182.66,1634893289,full,ni_sequenzen,NI_Sequenzen,,,,,,,,,,,,,,
,Screen_4,canvas.Screen,0_2_6_3,,skipped,7,98025,,,98023,,98025,2021-10-22T09:03:12.071Z,98182.66,1634893289,full,ni_sequenzen,NI_Sequenzen,,,,,,,,,,,,,,
,Screen_5,canvas.Screen,0_2_6_4,,skipped,7,98026,,,98023,,98026,2021-10-22T09:03:12.072Z,98182.66,1634893289,full,ni_sequenzen,NI_Sequenzen,,,,,,,,,,,,,,
,Screen_6,canvas.Screen,0_2_6_5,,skipped,7,98027,,,98023,,98027,2021-10-22T09:03:12.073Z,98182.66,1634893289,full,ni_sequenzen,NI_Sequenzen,,,,,,,,,,,,,,
,Sequence,flow.Sequence,0_2_6,,completion,7,98021,,,98023,,98028,2021-10-22T09:03:12.073Z,98182.66,1634893289,full,ni_sequenzen,NI_Sequenzen,,,,,,,,,,,,,,
,Screen_1,canvas.Screen,0_2_7_0,,skipped,8,98029,,,98029,,98029,2021-10-22T09:03:12.074Z,98182.66,1634893289,full,ni_sequenzen,NI_Sequenzen,,,,,,,,,,,,,,
,Screen_2,canvas.Screen,0_2_7_1,,skipped,8,98030,,,98029,,98030,2021-10-22T09:03:12.076Z,98182.66,1634893289,full,ni_sequenzen,NI_Sequenzen,,,,,,,,,,,,,,
,Screen_3,canvas.Screen,0_2_7_2,,skipped,8,98031,,,98029,,98031,2021-10-22T09:03:12.076Z,98182.66,1634893289,full,ni_sequenzen,NI_Sequenzen,,,,,,,,,,,,,,
,Screen_4,canvas.Screen,0_2_7_3,,skipped,8,98032,,,98029,,98032,2021-10-22T09:03:12.077Z,98182.66,1634893289,full,ni_sequenzen,NI_Sequenzen,,,,,,,,,,,,,,
,Screen_5,canvas.Screen,0_2_7_4,,skipped,8,98033,,,98029,,98033,2021-10-22T09:03:12.078Z,98182.66,1634893289,full,ni_sequenzen,NI_Sequenzen,,,,,,,,,,,,,,
,Screen_6,canvas.Screen,0_2_7_5,,skipped,8,98034,,,98029,,98034,2021-10-22T09:03:12.079Z,98182.66,1634893289,full,ni_sequenzen,NI_Sequenzen,,,,,,,,,,,,,,
,Sequence,flow.Sequence,0_2_7,,completion,8,98028,,,98029,,98034,2021-10-22T09:03:12.079Z,98182.66,1634893289,full,ni_sequenzen,NI_Sequenzen,,,,,,,,,,,,,,
,Screen_1,canvas.Screen,0_2_8_0,,skipped,9,98035,,,98035,,98035,2021-10-22T09:03:12.080Z,98182.66,1634893289,full,ni_sequenzen,NI_Sequenzen,,,,,,,,,,,,,,
,Screen_2,canvas.Screen,0_2_8_1,,skipped,9,98036,,,98035,,98036,2021-10-22T09:03:12.081Z,98182.66,1634893289,full,ni_sequenzen,NI_Sequenzen,,,,,,,,,,,,,,
,Screen_3,canvas.Screen,0_2_8_2,,skipped,9,98037,,,98035,,98037,2021-10-22T09:03:12.082Z,98182.66,1634893289,full,ni_sequenzen,NI_Sequenzen,,,,,,,,,,,,,,
,Screen_4,canvas.Screen,0_2_8_3,,skipped,9,98038,,,98035,,98038,2021-10-22T09:03:12.082Z,98182.66,1634893289,full,ni_sequenzen,NI_Sequenzen,,,,,,,,,,,,,,
,Screen_5,canvas.Screen,0_2_8_4,,skipped,9,98039,,,98035,,98039,2021-10-22T09:03:12.083Z,98182.66,1634893289,full,ni_sequenzen,NI_Sequenzen,,,,,,,,,,,,,,
,Screen_6,canvas.Screen,0_2_8_5,,skipped,9,98040,,,98035,,98040,2021-10-22T09:03:12.084Z,98182.66,1634893289,full,ni_sequenzen,NI_Sequenzen,,,,,,,,,,,,,,
,Sequence,flow.Sequence,0_2_8,,completion,9,98034,,,98035,,98040,2021-10-22T09:03:12.084Z,98182.66,1634893289,full,ni_sequenzen,NI_Sequenzen,,,,,,,,,,,,,,
,Screen_1,canvas.Screen,0_2_9_0,,skipped,10,98041,,,98041,,98041,2021-10-22T09:03:12.087Z,98182.66,1634893289,full,ni_sequenzen,NI_Sequenzen,,,,,,,,,,,,,,
,Screen_2,canvas.Screen,0_2_9_1,,skipped,10,98043,,,98041,,98043,2021-10-22T09:03:12.088Z,98182.66,1634893289,full,ni_sequenzen,NI_Sequenzen,,,,,,,,,,,,,,
,Screen_3,canvas.Screen,0_2_9_2,,skipped,10,98044,,,98041,,98044,2021-10-22T09:03:12.089Z,98182.66,1634893289,full,ni_sequenzen,NI_Sequenzen,,,,,,,,,,,,,,
,Screen_4,canvas.Screen,0_2_9_3,,skipped,10,98045,,,98041,,98045,2021-10-22T09:03:12.090Z,98182.66,1634893289,full,ni_sequenzen,NI_Sequenzen,,,,,,,,,,,,,,
,Screen_5,canvas.Screen,0_2_9_4,,skipped,10,98046,,,98041,,98046,2021-10-22T09:03:12.091Z,98182.66,1634893289,full,ni_sequenzen,NI_Sequenzen,,,,,,,,,,,,,,
,Screen_6,canvas.Screen,0_2_9_5,,skipped,10,98047,,,98041,,98047,2021-10-22T09:03:12.092Z,98182.66,1634893289,full,ni_sequenzen,NI_Sequenzen,,,,,,,,,,,,,,
,Sequence,flow.Sequence,0_2_9,,completion,10,98040,,,98041,,98047,2021-10-22T09:03:12.092Z,98182.66,1634893289,full,ni_sequenzen,NI_Sequenzen,,,,,,,,,,,,,,
,Screen_1,canvas.Screen,0_2_10_0,,skipped,11,98048,,,98048,,98048,2021-10-22T09:03:12.093Z,98182.66,1634893289,full,ni_sequenzen,NI_Sequenzen,,,,,,,,,,,,,,
,Screen_2,canvas.Screen,0_2_10_1,,skipped,11,98049,,,98048,,98049,2021-10-22T09:03:12.094Z,98182.66,1634893289,full,ni_sequenzen,NI_Sequenzen,,,,,,,,,,,,,,
,Screen_3,canvas.Screen,0_2_10_2,,skipped,11,98049,,,98048,,98049,2021-10-22T09:03:12.094Z,98182.66,1634893289,full,ni_sequenzen,NI_Sequenzen,,,,,,,,,,,,,,
,Screen_4,canvas.Screen,0_2_10_3,,skipped,11,98050,,,98048,,98050,2021-10-22T09:03:12.095Z,98182.66,1634893289,full,ni_sequenzen,NI_Sequenzen,,,,,,,,,,,,,,
,Screen_5,canvas.Screen,0_2_10_4,,skipped,11,98050,,,98048,,98051,2021-10-22T09:03:12.096Z,98182.66,1634893289,full,ni_sequenzen,NI_Sequenzen,,,,,,,,,,,,,,
,Screen_6,canvas.Screen,0_2_10_5,,skipped,11,98051,,,98048,,98051,2021-10-22T09:03:12.097Z,98182.66,1634893289,full,ni_sequenzen,NI_Sequenzen,,,,,,,,,,,,,,
,Sequence,flow.Sequence,0_2_10,,completion,11,98047,,,98048,,98051,2021-10-22T09:03:12.097Z,98182.66,1634893289,full,ni_sequenzen,NI_Sequenzen,,,,,,,,,,,,,,
,Screen_1,canvas.Screen,0_2_11_0,,skipped,12,98053,,,98053,,98053,2021-10-22T09:03:12.098Z,98182.66,1634893289,full,ni_sequenzen,NI_Sequenzen,,,,,,,,,,,,,,
,Screen_2,canvas.Screen,0_2_11_1,,skipped,12,98054,,,98053,,98054,2021-10-22T09:03:12.100Z,98182.66,1634893289,full,ni_sequenzen,NI_Sequenzen,,,,,,,,,,,,,,
,Screen_3,canvas.Screen,0_2_11_2,,skipped,12,98055,,,98053,,98055,2021-10-22T09:03:12.100Z,98182.66,1634893289,full,ni_sequenzen,NI_Sequenzen,,,,,,,,,,,,,,
,Screen_4,canvas.Screen,0_2_11_3,,skipped,12,98056,,,98053,,98056,2021-10-22T09:03:12.101Z,98182.66,1634893289,full,ni_sequenzen,NI_Sequenzen,,,,,,,,,,,,,,
,Screen_5,canvas.Screen,0_2_11_4,,skipped,12,98057,,,98053,,98057,2021-10-22T09:03:12.103Z,98182.66,1634893289,full,ni_sequenzen,NI_Sequenzen,,,,,,,,,,,,,,
,Screen_6,canvas.Screen,0_2_11_5,,skipped,12,98058,,,98053,,98058,2021-10-22T09:03:12.104Z,98182.66,1634893289,full,ni_sequenzen,NI_Sequenzen,,,,,,,,,,,,,,
,Sequence,flow.Sequence,0_2_11,,completion,12,98052,,,98053,,98058,2021-10-22T09:03:12.104Z,98182.66,1634893289,full,ni_sequenzen,NI_Sequenzen,,,,,,,,,,,,,,
,Screen_1,canvas.Screen,0_2_12_0,,skipped,13,98060,,,98060,,98060,2021-10-22T09:03:12.105Z,98182.66,1634893289,full,ni_sequenzen,NI_Sequenzen,,,,,,,,,,,,,,
,Screen_2,canvas.Screen,0_2_12_1,,skipped,13,98061,,,98060,,98061,2021-10-22T09:03:12.106Z,98182.66,1634893289,full,ni_sequenzen,NI_Sequenzen,,,,,,,,,,,,,,
,Screen_3,canvas.Screen,0_2_12_2,,skipped,13,98062,,,98060,,98062,2021-10-22T09:03:12.107Z,98182.66,1634893289,full,ni_sequenzen,NI_Sequenzen,,,,,,,,,,,,,,
,Screen_4,canvas.Screen,0_2_12_3,,skipped,13,98062,,,98060,,98062,2021-10-22T09:03:12.107Z,98182.66,1634893289,full,ni_sequenzen,NI_Sequenzen,,,,,,,,,,,,,,
,Screen_5,canvas.Screen,0_2_12_4,,skipped,13,98063,,,98060,,98063,2021-10-22T09:03:12.108Z,98182.66,1634893289,full,ni_sequenzen,NI_Sequenzen,,,,,,,,,,,,,,
,Screen_6,canvas.Screen,0_2_12_5,,skipped,13,98064,,,98060,,98064,2021-10-22T09:03:12.109Z,98182.66,1634893289,full,ni_sequenzen,NI_Sequenzen,,,,,,,,,,,,,,
,Sequence,flow.Sequence,0_2_12,,completion,13,98059,,,98060,,98064,2021-10-22T09:03:12.109Z,98182.66,1634893289,full,ni_sequenzen,NI_Sequenzen,,,,,,,,,,,,,,
,Screen_1,canvas.Screen,0_2_13_0,,skipped,14,98065,,,98065,,98065,2021-10-22T09:03:12.110Z,98182.66,1634893289,full,ni_sequenzen,NI_Sequenzen,,,,,,,,,,,,,,
,Screen_2,canvas.Screen,0_2_13_1,,skipped,14,98066,,,98065,,98066,2021-10-22T09:03:12.110Z,98182.66,1634893289,full,ni_sequenzen,NI_Sequenzen,,,,,,,,,,,,,,
,Screen_3,canvas.Screen,0_2_13_2,,skipped,14,98067,,,98065,,98067,2021-10-22T09:03:12.111Z,98182.66,1634893289,full,ni_sequenzen,NI_Sequenzen,,,,,,,,,,,,,,
,Screen_4,canvas.Screen,0_2_13_3,,skipped,14,98068,,,98065,,98068,2021-10-22T09:03:12.112Z,98182.66,1634893289,full,ni_sequenzen,NI_Sequenzen,,,,,,,,,,,,,,
,Screen_5,canvas.Screen,0_2_13_4,,skipped,14,98068,,,98065,,98068,2021-10-22T09:03:12.113Z,98182.66,1634893289,full,ni_sequenzen,NI_Sequenzen,,,,,,,,,,,,,,
,Screen_6,canvas.Screen,0_2_13_5,,skipped,14,98069,,,98065,,98069,2021-10-22T09:03:12.114Z,98182.66,1634893289,full,ni_sequenzen,NI_Sequenzen,,,,,,,,,,,,,,
,Sequence,flow.Sequence,0_2_13,,completion,14,98064,,,98065,,98069,2021-10-22T09:03:12.114Z,98182.66,1634893289,full,ni_sequenzen,NI_Sequenzen,,,,,,,,,,,,,,
,Screen_1,canvas.Screen,0_2_14_0,,skipped,15,98070,,,98070,,98070,2021-10-22T09:03:12.115Z,98182.66,1634893289,full,ni_sequenzen,NI_Sequenzen,,,,,,,,,,,,,,
,Screen_2,canvas.Screen,0_2_14_1,,skipped,15,98070,,,98070,,98071,2021-10-22T09:03:12.116Z,98182.66,1634893289,full,ni_sequenzen,NI_Sequenzen,,,,,,,,,,,,,,
,Screen_3,canvas.Screen,0_2_14_2,,skipped,15,98071,,,98070,,98072,2021-10-22T09:03:12.117Z,98182.66,1634893289,full,ni_sequenzen,NI_Sequenzen,,,,,,,,,,,,,,
,Screen_4,canvas.Screen,0_2_14_3,,skipped,15,98072,,,98070,,98072,2021-10-22T09:03:12.118Z,98182.66,1634893289,full,ni_sequenzen,NI_Sequenzen,,,,,,,,,,,,,,
,Screen_5,canvas.Screen,0_2_14_4,,skipped,15,98073,,,98070,,98074,2021-10-22T09:03:12.119Z,98182.66,1634893289,full,ni_sequenzen,NI_Sequenzen,,,,,,,,,,,,,,
,Screen_6,canvas.Screen,0_2_14_5,,skipped,15,98074,,,98070,,98074,2021-10-22T09:03:12.120Z,98182.66,1634893289,full,ni_sequenzen,NI_Sequenzen,,,,,,,,,,,,,,
,Sequence,flow.Sequence,0_2_14,,completion,15,98070,,,98070,,98074,2021-10-22T09:03:12.120Z,98182.66,1634893289,full,ni_sequenzen,NI_Sequenzen,,,,,,,,,,,,,,
,Screen_1,canvas.Screen,0_2_15_0,,skipped,16,98075,,,98075,,98076,2021-10-22T09:03:12.121Z,98182.66,1634893289,full,ni_sequenzen,NI_Sequenzen,,,,,,,,,,,,,,
,Screen_2,canvas.Screen,0_2_15_1,,skipped,16,98076,,,98075,,98076,2021-10-22T09:03:12.122Z,98182.66,1634893289,full,ni_sequenzen,NI_Sequenzen,,,,,,,,,,,,,,
,Screen_3,canvas.Screen,0_2_15_2,,skipped,16,98077,,,98075,,98077,2021-10-22T09:03:12.123Z,98182.66,1634893289,full,ni_sequenzen,NI_Sequenzen,,,,,,,,,,,,,,
,Screen_4,canvas.Screen,0_2_15_3,,skipped,16,98078,,,98075,,98078,2021-10-22T09:03:12.123Z,98182.66,1634893289,full,ni_sequenzen,NI_Sequenzen,,,,,,,,,,,,,,
,Screen_5,canvas.Screen,0_2_15_4,,skipped,16,98079,,,98075,,98079,2021-10-22T09:03:12.124Z,98182.66,1634893289,full,ni_sequenzen,NI_Sequenzen,,,,,,,,,,,,,,
,Screen_6,canvas.Screen,0_2_15_5,,skipped,16,98080,,,98075,,98080,2021-10-22T09:03:12.125Z,98182.66,1634893289,full,ni_sequenzen,NI_Sequenzen,,,,,,,,,,,,,,
,Sequence,flow.Sequence,0_2_15,,completion,16,98075,,,98075,,98080,2021-10-22T09:03:12.125Z,98182.66,1634893289,full,ni_sequenzen,NI_Sequenzen,,,,,,,,,,,,,,
,Screen_1,canvas.Screen,0_2_16_0,,skipped,17,98081,,,98081,,98081,2021-10-22T09:03:12.127Z,98182.66,1634893289,full,ni_sequenzen,NI_Sequenzen,,,,,,,,,,,,,,
,Screen_2,canvas.Screen,0_2_16_1,,skipped,17,98082,,,98081,,98082,2021-10-22T09:03:12.127Z,98182.66,1634893289,full,ni_sequenzen,NI_Sequenzen,,,,,,,,,,,,,,
,Screen_3,canvas.Screen,0_2_16_2,,skipped,17,98082,,,98081,,98083,2021-10-22T09:03:12.128Z,98182.66,1634893289,full,ni_sequenzen,NI_Sequenzen,,,,,,,,,,,,,,
,Screen_4,canvas.Screen,0_2_16_3,,skipped,17,98083,,,98081,,98083,2021-10-22T09:03:12.128Z,98182.66,1634893289,full,ni_sequenzen,NI_Sequenzen,,,,,,,,,,,,,,
,Screen_5,canvas.Screen,0_2_16_4,,skipped,17,98084,,,98081,,98084,2021-10-22T09:03:12.129Z,98182.66,1634893289,full,ni_sequenzen,NI_Sequenzen,,,,,,,,,,,,,,
,Screen_6,canvas.Screen,0_2_16_5,,skipped,17,98085,,,98081,,98085,2021-10-22T09:03:12.130Z,98182.66,1634893289,full,ni_sequenzen,NI_Sequenzen,,,,,,,,,,,,,,
,Sequence,flow.Sequence,0_2_16,,completion,17,98080,,,98081,,98085,2021-10-22T09:03:12.130Z,98182.66,1634893289,full,ni_sequenzen,NI_Sequenzen,,,,,,,,,,,,,,
,Screen_1,canvas.Screen,0_2_17_0,,skipped,18,98086,,,98086,,98086,2021-10-22T09:03:12.131Z,98182.66,1634893289,full,ni_sequenzen,NI_Sequenzen,,,,,,,,,,,,,,
,Screen_2,canvas.Screen,0_2_17_1,,skipped,18,98087,,,98086,,98087,2021-10-22T09:03:12.132Z,98182.66,1634893289,full,ni_sequenzen,NI_Sequenzen,,,,,,,,,,,,,,
,Screen_3,canvas.Screen,0_2_17_2,,skipped,18,98088,,,98086,,98088,2021-10-22T09:03:12.133Z,98182.66,1634893289,full,ni_sequenzen,NI_Sequenzen,,,,,,,,,,,,,,
,Screen_4,canvas.Screen,0_2_17_3,,skipped,18,98090,,,98086,,98090,2021-10-22T09:03:12.135Z,98182.66,1634893289,full,ni_sequenzen,NI_Sequenzen,,,,,,,,,,,,,,
,Screen_5,canvas.Screen,0_2_17_4,,skipped,18,98090,,,98086,,98090,2021-10-22T09:03:12.135Z,98182.66,1634893289,full,ni_sequenzen,NI_Sequenzen,,,,,,,,,,,,,,
,Screen_6,canvas.Screen,0_2_17_5,,skipped,18,98091,,,98086,,98091,2021-10-22T09:03:12.136Z,98182.66,1634893289,full,ni_sequenzen,NI_Sequenzen,,,,,,,,,,,,,,
,Sequence,flow.Sequence,0_2_17,,completion,18,98085,,,98086,,98091,2021-10-22T09:03:12.136Z,98182.66,1634893289,full,ni_sequenzen,NI_Sequenzen,,,,,,,,,,,,,,
,Screen_1,canvas.Screen,0_2_18_0,,skipped,19,98091,,,98091,,98091,2021-10-22T09:03:12.137Z,98182.66,1634893289,full,ni_sequenzen,NI_Sequenzen,,,,,,,,,,,,,,
,Screen_2,canvas.Screen,0_2_18_1,,skipped,19,98092,,,98091,,98092,2021-10-22T09:03:12.138Z,98182.66,1634893289,full,ni_sequenzen,NI_Sequenzen,,,,,,,,,,,,,,
,Screen_3,canvas.Screen,0_2_18_2,,skipped,19,98093,,,98091,,98093,2021-10-22T09:03:12.138Z,98182.66,1634893289,full,ni_sequenzen,NI_Sequenzen,,,,,,,,,,,,,,
,Screen_4,canvas.Screen,0_2_18_3,,skipped,19,98094,,,98091,,98094,2021-10-22T09:03:12.140Z,98182.66,1634893289,full,ni_sequenzen,NI_Sequenzen,,,,,,,,,,,,,,
,Screen_5,canvas.Screen,0_2_18_4,,skipped,19,98095,,,98091,,98095,2021-10-22T09:03:12.141Z,98182.66,1634893289,full,ni_sequenzen,NI_Sequenzen,,,,,,,,,,,,,,
,Screen_6,canvas.Screen,0_2_18_5,,skipped,19,98096,,,98091,,98096,2021-10-22T09:03:12.142Z,98182.66,1634893289,full,ni_sequenzen,NI_Sequenzen,,,,,,,,,,,,,,
,Sequence,flow.Sequence,0_2_18,,completion,19,98091,,,98091,,98096,2021-10-22T09:03:12.142Z,98182.66,1634893289,full,ni_sequenzen,NI_Sequenzen,,,,,,,,,,,,,,
,Screen_1,canvas.Screen,0_2_19_0,,skipped,20,98097,,,98097,,98097,2021-10-22T09:03:12.143Z,98182.66,1634893289,full,ni_sequenzen,NI_Sequenzen,,,,,,,,,,,,,,
,Screen_2,canvas.Screen,0_2_19_1,,skipped,20,98098,,,98097,,98098,2021-10-22T09:03:12.143Z,98182.66,1634893289,full,ni_sequenzen,NI_Sequenzen,,,,,,,,,,,,,,
,Screen_3,canvas.Screen,0_2_19_2,,skipped,20,98099,,,98097,,98099,2021-10-22T09:03:12.144Z,98182.66,1634893289,full,ni_sequenzen,NI_Sequenzen,,,,,,,,,,,,,,
,Screen_4,canvas.Screen,0_2_19_3,,skipped,20,98100,,,98097,,98100,2021-10-22T09:03:12.145Z,98182.66,1634893289,full,ni_sequenzen,NI_Sequenzen,,,,,,,,,,,,,,
,Screen_5,canvas.Screen,0_2_19_4,,skipped,20,98100,,,98097,,98100,2021-10-22T09:03:12.146Z,98182.66,1634893289,full,ni_sequenzen,NI_Sequenzen,,,,,,,,,,,,,,
,Screen_6,canvas.Screen,0_2_19_5,,skipped,20,98101,,,98097,,98101,2021-10-22T09:03:12.147Z,98182.66,1634893289,full,ni_sequenzen,NI_Sequenzen,,,,,,,,,,,,,,
,Sequence,flow.Sequence,0_2_19,,completion,20,98096,,,98097,,98101,2021-10-22T09:03:12.147Z,98182.66,1634893289,full,ni_sequenzen,NI_Sequenzen,,,,,,,,,,,,,,
,Screen_1,canvas.Screen,0_2_20_0,,skipped,21,98103,,,98103,,98103,2021-10-22T09:03:12.148Z,98182.66,1634893289,full,ni_sequenzen,NI_Sequenzen,,,,,,,,,,,,,,
,Screen_2,canvas.Screen,0_2_20_1,,skipped,21,98103,,,98103,,98103,2021-10-22T09:03:12.149Z,98182.66,1634893289,full,ni_sequenzen,NI_Sequenzen,,,,,,,,,,,,,,
,Screen_3,canvas.Screen,0_2_20_2,,skipped,21,98104,,,98103,,98104,2021-10-22T09:03:12.149Z,98182.66,1634893289,full,ni_sequenzen,NI_Sequenzen,,,,,,,,,,,,,,
,Screen_4,canvas.Screen,0_2_20_3,,skipped,21,98105,,,98103,,98105,2021-10-22T09:03:12.150Z,98182.66,1634893289,full,ni_sequenzen,NI_Sequenzen,,,,,,,,,,,,,,
,Screen_5,canvas.Screen,0_2_20_4,,skipped,21,98106,,,98103,,98106,2021-10-22T09:03:12.151Z,98182.66,1634893289,full,ni_sequenzen,NI_Sequenzen,,,,,,,,,,,,,,
,Screen_6,canvas.Screen,0_2_20_5,,skipped,21,98107,,,98103,,98107,2021-10-22T09:03:12.152Z,98182.66,1634893289,full,ni_sequenzen,NI_Sequenzen,,,,,,,,,,,,,,
,Sequence,flow.Sequence,0_2_20,,completion,21,98102,,,98103,,98107,2021-10-22T09:03:12.152Z,98182.66,1634893289,full,ni_sequenzen,NI_Sequenzen,,,,,,,,,,,,,,
,Screen_1,canvas.Screen,0_2_21_0,,skipped,22,98109,,,98109,,98109,2021-10-22T09:03:12.153Z,98182.66,1634893289,full,ni_sequenzen,NI_Sequenzen,,,,,,,,,,,,,,
,Screen_2,canvas.Screen,0_2_21_1,,skipped,22,98109,,,98109,,98109,2021-10-22T09:03:12.154Z,98182.66,1634893289,full,ni_sequenzen,NI_Sequenzen,,,,,,,,,,,,,,
,Screen_3,canvas.Screen,0_2_21_2,,skipped,22,98110,,,98109,,98110,2021-10-22T09:03:12.155Z,98182.66,1634893289,full,ni_sequenzen,NI_Sequenzen,,,,,,,,,,,,,,
,Screen_4,canvas.Screen,0_2_21_3,,skipped,22,98111,,,98109,,98111,2021-10-22T09:03:12.156Z,98182.66,1634893289,full,ni_sequenzen,NI_Sequenzen,,,,,,,,,,,,,,
,Screen_5,canvas.Screen,0_2_21_4,,skipped,22,98112,,,98109,,98112,2021-10-22T09:03:12.157Z,98182.66,1634893289,full,ni_sequenzen,NI_Sequenzen,,,,,,,,,,,,,,
,Screen_6,canvas.Screen,0_2_21_5,,skipped,22,98113,,,98109,,98113,2021-10-22T09:03:12.158Z,98182.66,1634893289,full,ni_sequenzen,NI_Sequenzen,,,,,,,,,,,,,,
,Sequence,flow.Sequence,0_2_21,,completion,22,98108,,,98109,,98113,2021-10-22T09:03:12.158Z,98182.66,1634893289,full,ni_sequenzen,NI_Sequenzen,,,,,,,,,,,,,,
,Screen_1,canvas.Screen,0_2_22_0,,skipped,23,98113,,,98113,,98113,2021-10-22T09:03:12.159Z,98182.66,1634893289,full,ni_sequenzen,NI_Sequenzen,,,,,,,,,,,,,,
,Screen_2,canvas.Screen,0_2_22_1,,skipped,23,98114,,,98113,,98114,2021-10-22T09:03:12.160Z,98182.66,1634893289,full,ni_sequenzen,NI_Sequenzen,,,,,,,,,,,,,,
,Screen_3,canvas.Screen,0_2_22_2,,skipped,23,98115,,,98113,,98115,2021-10-22T09:03:12.160Z,98182.66,1634893289,full,ni_sequenzen,NI_Sequenzen,,,,,,,,,,,,,,
,Screen_4,canvas.Screen,0_2_22_3,,skipped,23,98116,,,98113,,98116,2021-10-22T09:03:12.162Z,98182.66,1634893289,full,ni_sequenzen,NI_Sequenzen,,,,,,,,,,,,,,
,Screen_5,canvas.Screen,0_2_22_4,,skipped,23,98116,,,98113,,98116,2021-10-22T09:03:12.162Z,98182.66,1634893289,full,ni_sequenzen,NI_Sequenzen,,,,,,,,,,,,,,
,Screen_6,canvas.Screen,0_2_22_5,,skipped,23,98117,,,98113,,98117,2021-10-22T09:03:12.163Z,98182.66,1634893289,full,ni_sequenzen,NI_Sequenzen,,,,,,,,,,,,,,
,Sequence,flow.Sequence,0_2_22,,completion,23,98113,,,98113,,98117,2021-10-22T09:03:12.163Z,98182.66,1634893289,full,ni_sequenzen,NI_Sequenzen,,,,,,,,,,,,,,
,Screen_1,canvas.Screen,0_2_23_0,,skipped,24,98120,,,98120,,98120,2021-10-22T09:03:12.165Z,98182.66,1634893289,full,ni_sequenzen,NI_Sequenzen,,,,,,,,,,,,,,
,Screen_2,canvas.Screen,0_2_23_1,,skipped,24,98121,,,98120,,98121,2021-10-22T09:03:12.166Z,98182.66,1634893289,full,ni_sequenzen,NI_Sequenzen,,,,,,,,,,,,,,
,Screen_3,canvas.Screen,0_2_23_2,,skipped,24,98121,,,98120,,98121,2021-10-22T09:03:12.167Z,98182.66,1634893289,full,ni_sequenzen,NI_Sequenzen,,,,,,,,,,,,,,
,Screen_4,canvas.Screen,0_2_23_3,,skipped,24,98123,,,98120,,98123,2021-10-22T09:03:12.168Z,98182.66,1634893289,full,ni_sequenzen,NI_Sequenzen,,,,,,,,,,,,,,
,Screen_5,canvas.Screen,0_2_23_4,,skipped,24,98124,,,98120,,98124,2021-10-22T09:03:12.169Z,98182.66,1634893289,full,ni_sequenzen,NI_Sequenzen,,,,,,,,,,,,,,
,Screen_6,canvas.Screen,0_2_23_5,,skipped,24,98125,,,98120,,98125,2021-10-22T09:03:12.170Z,98182.66,1634893289,full,ni_sequenzen,NI_Sequenzen,,,,,,,,,,,,,,
,Sequence,flow.Sequence,0_2_23,,completion,24,98118,,,98120,,98125,2021-10-22T09:03:12.170Z,98182.66,1634893289,full,ni_sequenzen,NI_Sequenzen,,,,,,,,,,,,,,
,Screen_1,canvas.Screen,0_2_24_0,,skipped,25,98127,,,98127,,98127,2021-10-22T09:03:12.172Z,98182.66,1634893289,full,ni_sequenzen,NI_Sequenzen,,,,,,,,,,,,,,
,Screen_2,canvas.Screen,0_2_24_1,,skipped,25,98128,,,98127,,98128,2021-10-22T09:03:12.173Z,98182.66,1634893289,full,ni_sequenzen,NI_Sequenzen,,,,,,,,,,,,,,
,Screen_3,canvas.Screen,0_2_24_2,,skipped,25,98129,,,98127,,98129,2021-10-22T09:03:12.174Z,98182.66,1634893289,full,ni_sequenzen,NI_Sequenzen,,,,,,,,,,,,,,
,Screen_4,canvas.Screen,0_2_24_3,,skipped,25,98130,,,98127,,98130,2021-10-22T09:03:12.174Z,98182.66,1634893289,full,ni_sequenzen,NI_Sequenzen,,,,,,,,,,,,,,
,Screen_5,canvas.Screen,0_2_24_4,,skipped,25,98131,,,98127,,98131,2021-10-22T09:03:12.175Z,98182.66,1634893289,full,ni_sequenzen,NI_Sequenzen,,,,,,,,,,,,,,
,Screen_6,canvas.Screen,0_2_24_5,,skipped,25,98131,,,98127,,98131,2021-10-22T09:03:12.177Z,98182.66,1634893289,full,ni_sequenzen,NI_Sequenzen,,,,,,,,,,,,,,
,Sequence,flow.Sequence,0_2_24,,completion,25,98125,,,98127,,98132,2021-10-22T09:03:12.177Z,98182.66,1634893289,full,ni_sequenzen,NI_Sequenzen,,,,,,,,,,,,,,
,Screen_1,canvas.Screen,0_2_25_0,,skipped,26,98133,,,98133,,98133,2021-10-22T09:03:12.177Z,98182.66,1634893289,full,ni_sequenzen,NI_Sequenzen,,,,,,,,,,,,,,
,Screen_2,canvas.Screen,0_2_25_1,,skipped,26,98133,,,98133,,98133,2021-10-22T09:03:12.178Z,98182.66,1634893289,full,ni_sequenzen,NI_Sequenzen,,,,,,,,,,,,,,
,Screen_3,canvas.Screen,0_2_25_2,,skipped,26,98134,,,98133,,98134,2021-10-22T09:03:12.179Z,98182.66,1634893289,full,ni_sequenzen,NI_Sequenzen,,,,,,,,,,,,,,
,Screen_4,canvas.Screen,0_2_25_3,,skipped,26,98135,,,98133,,98135,2021-10-22T09:03:12.180Z,98182.66,1634893289,full,ni_sequenzen,NI_Sequenzen,,,,,,,,,,,,,,
,Screen_5,canvas.Screen,0_2_25_4,,skipped,26,98135,,,98133,,98135,2021-10-22T09:03:12.180Z,98182.66,1634893289,full,ni_sequenzen,NI_Sequenzen,,,,,,,,,,,,,,
,Screen_6,canvas.Screen,0_2_25_5,,skipped,26,98136,,,98133,,98136,2021-10-22T09:03:12.181Z,98182.66,1634893289,full,ni_sequenzen,NI_Sequenzen,,,,,,,,,,,,,,
,Sequence,flow.Sequence,0_2_25,,completion,26,98132,,,98133,,98136,2021-10-22T09:03:12.182Z,98182.66,1634893289,full,ni_sequenzen,NI_Sequenzen,,,,,,,,,,,,,,
,Screen_1,canvas.Screen,0_2_26_0,,skipped,27,98137,,,98137,,98137,2021-10-22T09:03:12.183Z,98182.66,1634893289,full,ni_sequenzen,NI_Sequenzen,,,,,,,,,,,,,,
,Screen_2,canvas.Screen,0_2_26_1,,skipped,27,98139,,,98137,,98139,2021-10-22T09:03:12.184Z,98182.66,1634893289,full,ni_sequenzen,NI_Sequenzen,,,,,,,,,,,,,,
,Screen_3,canvas.Screen,0_2_26_2,,skipped,27,98139,,,98137,,98139,2021-10-22T09:03:12.185Z,98182.66,1634893289,full,ni_sequenzen,NI_Sequenzen,,,,,,,,,,,,,,
,Screen_4,canvas.Screen,0_2_26_3,,skipped,27,98140,,,98137,,98140,2021-10-22T09:03:12.186Z,98182.66,1634893289,full,ni_sequenzen,NI_Sequenzen,,,,,,,,,,,,,,
,Screen_5,canvas.Screen,0_2_26_4,,skipped,27,98141,,,98137,,98141,2021-10-22T09:03:12.187Z,98182.66,1634893289,full,ni_sequenzen,NI_Sequenzen,,,,,,,,,,,,,,
,Screen_6,canvas.Screen,0_2_26_5,,skipped,27,98142,,,98137,,98142,2021-10-22T09:03:12.187Z,98182.66,1634893289,full,ni_sequenzen,NI_Sequenzen,,,,,,,,,,,,,,
,Sequence,flow.Sequence,0_2_26,,completion,27,98136,,,98137,,98142,2021-10-22T09:03:12.187Z,98182.66,1634893289,full,ni_sequenzen,NI_Sequenzen,,,,,,,,,,,,,,
,Screen_1,canvas.Screen,0_2_27_0,,skipped,28,98143,,,98143,,98143,2021-10-22T09:03:12.188Z,98182.66,1634893289,full,ni_sequenzen,NI_Sequenzen,,,,,,,,,,,,,,
,Screen_2,canvas.Screen,0_2_27_1,,skipped,28,98144,,,98143,,98144,2021-10-22T09:03:12.189Z,98182.66,1634893289,full,ni_sequenzen,NI_Sequenzen,,,,,,,,,,,,,,
,Screen_3,canvas.Screen,0_2_27_2,,skipped,28,98145,,,98143,,98145,2021-10-22T09:03:12.190Z,98182.66,1634893289,full,ni_sequenzen,NI_Sequenzen,,,,,,,,,,,,,,
,Screen_4,canvas.Screen,0_2_27_3,,skipped,28,98147,,,98143,,98147,2021-10-22T09:03:12.192Z,98182.66,1634893289,full,ni_sequenzen,NI_Sequenzen,,,,,,,,,,,,,,
,Screen_5,canvas.Screen,0_2_27_4,,skipped,28,98148,,,98143,,98148,2021-10-22T09:03:12.192Z,98182.66,1634893289,full,ni_sequenzen,NI_Sequenzen,,,,,,,,,,,,,,
,Screen_6,canvas.Screen,0_2_27_5,,skipped,28,98148,,,98143,,98148,2021-10-22T09:03:12.193Z,98182.66,1634893289,full,ni_sequenzen,NI_Sequenzen,,,,,,,,,,,,,,
,Sequence,flow.Sequence,0_2_27,,completion,28,98142,,,98143,,98148,2021-10-22T09:03:12.193Z,98182.66,1634893289,full,ni_sequenzen,NI_Sequenzen,,,,,,,,,,,,,,
,Screen_1,canvas.Screen,0_2_28_0,,skipped,29,98149,,,98149,,98149,2021-10-22T09:03:12.194Z,98182.66,1634893289,full,ni_sequenzen,NI_Sequenzen,,,,,,,,,,,,,,
,Screen_2,canvas.Screen,0_2_28_1,,skipped,29,98150,,,98149,,98150,2021-10-22T09:03:12.195Z,98182.66,1634893289,full,ni_sequenzen,NI_Sequenzen,,,,,,,,,,,,,,
,Screen_3,canvas.Screen,0_2_28_2,,skipped,29,98151,,,98149,,98151,2021-10-22T09:03:12.196Z,98182.66,1634893289,full,ni_sequenzen,NI_Sequenzen,,,,,,,,,,,,,,
,Screen_4,canvas.Screen,0_2_28_3,,skipped,29,98152,,,98149,,98152,2021-10-22T09:03:12.197Z,98182.66,1634893289,full,ni_sequenzen,NI_Sequenzen,,,,,,,,,,,,,,
,Screen_5,canvas.Screen,0_2_28_4,,skipped,29,98153,,,98149,,98153,2021-10-22T09:03:12.197Z,98182.66,1634893289,full,ni_sequenzen,NI_Sequenzen,,,,,,,,,,,,,,
,Screen_6,canvas.Screen,0_2_28_5,,skipped,29,98153,,,98149,,98153,2021-10-22T09:03:12.199Z,98182.66,1634893289,full,ni_sequenzen,NI_Sequenzen,,,,,,,,,,,,,,
,Sequence,flow.Sequence,0_2_28,,completion,29,98149,,,98149,,98153,2021-10-22T09:03:12.199Z,98182.66,1634893289,full,ni_sequenzen,NI_Sequenzen,,,,,,,,,,,,,,
,Screen_1,canvas.Screen,0_2_29_0,,skipped,30,98154,,,98154,,98154,2021-10-22T09:03:12.200Z,98182.66,1634893289,full,ni_sequenzen,NI_Sequenzen,,,,,,,,,,,,,,
,Screen_2,canvas.Screen,0_2_29_1,,skipped,30,98155,,,98154,,98155,2021-10-22T09:03:12.200Z,98182.66,1634893289,full,ni_sequenzen,NI_Sequenzen,,,,,,,,,,,,,,
,Screen_3,canvas.Screen,0_2_29_2,,skipped,30,98155,,,98154,,98155,2021-10-22T09:03:12.201Z,98182.66,1634893289,full,ni_sequenzen,NI_Sequenzen,,,,,,,,,,,,,,
,Screen_4,canvas.Screen,0_2_29_3,,skipped,30,98156,,,98154,,98156,2021-10-22T09:03:12.201Z,98182.66,1634893289,full,ni_sequenzen,NI_Sequenzen,,,,,,,,,,,,,,
,Screen_5,canvas.Screen,0_2_29_4,,skipped,30,98157,,,98154,,98157,2021-10-22T09:03:12.202Z,98182.66,1634893289,full,ni_sequenzen,NI_Sequenzen,,,,,,,,,,,,,,
,Screen_6,canvas.Screen,0_2_29_5,,skipped,30,98157,,,98154,,98157,2021-10-22T09:03:12.203Z,98182.66,1634893289,full,ni_sequenzen,NI_Sequenzen,,,,,,,,,,,,,,
,Sequence,flow.Sequence,0_2_29,,completion,30,98154,,,98154,,98157,2021-10-22T09:03:12.203Z,98182.66,1634893289,full,ni_sequenzen,NI_Sequenzen,,,,,,,,,,,,,,
,Instructions_II,flow.Loop,0_2,,completion,,49510,49511.46,49511.66,98154,48642.34,98159,2021-10-22T09:03:12.203Z,98182.66,1634893289,full,ni_sequenzen,NI_Sequenzen,,,,,,,,,,,,,,
,Move,canvas.Screen,0_3_0_0_0_0,down,response,,98182,98182.34,98182.66,100710,2527.3399999999965,100720,2021-10-22T09:03:14.765Z,100730.26,1634893289,full,ni_sequenzen,NI_Sequenzen,1,0,,,,,,,,,,,,
,Move,canvas.Screen,0_3_0_0_0_1,left,response,,100730,100729.98,100730.26,101741,1010.7400000000052,101745,2021-10-22T09:03:15.791Z,101755,1634893289,full,ni_sequenzen,NI_Sequenzen,2,0,,,,,,,,,,,,
,Move,canvas.Screen,0_3_0_0_0_2,right,response,,101755,101754.68,101755,102741,986,102764,2021-10-22T09:03:16.810Z,102770.56,1634893289,full,ni_sequenzen,NI_Sequenzen,3,0,,,,,,,,,,,,
,Move,canvas.Screen,0_3_0_0_0_3,right,response,,102770,102770.26,102770.56,105460,2689.4400000000023,105465,2021-10-22T09:03:19.511Z,105530.44,1634893289,full,ni_sequenzen,NI_Sequenzen,4,0,,,,,,,,,,,,
,Move,canvas.Screen,0_3_0_0_0_4,-999,skipped,,105479,,,105460,,105479,2021-10-22T09:03:19.525Z,105530.44,1634893289,full,ni_sequenzen,NI_Sequenzen,5,0,,,,,,,,,,,,
,Move,canvas.Screen,0_3_0_0_0_5,-999,skipped,,105489,,,105460,,105489,2021-10-22T09:03:19.534Z,105530.44,1634893289,full,ni_sequenzen,NI_Sequenzen,6,0,,,,,,,,,,,,
,Move,canvas.Screen,0_3_0_0_0_6,-999,skipped,,105495,,,105460,,105496,2021-10-22T09:03:19.540Z,105530.44,1634893289,full,ni_sequenzen,NI_Sequenzen,7,0,,,,,,,,,,,,
,Move,canvas.Screen,0_3_0_0_0_7,-999,skipped,,105500,,,105460,,105500,2021-10-22T09:03:19.545Z,105530.44,1634893289,full,ni_sequenzen,NI_Sequenzen,8,0,,,,,,,,,,,,
,Move,canvas.Screen,0_3_0_0_0_8,-999,skipped,,105504,,,105460,,105504,2021-10-22T09:03:19.550Z,105530.44,1634893289,full,ni_sequenzen,NI_Sequenzen,9,0,,,,,,,,,,,,
,Move,canvas.Screen,0_3_0_0_0_9,-999,skipped,,105509,,,105460,,105509,2021-10-22T09:03:19.554Z,105530.44,1634893289,full,ni_sequenzen,NI_Sequenzen,10,0,,,,,,,,,,,,
,Move,canvas.Screen,0_3_0_0_0_10,-999,skipped,,105513,,,105460,,105513,2021-10-22T09:03:19.557Z,105530.44,1634893289,full,ni_sequenzen,NI_Sequenzen,11,0,,,,,,,,,,,,
,Move,canvas.Screen,0_3_0_0_0_11,-999,skipped,,105516,,,105460,,105516,2021-10-22T09:03:19.561Z,105530.44,1634893289,full,ni_sequenzen,NI_Sequenzen,12,0,,,,,,,,,,,,
,Move,canvas.Screen,0_3_0_0_0_12,-999,skipped,,105520,,,105460,,105520,2021-10-22T09:03:19.565Z,105530.44,1634893289,full,ni_sequenzen,NI_Sequenzen,13,0,,,,,,,,,,,,
,Move,canvas.Screen,0_3_0_0_0_13,-999,skipped,,105524,,,105460,,105524,2021-10-22T09:03:19.569Z,105530.44,1634893289,full,ni_sequenzen,NI_Sequenzen,14,0,,,,,,,,,,,,
,Move,canvas.Screen,0_3_0_0_0_14,-999,skipped,,105527,,,105460,,105527,2021-10-22T09:03:19.572Z,105530.44,1634893289,full,ni_sequenzen,NI_Sequenzen,15,0,,,,,,,,,,,,
,Loop,flow.Loop,0_3_0_0_0,-999,completion,,98178,98182.34,98182.66,105460,7277.3399999999965,105527,2021-10-22T09:03:19.572Z,105530.44,1634893289,full,ni_sequenzen,NI_Sequenzen,,0,,,,,,,,,,,,
,Feedback,canvas.Screen,0_3_0_0_1,,timeout,,105530,105530.14,105530.44,109510.28,3996.4400000000023,109512,2021-10-22T09:03:23.557Z,109526.88,1634893289,full,ni_sequenzen,NI_Sequenzen,,0,,,,,,,,,,,,
,Trial,flow.Sequence,0_3_0_0,,completion,,98173,98182.34,98182.66,109510.28,11327.619999999995,109512,2021-10-22T09:03:23.557Z,109543.54,1634893289,full,ni_sequenzen,NI_Sequenzen,,0,,,,,,,,,,,,
,Move,canvas.Screen,0_3_0_1_0_0,left,response,,109524,109526.88,109543.54,111335,1791.4600000000064,111337,2021-10-22T09:03:25.382Z,111345.76,1634893289,full,ni_sequenzen,NI_Sequenzen,1,1,,,,,,,,,,,,
,Move,canvas.Screen,0_3_0_1_0_1,down,response,,111346,111345.46,111345.76,114710,3364.2400000000052,114722,2021-10-22T09:03:28.767Z,114730.38,1634893289,full,ni_sequenzen,NI_Sequenzen,2,1,,,,,,,,,,,,
,Move,canvas.Screen,0_3_0_1_0_2,down,response,,114730,114730.08,114730.38,115569,838.6199999999953,115579,2021-10-22T09:03:29.624Z,115590.64,1634893289,full,ni_sequenzen,NI_Sequenzen,3,1,,,,,,,,,,,,
,Move,canvas.Screen,0_3_0_1_0_3,left,response,,115590,115590.28,115590.64,116475,884.3600000000006,116481,2021-10-22T09:03:30.526Z,116543.68,1634893289,full,ni_sequenzen,NI_Sequenzen,4,1,,,,,,,,,,,,
,Move,canvas.Screen,0_3_0_1_0_4,-999,skipped,,116494,,,116475,,116494,2021-10-22T09:03:30.539Z,116543.68,1634893289,full,ni_sequenzen,NI_Sequenzen,5,1,,,,,,,,,,,,
,Move,canvas.Screen,0_3_0_1_0_5,-999,skipped,,116501,,,116475,,116501,2021-10-22T09:03:30.546Z,116543.68,1634893289,full,ni_sequenzen,NI_Sequenzen,6,1,,,,,,,,,,,,
,Move,canvas.Screen,0_3_0_1_0_6,-999,skipped,,116506,,,116475,,116506,2021-10-22T09:03:30.551Z,116543.68,1634893289,full,ni_sequenzen,NI_Sequenzen,7,1,,,,,,,,,,,,
,Move,canvas.Screen,0_3_0_1_0_7,-999,skipped,,116511,,,116475,,116511,2021-10-22T09:03:30.556Z,116543.68,1634893289,full,ni_sequenzen,NI_Sequenzen,8,1,,,,,,,,,,,,
,Move,canvas.Screen,0_3_0_1_0_8,-999,skipped,,116516,,,116475,,116516,2021-10-22T09:03:30.561Z,116543.68,1634893289,full,ni_sequenzen,NI_Sequenzen,9,1,,,,,,,,,,,,
,Move,canvas.Screen,0_3_0_1_0_9,-999,skipped,,116520,,,116475,,116520,2021-10-22T09:03:30.565Z,116543.68,1634893289,full,ni_sequenzen,NI_Sequenzen,10,1,,,,,,,,,,,,
,Move,canvas.Screen,0_3_0_1_0_10,-999,skipped,,116524,,,116475,,116524,2021-10-22T09:03:30.569Z,116543.68,1634893289,full,ni_sequenzen,NI_Sequenzen,11,1,,,,,,,,,,,,
,Move,canvas.Screen,0_3_0_1_0_11,-999,skipped,,116528,,,116475,,116528,2021-10-22T09:03:30.573Z,116543.68,1634893289,full,ni_sequenzen,NI_Sequenzen,12,1,,,,,,,,,,,,
,Move,canvas.Screen,0_3_0_1_0_12,-999,skipped,,116531,,,116475,,116532,2021-10-22T09:03:30.577Z,116543.68,1634893289,full,ni_sequenzen,NI_Sequenzen,13,1,,,,,,,,,,,,
,Move,canvas.Screen,0_3_0_1_0_13,-999,skipped,,116536,,,116475,,116536,2021-10-22T09:03:30.581Z,116543.68,1634893289,full,ni_sequenzen,NI_Sequenzen,14,1,,,,,,,,,,,,
,Move,canvas.Screen,0_3_0_1_0_14,-999,skipped,,116540,,,116475,,116540,2021-10-22T09:03:30.585Z,116543.68,1634893289,full,ni_sequenzen,NI_Sequenzen,15,1,,,,,,,,,,,,
,Loop,flow.Loop,0_3_0_1_0,-999,completion,,109519,109526.88,109543.54,116475,6931.460000000006,116540,2021-10-22T09:03:30.585Z,116543.68,1634893289,full,ni_sequenzen,NI_Sequenzen,,1,,,,,,,,,,,,
,Feedback,canvas.Screen,0_3_0_1_1,,timeout,,116544,116543.36,116543.68,120522.16,4003.9000000000087,120524,2021-10-22T09:03:34.569Z,120547.58,1634893289,full,ni_sequenzen,NI_Sequenzen,,1,,,,,,,,,,,,
,Trial,flow.Sequence,0_3_0_1,,completion,,109513,109526.88,109543.54,120522.16,10978.62000000001,120526,2021-10-22T09:03:34.571Z,120555.24,1634893289,full,ni_sequenzen,NI_Sequenzen,,1,,,,,,,,,,,,
,Move,canvas.Screen,0_3_0_2_0_0,right,response,,120547,120547.58,120555.24,120756,200.75999999999476,120763,2021-10-22T09:03:34.808Z,120783.9,1634893289,full,ni_sequenzen,NI_Sequenzen,1,2,,,,,,,,,,,,
,Move,canvas.Screen,0_3_0_2_0_1,down,response,,120784,120783.56,120783.9,122303,1519.1000000000058,122313,2021-10-22T09:03:36.358Z,122331.34,1634893289,full,ni_sequenzen,NI_Sequenzen,2,2,,,,,,,,,,,,
,Move,canvas.Screen,0_3_0_2_0_2,left,response,,122331,122331,122331.34,123475,1143.6600000000035,123490,2021-10-22T09:03:37.536Z,123499.8,1634893289,full,ni_sequenzen,NI_Sequenzen,3,2,,,,,,,,,,,,
,Move,canvas.Screen,0_3_0_2_0_3,right,response,,123499,123499.48,123499.8,124725,1225.199999999997,124738,2021-10-22T09:03:38.784Z,124792.6,1634893289,full,ni_sequenzen,NI_Sequenzen,4,2,,,,,,,,,,,,
,Move,canvas.Screen,0_3_0_2_0_4,-999,skipped,,124747,,,124725,,124747,2021-10-22T09:03:38.792Z,124792.6,1634893289,full,ni_sequenzen,NI_Sequenzen,5,2,,,,,,,,,,,,
,Move,canvas.Screen,0_3_0_2_0_5,-999,skipped,,124752,,,124725,,124753,2021-10-22T09:03:38.798Z,124792.6,1634893289,full,ni_sequenzen,NI_Sequenzen,6,2,,,,,,,,,,,,
,Move,canvas.Screen,0_3_0_2_0_6,-999,skipped,,124757,,,124725,,124757,2021-10-22T09:03:38.802Z,124792.6,1634893289,full,ni_sequenzen,NI_Sequenzen,7,2,,,,,,,,,,,,
,Move,canvas.Screen,0_3_0_2_0_7,-999,skipped,,124760,,,124725,,124760,2021-10-22T09:03:38.806Z,124792.6,1634893289,full,ni_sequenzen,NI_Sequenzen,8,2,,,,,,,,,,,,
,Move,canvas.Screen,0_3_0_2_0_8,-999,skipped,,124764,,,124725,,124764,2021-10-22T09:03:38.810Z,124792.6,1634893289,full,ni_sequenzen,NI_Sequenzen,9,2,,,,,,,,,,,,
,Move,canvas.Screen,0_3_0_2_0_9,-999,skipped,,124768,,,124725,,124768,2021-10-22T09:03:38.813Z,124792.6,1634893289,full,ni_sequenzen,NI_Sequenzen,10,2,,,,,,,,,,,,
,Move,canvas.Screen,0_3_0_2_0_10,-999,skipped,,124772,,,124725,,124772,2021-10-22T09:03:38.817Z,124792.6,1634893289,full,ni_sequenzen,NI_Sequenzen,11,2,,,,,,,,,,,,
,Move,canvas.Screen,0_3_0_2_0_11,-999,skipped,,124777,,,124725,,124777,2021-10-22T09:03:38.821Z,124792.6,1634893289,full,ni_sequenzen,NI_Sequenzen,12,2,,,,,,,,,,,,
,Move,canvas.Screen,0_3_0_2_0_12,-999,skipped,,124780,,,124725,,124780,2021-10-22T09:03:38.826Z,124792.6,1634893289,full,ni_sequenzen,NI_Sequenzen,13,2,,,,,,,,,,,,
,Move,canvas.Screen,0_3_0_2_0_13,-999,skipped,,124785,,,124725,,124785,2021-10-22T09:03:38.830Z,124792.6,1634893289,full,ni_sequenzen,NI_Sequenzen,14,2,,,,,,,,,,,,
,Move,canvas.Screen,0_3_0_2_0_14,-999,skipped,,124788,,,124725,,124788,2021-10-22T09:03:38.834Z,124792.6,1634893289,full,ni_sequenzen,NI_Sequenzen,15,2,,,,,,,,,,,,
,Loop,flow.Loop,0_3_0_2_0,-999,completion,,120540,120547.58,120555.24,124725,4169.759999999995,124788,2021-10-22T09:03:38.834Z,124792.6,1634893289,full,ni_sequenzen,NI_Sequenzen,,2,,,,,,,,,,,,
,Feedback,canvas.Screen,0_3_0_2_1,,timeout,,124792,124792.24,124792.6,128768.4,3992.8600000000006,128770,2021-10-22T09:03:42.814Z,128785.46,1634893289,full,ni_sequenzen,NI_Sequenzen,,2,,,,,,,,,,,,
,Trial,flow.Sequence,0_3_0_2,,completion,,120529,120547.58,120555.24,128768.4,8213.159999999989,128770,2021-10-22T09:03:42.815Z,128801.54,1634893289,full,ni_sequenzen,NI_Sequenzen,,2,,,,,,,,,,,,
,Move,canvas.Screen,0_3_0_3_0_0,down,response,,128785,128785.46,128801.54,130600,1798.4600000000064,130609,2021-10-22T09:03:44.654Z,130617.38,1634893289,full,ni_sequenzen,NI_Sequenzen,1,3,,,,,,,,,,,,
,Move,canvas.Screen,0_3_0_3_0_1,left,response,,130617,130617.04,130617.38,131475,857.6199999999953,131497,2021-10-22T09:03:45.543Z,131505.78,1634893289,full,ni_sequenzen,NI_Sequenzen,2,3,,,,,,,,,,,,
,Move,canvas.Screen,0_3_0_3_0_2,right,response,,131506,131505.5,131505.78,132381,875.2200000000012,132402,2021-10-22T09:03:46.447Z,132409.82,1634893289,full,ni_sequenzen,NI_Sequenzen,3,3,,,,,,,,,,,,
,Move,canvas.Screen,0_3_0_3_0_3,down,response,,132409,132409.5,132409.82,134506,2096.179999999993,134522,2021-10-22T09:03:48.567Z,134529.52,1634893289,full,ni_sequenzen,NI_Sequenzen,4,3,,,,,,,,,,,,
,Move,canvas.Screen,0_3_0_3_0_4,right,response,,134529,134529.26,134529.52,135928,1398.4800000000105,135953,2021-10-22T09:03:49.999Z,135995.48,1634893289,full,ni_sequenzen,NI_Sequenzen,5,3,,,,,,,,,,,,
,Move,canvas.Screen,0_3_0_3_0_5,-999,skipped,,135962,,,135928,,135962,2021-10-22T09:03:50.007Z,135995.48,1634893289,full,ni_sequenzen,NI_Sequenzen,6,3,,,,,,,,,,,,
,Move,canvas.Screen,0_3_0_3_0_6,-999,skipped,,135966,,,135928,,135966,2021-10-22T09:03:50.011Z,135995.48,1634893289,full,ni_sequenzen,NI_Sequenzen,7,3,,,,,,,,,,,,
,Move,canvas.Screen,0_3_0_3_0_7,-999,skipped,,135970,,,135928,,135970,2021-10-22T09:03:50.015Z,135995.48,1634893289,full,ni_sequenzen,NI_Sequenzen,8,3,,,,,,,,,,,,
,Move,canvas.Screen,0_3_0_3_0_8,-999,skipped,,135973,,,135928,,135973,2021-10-22T09:03:50.017Z,135995.48,1634893289,full,ni_sequenzen,NI_Sequenzen,9,3,,,,,,,,,,,,
,Move,canvas.Screen,0_3_0_3_0_9,-999,skipped,,135975,,,135928,,135975,2021-10-22T09:03:50.021Z,135995.48,1634893289,full,ni_sequenzen,NI_Sequenzen,10,3,,,,,,,,,,,,
,Move,canvas.Screen,0_3_0_3_0_10,-999,skipped,,135979,,,135928,,135979,2021-10-22T09:03:50.024Z,135995.48,1634893289,full,ni_sequenzen,NI_Sequenzen,11,3,,,,,,,,,,,,
,Move,canvas.Screen,0_3_0_3_0_11,-999,skipped,,135982,,,135928,,135982,2021-10-22T09:03:50.028Z,135995.48,1634893289,full,ni_sequenzen,NI_Sequenzen,12,3,,,,,,,,,,,,
,Move,canvas.Screen,0_3_0_3_0_12,-999,skipped,,135986,,,135928,,135986,2021-10-22T09:03:50.031Z,135995.48,1634893289,full,ni_sequenzen,NI_Sequenzen,13,3,,,,,,,,,,,,
,Move,canvas.Screen,0_3_0_3_0_13,-999,skipped,,135989,,,135928,,135989,2021-10-22T09:03:50.034Z,135995.48,1634893289,full,ni_sequenzen,NI_Sequenzen,14,3,,,,,,,,,,,,
,Move,canvas.Screen,0_3_0_3_0_14,-999,skipped,,135993,,,135928,,135993,2021-10-22T09:03:50.037Z,135995.48,1634893289,full,ni_sequenzen,NI_Sequenzen,15,3,,,,,,,,,,,,
,Loop,flow.Loop,0_3_0_3_0,-999,completion,,128781,128785.46,128801.54,135928,7126.460000000006,135993,2021-10-22T09:03:50.037Z,135995.48,1634893289,full,ni_sequenzen,NI_Sequenzen,,3,,,,,,,,,,,,
,Feedback,canvas.Screen,0_3_0_3_1,,timeout,,135995,135995.16,135995.48,139979.88,4000.9400000000023,139981,2021-10-22T09:03:54.026Z,139996.42,1634893289,full,ni_sequenzen,NI_Sequenzen,,3,,,,,,,,,,,,
,Trial,flow.Sequence,0_3_0_3,,completion,,128771,128785.46,128801.54,139979.88,11178.340000000011,139982,2021-10-22T09:03:54.026Z,140013.1,1634893289,full,ni_sequenzen,NI_Sequenzen,,3,,,,,,,,,,,,
,Move,canvas.Screen,0_3_0_4_0_0,left,response,,139995,139996.42,140013.1,141194,1180.8999999999942,141210,2021-10-22T09:03:55.254Z,141217.72,1634893289,full,ni_sequenzen,NI_Sequenzen,1,4,,,,,,,,,,,,
,Move,canvas.Screen,0_3_0_4_0_1,down,response,,141217,141217.5,141217.72,142631,1413.2799999999988,142640,2021-10-22T09:03:56.685Z,142645.98,1634893289,full,ni_sequenzen,NI_Sequenzen,2,4,,,,,,,,,,,,
,Move,canvas.Screen,0_3_0_4_0_2,left,response,,142645,142645.64,142645.98,143569,923.0199999999895,143578,2021-10-22T09:03:57.624Z,143585.36,1634893289,full,ni_sequenzen,NI_Sequenzen,3,4,,,,,,,,,,,,
,Move,canvas.Screen,0_3_0_4_0_3,down,response,,143585,143585.06,143585.36,145272,1686.640000000014,145289,2021-10-22T09:03:59.335Z,145351.18,1634893289,full,ni_sequenzen,NI_Sequenzen,4,4,,,,,,,,,,,,
,Move,canvas.Screen,0_3_0_4_0_4,-999,skipped,,145302,,,145272,,145302,2021-10-22T09:03:59.347Z,145351.18,1634893289,full,ni_sequenzen,NI_Sequenzen,5,4,,,,,,,,,,,,
,Move,canvas.Screen,0_3_0_4_0_5,-999,skipped,,145311,,,145272,,145311,2021-10-22T09:03:59.357Z,145351.18,1634893289,full,ni_sequenzen,NI_Sequenzen,6,4,,,,,,,,,,,,
,Move,canvas.Screen,0_3_0_4_0_6,-999,skipped,,145317,,,145272,,145317,2021-10-22T09:03:59.362Z,145351.18,1634893289,full,ni_sequenzen,NI_Sequenzen,7,4,,,,,,,,,,,,
,Move,canvas.Screen,0_3_0_4_0_7,-999,skipped,,145321,,,145272,,145321,2021-10-22T09:03:59.367Z,145351.18,1634893289,full,ni_sequenzen,NI_Sequenzen,8,4,,,,,,,,,,,,
,Move,canvas.Screen,0_3_0_4_0_8,-999,skipped,,145325,,,145272,,145325,2021-10-22T09:03:59.371Z,145351.18,1634893289,full,ni_sequenzen,NI_Sequenzen,9,4,,,,,,,,,,,,
,Move,canvas.Screen,0_3_0_4_0_9,-999,skipped,,145329,,,145272,,145329,2021-10-22T09:03:59.375Z,145351.18,1634893289,full,ni_sequenzen,NI_Sequenzen,10,4,,,,,,,,,,,,
,Move,canvas.Screen,0_3_0_4_0_10,-999,skipped,,145334,,,145272,,145334,2021-10-22T09:03:59.378Z,145351.18,1634893289,full,ni_sequenzen,NI_Sequenzen,11,4,,,,,,,,,,,,
,Move,canvas.Screen,0_3_0_4_0_11,-999,skipped,,145337,,,145272,,145337,2021-10-22T09:03:59.382Z,145351.18,1634893289,full,ni_sequenzen,NI_Sequenzen,12,4,,,,,,,,,,,,
,Move,canvas.Screen,0_3_0_4_0_12,-999,skipped,,145341,,,145272,,145341,2021-10-22T09:03:59.387Z,145351.18,1634893289,full,ni_sequenzen,NI_Sequenzen,13,4,,,,,,,,,,,,
,Move,canvas.Screen,0_3_0_4_0_13,-999,skipped,,145345,,,145272,,145345,2021-10-22T09:03:59.390Z,145351.18,1634893289,full,ni_sequenzen,NI_Sequenzen,14,4,,,,,,,,,,,,
,Move,canvas.Screen,0_3_0_4_0_14,-999,skipped,,145348,,,145272,,145348,2021-10-22T09:03:59.394Z,145351.18,1634893289,full,ni_sequenzen,NI_Sequenzen,15,4,,,,,,,,,,,,
,Loop,flow.Loop,0_3_0_4_0,-999,completion,,139991,139996.42,140013.1,145272,5258.899999999994,145348,2021-10-22T09:03:59.394Z,145351.18,1634893289,full,ni_sequenzen,NI_Sequenzen,,4,,,,,,,,,,,,
,Feedback,canvas.Screen,0_3_0_4_1,,timeout,,145351,145350.86,145351.18,149342.24,4007.720000000001,149343,2021-10-22T09:04:03.388Z,149358.9,1634893289,full,ni_sequenzen,NI_Sequenzen,,4,,,,,,,,,,,,
,Trial,flow.Sequence,0_3_0_4,,completion,,139982,139996.42,140013.1,149342.24,9329.139999999985,149343,2021-10-22T09:04:03.389Z,149375.54,1634893289,full,ni_sequenzen,NI_Sequenzen,,4,,,,,,,,,,,,
,Move,canvas.Screen,0_3_0_5_0_0,right,response,,149352,149358.9,149375.54,150522,1146.4599999999919,150554,2021-10-22T09:04:04.598Z,150560.94,1634893289,full,ni_sequenzen,NI_Sequenzen,1,5,,,,,,,,,,,,
,Move,canvas.Screen,0_3_0_5_0_1,down,response,,150561,150560.64,150560.94,151553,992.0599999999977,151561,2021-10-22T09:04:05.607Z,151568.92,1634893289,full,ni_sequenzen,NI_Sequenzen,2,5,,,,,,,,,,,,
,Move,canvas.Screen,0_3_0_5_0_2,left,response,,151569,151568.64,151568.92,152381,812.0799999999872,152401,2021-10-22T09:04:06.446Z,152408.92,1634893289,full,ni_sequenzen,NI_Sequenzen,3,5,,,,,,,,,,,,
,Move,canvas.Screen,0_3_0_5_0_3,down,response,,152409,152408.64,152408.92,154631,2222.079999999987,154643,2021-10-22T09:04:08.688Z,154656.58,1634893289,full,ni_sequenzen,NI_Sequenzen,4,5,,,,,,,,,,,,
,Move,canvas.Screen,0_3_0_5_0_4,right,response,,154655,154655,154656.58,156569,1912.4200000000128,156578,2021-10-22T09:04:10.623Z,156634.88,1634893289,full,ni_sequenzen,NI_Sequenzen,5,5,,,,,,,,,,,,
,Move,canvas.Screen,0_3_0_5_0_5,-999,skipped,,156588,,,156569,,156588,2021-10-22T09:04:10.633Z,156634.88,1634893289,full,ni_sequenzen,NI_Sequenzen,6,5,,,,,,,,,,,,
,Move,canvas.Screen,0_3_0_5_0_6,-999,skipped,,156594,,,156569,,156594,2021-10-22T09:04:10.639Z,156634.88,1634893289,full,ni_sequenzen,NI_Sequenzen,7,5,,,,,,,,,,,,
,Move,canvas.Screen,0_3_0_5_0_7,-999,skipped,,156600,,,156569,,156600,2021-10-22T09:04:10.645Z,156634.88,1634893289,full,ni_sequenzen,NI_Sequenzen,8,5,,,,,,,,,,,,
,Move,canvas.Screen,0_3_0_5_0_8,-999,skipped,,156605,,,156569,,156605,2021-10-22T09:04:10.650Z,156634.88,1634893289,full,ni_sequenzen,NI_Sequenzen,9,5,,,,,,,,,,,,
,Move,canvas.Screen,0_3_0_5_0_9,-999,skipped,,156610,,,156569,,156610,2021-10-22T09:04:10.655Z,156634.88,1634893289,full,ni_sequenzen,NI_Sequenzen,10,5,,,,,,,,,,,,
,Move,canvas.Screen,0_3_0_5_0_10,-999,skipped,,156614,,,156569,,156614,2021-10-22T09:04:10.659Z,156634.88,1634893289,full,ni_sequenzen,NI_Sequenzen,11,5,,,,,,,,,,,,
,Move,canvas.Screen,0_3_0_5_0_11,-999,skipped,,156618,,,156569,,156618,2021-10-22T09:04:10.664Z,156634.88,1634893289,full,ni_sequenzen,NI_Sequenzen,12,5,,,,,,,,,,,,
,Move,canvas.Screen,0_3_0_5_0_12,-999,skipped,,156622,,,156569,,156622,2021-10-22T09:04:10.668Z,156634.88,1634893289,full,ni_sequenzen,NI_Sequenzen,13,5,,,,,,,,,,,,
,Move,canvas.Screen,0_3_0_5_0_13,-999,skipped,,156626,,,156569,,156626,2021-10-22T09:04:10.671Z,156634.88,1634893289,full,ni_sequenzen,NI_Sequenzen,14,5,,,,,,,,,,,,
,Move,canvas.Screen,0_3_0_5_0_14,-999,skipped,,156631,,,156569,,156631,2021-10-22T09:04:10.675Z,156634.88,1634893289,full,ni_sequenzen,NI_Sequenzen,15,5,,,,,,,,,,,,
,Loop,flow.Loop,0_3_0_5_0,-999,completion,,149348,149358.9,149375.54,156569,7193.459999999992,156631,2021-10-22T09:04:10.676Z,156634.88,1634893289,full,ni_sequenzen,NI_Sequenzen,,5,,,,,,,,,,,,
,Feedback,canvas.Screen,0_3_0_5_1,,timeout,,156635,156634.58,156634.88,160620.7,4006.899999999994,160621,2021-10-22T09:04:14.667Z,160641.78,1634893289,full,ni_sequenzen,NI_Sequenzen,,5,,,,,,,,,,,,
,Trial,flow.Sequence,0_3_0_5,,completion,,149343,149358.9,149375.54,160620.7,11245.160000000003,160622,2021-10-22T09:04:14.667Z,160653.78,1634893289,full,ni_sequenzen,NI_Sequenzen,,5,,,,,,,,,,,,
,Move,canvas.Screen,0_3_0_6_0_0,down,response,,160641,160641.78,160653.78,162225,1571.2200000000012,162242,2021-10-22T09:04:16.287Z,162249.1,1634893289,full,ni_sequenzen,NI_Sequenzen,1,6,,,,,,,,,,,,
,Move,canvas.Screen,0_3_0_6_0_1,down,response,,162249,162248.78,162249.1,164210,1960.8999999999942,164225,2021-10-22T09:04:18.271Z,164233.9,1634893289,full,ni_sequenzen,NI_Sequenzen,2,6,,,,,,,,,,,,
,Move,canvas.Screen,0_3_0_6_0_2,left,response,,164233,164233.58,164233.9,164522,288.1000000000058,164536,2021-10-22T09:04:18.581Z,164543.94,1634893289,full,ni_sequenzen,NI_Sequenzen,3,6,,,,,,,,,,,,
,Move,canvas.Screen,0_3_0_6_0_3,left,response,,164544,164543.68,164543.94,166897,2353.0599999999977,166906,2021-10-22T09:04:20.951Z,166957.56,1634893289,full,ni_sequenzen,NI_Sequenzen,4,6,,,,,,,,,,,,
,Move,canvas.Screen,0_3_0_6_0_4,-999,skipped,,166914,,,166897,,166915,2021-10-22T09:04:20.959Z,166957.56,1634893289,full,ni_sequenzen,NI_Sequenzen,5,6,,,,,,,,,,,,
,Move,canvas.Screen,0_3_0_6_0_5,-999,skipped,,166919,,,166897,,166919,2021-10-22T09:04:20.964Z,166957.56,1634893289,full,ni_sequenzen,NI_Sequenzen,6,6,,,,,,,,,,,,
,Move,canvas.Screen,0_3_0_6_0_6,-999,skipped,,166923,,,166897,,166923,2021-10-22T09:04:20.967Z,166957.56,1634893289,full,ni_sequenzen,NI_Sequenzen,7,6,,,,,,,,,,,,
,Move,canvas.Screen,0_3_0_6_0_7,-999,skipped,,166927,,,166897,,166927,2021-10-22T09:04:20.971Z,166957.56,1634893289,full,ni_sequenzen,NI_Sequenzen,8,6,,,,,,,,,,,,
,Move,canvas.Screen,0_3_0_6_0_8,-999,skipped,,166930,,,166897,,166930,2021-10-22T09:04:20.975Z,166957.56,1634893289,full,ni_sequenzen,NI_Sequenzen,9,6,,,,,,,,,,,,
,Move,canvas.Screen,0_3_0_6_0_9,-999,skipped,,166935,,,166897,,166935,2021-10-22T09:04:20.980Z,166957.56,1634893289,full,ni_sequenzen,NI_Sequenzen,10,6,,,,,,,,,,,,
,Move,canvas.Screen,0_3_0_6_0_10,-999,skipped,,166938,,,166897,,166938,2021-10-22T09:04:20.984Z,166957.56,1634893289,full,ni_sequenzen,NI_Sequenzen,11,6,,,,,,,,,,,,
,Move,canvas.Screen,0_3_0_6_0_11,-999,skipped,,166942,,,166897,,166942,2021-10-22T09:04:20.987Z,166957.56,1634893289,full,ni_sequenzen,NI_Sequenzen,12,6,,,,,,,,,,,,
,Move,canvas.Screen,0_3_0_6_0_12,-999,skipped,,166945,,,166897,,166945,2021-10-22T09:04:20.991Z,166957.56,1634893289,full,ni_sequenzen,NI_Sequenzen,13,6,,,,,,,,,,,,
,Move,canvas.Screen,0_3_0_6_0_13,-999,skipped,,166949,,,166897,,166949,2021-10-22T09:04:20.994Z,166957.56,1634893289,full,ni_sequenzen,NI_Sequenzen,14,6,,,,,,,,,,,,
,Move,canvas.Screen,0_3_0_6_0_14,-999,skipped,,166953,,,166897,,166954,2021-10-22T09:04:20.999Z,166957.56,1634893289,full,ni_sequenzen,NI_Sequenzen,15,6,,,,,,,,,,,,
,Loop,flow.Loop,0_3_0_6_0,-999,completion,,160638,160641.78,160653.78,166897,6243.220000000001,166954,2021-10-22T09:04:20.999Z,166957.56,1634893289,full,ni_sequenzen,NI_Sequenzen,,6,,,,,,,,,,,,
,Feedback,canvas.Screen,0_3_0_6_1,,timeout,,166957,166957.24,166957.56,170932.68,3991.5599999999977,170933,2021-10-22T09:04:24.979Z,170949.12,1634893289,full,ni_sequenzen,NI_Sequenzen,,6,,,,,,,,,,,,
,Trial,flow.Sequence,0_3_0_6,,completion,,160624,160641.78,160653.78,170932.68,10278.899999999994,170934,2021-10-22T09:04:24.979Z,170965.78,1634893289,full,ni_sequenzen,NI_Sequenzen,,6,,,,,,,,,,,,
,Move,canvas.Screen,0_3_0_7_0_0,down,response,,170949,170949.12,170965.78,174850,3884.220000000001,174857,2021-10-22T09:04:28.903Z,174864.88,1634893289,full,ni_sequenzen,NI_Sequenzen,1,7,,,,,,,,,,,,
,Move,canvas.Screen,0_3_0_7_0_1,left,response,,174864,174864.6,174864.88,175538,673.1199999999953,175554,2021-10-22T09:04:29.599Z,175561.72,1634893289,full,ni_sequenzen,NI_Sequenzen,2,7,,,,,,,,,,,,
,Move,canvas.Screen,0_3_0_7_0_2,right,response,,175562,175561.48,175561.72,176116,554.2799999999988,176146,2021-10-22T09:04:30.191Z,176153.52,1634893289,full,ni_sequenzen,NI_Sequenzen,3,7,,,,,,,,,,,,
,Move,canvas.Screen,0_3_0_7_0_3,right,response,,176153,176153.22,176153.52,178210,2056.4800000000105,178232,2021-10-22T09:04:32.277Z,178284.12,1634893289,full,ni_sequenzen,NI_Sequenzen,4,7,,,,,,,,,,,,
,Move,canvas.Screen,0_3_0_7_0_4,-999,skipped,,178239,,,178210,,178239,2021-10-22T09:04:32.284Z,178284.12,1634893289,full,ni_sequenzen,NI_Sequenzen,5,7,,,,,,,,,,,,
,Move,canvas.Screen,0_3_0_7_0_5,-999,skipped,,178244,,,178210,,178244,2021-10-22T09:04:32.289Z,178284.12,1634893289,full,ni_sequenzen,NI_Sequenzen,6,7,,,,,,,,,,,,
,Move,canvas.Screen,0_3_0_7_0_6,-999,skipped,,178250,,,178210,,178250,2021-10-22T09:04:32.295Z,178284.12,1634893289,full,ni_sequenzen,NI_Sequenzen,7,7,,,,,,,,,,,,
,Move,canvas.Screen,0_3_0_7_0_7,-999,skipped,,178255,,,178210,,178255,2021-10-22T09:04:32.301Z,178284.12,1634893289,full,ni_sequenzen,NI_Sequenzen,8,7,,,,,,,,,,,,
,Move,canvas.Screen,0_3_0_7_0_8,-999,skipped,,178260,,,178210,,178260,2021-10-22T09:04:32.305Z,178284.12,1634893289,full,ni_sequenzen,NI_Sequenzen,9,7,,,,,,,,,,,,
,Move,canvas.Screen,0_3_0_7_0_9,-999,skipped,,178264,,,178210,,178264,2021-10-22T09:04:32.309Z,178284.12,1634893289,full,ni_sequenzen,NI_Sequenzen,10,7,,,,,,,,,,,,
,Move,canvas.Screen,0_3_0_7_0_10,-999,skipped,,178267,,,178210,,178267,2021-10-22T09:04:32.313Z,178284.12,1634893289,full,ni_sequenzen,NI_Sequenzen,11,7,,,,,,,,,,,,
,Move,canvas.Screen,0_3_0_7_0_11,-999,skipped,,178271,,,178210,,178271,2021-10-22T09:04:32.317Z,178284.12,1634893289,full,ni_sequenzen,NI_Sequenzen,12,7,,,,,,,,,,,,
,Move,canvas.Screen,0_3_0_7_0_12,-999,skipped,,178274,,,178210,,178274,2021-10-22T09:04:32.319Z,178284.12,1634893289,full,ni_sequenzen,NI_Sequenzen,13,7,,,,,,,,,,,,
,Move,canvas.Screen,0_3_0_7_0_13,-999,skipped,,178278,,,178210,,178278,2021-10-22T09:04:32.323Z,178284.12,1634893289,full,ni_sequenzen,NI_Sequenzen,14,7,,,,,,,,,,,,
,Move,canvas.Screen,0_3_0_7_0_14,-999,skipped,,178281,,,178210,,178281,2021-10-22T09:04:32.327Z,178284.12,1634893289,full,ni_sequenzen,NI_Sequenzen,15,7,,,,,,,,,,,,
,Loop,flow.Loop,0_3_0_7_0,-999,completion,,170945,170949.12,170965.78,178210,7244.220000000001,178281,2021-10-22T09:04:32.327Z,178284.12,1634893289,full,ni_sequenzen,NI_Sequenzen,,7,,,,,,,,,,,,
,Feedback,canvas.Screen,0_3_0_7_1,,timeout,,178284,178283.82,178284.12,182260.74,3994.899999999994,182262,2021-10-22T09:04:36.307Z,182279.02,1634893289,full,ni_sequenzen,NI_Sequenzen,,7,,,,,,,,,,,,
,Trial,flow.Sequence,0_3_0_7,,completion,,170935,170949.12,170965.78,182260.74,11294.959999999992,182262,2021-10-22T09:04:36.307Z,182294,1634893289,full,ni_sequenzen,NI_Sequenzen,,7,,,,,,,,,,,,
,Move,canvas.Screen,0_3_0_8_0_0,down,response,,182279,182279.02,182294,183241,947,183248,2021-10-22T09:04:37.293Z,183252.84,1634893289,full,ni_sequenzen,NI_Sequenzen,1,8,,,,,,,,,,,,
,Move,canvas.Screen,0_3_0_8_0_1,down,response,,183252,183252.56,183252.84,183724,471.1600000000035,183744,2021-10-22T09:04:37.789Z,183749.4,1634893289,full,ni_sequenzen,NI_Sequenzen,2,8,,,,,,,,,,,,
,Move,canvas.Screen,0_3_0_8_0_2,left,response,,183749,183749.16,183749.4,184116,366.6000000000058,184130,2021-10-22T09:04:38.175Z,184137.18,1634893289,full,ni_sequenzen,NI_Sequenzen,3,8,,,,,,,,,,,,
,Move,canvas.Screen,0_3_0_8_0_3,left,response,,184137,184136.94,184137.18,186272,2134.820000000007,186298,2021-10-22T09:04:40.343Z,186343.8,1634893289,full,ni_sequenzen,NI_Sequenzen,4,8,,,,,,,,,,,,
,Move,canvas.Screen,0_3_0_8_0_4,-999,skipped,,186306,,,186272,,186306,2021-10-22T09:04:40.350Z,186343.8,1634893289,full,ni_sequenzen,NI_Sequenzen,5,8,,,,,,,,,,,,
,Move,canvas.Screen,0_3_0_8_0_5,-999,skipped,,186309,,,186272,,186309,2021-10-22T09:04:40.354Z,186343.8,1634893289,full,ni_sequenzen,NI_Sequenzen,6,8,,,,,,,,,,,,
,Move,canvas.Screen,0_3_0_8_0_6,-999,skipped,,186313,,,186272,,186313,2021-10-22T09:04:40.357Z,186343.8,1634893289,full,ni_sequenzen,NI_Sequenzen,7,8,,,,,,,,,,,,
,Move,canvas.Screen,0_3_0_8_0_7,-999,skipped,,186315,,,186272,,186315,2021-10-22T09:04:40.361Z,186343.8,1634893289,full,ni_sequenzen,NI_Sequenzen,8,8,,,,,,,,,,,,
,Move,canvas.Screen,0_3_0_8_0_8,-999,skipped,,186319,,,186272,,186319,2021-10-22T09:04:40.364Z,186343.8,1634893289,full,ni_sequenzen,NI_Sequenzen,9,8,,,,,,,,,,,,
,Move,canvas.Screen,0_3_0_8_0_9,-999,skipped,,186322,,,186272,,186322,2021-10-22T09:04:40.367Z,186343.8,1634893289,full,ni_sequenzen,NI_Sequenzen,10,8,,,,,,,,,,,,
,Move,canvas.Screen,0_3_0_8_0_10,-999,skipped,,186327,,,186272,,186327,2021-10-22T09:04:40.372Z,186343.8,1634893289,full,ni_sequenzen,NI_Sequenzen,11,8,,,,,,,,,,,,
,Move,canvas.Screen,0_3_0_8_0_11,-999,skipped,,186331,,,186272,,186331,2021-10-22T09:04:40.376Z,186343.8,1634893289,full,ni_sequenzen,NI_Sequenzen,12,8,,,,,,,,,,,,
,Move,canvas.Screen,0_3_0_8_0_12,-999,skipped,,186334,,,186272,,186334,2021-10-22T09:04:40.379Z,186343.8,1634893289,full,ni_sequenzen,NI_Sequenzen,13,8,,,,,,,,,,,,
,Move,canvas.Screen,0_3_0_8_0_13,-999,skipped,,186337,,,186272,,186337,2021-10-22T09:04:40.382Z,186343.8,1634893289,full,ni_sequenzen,NI_Sequenzen,14,8,,,,,,,,,,,,
,Move,canvas.Screen,0_3_0_8_0_14,-999,skipped,,186340,,,186272,,186340,2021-10-22T09:04:40.386Z,186343.8,1634893289,full,ni_sequenzen,NI_Sequenzen,15,8,,,,,,,,,,,,
,Loop,flow.Loop,0_3_0_8_0,-999,completion,,182275,182279.02,182294,186272,3978,186341,2021-10-22T09:04:40.386Z,186343.8,1634893289,full,ni_sequenzen,NI_Sequenzen,,8,,,,,,,,,,,,
,Feedback,canvas.Screen,0_3_0_8_1,,timeout,,186344,186343.5,186343.8,190323.76,3996.6200000000244,190325,2021-10-22T09:04:44.370Z,190340.42,1634893289,full,ni_sequenzen,NI_Sequenzen,,8,,,,,,,,,,,,
,Trial,flow.Sequence,0_3_0_8,,completion,,182262,182279.02,182294,190323.76,8029.760000000009,190325,2021-10-22T09:04:44.371Z,190357.08,1634893289,full,ni_sequenzen,NI_Sequenzen,,8,,,,,,,,,,,,
,Move,canvas.Screen,0_3_0_9_0_0,right,response,,190336,190340.42,190357.08,193553,3195.920000000013,193562,2021-10-22T09:04:47.607Z,193568.86,1634893289,full,ni_sequenzen,NI_Sequenzen,1,9,,,,,,,,,,,,
,Move,canvas.Screen,0_3_0_9_0_1,right,response,,193569,193568.58,193568.86,194569,1000.140000000014,194586,2021-10-22T09:04:48.631Z,194593.42,1634893289,full,ni_sequenzen,NI_Sequenzen,2,9,,,,,,,,,,,,
,Move,canvas.Screen,0_3_0_9_0_2,down,response,,194593,194593.12,194593.42,195116,522.5799999999872,195122,2021-10-22T09:04:49.166Z,195128.88,1634893289,full,ni_sequenzen,NI_Sequenzen,3,9,,,,,,,,,,,,
,Move,canvas.Screen,0_3_0_9_0_3,down,response,,195129,195128.6,195128.88,195569,440.11999999999534,195593,2021-10-22T09:04:49.638Z,195634.08,1634893289,full,ni_sequenzen,NI_Sequenzen,4,9,,,,,,,,,,,,
,Move,canvas.Screen,0_3_0_9_0_4,-999,skipped,,195597,,,195569,,195597,2021-10-22T09:04:49.643Z,195634.08,1634893289,full,ni_sequenzen,NI_Sequenzen,5,9,,,,,,,,,,,,
,Move,canvas.Screen,0_3_0_9_0_5,-999,skipped,,195601,,,195569,,195601,2021-10-22T09:04:49.647Z,195634.08,1634893289,full,ni_sequenzen,NI_Sequenzen,6,9,,,,,,,,,,,,
,Move,canvas.Screen,0_3_0_9_0_6,-999,skipped,,195604,,,195569,,195604,2021-10-22T09:04:49.650Z,195634.08,1634893289,full,ni_sequenzen,NI_Sequenzen,7,9,,,,,,,,,,,,
,Move,canvas.Screen,0_3_0_9_0_7,-999,skipped,,195608,,,195569,,195608,2021-10-22T09:04:49.653Z,195634.08,1634893289,full,ni_sequenzen,NI_Sequenzen,8,9,,,,,,,,,,,,
,Move,canvas.Screen,0_3_0_9_0_8,-999,skipped,,195611,,,195569,,195611,2021-10-22T09:04:49.656Z,195634.08,1634893289,full,ni_sequenzen,NI_Sequenzen,9,9,,,,,,,,,,,,
,Move,canvas.Screen,0_3_0_9_0_9,-999,skipped,,195615,,,195569,,195615,2021-10-22T09:04:49.660Z,195634.08,1634893289,full,ni_sequenzen,NI_Sequenzen,10,9,,,,,,,,,,,,
,Move,canvas.Screen,0_3_0_9_0_10,-999,skipped,,195617,,,195569,,195617,2021-10-22T09:04:49.663Z,195634.08,1634893289,full,ni_sequenzen,NI_Sequenzen,11,9,,,,,,,,,,,,
,Move,canvas.Screen,0_3_0_9_0_11,-999,skipped,,195620,,,195569,,195620,2021-10-22T09:04:49.666Z,195634.08,1634893289,full,ni_sequenzen,NI_Sequenzen,12,9,,,,,,,,,,,,
,Move,canvas.Screen,0_3_0_9_0_12,-999,skipped,,195624,,,195569,,195624,2021-10-22T09:04:49.669Z,195634.08,1634893289,full,ni_sequenzen,NI_Sequenzen,13,9,,,,,,,,,,,,
,Move,canvas.Screen,0_3_0_9_0_13,-999,skipped,,195628,,,195569,,195628,2021-10-22T09:04:49.673Z,195634.08,1634893289,full,ni_sequenzen,NI_Sequenzen,14,9,,,,,,,,,,,,
,Move,canvas.Screen,0_3_0_9_0_14,-999,skipped,,195631,,,195569,,195631,2021-10-22T09:04:49.676Z,195634.08,1634893289,full,ni_sequenzen,NI_Sequenzen,15,9,,,,,,,,,,,,
,Loop,flow.Loop,0_3_0_9_0,-999,completion,,190332,190340.42,190357.08,195569,5211.920000000013,195631,2021-10-22T09:04:49.677Z,195634.08,1634893289,full,ni_sequenzen,NI_Sequenzen,,9,,,,,,,,,,,,
,Feedback,canvas.Screen,0_3_0_9_1,,timeout,,195634,195633.76,195634.08,199619.52,4042,199620,2021-10-22T09:04:53.665Z,199676.08,1634893289,full,ni_sequenzen,NI_Sequenzen,,9,,,,,,,,,,,,
,Trial,flow.Sequence,0_3_0_9,,completion,,190326,190340.42,190357.08,199619.52,9262.440000000002,199621,2021-10-22T09:04:53.666Z,199686.16,1634893289,full,ni_sequenzen,NI_Sequenzen,,9,,,,,,,,,,,,
,Block,flow.Loop,0_3_0,,completion,,98172,98182.34,98182.66,199619.52,101436.85999999999,199621,2021-10-22T09:04:53.666Z,199686.16,1634893289,full,ni_sequenzen,NI_Sequenzen,,,,,,,,,,,,,,
,Training_II,flow.Sequence,0_3,,completion,,98159,98182.34,98182.66,199619.52,101436.85999999999,199621,2021-10-22T09:04:53.666Z,199686.16,1634893289,full,ni_sequenzen,NI_Sequenzen,,,,,,,,,,,,,,
,Screen_1,canvas.Screen,0_4_0_0,cont,response,1,199676,199676.08,199686.16,207006,7319.8399999999965,207026,2021-10-22T09:05:01.072Z,207032.82,1634893289,full,ni_sequenzen,NI_Sequenzen,,,,,,,,,,,,,,
,Screen_2,canvas.Screen,0_4_0_1,cont,response,1,207030,207029.58,207032.82,212756,5723.179999999993,212786,2021-10-22T09:05:06.831Z,212880.16,1634893289,full,ni_sequenzen,NI_Sequenzen,,,,,,,,,,,,,,
,Screen_3,canvas.Screen,0_4_0_2,cont,response,1,212872,212872.1,212880.16,218491,5610.8399999999965,218506,2021-10-22T09:05:12.552Z,218627.54,1634893289,full,ni_sequenzen,NI_Sequenzen,,,,,,,,,,,,,,
,Sequence,flow.Sequence,0_4_0,,completion,1,199636,199676.08,199686.16,218491,18804.839999999997,218507,2021-10-22T09:05:12.552Z,218627.54,1634893289,full,ni_sequenzen,NI_Sequenzen,,,,,,,,,,,,,,
,Screen_1,canvas.Screen,0_4_1_0,,skipped,2,218512,,,218512,,218512,2021-10-22T09:05:12.556Z,218627.54,1634893289,full,ni_sequenzen,NI_Sequenzen,,,,,,,,,,,,,,
,Screen_2,canvas.Screen,0_4_1_1,,skipped,2,218516,,,218512,,218516,2021-10-22T09:05:12.561Z,218627.54,1634893289,full,ni_sequenzen,NI_Sequenzen,,,,,,,,,,,,,,
,Screen_3,canvas.Screen,0_4_1_2,,skipped,2,218518,,,218512,,218518,2021-10-22T09:05:12.564Z,218627.54,1634893289,full,ni_sequenzen,NI_Sequenzen,,,,,,,,,,,,,,
,Sequence,flow.Sequence,0_4_1,,completion,2,218509,,,218512,,218518,2021-10-22T09:05:12.564Z,218627.54,1634893289,full,ni_sequenzen,NI_Sequenzen,,,,,,,,,,,,,,
,Screen_1,canvas.Screen,0_4_2_0,,skipped,3,218521,,,218521,,218522,2021-10-22T09:05:12.566Z,218627.54,1634893289,full,ni_sequenzen,NI_Sequenzen,,,,,,,,,,,,,,
,Screen_2,canvas.Screen,0_4_2_1,,skipped,3,218524,,,218521,,218524,2021-10-22T09:05:12.569Z,218627.54,1634893289,full,ni_sequenzen,NI_Sequenzen,,,,,,,,,,,,,,
,Screen_3,canvas.Screen,0_4_2_2,,skipped,3,218526,,,218521,,218526,2021-10-22T09:05:12.571Z,218627.54,1634893289,full,ni_sequenzen,NI_Sequenzen,,,,,,,,,,,,,,
,Sequence,flow.Sequence,0_4_2,,completion,3,218520,,,218521,,218526,2021-10-22T09:05:12.571Z,218627.54,1634893289,full,ni_sequenzen,NI_Sequenzen,,,,,,,,,,,,,,
,Screen_1,canvas.Screen,0_4_3_0,,skipped,4,218528,,,218528,,218528,2021-10-22T09:05:12.573Z,218627.54,1634893289,full,ni_sequenzen,NI_Sequenzen,,,,,,,,,,,,,,
,Screen_2,canvas.Screen,0_4_3_1,,skipped,4,218530,,,218528,,218530,2021-10-22T09:05:12.575Z,218627.54,1634893289,full,ni_sequenzen,NI_Sequenzen,,,,,,,,,,,,,,
,Screen_3,canvas.Screen,0_4_3_2,,skipped,4,218532,,,218528,,218532,2021-10-22T09:05:12.577Z,218627.54,1634893289,full,ni_sequenzen,NI_Sequenzen,,,,,,,,,,,,,,
,Sequence,flow.Sequence,0_4_3,,completion,4,218527,,,218528,,218532,2021-10-22T09:05:12.577Z,218627.54,1634893289,full,ni_sequenzen,NI_Sequenzen,,,,,,,,,,,,,,
,Screen_1,canvas.Screen,0_4_4_0,,skipped,5,218534,,,218534,,218534,2021-10-22T09:05:12.578Z,218627.54,1634893289,full,ni_sequenzen,NI_Sequenzen,,,,,,,,,,,,,,
,Screen_2,canvas.Screen,0_4_4_1,,skipped,5,218534,,,218534,,218534,2021-10-22T09:05:12.580Z,218627.54,1634893289,full,ni_sequenzen,NI_Sequenzen,,,,,,,,,,,,,,
,Screen_3,canvas.Screen,0_4_4_2,,skipped,5,218536,,,218534,,218536,2021-10-22T09:05:12.581Z,218627.54,1634893289,full,ni_sequenzen,NI_Sequenzen,,,,,,,,,,,,,,
,Sequence,flow.Sequence,0_4_4,,completion,5,218533,,,218534,,218536,2021-10-22T09:05:12.581Z,218627.54,1634893289,full,ni_sequenzen,NI_Sequenzen,,,,,,,,,,,,,,
,Screen_1,canvas.Screen,0_4_5_0,,skipped,6,218537,,,218537,,218537,2021-10-22T09:05:12.583Z,218627.54,1634893289,full,ni_sequenzen,NI_Sequenzen,,,,,,,,,,,,,,
,Screen_2,canvas.Screen,0_4_5_1,,skipped,6,218539,,,218537,,218539,2021-10-22T09:05:12.584Z,218627.54,1634893289,full,ni_sequenzen,NI_Sequenzen,,,,,,,,,,,,,,
,Screen_3,canvas.Screen,0_4_5_2,,skipped,6,218540,,,218537,,218540,2021-10-22T09:05:12.585Z,218627.54,1634893289,full,ni_sequenzen,NI_Sequenzen,,,,,,,,,,,,,,
,Sequence,flow.Sequence,0_4_5,,completion,6,218536,,,218537,,218540,2021-10-22T09:05:12.585Z,218627.54,1634893289,full,ni_sequenzen,NI_Sequenzen,,,,,,,,,,,,,,
,Screen_1,canvas.Screen,0_4_6_0,,skipped,7,218541,,,218541,,218542,2021-10-22T09:05:12.586Z,218627.54,1634893289,full,ni_sequenzen,NI_Sequenzen,,,,,,,,,,,,,,
,Screen_2,canvas.Screen,0_4_6_1,,skipped,7,218543,,,218541,,218543,2021-10-22T09:05:12.588Z,218627.54,1634893289,full,ni_sequenzen,NI_Sequenzen,,,,,,,,,,,,,,
,Screen_3,canvas.Screen,0_4_6_2,,skipped,7,218544,,,218541,,218544,2021-10-22T09:05:12.589Z,218627.54,1634893289,full,ni_sequenzen,NI_Sequenzen,,,,,,,,,,,,,,
,Sequence,flow.Sequence,0_4_6,,completion,7,218540,,,218541,,218544,2021-10-22T09:05:12.590Z,218627.54,1634893289,full,ni_sequenzen,NI_Sequenzen,,,,,,,,,,,,,,
,Screen_1,canvas.Screen,0_4_7_0,,skipped,8,218546,,,218546,,218546,2021-10-22T09:05:12.591Z,218627.54,1634893289,full,ni_sequenzen,NI_Sequenzen,,,,,,,,,,,,,,
,Screen_2,canvas.Screen,0_4_7_1,,skipped,8,218546,,,218546,,218546,2021-10-22T09:05:12.592Z,218627.54,1634893289,full,ni_sequenzen,NI_Sequenzen,,,,,,,,,,,,,,
,Screen_3,canvas.Screen,0_4_7_2,,skipped,8,218547,,,218546,,218547,2021-10-22T09:05:12.592Z,218627.54,1634893289,full,ni_sequenzen,NI_Sequenzen,,,,,,,,,,,,,,
,Sequence,flow.Sequence,0_4_7,,completion,8,218544,,,218546,,218547,2021-10-22T09:05:12.592Z,218627.54,1634893289,full,ni_sequenzen,NI_Sequenzen,,,,,,,,,,,,,,
,Screen_1,canvas.Screen,0_4_8_0,,skipped,9,218549,,,218549,,218549,2021-10-22T09:05:12.594Z,218627.54,1634893289,full,ni_sequenzen,NI_Sequenzen,,,,,,,,,,,,,,
,Screen_2,canvas.Screen,0_4_8_1,,skipped,9,218550,,,218549,,218550,2021-10-22T09:05:12.595Z,218627.54,1634893289,full,ni_sequenzen,NI_Sequenzen,,,,,,,,,,,,,,
,Screen_3,canvas.Screen,0_4_8_2,,skipped,9,218551,,,218549,,218551,2021-10-22T09:05:12.595Z,218627.54,1634893289,full,ni_sequenzen,NI_Sequenzen,,,,,,,,,,,,,,
,Sequence,flow.Sequence,0_4_8,,completion,9,218548,,,218549,,218551,2021-10-22T09:05:12.595Z,218627.54,1634893289,full,ni_sequenzen,NI_Sequenzen,,,,,,,,,,,,,,
,Screen_1,canvas.Screen,0_4_9_0,,skipped,10,218552,,,218552,,218552,2021-10-22T09:05:12.597Z,218627.54,1634893289,full,ni_sequenzen,NI_Sequenzen,,,,,,,,,,,,,,
,Screen_2,canvas.Screen,0_4_9_1,,skipped,10,218552,,,218552,,218553,2021-10-22T09:05:12.597Z,218627.54,1634893289,full,ni_sequenzen,NI_Sequenzen,,,,,,,,,,,,,,
,Screen_3,canvas.Screen,0_4_9_2,,skipped,10,218553,,,218552,,218553,2021-10-22T09:05:12.598Z,218627.54,1634893289,full,ni_sequenzen,NI_Sequenzen,,,,,,,,,,,,,,
,Sequence,flow.Sequence,0_4_9,,completion,10,218551,,,218552,,218554,2021-10-22T09:05:12.598Z,218627.54,1634893289,full,ni_sequenzen,NI_Sequenzen,,,,,,,,,,,,,,
,Screen_1,canvas.Screen,0_4_10_0,,skipped,11,218555,,,218555,,218555,2021-10-22T09:05:12.600Z,218627.54,1634893289,full,ni_sequenzen,NI_Sequenzen,,,,,,,,,,,,,,
,Screen_2,canvas.Screen,0_4_10_1,,skipped,11,218556,,,218555,,218556,2021-10-22T09:05:12.602Z,218627.54,1634893289,full,ni_sequenzen,NI_Sequenzen,,,,,,,,,,,,,,
,Screen_3,canvas.Screen,0_4_10_2,,skipped,11,218557,,,218555,,218557,2021-10-22T09:05:12.603Z,218627.54,1634893289,full,ni_sequenzen,NI_Sequenzen,,,,,,,,,,,,,,
,Sequence,flow.Sequence,0_4_10,,completion,11,218554,,,218555,,218558,2021-10-22T09:05:12.603Z,218627.54,1634893289,full,ni_sequenzen,NI_Sequenzen,,,,,,,,,,,,,,
,Screen_1,canvas.Screen,0_4_11_0,,skipped,12,218559,,,218559,,218559,2021-10-22T09:05:12.604Z,218627.54,1634893289,full,ni_sequenzen,NI_Sequenzen,,,,,,,,,,,,,,
,Screen_2,canvas.Screen,0_4_11_1,,skipped,12,218559,,,218559,,218560,2021-10-22T09:05:12.605Z,218627.54,1634893289,full,ni_sequenzen,NI_Sequenzen,,,,,,,,,,,,,,
,Screen_3,canvas.Screen,0_4_11_2,,skipped,12,218560,,,218559,,218561,2021-10-22T09:05:12.607Z,218627.54,1634893289,full,ni_sequenzen,NI_Sequenzen,,,,,,,,,,,,,,
,Sequence,flow.Sequence,0_4_11,,completion,12,218558,,,218559,,218561,2021-10-22T09:05:12.607Z,218627.54,1634893289,full,ni_sequenzen,NI_Sequenzen,,,,,,,,,,,,,,
,Screen_1,canvas.Screen,0_4_12_0,,skipped,13,218562,,,218562,,218562,2021-10-22T09:05:12.608Z,218627.54,1634893289,full,ni_sequenzen,NI_Sequenzen,,,,,,,,,,,,,,
,Screen_2,canvas.Screen,0_4_12_1,,skipped,13,218563,,,218562,,218563,2021-10-22T09:05:12.608Z,218627.54,1634893289,full,ni_sequenzen,NI_Sequenzen,,,,,,,,,,,,,,
,Screen_3,canvas.Screen,0_4_12_2,,skipped,13,218564,,,218562,,218564,2021-10-22T09:05:12.609Z,218627.54,1634893289,full,ni_sequenzen,NI_Sequenzen,,,,,,,,,,,,,,
,Sequence,flow.Sequence,0_4_12,,completion,13,218561,,,218562,,218564,2021-10-22T09:05:12.609Z,218627.54,1634893289,full,ni_sequenzen,NI_Sequenzen,,,,,,,,,,,,,,
,Screen_1,canvas.Screen,0_4_13_0,,skipped,14,218565,,,218565,,218565,2021-10-22T09:05:12.611Z,218627.54,1634893289,full,ni_sequenzen,NI_Sequenzen,,,,,,,,,,,,,,
,Screen_2,canvas.Screen,0_4_13_1,,skipped,14,218566,,,218565,,218566,2021-10-22T09:05:12.611Z,218627.54,1634893289,full,ni_sequenzen,NI_Sequenzen,,,,,,,,,,,,,,
,Screen_3,canvas.Screen,0_4_13_2,,skipped,14,218567,,,218565,,218567,2021-10-22T09:05:12.612Z,218627.54,1634893289,full,ni_sequenzen,NI_Sequenzen,,,,,,,,,,,,,,
,Sequence,flow.Sequence,0_4_13,,completion,14,218564,,,218565,,218567,2021-10-22T09:05:12.612Z,218627.54,1634893289,full,ni_sequenzen,NI_Sequenzen,,,,,,,,,,,,,,
,Screen_1,canvas.Screen,0_4_14_0,,skipped,15,218568,,,218568,,218568,2021-10-22T09:05:12.614Z,218627.54,1634893289,full,ni_sequenzen,NI_Sequenzen,,,,,,,,,,,,,,
,Screen_2,canvas.Screen,0_4_14_1,,skipped,15,218570,,,218568,,218570,2021-10-22T09:05:12.615Z,218627.54,1634893289,full,ni_sequenzen,NI_Sequenzen,,,,,,,,,,,,,,
,Screen_3,canvas.Screen,0_4_14_2,,skipped,15,218570,,,218568,,218570,2021-10-22T09:05:12.616Z,218627.54,1634893289,full,ni_sequenzen,NI_Sequenzen,,,,,,,,,,,,,,
,Sequence,flow.Sequence,0_4_14,,completion,15,218568,,,218568,,218570,2021-10-22T09:05:12.616Z,218627.54,1634893289,full,ni_sequenzen,NI_Sequenzen,,,,,,,,,,,,,,
,Screen_1,canvas.Screen,0_4_15_0,,skipped,16,218572,,,218572,,218572,2021-10-22T09:05:12.617Z,218627.54,1634893289,full,ni_sequenzen,NI_Sequenzen,,,,,,,,,,,,,,
,Screen_2,canvas.Screen,0_4_15_1,,skipped,16,218572,,,218572,,218572,2021-10-22T09:05:12.617Z,218627.54,1634893289,full,ni_sequenzen,NI_Sequenzen,,,,,,,,,,,,,,
,Screen_3,canvas.Screen,0_4_15_2,,skipped,16,218573,,,218572,,218573,2021-10-22T09:05:12.618Z,218627.54,1634893289,full,ni_sequenzen,NI_Sequenzen,,,,,,,,,,,,,,
,Sequence,flow.Sequence,0_4_15,,completion,16,218571,,,218572,,218573,2021-10-22T09:05:12.618Z,218627.54,1634893289,full,ni_sequenzen,NI_Sequenzen,,,,,,,,,,,,,,
,Screen_1,canvas.Screen,0_4_16_0,,skipped,17,218574,,,218574,,218574,2021-10-22T09:05:12.619Z,218627.54,1634893289,full,ni_sequenzen,NI_Sequenzen,,,,,,,,,,,,,,
,Screen_2,canvas.Screen,0_4_16_1,,skipped,17,218575,,,218574,,218575,2021-10-22T09:05:12.620Z,218627.54,1634893289,full,ni_sequenzen,NI_Sequenzen,,,,,,,,,,,,,,
,Screen_3,canvas.Screen,0_4_16_2,,skipped,17,218576,,,218574,,218576,2021-10-22T09:05:12.620Z,218627.54,1634893289,full,ni_sequenzen,NI_Sequenzen,,,,,,,,,,,,,,
,Sequence,flow.Sequence,0_4_16,,completion,17,218574,,,218574,,218576,2021-10-22T09:05:12.620Z,218627.54,1634893289,full,ni_sequenzen,NI_Sequenzen,,,,,,,,,,,,,,
,Screen_1,canvas.Screen,0_4_17_0,,skipped,18,218577,,,218577,,218577,2021-10-22T09:05:12.621Z,218627.54,1634893289,full,ni_sequenzen,NI_Sequenzen,,,,,,,,,,,,,,
,Screen_2,canvas.Screen,0_4_17_1,,skipped,18,218577,,,218577,,218577,2021-10-22T09:05:12.623Z,218627.54,1634893289,full,ni_sequenzen,NI_Sequenzen,,,,,,,,,,,,,,
,Screen_3,canvas.Screen,0_4_17_2,,skipped,18,218578,,,218577,,218578,2021-10-22T09:05:12.624Z,218627.54,1634893289,full,ni_sequenzen,NI_Sequenzen,,,,,,,,,,,,,,
,Sequence,flow.Sequence,0_4_17,,completion,18,218576,,,218577,,218579,2021-10-22T09:05:12.624Z,218627.54,1634893289,full,ni_sequenzen,NI_Sequenzen,,,,,,,,,,,,,,
,Screen_1,canvas.Screen,0_4_18_0,,skipped,19,218579,,,218579,,218579,2021-10-22T09:05:12.626Z,218627.54,1634893289,full,ni_sequenzen,NI_Sequenzen,,,,,,,,,,,,,,
,Screen_2,canvas.Screen,0_4_18_1,,skipped,19,218580,,,218579,,218580,2021-10-22T09:05:12.626Z,218627.54,1634893289,full,ni_sequenzen,NI_Sequenzen,,,,,,,,,,,,,,
