meta,sender,sender_type,sender_id,response,ended_on,instrCount,time_run,time_render,time_show,time_end,duration,time_commit,timestamp,time_switch,openLabId,type,task,project,move,trialN,blockN_Train,blockN,moveCount,currPP,points,movesTrial,visitedFields,diff,reward,Strategie,Zweck,Probleme
[object Object],Screen_1,canvas.Screen,0_0_0_0,cont,response,1,754,753.78,781.38,9194,8412.62,9211,2021-10-22T20:44:10.209Z,9319.66,1634935437,full,ni_sequenzen,NI_Sequenzen,,,,,,,,,,,,,,
,Screen_2,canvas.Screen,0_0_0_1,cont,response,1,9319,9319.44,9319.66,16944,7624.34,16957,2021-10-22T20:44:17.955Z,17048.22,1634935437,full,ni_sequenzen,NI_Sequenzen,,,,,,,,,,,,,,
,Screen_3,canvas.Screen,0_0_0_2,cont,response,1,17041,17041.8,17048.22,25506,8457.779999999999,25515,2021-10-22T20:44:26.513Z,25518.12,1634935437,full,ni_sequenzen,NI_Sequenzen,,,,,,,,,,,,,,
,Screen_4,canvas.Screen,0_0_0_3,cont,response,1,25517,25517.84,25518.12,29788,4269.880000000001,29798,2021-10-22T20:44:30.795Z,29965.02,1634935437,full,ni_sequenzen,NI_Sequenzen,,,,,,,,,,,,,,
,Sequence,flow.Sequence,0_0_0,,completion,1,669,753.78,781.38,29788,29006.62,29798,2021-10-22T20:44:30.796Z,29965.02,1634935437,full,ni_sequenzen,NI_Sequenzen,,,,,,,,,,,,,,
,Screen_1,canvas.Screen,0_0_1_0,,skipped,2,29800,,,29800,,29801,2021-10-22T20:44:30.799Z,29965.02,1634935437,full,ni_sequenzen,NI_Sequenzen,,,,,,,,,,,,,,
,Screen_2,canvas.Screen,0_0_1_1,,skipped,2,29802,,,29800,,29803,2021-10-22T20:44:30.801Z,29965.02,1634935437,full,ni_sequenzen,NI_Sequenzen,,,,,,,,,,,,,,
,Screen_3,canvas.Screen,0_0_1_2,,skipped,2,29805,,,29800,,29805,2021-10-22T20:44:30.803Z,29965.02,1634935437,full,ni_sequenzen,NI_Sequenzen,,,,,,,,,,,,,,
,Screen_4,canvas.Screen,0_0_1_3,,skipped,2,29808,,,29800,,29808,2021-10-22T20:44:30.806Z,29965.02,1634935437,full,ni_sequenzen,NI_Sequenzen,,,,,,,,,,,,,,
,Sequence,flow.Sequence,0_0_1,,completion,2,29799,,,29800,,29808,2021-10-22T20:44:30.806Z,29965.02,1634935437,full,ni_sequenzen,NI_Sequenzen,,,,,,,,,,,,,,
,Screen_1,canvas.Screen,0_0_2_0,,skipped,3,29810,,,29810,,29810,2021-10-22T20:44:30.808Z,29965.02,1634935437,full,ni_sequenzen,NI_Sequenzen,,,,,,,,,,,,,,
,Screen_2,canvas.Screen,0_0_2_1,,skipped,3,29812,,,29810,,29812,2021-10-22T20:44:30.810Z,29965.02,1634935437,full,ni_sequenzen,NI_Sequenzen,,,,,,,,,,,,,,
,Screen_3,canvas.Screen,0_0_2_2,,skipped,3,29814,,,29810,,29814,2021-10-22T20:44:30.812Z,29965.02,1634935437,full,ni_sequenzen,NI_Sequenzen,,,,,,,,,,,,,,
,Screen_4,canvas.Screen,0_0_2_3,,skipped,3,29815,,,29810,,29816,2021-10-22T20:44:30.813Z,29965.02,1634935437,full,ni_sequenzen,NI_Sequenzen,,,,,,,,,,,,,,
,Sequence,flow.Sequence,0_0_2,,completion,3,29809,,,29810,,29816,2021-10-22T20:44:30.814Z,29965.02,1634935437,full,ni_sequenzen,NI_Sequenzen,,,,,,,,,,,,,,
,Screen_1,canvas.Screen,0_0_3_0,,skipped,4,29818,,,29818,,29818,2021-10-22T20:44:30.816Z,29965.02,1634935437,full,ni_sequenzen,NI_Sequenzen,,,,,,,,,,,,,,
,Screen_2,canvas.Screen,0_0_3_1,,skipped,4,29820,,,29818,,29820,2021-10-22T20:44:30.818Z,29965.02,1634935437,full,ni_sequenzen,NI_Sequenzen,,,,,,,,,,,,,,
,Screen_3,canvas.Screen,0_0_3_2,,skipped,4,29822,,,29818,,29822,2021-10-22T20:44:30.820Z,29965.02,1634935437,full,ni_sequenzen,NI_Sequenzen,,,,,,,,,,,,,,
,Screen_4,canvas.Screen,0_0_3_3,,skipped,4,29824,,,29818,,29824,2021-10-22T20:44:30.822Z,29965.02,1634935437,full,ni_sequenzen,NI_Sequenzen,,,,,,,,,,,,,,
,Sequence,flow.Sequence,0_0_3,,completion,4,29817,,,29818,,29824,2021-10-22T20:44:30.822Z,29965.02,1634935437,full,ni_sequenzen,NI_Sequenzen,,,,,,,,,,,,,,
,Screen_1,canvas.Screen,0_0_4_0,,skipped,5,29827,,,29827,,29828,2021-10-22T20:44:30.825Z,29965.02,1634935437,full,ni_sequenzen,NI_Sequenzen,,,,,,,,,,,,,,
,Screen_2,canvas.Screen,0_0_4_1,,skipped,5,29829,,,29827,,29829,2021-10-22T20:44:30.826Z,29965.02,1634935437,full,ni_sequenzen,NI_Sequenzen,,,,,,,,,,,,,,
,Screen_3,canvas.Screen,0_0_4_2,,skipped,5,29831,,,29827,,29831,2021-10-22T20:44:30.829Z,29965.02,1634935437,full,ni_sequenzen,NI_Sequenzen,,,,,,,,,,,,,,
,Screen_4,canvas.Screen,0_0_4_3,,skipped,5,29833,,,29827,,29833,2021-10-22T20:44:30.832Z,29965.02,1634935437,full,ni_sequenzen,NI_Sequenzen,,,,,,,,,,,,,,
,Sequence,flow.Sequence,0_0_4,,completion,5,29826,,,29827,,29834,2021-10-22T20:44:30.832Z,29965.02,1634935437,full,ni_sequenzen,NI_Sequenzen,,,,,,,,,,,,,,
,Screen_1,canvas.Screen,0_0_5_0,,skipped,6,29835,,,29835,,29835,2021-10-22T20:44:30.834Z,29965.02,1634935437,full,ni_sequenzen,NI_Sequenzen,,,,,,,,,,,,,,
,Screen_2,canvas.Screen,0_0_5_1,,skipped,6,29838,,,29835,,29838,2021-10-22T20:44:30.836Z,29965.02,1634935437,full,ni_sequenzen,NI_Sequenzen,,,,,,,,,,,,,,
,Screen_3,canvas.Screen,0_0_5_2,,skipped,6,29839,,,29835,,29839,2021-10-22T20:44:30.837Z,29965.02,1634935437,full,ni_sequenzen,NI_Sequenzen,,,,,,,,,,,,,,
,Screen_4,canvas.Screen,0_0_5_3,,skipped,6,29841,,,29835,,29841,2021-10-22T20:44:30.839Z,29965.02,1634935437,full,ni_sequenzen,NI_Sequenzen,,,,,,,,,,,,,,
,Sequence,flow.Sequence,0_0_5,,completion,6,29834,,,29835,,29841,2021-10-22T20:44:30.839Z,29965.02,1634935437,full,ni_sequenzen,NI_Sequenzen,,,,,,,,,,,,,,
,Screen_1,canvas.Screen,0_0_6_0,,skipped,7,29843,,,29843,,29843,2021-10-22T20:44:30.841Z,29965.02,1634935437,full,ni_sequenzen,NI_Sequenzen,,,,,,,,,,,,,,
,Screen_2,canvas.Screen,0_0_6_1,,skipped,7,29844,,,29843,,29845,2021-10-22T20:44:30.843Z,29965.02,1634935437,full,ni_sequenzen,NI_Sequenzen,,,,,,,,,,,,,,
,Screen_3,canvas.Screen,0_0_6_2,,skipped,7,29846,,,29843,,29846,2021-10-22T20:44:30.844Z,29965.02,1634935437,full,ni_sequenzen,NI_Sequenzen,,,,,,,,,,,,,,
,Screen_4,canvas.Screen,0_0_6_3,,skipped,7,29848,,,29843,,29848,2021-10-22T20:44:30.846Z,29965.02,1634935437,full,ni_sequenzen,NI_Sequenzen,,,,,,,,,,,,,,
,Sequence,flow.Sequence,0_0_6,,completion,7,29841,,,29843,,29848,2021-10-22T20:44:30.846Z,29965.02,1634935437,full,ni_sequenzen,NI_Sequenzen,,,,,,,,,,,,,,
,Screen_1,canvas.Screen,0_0_7_0,,skipped,8,29851,,,29851,,29851,2021-10-22T20:44:30.848Z,29965.02,1634935437,full,ni_sequenzen,NI_Sequenzen,,,,,,,,,,,,,,
,Screen_2,canvas.Screen,0_0_7_1,,skipped,8,29852,,,29851,,29852,2021-10-22T20:44:30.850Z,29965.02,1634935437,full,ni_sequenzen,NI_Sequenzen,,,,,,,,,,,,,,
,Screen_3,canvas.Screen,0_0_7_2,,skipped,8,29853,,,29851,,29853,2021-10-22T20:44:30.852Z,29965.02,1634935437,full,ni_sequenzen,NI_Sequenzen,,,,,,,,,,,,,,
,Screen_4,canvas.Screen,0_0_7_3,,skipped,8,29856,,,29851,,29856,2021-10-22T20:44:30.854Z,29965.02,1634935437,full,ni_sequenzen,NI_Sequenzen,,,,,,,,,,,,,,
,Sequence,flow.Sequence,0_0_7,,completion,8,29848,,,29851,,29856,2021-10-22T20:44:30.854Z,29965.02,1634935437,full,ni_sequenzen,NI_Sequenzen,,,,,,,,,,,,,,
,Screen_1,canvas.Screen,0_0_8_0,,skipped,9,29859,,,29859,,29859,2021-10-22T20:44:30.857Z,29965.02,1634935437,full,ni_sequenzen,NI_Sequenzen,,,,,,,,,,,,,,
,Screen_2,canvas.Screen,0_0_8_1,,skipped,9,29861,,,29859,,29861,2021-10-22T20:44:30.859Z,29965.02,1634935437,full,ni_sequenzen,NI_Sequenzen,,,,,,,,,,,,,,
,Screen_3,canvas.Screen,0_0_8_2,,skipped,9,29862,,,29859,,29862,2021-10-22T20:44:30.860Z,29965.02,1634935437,full,ni_sequenzen,NI_Sequenzen,,,,,,,,,,,,,,
,Screen_4,canvas.Screen,0_0_8_3,,skipped,9,29864,,,29859,,29864,2021-10-22T20:44:30.861Z,29965.02,1634935437,full,ni_sequenzen,NI_Sequenzen,,,,,,,,,,,,,,
,Sequence,flow.Sequence,0_0_8,,completion,9,29858,,,29859,,29864,2021-10-22T20:44:30.862Z,29965.02,1634935437,full,ni_sequenzen,NI_Sequenzen,,,,,,,,,,,,,,
,Screen_1,canvas.Screen,0_0_9_0,,skipped,10,29866,,,29866,,29866,2021-10-22T20:44:30.864Z,29965.02,1634935437,full,ni_sequenzen,NI_Sequenzen,,,,,,,,,,,,,,
,Screen_2,canvas.Screen,0_0_9_1,,skipped,10,29868,,,29866,,29868,2021-10-22T20:44:30.865Z,29965.02,1634935437,full,ni_sequenzen,NI_Sequenzen,,,,,,,,,,,,,,
,Screen_3,canvas.Screen,0_0_9_2,,skipped,10,29869,,,29866,,29869,2021-10-22T20:44:30.867Z,29965.02,1634935437,full,ni_sequenzen,NI_Sequenzen,,,,,,,,,,,,,,
,Screen_4,canvas.Screen,0_0_9_3,,skipped,10,29871,,,29866,,29871,2021-10-22T20:44:30.868Z,29965.02,1634935437,full,ni_sequenzen,NI_Sequenzen,,,,,,,,,,,,,,
,Sequence,flow.Sequence,0_0_9,,completion,10,29865,,,29866,,29871,2021-10-22T20:44:30.869Z,29965.02,1634935437,full,ni_sequenzen,NI_Sequenzen,,,,,,,,,,,,,,
,Screen_1,canvas.Screen,0_0_10_0,,skipped,11,29873,,,29873,,29873,2021-10-22T20:44:30.870Z,29965.02,1634935437,full,ni_sequenzen,NI_Sequenzen,,,,,,,,,,,,,,
,Screen_2,canvas.Screen,0_0_10_1,,skipped,11,29874,,,29873,,29874,2021-10-22T20:44:30.872Z,29965.02,1634935437,full,ni_sequenzen,NI_Sequenzen,,,,,,,,,,,,,,
,Screen_3,canvas.Screen,0_0_10_2,,skipped,11,29875,,,29873,,29876,2021-10-22T20:44:30.873Z,29965.02,1634935437,full,ni_sequenzen,NI_Sequenzen,,,,,,,,,,,,,,
,Screen_4,canvas.Screen,0_0_10_3,,skipped,11,29877,,,29873,,29877,2021-10-22T20:44:30.875Z,29965.02,1634935437,full,ni_sequenzen,NI_Sequenzen,,,,,,,,,,,,,,
,Sequence,flow.Sequence,0_0_10,,completion,11,29872,,,29873,,29877,2021-10-22T20:44:30.876Z,29965.02,1634935437,full,ni_sequenzen,NI_Sequenzen,,,,,,,,,,,,,,
,Screen_1,canvas.Screen,0_0_11_0,,skipped,12,29879,,,29879,,29879,2021-10-22T20:44:30.877Z,29965.02,1634935437,full,ni_sequenzen,NI_Sequenzen,,,,,,,,,,,,,,
,Screen_2,canvas.Screen,0_0_11_1,,skipped,12,29881,,,29879,,29881,2021-10-22T20:44:30.879Z,29965.02,1634935437,full,ni_sequenzen,NI_Sequenzen,,,,,,,,,,,,,,
,Screen_3,canvas.Screen,0_0_11_2,,skipped,12,29882,,,29879,,29882,2021-10-22T20:44:30.880Z,29965.02,1634935437,full,ni_sequenzen,NI_Sequenzen,,,,,,,,,,,,,,
,Screen_4,canvas.Screen,0_0_11_3,,skipped,12,29884,,,29879,,29884,2021-10-22T20:44:30.882Z,29965.02,1634935437,full,ni_sequenzen,NI_Sequenzen,,,,,,,,,,,,,,
,Sequence,flow.Sequence,0_0_11,,completion,12,29878,,,29879,,29884,2021-10-22T20:44:30.882Z,29965.02,1634935437,full,ni_sequenzen,NI_Sequenzen,,,,,,,,,,,,,,
,Screen_1,canvas.Screen,0_0_12_0,,skipped,13,29887,,,29887,,29887,2021-10-22T20:44:30.885Z,29965.02,1634935437,full,ni_sequenzen,NI_Sequenzen,,,,,,,,,,,,,,
,Screen_2,canvas.Screen,0_0_12_1,,skipped,13,29889,,,29887,,29889,2021-10-22T20:44:30.886Z,29965.02,1634935437,full,ni_sequenzen,NI_Sequenzen,,,,,,,,,,,,,,
,Screen_3,canvas.Screen,0_0_12_2,,skipped,13,29891,,,29887,,29891,2021-10-22T20:44:30.888Z,29965.02,1634935437,full,ni_sequenzen,NI_Sequenzen,,,,,,,,,,,,,,
,Screen_4,canvas.Screen,0_0_12_3,,skipped,13,29892,,,29887,,29893,2021-10-22T20:44:30.890Z,29965.02,1634935437,full,ni_sequenzen,NI_Sequenzen,,,,,,,,,,,,,,
,Sequence,flow.Sequence,0_0_12,,completion,13,29885,,,29887,,29893,2021-10-22T20:44:30.890Z,29965.02,1634935437,full,ni_sequenzen,NI_Sequenzen,,,,,,,,,,,,,,
,Screen_1,canvas.Screen,0_0_13_0,,skipped,14,29894,,,29894,,29895,2021-10-22T20:44:30.892Z,29965.02,1634935437,full,ni_sequenzen,NI_Sequenzen,,,,,,,,,,,,,,
,Screen_2,canvas.Screen,0_0_13_1,,skipped,14,29896,,,29894,,29896,2021-10-22T20:44:30.894Z,29965.02,1634935437,full,ni_sequenzen,NI_Sequenzen,,,,,,,,,,,,,,
,Screen_3,canvas.Screen,0_0_13_2,,skipped,14,29897,,,29894,,29897,2021-10-22T20:44:30.895Z,29965.02,1634935437,full,ni_sequenzen,NI_Sequenzen,,,,,,,,,,,,,,
,Screen_4,canvas.Screen,0_0_13_3,,skipped,14,29899,,,29894,,29899,2021-10-22T20:44:30.897Z,29965.02,1634935437,full,ni_sequenzen,NI_Sequenzen,,,,,,,,,,,,,,
,Sequence,flow.Sequence,0_0_13,,completion,14,29893,,,29894,,29899,2021-10-22T20:44:30.897Z,29965.02,1634935437,full,ni_sequenzen,NI_Sequenzen,,,,,,,,,,,,,,
,Screen_1,canvas.Screen,0_0_14_0,,skipped,15,29901,,,29901,,29901,2021-10-22T20:44:30.899Z,29965.02,1634935437,full,ni_sequenzen,NI_Sequenzen,,,,,,,,,,,,,,
,Screen_2,canvas.Screen,0_0_14_1,,skipped,15,29902,,,29901,,29902,2021-10-22T20:44:30.900Z,29965.02,1634935437,full,ni_sequenzen,NI_Sequenzen,,,,,,,,,,,,,,
,Screen_3,canvas.Screen,0_0_14_2,,skipped,15,29904,,,29901,,29904,2021-10-22T20:44:30.902Z,29965.02,1634935437,full,ni_sequenzen,NI_Sequenzen,,,,,,,,,,,,,,
,Screen_4,canvas.Screen,0_0_14_3,,skipped,15,29905,,,29901,,29905,2021-10-22T20:44:30.903Z,29965.02,1634935437,full,ni_sequenzen,NI_Sequenzen,,,,,,,,,,,,,,
,Sequence,flow.Sequence,0_0_14,,completion,15,29899,,,29901,,29906,2021-10-22T20:44:30.903Z,29965.02,1634935437,full,ni_sequenzen,NI_Sequenzen,,,,,,,,,,,,,,
,Screen_1,canvas.Screen,0_0_15_0,,skipped,16,29907,,,29907,,29907,2021-10-22T20:44:30.905Z,29965.02,1634935437,full,ni_sequenzen,NI_Sequenzen,,,,,,,,,,,,,,
,Screen_2,canvas.Screen,0_0_15_1,,skipped,16,29909,,,29907,,29909,2021-10-22T20:44:30.907Z,29965.02,1634935437,full,ni_sequenzen,NI_Sequenzen,,,,,,,,,,,,,,
,Screen_3,canvas.Screen,0_0_15_2,,skipped,16,29910,,,29907,,29910,2021-10-22T20:44:30.908Z,29965.02,1634935437,full,ni_sequenzen,NI_Sequenzen,,,,,,,,,,,,,,
,Screen_4,canvas.Screen,0_0_15_3,,skipped,16,29912,,,29907,,29912,2021-10-22T20:44:30.910Z,29965.02,1634935437,full,ni_sequenzen,NI_Sequenzen,,,,,,,,,,,,,,
,Sequence,flow.Sequence,0_0_15,,completion,16,29906,,,29907,,29913,2021-10-22T20:44:30.911Z,29965.02,1634935437,full,ni_sequenzen,NI_Sequenzen,,,,,,,,,,,,,,
,Screen_1,canvas.Screen,0_0_16_0,,skipped,17,29915,,,29915,,29915,2021-10-22T20:44:30.913Z,29965.02,1634935437,full,ni_sequenzen,NI_Sequenzen,,,,,,,,,,,,,,
,Screen_2,canvas.Screen,0_0_16_1,,skipped,17,29917,,,29915,,29917,2021-10-22T20:44:30.914Z,29965.02,1634935437,full,ni_sequenzen,NI_Sequenzen,,,,,,,,,,,,,,
,Screen_3,canvas.Screen,0_0_16_2,,skipped,17,29918,,,29915,,29918,2021-10-22T20:44:30.916Z,29965.02,1634935437,full,ni_sequenzen,NI_Sequenzen,,,,,,,,,,,,,,
,Screen_4,canvas.Screen,0_0_16_3,,skipped,17,29920,,,29915,,29920,2021-10-22T20:44:30.918Z,29965.02,1634935437,full,ni_sequenzen,NI_Sequenzen,,,,,,,,,,,,,,
,Sequence,flow.Sequence,0_0_16,,completion,17,29913,,,29915,,29920,2021-10-22T20:44:30.918Z,29965.02,1634935437,full,ni_sequenzen,NI_Sequenzen,,,,,,,,,,,,,,
,Screen_1,canvas.Screen,0_0_17_0,,skipped,18,29922,,,29922,,29922,2021-10-22T20:44:30.920Z,29965.02,1634935437,full,ni_sequenzen,NI_Sequenzen,,,,,,,,,,,,,,
,Screen_2,canvas.Screen,0_0_17_1,,skipped,18,29923,,,29922,,29923,2021-10-22T20:44:30.921Z,29965.02,1634935437,full,ni_sequenzen,NI_Sequenzen,,,,,,,,,,,,,,
,Screen_3,canvas.Screen,0_0_17_2,,skipped,18,29925,,,29922,,29925,2021-10-22T20:44:30.923Z,29965.02,1634935437,full,ni_sequenzen,NI_Sequenzen,,,,,,,,,,,,,,
,Screen_4,canvas.Screen,0_0_17_3,,skipped,18,29927,,,29922,,29927,2021-10-22T20:44:30.924Z,29965.02,1634935437,full,ni_sequenzen,NI_Sequenzen,,,,,,,,,,,,,,
,Sequence,flow.Sequence,0_0_17,,completion,18,29920,,,29922,,29927,2021-10-22T20:44:30.924Z,29965.02,1634935437,full,ni_sequenzen,NI_Sequenzen,,,,,,,,,,,,,,
,Screen_1,canvas.Screen,0_0_18_0,,skipped,19,29928,,,29928,,29928,2021-10-22T20:44:30.926Z,29965.02,1634935437,full,ni_sequenzen,NI_Sequenzen,,,,,,,,,,,,,,
,Screen_2,canvas.Screen,0_0_18_1,,skipped,19,29929,,,29928,,29929,2021-10-22T20:44:30.927Z,29965.02,1634935437,full,ni_sequenzen,NI_Sequenzen,,,,,,,,,,,,,,
,Screen_3,canvas.Screen,0_0_18_2,,skipped,19,29931,,,29928,,29931,2021-10-22T20:44:30.929Z,29965.02,1634935437,full,ni_sequenzen,NI_Sequenzen,,,,,,,,,,,,,,
,Screen_4,canvas.Screen,0_0_18_3,,skipped,19,29932,,,29928,,29932,2021-10-22T20:44:30.930Z,29965.02,1634935437,full,ni_sequenzen,NI_Sequenzen,,,,,,,,,,,,,,
,Sequence,flow.Sequence,0_0_18,,completion,19,29927,,,29928,,29932,2021-10-22T20:44:30.930Z,29965.02,1634935437,full,ni_sequenzen,NI_Sequenzen,,,,,,,,,,,,,,
,Screen_1,canvas.Screen,0_0_19_0,,skipped,20,29934,,,29934,,29934,2021-10-22T20:44:30.932Z,29965.02,1634935437,full,ni_sequenzen,NI_Sequenzen,,,,,,,,,,,,,,
,Screen_2,canvas.Screen,0_0_19_1,,skipped,20,29936,,,29934,,29936,2021-10-22T20:44:30.933Z,29965.02,1634935437,full,ni_sequenzen,NI_Sequenzen,,,,,,,,,,,,,,
,Screen_3,canvas.Screen,0_0_19_2,,skipped,20,29937,,,29934,,29937,2021-10-22T20:44:30.934Z,29965.02,1634935437,full,ni_sequenzen,NI_Sequenzen,,,,,,,,,,,,,,
,Screen_4,canvas.Screen,0_0_19_3,,skipped,20,29938,,,29934,,29938,2021-10-22T20:44:30.937Z,29965.02,1634935437,full,ni_sequenzen,NI_Sequenzen,,,,,,,,,,,,,,
,Sequence,flow.Sequence,0_0_19,,completion,20,29933,,,29934,,29939,2021-10-22T20:44:30.937Z,29965.02,1634935437,full,ni_sequenzen,NI_Sequenzen,,,,,,,,,,,,,,
,Instructions_I,flow.Loop,0_0,,completion,,668,753.78,781.38,29934,29152.62,29939,2021-10-22T20:44:30.937Z,29965.02,1634935437,full,ni_sequenzen,NI_Sequenzen,,,,,,,,,,,,,,
,Move,canvas.Screen,0_1_0_0,right,response,,29952,29952.88,29965.02,30867,901.9799999999996,30868,2021-10-22T20:44:31.866Z,30872.5,1634935437,full,ni_sequenzen,NI_Sequenzen,1,,,,,,,,,,,,,
,Move,canvas.Screen,0_1_0_1,left,response,,30873,30872.26,30872.5,31366,493.5,31370,2021-10-22T20:44:32.367Z,31374.28,1634935437,full,ni_sequenzen,NI_Sequenzen,2,,,,,,,,,,,,,
,Move,canvas.Screen,0_1_0_2,down,response,,31374,31374.08,31374.28,31819,444.72000000000116,31830,2021-10-22T20:44:32.828Z,31834.26,1634935437,full,ni_sequenzen,NI_Sequenzen,3,,,,,,,,,,,,,
,Move,canvas.Screen,0_1_0_3,right,response,,31834,31834.02,31834.26,32288,453.7400000000016,32299,2021-10-22T20:44:33.295Z,32307.82,1634935437,full,ni_sequenzen,NI_Sequenzen,4,,,,,,,,,,,,,
,Move,canvas.Screen,0_1_0_4,left,response,,32307,32307.46,32307.82,32710,402.1800000000003,32721,2021-10-22T20:44:33.719Z,32726.7,1634935437,full,ni_sequenzen,NI_Sequenzen,5,,,,,,,,,,,,,
,Move,canvas.Screen,0_1_0_5,down,response,,32726,32726.36,32726.7,33304,577.2999999999993,33310,2021-10-22T20:44:34.307Z,33315.98,1634935437,full,ni_sequenzen,NI_Sequenzen,6,,,,,,,,,,,,,
,Move,canvas.Screen,0_1_0_6,down,response,,33316,33315.74,33315.98,33710,394.0199999999968,33722,2021-10-22T20:44:34.720Z,33726.48,1634935437,full,ni_sequenzen,NI_Sequenzen,7,,,,,,,,,,,,,
,Move,canvas.Screen,0_1_0_7,left,response,,33726,33726.2,33726.48,34242,515.5199999999968,34244,2021-10-22T20:44:35.242Z,34250.4,1634935437,full,ni_sequenzen,NI_Sequenzen,8,,,,,,,,,,,,,
,Move,canvas.Screen,0_1_0_8,right,response,,34250,34250.2,34250.4,34600,349.59999999999854,34603,2021-10-22T20:44:35.601Z,34609.04,1634935437,full,ni_sequenzen,NI_Sequenzen,9,,,,,,,,,,,,,
,Move,canvas.Screen,0_1_0_9,down,response,,34609,34608.78,34609.04,35194,584.9599999999991,35198,2021-10-22T20:44:36.195Z,35202.62,1634935437,full,ni_sequenzen,NI_Sequenzen,10,,,,,,,,,,,,,
,Move,canvas.Screen,0_1_0_10,down,response,,35202,35202.14,35202.62,35492,289.3799999999974,35505,2021-10-22T20:44:36.503Z,35510.18,1634935437,full,ni_sequenzen,NI_Sequenzen,11,,,,,,,,,,,,,
,Move,canvas.Screen,0_1_0_11,left,response,,35510,35509.94,35510.18,36163,652.8199999999997,36168,2021-10-22T20:44:37.166Z,36173.5,1634935437,full,ni_sequenzen,NI_Sequenzen,12,,,,,,,,,,,,,
,Move,canvas.Screen,0_1_0_12,down,response,,36174,36173.24,36173.5,36834,660.5,36841,2021-10-22T20:44:37.839Z,36845.24,1634935437,full,ni_sequenzen,NI_Sequenzen,13,,,,,,,,,,,,,
,Move,canvas.Screen,0_1_0_13,right,response,,36845,36844.94,36845.24,37225,379.76000000000204,37232,2021-10-22T20:44:38.229Z,37236.76,1634935437,full,ni_sequenzen,NI_Sequenzen,14,,,,,,,,,,,,,
,Move,canvas.Screen,0_1_0_14,down,response,,37236,37236.48,37236.76,37709,472.23999999999796,37720,2021-10-22T20:44:38.718Z,37724.12,1634935437,full,ni_sequenzen,NI_Sequenzen,15,,,,,,,,,,,,,
,Move,canvas.Screen,0_1_0_15,left,response,,37724,37723.88,37724.12,37991,266.8799999999974,38004,2021-10-22T20:44:39.001Z,38008,1634935437,full,ni_sequenzen,NI_Sequenzen,16,,,,,,,,,,,,,
,Move,canvas.Screen,0_1_0_16,down,response,,38008,38007.76,38008,38398,390,38406,2021-10-22T20:44:39.404Z,38410.1,1634935437,full,ni_sequenzen,NI_Sequenzen,17,,,,,,,,,,,,,
,Move,canvas.Screen,0_1_0_17,left,response,,38410,38409.88,38410.1,39928,1517.9000000000015,39943,2021-10-22T20:44:40.941Z,39947,1634935437,full,ni_sequenzen,NI_Sequenzen,18,,,,,,,,,,,,,
,Move,canvas.Screen,0_1_0_18,down,response,,39946,39946.76,39947,40459,512,40469,2021-10-22T20:44:41.467Z,40473.18,1634935437,full,ni_sequenzen,NI_Sequenzen,19,,,,,,,,,,,,,
,Move,canvas.Screen,0_1_0_19,right,response,,40473,40472.98,40473.18,40772,298.8199999999997,40774,2021-10-22T20:44:41.772Z,40778.44,1634935437,full,ni_sequenzen,NI_Sequenzen,20,,,,,,,,,,,,,
,Move,canvas.Screen,0_1_0_20,down,response,,40778,40778.24,40778.44,41069,290.5599999999977,41079,2021-10-22T20:44:42.076Z,41081.8,1634935437,full,ni_sequenzen,NI_Sequenzen,21,,,,,,,,,,,,,
,Move,canvas.Screen,0_1_0_21,left,response,,41082,41081.58,41081.8,41538,456.1999999999971,41547,2021-10-22T20:44:42.545Z,41551.68,1634935437,full,ni_sequenzen,NI_Sequenzen,22,,,,,,,,,,,,,
,Move,canvas.Screen,0_1_0_22,down,response,,41551,41551.46,41551.68,41804,252.3199999999997,41817,2021-10-22T20:44:42.815Z,41820.66,1634935437,full,ni_sequenzen,NI_Sequenzen,23,,,,,,,,,,,,,
,Move,canvas.Screen,0_1_0_23,right,response,,41820,41820.44,41820.66,42084,263.3399999999965,42091,2021-10-22T20:44:43.089Z,42095.84,1634935437,full,ni_sequenzen,NI_Sequenzen,24,,,,,,,,,,,,,
,Move,canvas.Screen,0_1_0_24,down,response,,42095,42095.66,42095.84,42351,255.1600000000035,42367,2021-10-22T20:44:43.365Z,42370.44,1634935437,full,ni_sequenzen,NI_Sequenzen,25,,,,,,,,,,,,,
,Move,canvas.Screen,0_1_0_25,left,response,,42370,42370.24,42370.44,42804,433.5599999999977,42807,2021-10-22T20:44:43.805Z,42810.96,1634935437,full,ni_sequenzen,NI_Sequenzen,26,,,,,,,,,,,,,
,Move,canvas.Screen,0_1_0_26,down,response,,42811,42810.78,42810.96,43069,258.0400000000009,43083,2021-10-22T20:44:44.080Z,43086.48,1634935437,full,ni_sequenzen,NI_Sequenzen,27,,,,,,,,,,,,,
,Move,canvas.Screen,0_1_0_27,right,response,,43087,43086.28,43086.48,43335,248.5199999999968,43351,2021-10-22T20:44:44.349Z,43356.46,1634935437,full,ni_sequenzen,NI_Sequenzen,28,,,,,,,,,,,,,
,Move,canvas.Screen,0_1_0_28,down,response,,43356,43356.3,43356.46,44006,649.5400000000009,44010,2021-10-22T20:44:45.007Z,44015.86,1634935437,full,ni_sequenzen,NI_Sequenzen,29,,,,,,,,,,,,,
,Move,canvas.Screen,0_1_0_29,left,response,,44015,44015.68,44015.86,44944,928.1399999999994,44946,2021-10-22T20:44:45.943Z,45014.9,1634935437,full,ni_sequenzen,NI_Sequenzen,30,,,,,,,,,,,,,
,Loop,flow.Loop,0_1_0,-999,completion,,29949,29952.88,29965.02,44944,14978.98,44946,2021-10-22T20:44:45.944Z,45014.9,1634935437,full,ni_sequenzen,NI_Sequenzen,,,,,,,,,,,,,,
,Training_I,flow.Sequence,0_1,,completion,,29940,29952.88,29965.02,44944,14978.98,44946,2021-10-22T20:44:45.944Z,45014.9,1634935437,full,ni_sequenzen,NI_Sequenzen,,,,,,,,,,,,,,
,Screen_1,canvas.Screen,0_2_0_0,cont,response,1,45015,45014.72,45014.9,52225,7210.0999999999985,52234,2021-10-22T20:44:53.231Z,52350.4,1634935437,full,ni_sequenzen,NI_Sequenzen,,,,,,,,,,,,,,
,Screen_2,canvas.Screen,0_2_0_1,cont,response,1,52350,52350.18,52350.4,57538,5187.5999999999985,57541,2021-10-22T20:44:58.539Z,57548.66,1634935437,full,ni_sequenzen,NI_Sequenzen,,,,,,,,,,,,,,
,Screen_3,canvas.Screen,0_2_0_2,cont,response,1,57547,57547.06,57548.66,64709,7160.3399999999965,64715,2021-10-22T20:45:05.713Z,64798.74,1634935437,full,ni_sequenzen,NI_Sequenzen,,,,,,,,,,,,,,
,Screen_4,canvas.Screen,0_2_0_3,cont,response,1,64795,64795.18,64798.74,69570,4771.260000000002,69583,2021-10-22T20:45:10.581Z,69586.54,1634935437,full,ni_sequenzen,NI_Sequenzen,,,,,,,,,,,,,,
,Screen_5,canvas.Screen,0_2_0_4,cont,response,1,69586,69586.32,69586.54,74459,4872.460000000006,74461,2021-10-22T20:45:15.459Z,74548.84,1634935437,full,ni_sequenzen,NI_Sequenzen,,,,,,,,,,,,,,
,Screen_6,canvas.Screen,0_2_0_5,cont,response,1,74540,74539.76,74548.84,80006,5457.1600000000035,80022,2021-10-22T20:45:21.020Z,80333.3,1634935437,full,ni_sequenzen,NI_Sequenzen,,,,,,,,,,,,,,
,Sequence,flow.Sequence,0_2_0,,completion,1,45013,45014.72,45014.9,80006,34991.1,80022,2021-10-22T20:45:21.020Z,80333.3,1634935437,full,ni_sequenzen,NI_Sequenzen,,,,,,,,,,,,,,
,Screen_1,canvas.Screen,0_2_1_0,,skipped,2,80025,,,80025,,80025,2021-10-22T20:45:21.023Z,80333.3,1634935437,full,ni_sequenzen,NI_Sequenzen,,,,,,,,,,,,,,
,Screen_2,canvas.Screen,0_2_1_1,,skipped,2,80027,,,80025,,80027,2021-10-22T20:45:21.026Z,80333.3,1634935437,full,ni_sequenzen,NI_Sequenzen,,,,,,,,,,,,,,
,Screen_3,canvas.Screen,0_2_1_2,,skipped,2,80029,,,80025,,80029,2021-10-22T20:45:21.027Z,80333.3,1634935437,full,ni_sequenzen,NI_Sequenzen,,,,,,,,,,,,,,
,Screen_4,canvas.Screen,0_2_1_3,,skipped,2,80031,,,80025,,80031,2021-10-22T20:45:21.029Z,80333.3,1634935437,full,ni_sequenzen,NI_Sequenzen,,,,,,,,,,,,,,
,Screen_5,canvas.Screen,0_2_1_4,,skipped,2,80033,,,80025,,80033,2021-10-22T20:45:21.031Z,80333.3,1634935437,full,ni_sequenzen,NI_Sequenzen,,,,,,,,,,,,,,
,Screen_6,canvas.Screen,0_2_1_5,,skipped,2,80035,,,80025,,80035,2021-10-22T20:45:21.034Z,80333.3,1634935437,full,ni_sequenzen,NI_Sequenzen,,,,,,,,,,,,,,
,Sequence,flow.Sequence,0_2_1,,completion,2,80023,,,80025,,80036,2021-10-22T20:45:21.034Z,80333.3,1634935437,full,ni_sequenzen,NI_Sequenzen,,,,,,,,,,,,,,
,Screen_1,canvas.Screen,0_2_2_0,,skipped,3,80038,,,80038,,80038,2021-10-22T20:45:21.036Z,80333.3,1634935437,full,ni_sequenzen,NI_Sequenzen,,,,,,,,,,,,,,
,Screen_2,canvas.Screen,0_2_2_1,,skipped,3,80040,,,80038,,80040,2021-10-22T20:45:21.038Z,80333.3,1634935437,full,ni_sequenzen,NI_Sequenzen,,,,,,,,,,,,,,
,Screen_3,canvas.Screen,0_2_2_2,,skipped,3,80042,,,80038,,80042,2021-10-22T20:45:21.041Z,80333.3,1634935437,full,ni_sequenzen,NI_Sequenzen,,,,,,,,,,,,,,
,Screen_4,canvas.Screen,0_2_2_3,,skipped,3,80045,,,80038,,80045,2021-10-22T20:45:21.042Z,80333.3,1634935437,full,ni_sequenzen,NI_Sequenzen,,,,,,,,,,,,,,
,Screen_5,canvas.Screen,0_2_2_4,,skipped,3,80046,,,80038,,80046,2021-10-22T20:45:21.044Z,80333.3,1634935437,full,ni_sequenzen,NI_Sequenzen,,,,,,,,,,,,,,
,Screen_6,canvas.Screen,0_2_2_5,,skipped,3,80048,,,80038,,80048,2021-10-22T20:45:21.045Z,80333.3,1634935437,full,ni_sequenzen,NI_Sequenzen,,,,,,,,,,,,,,
,Sequence,flow.Sequence,0_2_2,,completion,3,80037,,,80038,,80049,2021-10-22T20:45:21.046Z,80333.3,1634935437,full,ni_sequenzen,NI_Sequenzen,,,,,,,,,,,,,,
,Screen_1,canvas.Screen,0_2_3_0,,skipped,4,80051,,,80051,,80051,2021-10-22T20:45:21.048Z,80333.3,1634935437,full,ni_sequenzen,NI_Sequenzen,,,,,,,,,,,,,,
,Screen_2,canvas.Screen,0_2_3_1,,skipped,4,80052,,,80051,,80052,2021-10-22T20:45:21.050Z,80333.3,1634935437,full,ni_sequenzen,NI_Sequenzen,,,,,,,,,,,,,,
,Screen_3,canvas.Screen,0_2_3_2,,skipped,4,80054,,,80051,,80054,2021-10-22T20:45:21.051Z,80333.3,1634935437,full,ni_sequenzen,NI_Sequenzen,,,,,,,,,,,,,,
,Screen_4,canvas.Screen,0_2_3_3,,skipped,4,80055,,,80051,,80055,2021-10-22T20:45:21.053Z,80333.3,1634935437,full,ni_sequenzen,NI_Sequenzen,,,,,,,,,,,,,,
,Screen_5,canvas.Screen,0_2_3_4,,skipped,4,80057,,,80051,,80057,2021-10-22T20:45:21.055Z,80333.3,1634935437,full,ni_sequenzen,NI_Sequenzen,,,,,,,,,,,,,,
,Screen_6,canvas.Screen,0_2_3_5,,skipped,4,80059,,,80051,,80059,2021-10-22T20:45:21.057Z,80333.3,1634935437,full,ni_sequenzen,NI_Sequenzen,,,,,,,,,,,,,,
,Sequence,flow.Sequence,0_2_3,,completion,4,80049,,,80051,,80059,2021-10-22T20:45:21.057Z,80333.3,1634935437,full,ni_sequenzen,NI_Sequenzen,,,,,,,,,,,,,,
,Screen_1,canvas.Screen,0_2_4_0,,skipped,5,80061,,,80061,,80061,2021-10-22T20:45:21.059Z,80333.3,1634935437,full,ni_sequenzen,NI_Sequenzen,,,,,,,,,,,,,,
,Screen_2,canvas.Screen,0_2_4_1,,skipped,5,80063,,,80061,,80063,2021-10-22T20:45:21.060Z,80333.3,1634935437,full,ni_sequenzen,NI_Sequenzen,,,,,,,,,,,,,,
,Screen_3,canvas.Screen,0_2_4_2,,skipped,5,80064,,,80061,,80064,2021-10-22T20:45:21.062Z,80333.3,1634935437,full,ni_sequenzen,NI_Sequenzen,,,,,,,,,,,,,,
,Screen_4,canvas.Screen,0_2_4_3,,skipped,5,80066,,,80061,,80066,2021-10-22T20:45:21.063Z,80333.3,1634935437,full,ni_sequenzen,NI_Sequenzen,,,,,,,,,,,,,,
,Screen_5,canvas.Screen,0_2_4_4,,skipped,5,80067,,,80061,,80067,2021-10-22T20:45:21.065Z,80333.3,1634935437,full,ni_sequenzen,NI_Sequenzen,,,,,,,,,,,,,,
,Screen_6,canvas.Screen,0_2_4_5,,skipped,5,80069,,,80061,,80069,2021-10-22T20:45:21.066Z,80333.3,1634935437,full,ni_sequenzen,NI_Sequenzen,,,,,,,,,,,,,,
,Sequence,flow.Sequence,0_2_4,,completion,5,80060,,,80061,,80069,2021-10-22T20:45:21.067Z,80333.3,1634935437,full,ni_sequenzen,NI_Sequenzen,,,,,,,,,,,,,,
,Screen_1,canvas.Screen,0_2_5_0,,skipped,6,80071,,,80071,,80071,2021-10-22T20:45:21.069Z,80333.3,1634935437,full,ni_sequenzen,NI_Sequenzen,,,,,,,,,,,,,,
,Screen_2,canvas.Screen,0_2_5_1,,skipped,6,80072,,,80071,,80072,2021-10-22T20:45:21.071Z,80333.3,1634935437,full,ni_sequenzen,NI_Sequenzen,,,,,,,,,,,,,,
,Screen_3,canvas.Screen,0_2_5_2,,skipped,6,80074,,,80071,,80074,2021-10-22T20:45:21.072Z,80333.3,1634935437,full,ni_sequenzen,NI_Sequenzen,,,,,,,,,,,,,,
,Screen_4,canvas.Screen,0_2_5_3,,skipped,6,80076,,,80071,,80076,2021-10-22T20:45:21.074Z,80333.3,1634935437,full,ni_sequenzen,NI_Sequenzen,,,,,,,,,,,,,,
,Screen_5,canvas.Screen,0_2_5_4,,skipped,6,80078,,,80071,,80078,2021-10-22T20:45:21.076Z,80333.3,1634935437,full,ni_sequenzen,NI_Sequenzen,,,,,,,,,,,,,,
,Screen_6,canvas.Screen,0_2_5_5,,skipped,6,80078,,,80071,,80079,2021-10-22T20:45:21.077Z,80333.3,1634935437,full,ni_sequenzen,NI_Sequenzen,,,,,,,,,,,,,,
,Sequence,flow.Sequence,0_2_5,,completion,6,80070,,,80071,,80080,2021-10-22T20:45:21.077Z,80333.3,1634935437,full,ni_sequenzen,NI_Sequenzen,,,,,,,,,,,,,,
,Screen_1,canvas.Screen,0_2_6_0,,skipped,7,80082,,,80082,,80082,2021-10-22T20:45:21.079Z,80333.3,1634935437,full,ni_sequenzen,NI_Sequenzen,,,,,,,,,,,,,,
,Screen_2,canvas.Screen,0_2_6_1,,skipped,7,80083,,,80082,,80083,2021-10-22T20:45:21.081Z,80333.3,1634935437,full,ni_sequenzen,NI_Sequenzen,,,,,,,,,,,,,,
,Screen_3,canvas.Screen,0_2_6_2,,skipped,7,80085,,,80082,,80085,2021-10-22T20:45:21.083Z,80333.3,1634935437,full,ni_sequenzen,NI_Sequenzen,,,,,,,,,,,,,,
,Screen_4,canvas.Screen,0_2_6_3,,skipped,7,80087,,,80082,,80087,2021-10-22T20:45:21.085Z,80333.3,1634935437,full,ni_sequenzen,NI_Sequenzen,,,,,,,,,,,,,,
,Screen_5,canvas.Screen,0_2_6_4,,skipped,7,80088,,,80082,,80088,2021-10-22T20:45:21.086Z,80333.3,1634935437,full,ni_sequenzen,NI_Sequenzen,,,,,,,,,,,,,,
,Screen_6,canvas.Screen,0_2_6_5,,skipped,7,80089,,,80082,,80089,2021-10-22T20:45:21.087Z,80333.3,1634935437,full,ni_sequenzen,NI_Sequenzen,,,,,,,,,,,,,,
,Sequence,flow.Sequence,0_2_6,,completion,7,80081,,,80082,,80089,2021-10-22T20:45:21.088Z,80333.3,1634935437,full,ni_sequenzen,NI_Sequenzen,,,,,,,,,,,,,,
,Screen_1,canvas.Screen,0_2_7_0,,skipped,8,80091,,,80091,,80092,2021-10-22T20:45:21.090Z,80333.3,1634935437,full,ni_sequenzen,NI_Sequenzen,,,,,,,,,,,,,,
,Screen_2,canvas.Screen,0_2_7_1,,skipped,8,80093,,,80091,,80093,2021-10-22T20:45:21.091Z,80333.3,1634935437,full,ni_sequenzen,NI_Sequenzen,,,,,,,,,,,,,,
,Screen_3,canvas.Screen,0_2_7_2,,skipped,8,80094,,,80091,,80095,2021-10-22T20:45:21.093Z,80333.3,1634935437,full,ni_sequenzen,NI_Sequenzen,,,,,,,,,,,,,,
,Screen_4,canvas.Screen,0_2_7_3,,skipped,8,80096,,,80091,,80096,2021-10-22T20:45:21.094Z,80333.3,1634935437,full,ni_sequenzen,NI_Sequenzen,,,,,,,,,,,,,,
,Screen_5,canvas.Screen,0_2_7_4,,skipped,8,80097,,,80091,,80097,2021-10-22T20:45:21.095Z,80333.3,1634935437,full,ni_sequenzen,NI_Sequenzen,,,,,,,,,,,,,,
,Screen_6,canvas.Screen,0_2_7_5,,skipped,8,80099,,,80091,,80099,2021-10-22T20:45:21.097Z,80333.3,1634935437,full,ni_sequenzen,NI_Sequenzen,,,,,,,,,,,,,,
,Sequence,flow.Sequence,0_2_7,,completion,8,80090,,,80091,,80099,2021-10-22T20:45:21.097Z,80333.3,1634935437,full,ni_sequenzen,NI_Sequenzen,,,,,,,,,,,,,,
,Screen_1,canvas.Screen,0_2_8_0,,skipped,9,80102,,,80102,,80102,2021-10-22T20:45:21.099Z,80333.3,1634935437,full,ni_sequenzen,NI_Sequenzen,,,,,,,,,,,,,,
,Screen_2,canvas.Screen,0_2_8_1,,skipped,9,80102,,,80102,,80102,2021-10-22T20:45:21.100Z,80333.3,1634935437,full,ni_sequenzen,NI_Sequenzen,,,,,,,,,,,,,,
,Screen_3,canvas.Screen,0_2_8_2,,skipped,9,80103,,,80102,,80104,2021-10-22T20:45:21.102Z,80333.3,1634935437,full,ni_sequenzen,NI_Sequenzen,,,,,,,,,,,,,,
,Screen_4,canvas.Screen,0_2_8_3,,skipped,9,80106,,,80102,,80106,2021-10-22T20:45:21.103Z,80333.3,1634935437,full,ni_sequenzen,NI_Sequenzen,,,,,,,,,,,,,,
,Screen_5,canvas.Screen,0_2_8_4,,skipped,9,80106,,,80102,,80106,2021-10-22T20:45:21.105Z,80333.3,1634935437,full,ni_sequenzen,NI_Sequenzen,,,,,,,,,,,,,,
,Screen_6,canvas.Screen,0_2_8_5,,skipped,9,80109,,,80102,,80109,2021-10-22T20:45:21.106Z,80333.3,1634935437,full,ni_sequenzen,NI_Sequenzen,,,,,,,,,,,,,,
,Sequence,flow.Sequence,0_2_8,,completion,9,80100,,,80102,,80109,2021-10-22T20:45:21.107Z,80333.3,1634935437,full,ni_sequenzen,NI_Sequenzen,,,,,,,,,,,,,,
,Screen_1,canvas.Screen,0_2_9_0,,skipped,10,80112,,,80112,,80112,2021-10-22T20:45:21.109Z,80333.3,1634935437,full,ni_sequenzen,NI_Sequenzen,,,,,,,,,,,,,,
,Screen_2,canvas.Screen,0_2_9_1,,skipped,10,80113,,,80112,,80113,2021-10-22T20:45:21.111Z,80333.3,1634935437,full,ni_sequenzen,NI_Sequenzen,,,,,,,,,,,,,,
,Screen_3,canvas.Screen,0_2_9_2,,skipped,10,80115,,,80112,,80115,2021-10-22T20:45:21.113Z,80333.3,1634935437,full,ni_sequenzen,NI_Sequenzen,,,,,,,,,,,,,,
,Screen_4,canvas.Screen,0_2_9_3,,skipped,10,80116,,,80112,,80117,2021-10-22T20:45:21.114Z,80333.3,1634935437,full,ni_sequenzen,NI_Sequenzen,,,,,,,,,,,,,,
,Screen_5,canvas.Screen,0_2_9_4,,skipped,10,80118,,,80112,,80118,2021-10-22T20:45:21.116Z,80333.3,1634935437,full,ni_sequenzen,NI_Sequenzen,,,,,,,,,,,,,,
,Screen_6,canvas.Screen,0_2_9_5,,skipped,10,80119,,,80112,,80119,2021-10-22T20:45:21.117Z,80333.3,1634935437,full,ni_sequenzen,NI_Sequenzen,,,,,,,,,,,,,,
,Sequence,flow.Sequence,0_2_9,,completion,10,80111,,,80112,,80120,2021-10-22T20:45:21.117Z,80333.3,1634935437,full,ni_sequenzen,NI_Sequenzen,,,,,,,,,,,,,,
,Screen_1,canvas.Screen,0_2_10_0,,skipped,11,80121,,,80121,,80121,2021-10-22T20:45:21.119Z,80333.3,1634935437,full,ni_sequenzen,NI_Sequenzen,,,,,,,,,,,,,,
,Screen_2,canvas.Screen,0_2_10_1,,skipped,11,80123,,,80121,,80123,2021-10-22T20:45:21.121Z,80333.3,1634935437,full,ni_sequenzen,NI_Sequenzen,,,,,,,,,,,,,,
,Screen_3,canvas.Screen,0_2_10_2,,skipped,11,80124,,,80121,,80124,2021-10-22T20:45:21.122Z,80333.3,1634935437,full,ni_sequenzen,NI_Sequenzen,,,,,,,,,,,,,,
,Screen_4,canvas.Screen,0_2_10_3,,skipped,11,80125,,,80121,,80125,2021-10-22T20:45:21.123Z,80333.3,1634935437,full,ni_sequenzen,NI_Sequenzen,,,,,,,,,,,,,,
,Screen_5,canvas.Screen,0_2_10_4,,skipped,11,80127,,,80121,,80127,2021-10-22T20:45:21.125Z,80333.3,1634935437,full,ni_sequenzen,NI_Sequenzen,,,,,,,,,,,,,,
,Screen_6,canvas.Screen,0_2_10_5,,skipped,11,80128,,,80121,,80128,2021-10-22T20:45:21.127Z,80333.3,1634935437,full,ni_sequenzen,NI_Sequenzen,,,,,,,,,,,,,,
,Sequence,flow.Sequence,0_2_10,,completion,11,80120,,,80121,,80128,2021-10-22T20:45:21.127Z,80333.3,1634935437,full,ni_sequenzen,NI_Sequenzen,,,,,,,,,,,,,,
,Screen_1,canvas.Screen,0_2_11_0,,skipped,12,80130,,,80130,,80130,2021-10-22T20:45:21.128Z,80333.3,1634935437,full,ni_sequenzen,NI_Sequenzen,,,,,,,,,,,,,,
,Screen_2,canvas.Screen,0_2_11_1,,skipped,12,80131,,,80130,,80131,2021-10-22T20:45:21.129Z,80333.3,1634935437,full,ni_sequenzen,NI_Sequenzen,,,,,,,,,,,,,,
,Screen_3,canvas.Screen,0_2_11_2,,skipped,12,80133,,,80130,,80134,2021-10-22T20:45:21.130Z,80333.3,1634935437,full,ni_sequenzen,NI_Sequenzen,,,,,,,,,,,,,,
,Screen_4,canvas.Screen,0_2_11_3,,skipped,12,80135,,,80130,,80135,2021-10-22T20:45:21.133Z,80333.3,1634935437,full,ni_sequenzen,NI_Sequenzen,,,,,,,,,,,,,,
,Screen_5,canvas.Screen,0_2_11_4,,skipped,12,80136,,,80130,,80136,2021-10-22T20:45:21.134Z,80333.3,1634935437,full,ni_sequenzen,NI_Sequenzen,,,,,,,,,,,,,,
,Screen_6,canvas.Screen,0_2_11_5,,skipped,12,80137,,,80130,,80137,2021-10-22T20:45:21.136Z,80333.3,1634935437,full,ni_sequenzen,NI_Sequenzen,,,,,,,,,,,,,,
,Sequence,flow.Sequence,0_2_11,,completion,12,80129,,,80130,,80138,2021-10-22T20:45:21.136Z,80333.3,1634935437,full,ni_sequenzen,NI_Sequenzen,,,,,,,,,,,,,,
,Screen_1,canvas.Screen,0_2_12_0,,skipped,13,80140,,,80140,,80140,2021-10-22T20:45:21.138Z,80333.3,1634935437,full,ni_sequenzen,NI_Sequenzen,,,,,,,,,,,,,,
,Screen_2,canvas.Screen,0_2_12_1,,skipped,13,80142,,,80140,,80142,2021-10-22T20:45:21.140Z,80333.3,1634935437,full,ni_sequenzen,NI_Sequenzen,,,,,,,,,,,,,,
,Screen_3,canvas.Screen,0_2_12_2,,skipped,13,80144,,,80140,,80144,2021-10-22T20:45:21.141Z,80333.3,1634935437,full,ni_sequenzen,NI_Sequenzen,,,,,,,,,,,,,,
,Screen_4,canvas.Screen,0_2_12_3,,skipped,13,80145,,,80140,,80145,2021-10-22T20:45:21.143Z,80333.3,1634935437,full,ni_sequenzen,NI_Sequenzen,,,,,,,,,,,,,,
,Screen_5,canvas.Screen,0_2_12_4,,skipped,13,80146,,,80140,,80146,2021-10-22T20:45:21.144Z,80333.3,1634935437,full,ni_sequenzen,NI_Sequenzen,,,,,,,,,,,,,,
,Screen_6,canvas.Screen,0_2_12_5,,skipped,13,80147,,,80140,,80148,2021-10-22T20:45:21.145Z,80333.3,1634935437,full,ni_sequenzen,NI_Sequenzen,,,,,,,,,,,,,,
,Sequence,flow.Sequence,0_2_12,,completion,13,80138,,,80140,,80148,2021-10-22T20:45:21.145Z,80333.3,1634935437,full,ni_sequenzen,NI_Sequenzen,,,,,,,,,,,,,,
,Screen_1,canvas.Screen,0_2_13_0,,skipped,14,80149,,,80149,,80149,2021-10-22T20:45:21.147Z,80333.3,1634935437,full,ni_sequenzen,NI_Sequenzen,,,,,,,,,,,,,,
,Screen_2,canvas.Screen,0_2_13_1,,skipped,14,80150,,,80149,,80150,2021-10-22T20:45:21.148Z,80333.3,1634935437,full,ni_sequenzen,NI_Sequenzen,,,,,,,,,,,,,,
,Screen_3,canvas.Screen,0_2_13_2,,skipped,14,80152,,,80149,,80152,2021-10-22T20:45:21.149Z,80333.3,1634935437,full,ni_sequenzen,NI_Sequenzen,,,,,,,,,,,,,,
,Screen_4,canvas.Screen,0_2_13_3,,skipped,14,80153,,,80149,,80153,2021-10-22T20:45:21.151Z,80333.3,1634935437,full,ni_sequenzen,NI_Sequenzen,,,,,,,,,,,,,,
,Screen_5,canvas.Screen,0_2_13_4,,skipped,14,80154,,,80149,,80154,2021-10-22T20:45:21.152Z,80333.3,1634935437,full,ni_sequenzen,NI_Sequenzen,,,,,,,,,,,,,,
,Screen_6,canvas.Screen,0_2_13_5,,skipped,14,80156,,,80149,,80156,2021-10-22T20:45:21.154Z,80333.3,1634935437,full,ni_sequenzen,NI_Sequenzen,,,,,,,,,,,,,,
,Sequence,flow.Sequence,0_2_13,,completion,14,80148,,,80149,,80156,2021-10-22T20:45:21.154Z,80333.3,1634935437,full,ni_sequenzen,NI_Sequenzen,,,,,,,,,,,,,,
,Screen_1,canvas.Screen,0_2_14_0,,skipped,15,80158,,,80158,,80158,2021-10-22T20:45:21.156Z,80333.3,1634935437,full,ni_sequenzen,NI_Sequenzen,,,,,,,,,,,,,,
,Screen_2,canvas.Screen,0_2_14_1,,skipped,15,80159,,,80158,,80159,2021-10-22T20:45:21.157Z,80333.3,1634935437,full,ni_sequenzen,NI_Sequenzen,,,,,,,,,,,,,,
,Screen_3,canvas.Screen,0_2_14_2,,skipped,15,80162,,,80158,,80162,2021-10-22T20:45:21.158Z,80333.3,1634935437,full,ni_sequenzen,NI_Sequenzen,,,,,,,,,,,,,,
,Screen_4,canvas.Screen,0_2_14_3,,skipped,15,80163,,,80158,,80163,2021-10-22T20:45:21.161Z,80333.3,1634935437,full,ni_sequenzen,NI_Sequenzen,,,,,,,,,,,,,,
,Screen_5,canvas.Screen,0_2_14_4,,skipped,15,80163,,,80158,,80163,2021-10-22T20:45:21.162Z,80333.3,1634935437,full,ni_sequenzen,NI_Sequenzen,,,,,,,,,,,,,,
,Screen_6,canvas.Screen,0_2_14_5,,skipped,15,80165,,,80158,,80165,2021-10-22T20:45:21.162Z,80333.3,1634935437,full,ni_sequenzen,NI_Sequenzen,,,,,,,,,,,,,,
,Sequence,flow.Sequence,0_2_14,,completion,15,80157,,,80158,,80166,2021-10-22T20:45:21.163Z,80333.3,1634935437,full,ni_sequenzen,NI_Sequenzen,,,,,,,,,,,,,,
,Screen_1,canvas.Screen,0_2_15_0,,skipped,16,80167,,,80167,,80167,2021-10-22T20:45:21.165Z,80333.3,1634935437,full,ni_sequenzen,NI_Sequenzen,,,,,,,,,,,,,,
,Screen_2,canvas.Screen,0_2_15_1,,skipped,16,80168,,,80167,,80168,2021-10-22T20:45:21.167Z,80333.3,1634935437,full,ni_sequenzen,NI_Sequenzen,,,,,,,,,,,,,,
,Screen_3,canvas.Screen,0_2_15_2,,skipped,16,80170,,,80167,,80170,2021-10-22T20:45:21.168Z,80333.3,1634935437,full,ni_sequenzen,NI_Sequenzen,,,,,,,,,,,,,,
,Screen_4,canvas.Screen,0_2_15_3,,skipped,16,80171,,,80167,,80171,2021-10-22T20:45:21.169Z,80333.3,1634935437,full,ni_sequenzen,NI_Sequenzen,,,,,,,,,,,,,,
,Screen_5,canvas.Screen,0_2_15_4,,skipped,16,80173,,,80167,,80173,2021-10-22T20:45:21.171Z,80333.3,1634935437,full,ni_sequenzen,NI_Sequenzen,,,,,,,,,,,,,,
,Screen_6,canvas.Screen,0_2_15_5,,skipped,16,80174,,,80167,,80174,2021-10-22T20:45:21.172Z,80333.3,1634935437,full,ni_sequenzen,NI_Sequenzen,,,,,,,,,,,,,,
,Sequence,flow.Sequence,0_2_15,,completion,16,80166,,,80167,,80174,2021-10-22T20:45:21.172Z,80333.3,1634935437,full,ni_sequenzen,NI_Sequenzen,,,,,,,,,,,,,,
,Screen_1,canvas.Screen,0_2_16_0,,skipped,17,80176,,,80176,,80176,2021-10-22T20:45:21.174Z,80333.3,1634935437,full,ni_sequenzen,NI_Sequenzen,,,,,,,,,,,,,,
,Screen_2,canvas.Screen,0_2_16_1,,skipped,17,80177,,,80176,,80177,2021-10-22T20:45:21.174Z,80333.3,1634935437,full,ni_sequenzen,NI_Sequenzen,,,,,,,,,,,,,,
,Screen_3,canvas.Screen,0_2_16_2,,skipped,17,80178,,,80176,,80178,2021-10-22T20:45:21.176Z,80333.3,1634935437,full,ni_sequenzen,NI_Sequenzen,,,,,,,,,,,,,,
,Screen_4,canvas.Screen,0_2_16_3,,skipped,17,80179,,,80176,,80179,2021-10-22T20:45:21.177Z,80333.3,1634935437,full,ni_sequenzen,NI_Sequenzen,,,,,,,,,,,,,,
,Screen_5,canvas.Screen,0_2_16_4,,skipped,17,80180,,,80176,,80181,2021-10-22T20:45:21.178Z,80333.3,1634935437,full,ni_sequenzen,NI_Sequenzen,,,,,,,,,,,,,,
,Screen_6,canvas.Screen,0_2_16_5,,skipped,17,80182,,,80176,,80182,2021-10-22T20:45:21.179Z,80333.3,1634935437,full,ni_sequenzen,NI_Sequenzen,,,,,,,,,,,,,,
,Sequence,flow.Sequence,0_2_16,,completion,17,80175,,,80176,,80182,2021-10-22T20:45:21.180Z,80333.3,1634935437,full,ni_sequenzen,NI_Sequenzen,,,,,,,,,,,,,,
,Screen_1,canvas.Screen,0_2_17_0,,skipped,18,80183,,,80183,,80183,2021-10-22T20:45:21.181Z,80333.3,1634935437,full,ni_sequenzen,NI_Sequenzen,,,,,,,,,,,,,,
,Screen_2,canvas.Screen,0_2_17_1,,skipped,18,80185,,,80183,,80185,2021-10-22T20:45:21.182Z,80333.3,1634935437,full,ni_sequenzen,NI_Sequenzen,,,,,,,,,,,,,,
,Screen_3,canvas.Screen,0_2_17_2,,skipped,18,80186,,,80183,,80186,2021-10-22T20:45:21.184Z,80333.3,1634935437,full,ni_sequenzen,NI_Sequenzen,,,,,,,,,,,,,,
,Screen_4,canvas.Screen,0_2_17_3,,skipped,18,80187,,,80183,,80187,2021-10-22T20:45:21.185Z,80333.3,1634935437,full,ni_sequenzen,NI_Sequenzen,,,,,,,,,,,,,,
,Screen_5,canvas.Screen,0_2_17_4,,skipped,18,80188,,,80183,,80189,2021-10-22T20:45:21.187Z,80333.3,1634935437,full,ni_sequenzen,NI_Sequenzen,,,,,,,,,,,,,,
,Screen_6,canvas.Screen,0_2_17_5,,skipped,18,80190,,,80183,,80190,2021-10-22T20:45:21.188Z,80333.3,1634935437,full,ni_sequenzen,NI_Sequenzen,,,,,,,,,,,,,,
,Sequence,flow.Sequence,0_2_17,,completion,18,80182,,,80183,,80190,2021-10-22T20:45:21.188Z,80333.3,1634935437,full,ni_sequenzen,NI_Sequenzen,,,,,,,,,,,,,,
,Screen_1,canvas.Screen,0_2_18_0,,skipped,19,80191,,,80191,,80192,2021-10-22T20:45:21.190Z,80333.3,1634935437,full,ni_sequenzen,NI_Sequenzen,,,,,,,,,,,,,,
,Screen_2,canvas.Screen,0_2_18_1,,skipped,19,80193,,,80191,,80193,2021-10-22T20:45:21.191Z,80333.3,1634935437,full,ni_sequenzen,NI_Sequenzen,,,,,,,,,,,,,,
,Screen_3,canvas.Screen,0_2_18_2,,skipped,19,80194,,,80191,,80194,2021-10-22T20:45:21.192Z,80333.3,1634935437,full,ni_sequenzen,NI_Sequenzen,,,,,,,,,,,,,,
,Screen_4,canvas.Screen,0_2_18_3,,skipped,19,80195,,,80191,,80195,2021-10-22T20:45:21.193Z,80333.3,1634935437,full,ni_sequenzen,NI_Sequenzen,,,,,,,,,,,,,,
,Screen_5,canvas.Screen,0_2_18_4,,skipped,19,80196,,,80191,,80196,2021-10-22T20:45:21.195Z,80333.3,1634935437,full,ni_sequenzen,NI_Sequenzen,,,,,,,,,,,,,,
,Screen_6,canvas.Screen,0_2_18_5,,skipped,19,80198,,,80191,,80198,2021-10-22T20:45:21.196Z,80333.3,1634935437,full,ni_sequenzen,NI_Sequenzen,,,,,,,,,,,,,,
,Sequence,flow.Sequence,0_2_18,,completion,19,80190,,,80191,,80199,2021-10-22T20:45:21.196Z,80333.3,1634935437,full,ni_sequenzen,NI_Sequenzen,,,,,,,,,,,,,,
,Screen_1,canvas.Screen,0_2_19_0,,skipped,20,80200,,,80200,,80200,2021-10-22T20:45:21.198Z,80333.3,1634935437,full,ni_sequenzen,NI_Sequenzen,,,,,,,,,,,,,,
,Screen_2,canvas.Screen,0_2_19_1,,skipped,20,80201,,,80200,,80201,2021-10-22T20:45:21.199Z,80333.3,1634935437,full,ni_sequenzen,NI_Sequenzen,,,,,,,,,,,,,,
,Screen_3,canvas.Screen,0_2_19_2,,skipped,20,80203,,,80200,,80203,2021-10-22T20:45:21.201Z,80333.3,1634935437,full,ni_sequenzen,NI_Sequenzen,,,,,,,,,,,,,,
,Screen_4,canvas.Screen,0_2_19_3,,skipped,20,80205,,,80200,,80205,2021-10-22T20:45:21.202Z,80333.3,1634935437,full,ni_sequenzen,NI_Sequenzen,,,,,,,,,,,,,,
,Screen_5,canvas.Screen,0_2_19_4,,skipped,20,80206,,,80200,,80206,2021-10-22T20:45:21.203Z,80333.3,1634935437,full,ni_sequenzen,NI_Sequenzen,,,,,,,,,,,,,,
,Screen_6,canvas.Screen,0_2_19_5,,skipped,20,80207,,,80200,,80207,2021-10-22T20:45:21.205Z,80333.3,1634935437,full,ni_sequenzen,NI_Sequenzen,,,,,,,,,,,,,,
,Sequence,flow.Sequence,0_2_19,,completion,20,80199,,,80200,,80207,2021-10-22T20:45:21.205Z,80333.3,1634935437,full,ni_sequenzen,NI_Sequenzen,,,,,,,,,,,,,,
,Screen_1,canvas.Screen,0_2_20_0,,skipped,21,80209,,,80209,,80209,2021-10-22T20:45:21.206Z,80333.3,1634935437,full,ni_sequenzen,NI_Sequenzen,,,,,,,,,,,,,,
,Screen_2,canvas.Screen,0_2_20_1,,skipped,21,80210,,,80209,,80210,2021-10-22T20:45:21.208Z,80333.3,1634935437,full,ni_sequenzen,NI_Sequenzen,,,,,,,,,,,,,,
,Screen_3,canvas.Screen,0_2_20_2,,skipped,21,80211,,,80209,,80211,2021-10-22T20:45:21.210Z,80333.3,1634935437,full,ni_sequenzen,NI_Sequenzen,,,,,,,,,,,,,,
,Screen_4,canvas.Screen,0_2_20_3,,skipped,21,80213,,,80209,,80213,2021-10-22T20:45:21.211Z,80333.3,1634935437,full,ni_sequenzen,NI_Sequenzen,,,,,,,,,,,,,,
,Screen_5,canvas.Screen,0_2_20_4,,skipped,21,80214,,,80209,,80214,2021-10-22T20:45:21.212Z,80333.3,1634935437,full,ni_sequenzen,NI_Sequenzen,,,,,,,,,,,,,,
,Screen_6,canvas.Screen,0_2_20_5,,skipped,21,80215,,,80209,,80215,2021-10-22T20:45:21.214Z,80333.3,1634935437,full,ni_sequenzen,NI_Sequenzen,,,,,,,,,,,,,,
,Sequence,flow.Sequence,0_2_20,,completion,21,80208,,,80209,,80215,2021-10-22T20:45:21.214Z,80333.3,1634935437,full,ni_sequenzen,NI_Sequenzen,,,,,,,,,,,,,,
,Screen_1,canvas.Screen,0_2_21_0,,skipped,22,80217,,,80217,,80217,2021-10-22T20:45:21.215Z,80333.3,1634935437,full,ni_sequenzen,NI_Sequenzen,,,,,,,,,,,,,,
,Screen_2,canvas.Screen,0_2_21_1,,skipped,22,80219,,,80217,,80219,2021-10-22T20:45:21.216Z,80333.3,1634935437,full,ni_sequenzen,NI_Sequenzen,,,,,,,,,,,,,,
,Screen_3,canvas.Screen,0_2_21_2,,skipped,22,80220,,,80217,,80220,2021-10-22T20:45:21.218Z,80333.3,1634935437,full,ni_sequenzen,NI_Sequenzen,,,,,,,,,,,,,,
,Screen_4,canvas.Screen,0_2_21_3,,skipped,22,80221,,,80217,,80221,2021-10-22T20:45:21.219Z,80333.3,1634935437,full,ni_sequenzen,NI_Sequenzen,,,,,,,,,,,,,,
,Screen_5,canvas.Screen,0_2_21_4,,skipped,22,80223,,,80217,,80223,2021-10-22T20:45:21.220Z,80333.3,1634935437,full,ni_sequenzen,NI_Sequenzen,,,,,,,,,,,,,,
,Screen_6,canvas.Screen,0_2_21_5,,skipped,22,80224,,,80217,,80224,2021-10-22T20:45:21.222Z,80333.3,1634935437,full,ni_sequenzen,NI_Sequenzen,,,,,,,,,,,,,,
,Sequence,flow.Sequence,0_2_21,,completion,22,80216,,,80217,,80224,2021-10-22T20:45:21.222Z,80333.3,1634935437,full,ni_sequenzen,NI_Sequenzen,,,,,,,,,,,,,,
,Screen_1,canvas.Screen,0_2_22_0,,skipped,23,80225,,,80225,,80225,2021-10-22T20:45:21.224Z,80333.3,1634935437,full,ni_sequenzen,NI_Sequenzen,,,,,,,,,,,,,,
,Screen_2,canvas.Screen,0_2_22_1,,skipped,23,80227,,,80225,,80227,2021-10-22T20:45:21.225Z,80333.3,1634935437,full,ni_sequenzen,NI_Sequenzen,,,,,,,,,,,,,,
,Screen_3,canvas.Screen,0_2_22_2,,skipped,23,80228,,,80225,,80228,2021-10-22T20:45:21.227Z,80333.3,1634935437,full,ni_sequenzen,NI_Sequenzen,,,,,,,,,,,,,,
,Screen_4,canvas.Screen,0_2_22_3,,skipped,23,80229,,,80225,,80229,2021-10-22T20:45:21.228Z,80333.3,1634935437,full,ni_sequenzen,NI_Sequenzen,,,,,,,,,,,,,,
,Screen_5,canvas.Screen,0_2_22_4,,skipped,23,80230,,,80225,,80230,2021-10-22T20:45:21.229Z,80333.3,1634935437,full,ni_sequenzen,NI_Sequenzen,,,,,,,,,,,,,,
,Screen_6,canvas.Screen,0_2_22_5,,skipped,23,80233,,,80225,,80233,2021-10-22T20:45:21.231Z,80333.3,1634935437,full,ni_sequenzen,NI_Sequenzen,,,,,,,,,,,,,,
,Sequence,flow.Sequence,0_2_22,,completion,23,80224,,,80225,,80233,2021-10-22T20:45:21.231Z,80333.3,1634935437,full,ni_sequenzen,NI_Sequenzen,,,,,,,,,,,,,,
,Screen_1,canvas.Screen,0_2_23_0,,skipped,24,80234,,,80234,,80234,2021-10-22T20:45:21.233Z,80333.3,1634935437,full,ni_sequenzen,NI_Sequenzen,,,,,,,,,,,,,,
,Screen_2,canvas.Screen,0_2_23_1,,skipped,24,80236,,,80234,,80236,2021-10-22T20:45:21.234Z,80333.3,1634935437,full,ni_sequenzen,NI_Sequenzen,,,,,,,,,,,,,,
,Screen_3,canvas.Screen,0_2_23_2,,skipped,24,80238,,,80234,,80238,2021-10-22T20:45:21.235Z,80333.3,1634935437,full,ni_sequenzen,NI_Sequenzen,,,,,,,,,,,,,,
,Screen_4,canvas.Screen,0_2_23_3,,skipped,24,80238,,,80234,,80238,2021-10-22T20:45:21.237Z,80333.3,1634935437,full,ni_sequenzen,NI_Sequenzen,,,,,,,,,,,,,,
,Screen_5,canvas.Screen,0_2_23_4,,skipped,24,80240,,,80234,,80240,2021-10-22T20:45:21.238Z,80333.3,1634935437,full,ni_sequenzen,NI_Sequenzen,,,,,,,,,,,,,,
,Screen_6,canvas.Screen,0_2_23_5,,skipped,24,80241,,,80234,,80241,2021-10-22T20:45:21.239Z,80333.3,1634935437,full,ni_sequenzen,NI_Sequenzen,,,,,,,,,,,,,,
,Sequence,flow.Sequence,0_2_23,,completion,24,80233,,,80234,,80242,2021-10-22T20:45:21.239Z,80333.3,1634935437,full,ni_sequenzen,NI_Sequenzen,,,,,,,,,,,,,,
,Screen_1,canvas.Screen,0_2_24_0,,skipped,25,80243,,,80243,,80243,2021-10-22T20:45:21.241Z,80333.3,1634935437,full,ni_sequenzen,NI_Sequenzen,,,,,,,,,,,,,,
,Screen_2,canvas.Screen,0_2_24_1,,skipped,25,80244,,,80243,,80245,2021-10-22T20:45:21.242Z,80333.3,1634935437,full,ni_sequenzen,NI_Sequenzen,,,,,,,,,,,,,,
,Screen_3,canvas.Screen,0_2_24_2,,skipped,25,80246,,,80243,,80246,2021-10-22T20:45:21.244Z,80333.3,1634935437,full,ni_sequenzen,NI_Sequenzen,,,,,,,,,,,,,,
,Screen_4,canvas.Screen,0_2_24_3,,skipped,25,80249,,,80243,,80249,2021-10-22T20:45:21.247Z,80333.3,1634935437,full,ni_sequenzen,NI_Sequenzen,,,,,,,,,,,,,,
,Screen_5,canvas.Screen,0_2_24_4,,skipped,25,80250,,,80243,,80251,2021-10-22T20:45:21.249Z,80333.3,1634935437,full,ni_sequenzen,NI_Sequenzen,,,,,,,,,,,,,,
,Screen_6,canvas.Screen,0_2_24_5,,skipped,25,80251,,,80243,,80252,2021-10-22T20:45:21.250Z,80333.3,1634935437,full,ni_sequenzen,NI_Sequenzen,,,,,,,,,,,,,,
,Sequence,flow.Sequence,0_2_24,,completion,25,80242,,,80243,,80252,2021-10-22T20:45:21.250Z,80333.3,1634935437,full,ni_sequenzen,NI_Sequenzen,,,,,,,,,,,,,,
,Screen_1,canvas.Screen,0_2_25_0,,skipped,26,80253,,,80253,,80253,2021-10-22T20:45:21.251Z,80333.3,1634935437,full,ni_sequenzen,NI_Sequenzen,,,,,,,,,,,,,,
,Screen_2,canvas.Screen,0_2_25_1,,skipped,26,80254,,,80253,,80255,2021-10-22T20:45:21.253Z,80333.3,1634935437,full,ni_sequenzen,NI_Sequenzen,,,,,,,,,,,,,,
,Screen_3,canvas.Screen,0_2_25_2,,skipped,26,80256,,,80253,,80256,2021-10-22T20:45:21.254Z,80333.3,1634935437,full,ni_sequenzen,NI_Sequenzen,,,,,,,,,,,,,,
,Screen_4,canvas.Screen,0_2_25_3,,skipped,26,80257,,,80253,,80257,2021-10-22T20:45:21.255Z,80333.3,1634935437,full,ni_sequenzen,NI_Sequenzen,,,,,,,,,,,,,,
,Screen_5,canvas.Screen,0_2_25_4,,skipped,26,80258,,,80253,,80258,2021-10-22T20:45:21.256Z,80333.3,1634935437,full,ni_sequenzen,NI_Sequenzen,,,,,,,,,,,,,,
,Screen_6,canvas.Screen,0_2_25_5,,skipped,26,80259,,,80253,,80259,2021-10-22T20:45:21.257Z,80333.3,1634935437,full,ni_sequenzen,NI_Sequenzen,,,,,,,,,,,,,,
,Sequence,flow.Sequence,0_2_25,,completion,26,80252,,,80253,,80259,2021-10-22T20:45:21.257Z,80333.3,1634935437,full,ni_sequenzen,NI_Sequenzen,,,,,,,,,,,,,,
,Screen_1,canvas.Screen,0_2_26_0,,skipped,27,80261,,,80261,,80261,2021-10-22T20:45:21.259Z,80333.3,1634935437,full,ni_sequenzen,NI_Sequenzen,,,,,,,,,,,,,,
,Screen_2,canvas.Screen,0_2_26_1,,skipped,27,80263,,,80261,,80263,2021-10-22T20:45:21.261Z,80333.3,1634935437,full,ni_sequenzen,NI_Sequenzen,,,,,,,,,,,,,,
,Screen_3,canvas.Screen,0_2_26_2,,skipped,27,80265,,,80261,,80265,2021-10-22T20:45:21.262Z,80333.3,1634935437,full,ni_sequenzen,NI_Sequenzen,,,,,,,,,,,,,,
,Screen_4,canvas.Screen,0_2_26_3,,skipped,27,80266,,,80261,,80266,2021-10-22T20:45:21.263Z,80333.3,1634935437,full,ni_sequenzen,NI_Sequenzen,,,,,,,,,,,,,,
,Screen_5,canvas.Screen,0_2_26_4,,skipped,27,80267,,,80261,,80267,2021-10-22T20:45:21.265Z,80333.3,1634935437,full,ni_sequenzen,NI_Sequenzen,,,,,,,,,,,,,,
,Screen_6,canvas.Screen,0_2_26_5,,skipped,27,80269,,,80261,,80269,2021-10-22T20:45:21.266Z,80333.3,1634935437,full,ni_sequenzen,NI_Sequenzen,,,,,,,,,,,,,,
,Sequence,flow.Sequence,0_2_26,,completion,27,80260,,,80261,,80269,2021-10-22T20:45:21.266Z,80333.3,1634935437,full,ni_sequenzen,NI_Sequenzen,,,,,,,,,,,,,,
,Screen_1,canvas.Screen,0_2_27_0,,skipped,28,80270,,,80270,,80270,2021-10-22T20:45:21.268Z,80333.3,1634935437,full,ni_sequenzen,NI_Sequenzen,,,,,,,,,,,,,,
,Screen_2,canvas.Screen,0_2_27_1,,skipped,28,80272,,,80270,,80272,2021-10-22T20:45:21.269Z,80333.3,1634935437,full,ni_sequenzen,NI_Sequenzen,,,,,,,,,,,,,,
,Screen_3,canvas.Screen,0_2_27_2,,skipped,28,80273,,,80270,,80273,2021-10-22T20:45:21.271Z,80333.3,1634935437,full,ni_sequenzen,NI_Sequenzen,,,,,,,,,,,,,,
,Screen_4,canvas.Screen,0_2_27_3,,skipped,28,80275,,,80270,,80275,2021-10-22T20:45:21.273Z,80333.3,1634935437,full,ni_sequenzen,NI_Sequenzen,,,,,,,,,,,,,,
,Screen_5,canvas.Screen,0_2_27_4,,skipped,28,80276,,,80270,,80276,2021-10-22T20:45:21.274Z,80333.3,1634935437,full,ni_sequenzen,NI_Sequenzen,,,,,,,,,,,,,,
,Screen_6,canvas.Screen,0_2_27_5,,skipped,28,80277,,,80270,,80277,2021-10-22T20:45:21.275Z,80333.3,1634935437,full,ni_sequenzen,NI_Sequenzen,,,,,,,,,,,,,,
,Sequence,flow.Sequence,0_2_27,,completion,28,80269,,,80270,,80278,2021-10-22T20:45:21.276Z,80333.3,1634935437,full,ni_sequenzen,NI_Sequenzen,,,,,,,,,,,,,,
,Screen_1,canvas.Screen,0_2_28_0,,skipped,29,80279,,,80279,,80279,2021-10-22T20:45:21.277Z,80333.3,1634935437,full,ni_sequenzen,NI_Sequenzen,,,,,,,,,,,,,,
,Screen_2,canvas.Screen,0_2_28_1,,skipped,29,80280,,,80279,,80280,2021-10-22T20:45:21.278Z,80333.3,1634935437,full,ni_sequenzen,NI_Sequenzen,,,,,,,,,,,,,,
,Screen_3,canvas.Screen,0_2_28_2,,skipped,29,80281,,,80279,,80281,2021-10-22T20:45:21.280Z,80333.3,1634935437,full,ni_sequenzen,NI_Sequenzen,,,,,,,,,,,,,,
,Screen_4,canvas.Screen,0_2_28_3,,skipped,29,80283,,,80279,,80283,2021-10-22T20:45:21.280Z,80333.3,1634935437,full,ni_sequenzen,NI_Sequenzen,,,,,,,,,,,,,,
,Screen_5,canvas.Screen,0_2_28_4,,skipped,29,80284,,,80279,,80284,2021-10-22T20:45:21.281Z,80333.3,1634935437,full,ni_sequenzen,NI_Sequenzen,,,,,,,,,,,,,,
,Screen_6,canvas.Screen,0_2_28_5,,skipped,29,80285,,,80279,,80285,2021-10-22T20:45:21.282Z,80333.3,1634935437,full,ni_sequenzen,NI_Sequenzen,,,,,,,,,,,,,,
,Sequence,flow.Sequence,0_2_28,,completion,29,80278,,,80279,,80285,2021-10-22T20:45:21.282Z,80333.3,1634935437,full,ni_sequenzen,NI_Sequenzen,,,,,,,,,,,,,,
,Screen_1,canvas.Screen,0_2_29_0,,skipped,30,80287,,,80287,,80287,2021-10-22T20:45:21.284Z,80333.3,1634935437,full,ni_sequenzen,NI_Sequenzen,,,,,,,,,,,,,,
,Screen_2,canvas.Screen,0_2_29_1,,skipped,30,80288,,,80287,,80288,2021-10-22T20:45:21.285Z,80333.3,1634935437,full,ni_sequenzen,NI_Sequenzen,,,,,,,,,,,,,,
,Screen_3,canvas.Screen,0_2_29_2,,skipped,30,80289,,,80287,,80289,2021-10-22T20:45:21.286Z,80333.3,1634935437,full,ni_sequenzen,NI_Sequenzen,,,,,,,,,,,,,,
,Screen_4,canvas.Screen,0_2_29_3,,skipped,30,80290,,,80287,,80290,2021-10-22T20:45:21.288Z,80333.3,1634935437,full,ni_sequenzen,NI_Sequenzen,,,,,,,,,,,,,,
,Screen_5,canvas.Screen,0_2_29_4,,skipped,30,80291,,,80287,,80291,2021-10-22T20:45:21.290Z,80333.3,1634935437,full,ni_sequenzen,NI_Sequenzen,,,,,,,,,,,,,,
,Screen_6,canvas.Screen,0_2_29_5,,skipped,30,80292,,,80287,,80292,2021-10-22T20:45:21.291Z,80333.3,1634935437,full,ni_sequenzen,NI_Sequenzen,,,,,,,,,,,,,,
,Sequence,flow.Sequence,0_2_29,,completion,30,80285,,,80287,,80293,2021-10-22T20:45:21.291Z,80333.3,1634935437,full,ni_sequenzen,NI_Sequenzen,,,,,,,,,,,,,,
,Instructions_II,flow.Loop,0_2,,completion,,45012,45014.72,45014.9,80287,35272.1,80293,2021-10-22T20:45:21.291Z,80333.3,1634935437,full,ni_sequenzen,NI_Sequenzen,,,,,,,,,,,,,,
,Move,canvas.Screen,0_3_0_0_0_0,right,response,,80332,80332.96,80333.3,83538,3204.699999999997,83550,2021-10-22T20:45:24.547Z,83565.56,1634935437,full,ni_sequenzen,NI_Sequenzen,1,0,,,,,,,,,,,,
,Move,canvas.Screen,0_3_0_0_0_1,down,response,,83564,83564.24,83565.56,84898,1332.4400000000023,84899,2021-10-22T20:45:25.897Z,84909.16,1634935437,full,ni_sequenzen,NI_Sequenzen,2,0,,,,,,,,,,,,
,Move,canvas.Screen,0_3_0_0_0_2,right,response,,84909,84908.9,84909.16,86569,1659.8399999999965,86584,2021-10-22T20:45:27.581Z,86590.34,1634935437,full,ni_sequenzen,NI_Sequenzen,3,0,,,,,,,,,,,,
,Move,canvas.Screen,0_3_0_0_0_3,down,response,,86590,86590.16,86590.34,87632,1041.6600000000035,87639,2021-10-22T20:45:28.637Z,87715.62,1634935437,full,ni_sequenzen,NI_Sequenzen,4,0,,,,,,,,,,,,
,Move,canvas.Screen,0_3_0_0_0_4,-999,skipped,,87646,,,87632,,87646,2021-10-22T20:45:28.644Z,87715.62,1634935437,full,ni_sequenzen,NI_Sequenzen,5,0,,,,,,,,,,,,
,Move,canvas.Screen,0_3_0_0_0_5,-999,skipped,,87652,,,87632,,87652,2021-10-22T20:45:28.650Z,87715.62,1634935437,full,ni_sequenzen,NI_Sequenzen,6,0,,,,,,,,,,,,
,Move,canvas.Screen,0_3_0_0_0_6,-999,skipped,,87657,,,87632,,87657,2021-10-22T20:45:28.656Z,87715.62,1634935437,full,ni_sequenzen,NI_Sequenzen,7,0,,,,,,,,,,,,
,Move,canvas.Screen,0_3_0_0_0_7,-999,skipped,,87662,,,87632,,87662,2021-10-22T20:45:28.661Z,87715.62,1634935437,full,ni_sequenzen,NI_Sequenzen,8,0,,,,,,,,,,,,
,Move,canvas.Screen,0_3_0_0_0_8,-999,skipped,,87669,,,87632,,87669,2021-10-22T20:45:28.666Z,87715.62,1634935437,full,ni_sequenzen,NI_Sequenzen,9,0,,,,,,,,,,,,
,Move,canvas.Screen,0_3_0_0_0_9,-999,skipped,,87674,,,87632,,87675,2021-10-22T20:45:28.672Z,87715.62,1634935437,full,ni_sequenzen,NI_Sequenzen,10,0,,,,,,,,,,,,
,Move,canvas.Screen,0_3_0_0_0_10,-999,skipped,,87680,,,87632,,87680,2021-10-22T20:45:28.678Z,87715.62,1634935437,full,ni_sequenzen,NI_Sequenzen,11,0,,,,,,,,,,,,
,Move,canvas.Screen,0_3_0_0_0_11,-999,skipped,,87685,,,87632,,87685,2021-10-22T20:45:28.684Z,87715.62,1634935437,full,ni_sequenzen,NI_Sequenzen,12,0,,,,,,,,,,,,
,Move,canvas.Screen,0_3_0_0_0_12,-999,skipped,,87695,,,87632,,87695,2021-10-22T20:45:28.692Z,87715.62,1634935437,full,ni_sequenzen,NI_Sequenzen,13,0,,,,,,,,,,,,
,Move,canvas.Screen,0_3_0_0_0_13,-999,skipped,,87703,,,87632,,87703,2021-10-22T20:45:28.702Z,87715.62,1634935437,full,ni_sequenzen,NI_Sequenzen,14,0,,,,,,,,,,,,
,Move,canvas.Screen,0_3_0_0_0_14,-999,skipped,,87709,,,87632,,87709,2021-10-22T20:45:28.707Z,87715.62,1634935437,full,ni_sequenzen,NI_Sequenzen,15,0,,,,,,,,,,,,
,Loop,flow.Loop,0_3_0_0_0,-999,completion,,80323,80332.96,80333.3,87632,7298.699999999997,87709,2021-10-22T20:45:28.707Z,87715.62,1634935437,full,ni_sequenzen,NI_Sequenzen,,0,,,,,,,,,,,,
,Feedback,canvas.Screen,0_3_0_0_1,,timeout,,87713,87713.88,87715.62,91698.96,4000.040000000008,91699,2021-10-22T20:45:32.697Z,91715.66,1634935437,full,ni_sequenzen,NI_Sequenzen,,0,,,,,,,,,,,,
,Trial,flow.Sequence,0_3_0_0,,completion,,80315,80332.96,80333.3,91698.96,11365.660000000003,91700,2021-10-22T20:45:32.698Z,91732.38,1634935437,full,ni_sequenzen,NI_Sequenzen,,0,,,,,,,,,,,,
,Move,canvas.Screen,0_3_0_1_0_0,right,response,,91714,91715.66,91732.38,94038,2305.6199999999953,94042,2021-10-22T20:45:35.039Z,94049.34,1634935437,full,ni_sequenzen,NI_Sequenzen,1,1,,,,,,,,,,,,
,Move,canvas.Screen,0_3_0_1_0_1,down,response,,94049,94049.18,94049.34,94381,331.6600000000035,94393,2021-10-22T20:45:35.391Z,94400.42,1634935437,full,ni_sequenzen,NI_Sequenzen,2,1,,,,,,,,,,,,
,Move,canvas.Screen,0_3_0_1_0_2,right,response,,94400,94400.24,94400.42,95569,1168.5800000000017,95585,2021-10-22T20:45:36.582Z,95591.04,1634935437,full,ni_sequenzen,NI_Sequenzen,3,1,,,,,,,,,,,,
,Move,canvas.Screen,0_3_0_1_0_3,down,response,,95591,95590.78,95591.04,95850,258.9600000000064,95859,2021-10-22T20:45:36.856Z,95923.96,1634935437,full,ni_sequenzen,NI_Sequenzen,4,1,,,,,,,,,,,,
,Move,canvas.Screen,0_3_0_1_0_4,-999,skipped,,95865,,,95850,,95866,2021-10-22T20:45:36.863Z,95923.96,1634935437,full,ni_sequenzen,NI_Sequenzen,5,1,,,,,,,,,,,,
,Move,canvas.Screen,0_3_0_1_0_5,-999,skipped,,95871,,,95850,,95871,2021-10-22T20:45:36.868Z,95923.96,1634935437,full,ni_sequenzen,NI_Sequenzen,6,1,,,,,,,,,,,,
,Move,canvas.Screen,0_3_0_1_0_6,-999,skipped,,95876,,,95850,,95876,2021-10-22T20:45:36.875Z,95923.96,1634935437,full,ni_sequenzen,NI_Sequenzen,7,1,,,,,,,,,,,,
,Move,canvas.Screen,0_3_0_1_0_7,-999,skipped,,95881,,,95850,,95881,2021-10-22T20:45:36.880Z,95923.96,1634935437,full,ni_sequenzen,NI_Sequenzen,8,1,,,,,,,,,,,,
,Move,canvas.Screen,0_3_0_1_0_8,-999,skipped,,95886,,,95850,,95886,2021-10-22T20:45:36.885Z,95923.96,1634935437,full,ni_sequenzen,NI_Sequenzen,9,1,,,,,,,,,,,,
,Move,canvas.Screen,0_3_0_1_0_9,-999,skipped,,95893,,,95850,,95893,2021-10-22T20:45:36.891Z,95923.96,1634935437,full,ni_sequenzen,NI_Sequenzen,10,1,,,,,,,,,,,,
,Move,canvas.Screen,0_3_0_1_0_10,-999,skipped,,95898,,,95850,,95898,2021-10-22T20:45:36.896Z,95923.96,1634935437,full,ni_sequenzen,NI_Sequenzen,11,1,,,,,,,,,,,,
,Move,canvas.Screen,0_3_0_1_0_11,-999,skipped,,95903,,,95850,,95903,2021-10-22T20:45:36.901Z,95923.96,1634935437,full,ni_sequenzen,NI_Sequenzen,12,1,,,,,,,,,,,,
,Move,canvas.Screen,0_3_0_1_0_12,-999,skipped,,95908,,,95850,,95908,2021-10-22T20:45:36.906Z,95923.96,1634935437,full,ni_sequenzen,NI_Sequenzen,13,1,,,,,,,,,,,,
,Move,canvas.Screen,0_3_0_1_0_13,-999,skipped,,95913,,,95850,,95913,2021-10-22T20:45:36.911Z,95923.96,1634935437,full,ni_sequenzen,NI_Sequenzen,14,1,,,,,,,,,,,,
,Move,canvas.Screen,0_3_0_1_0_14,-999,skipped,,95919,,,95850,,95919,2021-10-22T20:45:36.917Z,95923.96,1634935437,full,ni_sequenzen,NI_Sequenzen,15,1,,,,,,,,,,,,
,Loop,flow.Loop,0_3_0_1_0,-999,completion,,91708,91715.66,91732.38,95850,4117.619999999995,95919,2021-10-22T20:45:36.917Z,95923.96,1634935437,full,ni_sequenzen,NI_Sequenzen,,1,,,,,,,,,,,,
,Feedback,canvas.Screen,0_3_0_1_1,,timeout,,95924,95923.6,95923.96,99899.1,3991.7599999999948,99899,2021-10-22T20:45:40.898Z,99915.72,1634935437,full,ni_sequenzen,NI_Sequenzen,,1,,,,,,,,,,,,
,Trial,flow.Sequence,0_3_0_1,,completion,,91700,91715.66,91732.38,99899.1,8166.720000000001,99900,2021-10-22T20:45:40.898Z,99932.44,1634935437,full,ni_sequenzen,NI_Sequenzen,,1,,,,,,,,,,,,
,Move,canvas.Screen,0_3_0_2_0_0,left,response,,99914,99915.72,99932.44,103241,3308.5599999999977,103243,2021-10-22T20:45:44.241Z,103249,1634935437,full,ni_sequenzen,NI_Sequenzen,1,2,,,,,,,,,,,,
,Move,canvas.Screen,0_3_0_2_0_1,down,response,,103248,103248.74,103249,103600,351,103617,2021-10-22T20:45:44.615Z,103623,1634935437,full,ni_sequenzen,NI_Sequenzen,2,2,,,,,,,,,,,,
,Move,canvas.Screen,0_3_0_2_0_2,down,response,,103623,103622.78,103623,103975,352,103988,2021-10-22T20:45:44.985Z,103993.44,1634935437,full,ni_sequenzen,NI_Sequenzen,3,2,,,,,,,,,,,,
,Move,canvas.Screen,0_3_0_2_0_3,left,response,,103993,103993.2,103993.44,104413,419.5599999999977,104420,2021-10-22T20:45:45.418Z,104515.88,1634935437,full,ni_sequenzen,NI_Sequenzen,4,2,,,,,,,,,,,,
,Move,canvas.Screen,0_3_0_2_0_4,-999,skipped,,104434,,,104413,,104434,2021-10-22T20:45:45.432Z,104515.88,1634935437,full,ni_sequenzen,NI_Sequenzen,5,2,,,,,,,,,,,,
,Move,canvas.Screen,0_3_0_2_0_5,-999,skipped,,104443,,,104413,,104444,2021-10-22T20:45:45.441Z,104515.88,1634935437,full,ni_sequenzen,NI_Sequenzen,6,2,,,,,,,,,,,,
,Move,canvas.Screen,0_3_0_2_0_6,-999,skipped,,104453,,,104413,,104454,2021-10-22T20:45:45.451Z,104515.88,1634935437,full,ni_sequenzen,NI_Sequenzen,7,2,,,,,,,,,,,,
,Move,canvas.Screen,0_3_0_2_0_7,-999,skipped,,104463,,,104413,,104463,2021-10-22T20:45:45.460Z,104515.88,1634935437,full,ni_sequenzen,NI_Sequenzen,8,2,,,,,,,,,,,,
,Move,canvas.Screen,0_3_0_2_0_8,-999,skipped,,104470,,,104413,,104470,2021-10-22T20:45:45.468Z,104515.88,1634935437,full,ni_sequenzen,NI_Sequenzen,9,2,,,,,,,,,,,,
,Move,canvas.Screen,0_3_0_2_0_9,-999,skipped,,104476,,,104413,,104477,2021-10-22T20:45:45.475Z,104515.88,1634935437,full,ni_sequenzen,NI_Sequenzen,10,2,,,,,,,,,,,,
,Move,canvas.Screen,0_3_0_2_0_10,-999,skipped,,104483,,,104413,,104483,2021-10-22T20:45:45.482Z,104515.88,1634935437,full,ni_sequenzen,NI_Sequenzen,11,2,,,,,,,,,,,,
,Move,canvas.Screen,0_3_0_2_0_11,-999,skipped,,104490,,,104413,,104490,2021-10-22T20:45:45.488Z,104515.88,1634935437,full,ni_sequenzen,NI_Sequenzen,12,2,,,,,,,,,,,,
,Move,canvas.Screen,0_3_0_2_0_12,-999,skipped,,104496,,,104413,,104496,2021-10-22T20:45:45.494Z,104515.88,1634935437,full,ni_sequenzen,NI_Sequenzen,13,2,,,,,,,,,,,,
,Move,canvas.Screen,0_3_0_2_0_13,-999,skipped,,104502,,,104413,,104502,2021-10-22T20:45:45.500Z,104515.88,1634935437,full,ni_sequenzen,NI_Sequenzen,14,2,,,,,,,,,,,,
,Move,canvas.Screen,0_3_0_2_0_14,-999,skipped,,104508,,,104413,,104508,2021-10-22T20:45:45.506Z,104515.88,1634935437,full,ni_sequenzen,NI_Sequenzen,15,2,,,,,,,,,,,,
,Loop,flow.Loop,0_3_0_2_0,-999,completion,,99908,99915.72,99932.44,104413,4480.559999999998,104508,2021-10-22T20:45:45.507Z,104515.88,1634935437,full,ni_sequenzen,NI_Sequenzen,,2,,,,,,,,,,,,
,Feedback,canvas.Screen,0_3_0_2_1,,timeout,,104514,104513.86,104515.88,108499.1,4014.979999999996,108500,2021-10-22T20:45:49.498Z,108530.86,1634935437,full,ni_sequenzen,NI_Sequenzen,,2,,,,,,,,,,,,
,Trial,flow.Sequence,0_3_0_2,,completion,,99900,99915.72,99932.44,108499.1,8566.660000000003,108502,2021-10-22T20:45:49.499Z,108532.48,1634935437,full,ni_sequenzen,NI_Sequenzen,,2,,,,,,,,,,,,
,Move,canvas.Screen,0_3_0_3_0_0,right,response,,108530,108530.86,108532.48,110303,1770.520000000004,110312,2021-10-22T20:45:51.310Z,110324.94,1634935437,full,ni_sequenzen,NI_Sequenzen,1,3,,,,,,,,,,,,
,Move,canvas.Screen,0_3_0_3_0_1,down,response,,110325,110324.76,110324.94,110600,275.0599999999977,110604,2021-10-22T20:45:51.603Z,110615.9,1634935437,full,ni_sequenzen,NI_Sequenzen,2,3,,,,,,,,,,,,
,Move,canvas.Screen,0_3_0_3_0_2,right,response,,110614,110613.82,110615.9,111006,390.1000000000058,111011,2021-10-22T20:45:52.008Z,111019.12,1634935437,full,ni_sequenzen,NI_Sequenzen,3,3,,,,,,,,,,,,
,Move,canvas.Screen,0_3_0_3_0_3,down,response,,111019,111018.86,111019.12,111225,205.88000000000466,111231,2021-10-22T20:45:52.228Z,111309,1634935437,full,ni_sequenzen,NI_Sequenzen,4,3,,,,,,,,,,,,
,Move,canvas.Screen,0_3_0_3_0_4,-999,skipped,,111240,,,111225,,111240,2021-10-22T20:45:52.237Z,111309,1634935437,full,ni_sequenzen,NI_Sequenzen,5,3,,,,,,,,,,,,
,Move,canvas.Screen,0_3_0_3_0_5,-999,skipped,,111246,,,111225,,111246,2021-10-22T20:45:52.245Z,111309,1634935437,full,ni_sequenzen,NI_Sequenzen,6,3,,,,,,,,,,,,
,Move,canvas.Screen,0_3_0_3_0_6,-999,skipped,,111253,,,111225,,111253,2021-10-22T20:45:52.250Z,111309,1634935437,full,ni_sequenzen,NI_Sequenzen,7,3,,,,,,,,,,,,
,Move,canvas.Screen,0_3_0_3_0_7,-999,skipped,,111260,,,111225,,111260,2021-10-22T20:45:52.259Z,111309,1634935437,full,ni_sequenzen,NI_Sequenzen,8,3,,,,,,,,,,,,
,Move,canvas.Screen,0_3_0_3_0_8,-999,skipped,,111268,,,111225,,111268,2021-10-22T20:45:52.266Z,111309,1634935437,full,ni_sequenzen,NI_Sequenzen,9,3,,,,,,,,,,,,
,Move,canvas.Screen,0_3_0_3_0_9,-999,skipped,,111274,,,111225,,111274,2021-10-22T20:45:52.271Z,111309,1634935437,full,ni_sequenzen,NI_Sequenzen,10,3,,,,,,,,,,,,
,Move,canvas.Screen,0_3_0_3_0_10,-999,skipped,,111279,,,111225,,111279,2021-10-22T20:45:52.277Z,111309,1634935437,full,ni_sequenzen,NI_Sequenzen,11,3,,,,,,,,,,,,
,Move,canvas.Screen,0_3_0_3_0_11,-999,skipped,,111285,,,111225,,111285,2021-10-22T20:45:52.283Z,111309,1634935437,full,ni_sequenzen,NI_Sequenzen,12,3,,,,,,,,,,,,
,Move,canvas.Screen,0_3_0_3_0_12,-999,skipped,,111290,,,111225,,111290,2021-10-22T20:45:52.288Z,111309,1634935437,full,ni_sequenzen,NI_Sequenzen,13,3,,,,,,,,,,,,
,Move,canvas.Screen,0_3_0_3_0_13,-999,skipped,,111298,,,111225,,111298,2021-10-22T20:45:52.295Z,111309,1634935437,full,ni_sequenzen,NI_Sequenzen,14,3,,,,,,,,,,,,
,Move,canvas.Screen,0_3_0_3_0_14,-999,skipped,,111303,,,111225,,111303,2021-10-22T20:45:52.301Z,111309,1634935437,full,ni_sequenzen,NI_Sequenzen,15,3,,,,,,,,,,,,
,Loop,flow.Loop,0_3_0_3_0,-999,completion,,108520,108530.86,108532.48,111225,2692.520000000004,111304,2021-10-22T20:45:52.301Z,111309,1634935437,full,ni_sequenzen,NI_Sequenzen,,3,,,,,,,,,,,,
,Feedback,canvas.Screen,0_3_0_3_1,,timeout,,111308,111308.7,111309,115299.24,4009.5399999999936,115300,2021-10-22T20:45:56.298Z,115318.54,1634935437,full,ni_sequenzen,NI_Sequenzen,,3,,,,,,,,,,,,
,Trial,flow.Sequence,0_3_0_3,,completion,,108503,108530.86,108532.48,115299.24,6766.760000000009,115300,2021-10-22T20:45:56.298Z,115332.58,1634935437,full,ni_sequenzen,NI_Sequenzen,,3,,,,,,,,,,,,
,Move,canvas.Screen,0_3_0_4_0_0,right,response,,115319,115318.54,115332.58,116959,1626.4199999999983,116967,2021-10-22T20:45:57.964Z,116973.32,1634935437,full,ni_sequenzen,NI_Sequenzen,1,4,,,,,,,,,,,,
,Move,canvas.Screen,0_3_0_4_0_1,down,response,,116973,116973.1,116973.32,117225,251.67999999999302,117227,2021-10-22T20:45:58.225Z,117234.94,1634935437,full,ni_sequenzen,NI_Sequenzen,2,4,,,,,,,,,,,,
,Move,canvas.Screen,0_3_0_4_0_2,right,response,,117234,117234.66,117234.94,117679,444.0599999999977,117685,2021-10-22T20:45:58.683Z,117691.06,1634935437,full,ni_sequenzen,NI_Sequenzen,3,4,,,,,,,,,,,,
,Move,canvas.Screen,0_3_0_4_0_3,down,response,,117691,117690.9,117691.06,117929,237.94000000000233,117946,2021-10-22T20:45:58.944Z,118015.88,1634935437,full,ni_sequenzen,NI_Sequenzen,4,4,,,,,,,,,,,,
,Move,canvas.Screen,0_3_0_4_0_4,-999,skipped,,117953,,,117929,,117953,2021-10-22T20:45:58.951Z,118015.88,1634935437,full,ni_sequenzen,NI_Sequenzen,5,4,,,,,,,,,,,,
,Move,canvas.Screen,0_3_0_4_0_5,-999,skipped,,117960,,,117929,,117960,2021-10-22T20:45:58.957Z,118015.88,1634935437,full,ni_sequenzen,NI_Sequenzen,6,4,,,,,,,,,,,,
,Move,canvas.Screen,0_3_0_4_0_6,-999,skipped,,117966,,,117929,,117966,2021-10-22T20:45:58.963Z,118015.88,1634935437,full,ni_sequenzen,NI_Sequenzen,7,4,,,,,,,,,,,,
,Move,canvas.Screen,0_3_0_4_0_7,-999,skipped,,117971,,,117929,,117971,2021-10-22T20:45:58.969Z,118015.88,1634935437,full,ni_sequenzen,NI_Sequenzen,8,4,,,,,,,,,,,,
,Move,canvas.Screen,0_3_0_4_0_8,-999,skipped,,117976,,,117929,,117976,2021-10-22T20:45:58.974Z,118015.88,1634935437,full,ni_sequenzen,NI_Sequenzen,9,4,,,,,,,,,,,,
,Move,canvas.Screen,0_3_0_4_0_9,-999,skipped,,117982,,,117929,,117982,2021-10-22T20:45:58.980Z,118015.88,1634935437,full,ni_sequenzen,NI_Sequenzen,10,4,,,,,,,,,,,,
,Move,canvas.Screen,0_3_0_4_0_10,-999,skipped,,117987,,,117929,,117987,2021-10-22T20:45:58.985Z,118015.88,1634935437,full,ni_sequenzen,NI_Sequenzen,11,4,,,,,,,,,,,,
,Move,canvas.Screen,0_3_0_4_0_11,-999,skipped,,117993,,,117929,,117993,2021-10-22T20:45:58.991Z,118015.88,1634935437,full,ni_sequenzen,NI_Sequenzen,12,4,,,,,,,,,,,,
,Move,canvas.Screen,0_3_0_4_0_12,-999,skipped,,117998,,,117929,,117998,2021-10-22T20:45:58.996Z,118015.88,1634935437,full,ni_sequenzen,NI_Sequenzen,13,4,,,,,,,,,,,,
,Move,canvas.Screen,0_3_0_4_0_13,-999,skipped,,118004,,,117929,,118004,2021-10-22T20:45:59.001Z,118015.88,1634935437,full,ni_sequenzen,NI_Sequenzen,14,4,,,,,,,,,,,,
,Move,canvas.Screen,0_3_0_4_0_14,-999,skipped,,118009,,,117929,,118009,2021-10-22T20:45:59.007Z,118015.88,1634935437,full,ni_sequenzen,NI_Sequenzen,15,4,,,,,,,,,,,,
,Loop,flow.Loop,0_3_0_4_0,-999,completion,,115312,115318.54,115332.58,117929,2596.4199999999983,118009,2021-10-22T20:45:59.007Z,118015.88,1634935437,full,ni_sequenzen,NI_Sequenzen,,4,,,,,,,,,,,,
,Feedback,canvas.Screen,0_3_0_4_1,,timeout,,118014,118014.38,118015.88,121999.36,4000.0599999999977,122000,2021-10-22T20:46:02.998Z,122015.94,1634935437,full,ni_sequenzen,NI_Sequenzen,,4,,,,,,,,,,,,
,Trial,flow.Sequence,0_3_0_4,,completion,,115301,115318.54,115332.58,121999.36,6666.779999999999,122000,2021-10-22T20:46:02.998Z,122032.64,1634935437,full,ni_sequenzen,NI_Sequenzen,,4,,,,,,,,,,,,
,Move,canvas.Screen,0_3_0_5_0_0,down,response,,122015,122015.94,122032.64,123929,1896.3600000000006,123943,2021-10-22T20:46:04.940Z,123948.34,1634935437,full,ni_sequenzen,NI_Sequenzen,1,5,,,,,,,,,,,,
,Move,canvas.Screen,0_3_0_5_0_1,left,response,,123948,123948.14,123948.34,124209,260.6600000000035,124220,2021-10-22T20:46:05.218Z,124225.44,1634935437,full,ni_sequenzen,NI_Sequenzen,2,5,,,,,,,,,,,,
,Move,canvas.Screen,0_3_0_5_0_2,down,response,,124226,124225.12,124225.44,124898,672.5599999999977,124901,2021-10-22T20:46:05.899Z,124906.52,1634935437,full,ni_sequenzen,NI_Sequenzen,3,5,,,,,,,,,,,,
,Move,canvas.Screen,0_3_0_5_0_3,left,response,,124906,124906.28,124906.52,125116,209.47999999999593,125119,2021-10-22T20:46:06.116Z,125183.22,1634935437,full,ni_sequenzen,NI_Sequenzen,4,5,,,,,,,,,,,,
,Move,canvas.Screen,0_3_0_5_0_4,-999,skipped,,125125,,,125116,,125125,2021-10-22T20:46:06.122Z,125183.22,1634935437,full,ni_sequenzen,NI_Sequenzen,5,5,,,,,,,,,,,,
,Move,canvas.Screen,0_3_0_5_0_5,-999,skipped,,125130,,,125116,,125130,2021-10-22T20:46:06.128Z,125183.22,1634935437,full,ni_sequenzen,NI_Sequenzen,6,5,,,,,,,,,,,,
,Move,canvas.Screen,0_3_0_5_0_6,-999,skipped,,125135,,,125116,,125135,2021-10-22T20:46:06.133Z,125183.22,1634935437,full,ni_sequenzen,NI_Sequenzen,7,5,,,,,,,,,,,,
,Move,canvas.Screen,0_3_0_5_0_7,-999,skipped,,125141,,,125116,,125141,2021-10-22T20:46:06.139Z,125183.22,1634935437,full,ni_sequenzen,NI_Sequenzen,8,5,,,,,,,,,,,,
,Move,canvas.Screen,0_3_0_5_0_8,-999,skipped,,125146,,,125116,,125146,2021-10-22T20:46:06.145Z,125183.22,1634935437,full,ni_sequenzen,NI_Sequenzen,9,5,,,,,,,,,,,,
,Move,canvas.Screen,0_3_0_5_0_9,-999,skipped,,125152,,,125116,,125152,2021-10-22T20:46:06.150Z,125183.22,1634935437,full,ni_sequenzen,NI_Sequenzen,10,5,,,,,,,,,,,,
,Move,canvas.Screen,0_3_0_5_0_10,-999,skipped,,125157,,,125116,,125158,2021-10-22T20:46:06.155Z,125183.22,1634935437,full,ni_sequenzen,NI_Sequenzen,11,5,,,,,,,,,,,,
,Move,canvas.Screen,0_3_0_5_0_11,-999,skipped,,125163,,,125116,,125163,2021-10-22T20:46:06.161Z,125183.22,1634935437,full,ni_sequenzen,NI_Sequenzen,12,5,,,,,,,,,,,,
,Move,canvas.Screen,0_3_0_5_0_12,-999,skipped,,125168,,,125116,,125168,2021-10-22T20:46:06.167Z,125183.22,1634935437,full,ni_sequenzen,NI_Sequenzen,13,5,,,,,,,,,,,,
,Move,canvas.Screen,0_3_0_5_0_13,-999,skipped,,125174,,,125116,,125174,2021-10-22T20:46:06.172Z,125183.22,1634935437,full,ni_sequenzen,NI_Sequenzen,14,5,,,,,,,,,,,,
,Move,canvas.Screen,0_3_0_5_0_14,-999,skipped,,125179,,,125116,,125179,2021-10-22T20:46:06.176Z,125183.22,1634935437,full,ni_sequenzen,NI_Sequenzen,15,5,,,,,,,,,,,,
,Loop,flow.Loop,0_3_0_5_0,-999,completion,,122008,122015.94,122032.64,125116,3083.3600000000006,125179,2021-10-22T20:46:06.176Z,125183.22,1634935437,full,ni_sequenzen,NI_Sequenzen,,5,,,,,,,,,,,,
,Feedback,canvas.Screen,0_3_0_5_1,,timeout,,125183,125182.94,125183.22,129166.02,3999.5,129167,2021-10-22T20:46:10.164Z,129182.72,1634935437,full,ni_sequenzen,NI_Sequenzen,,5,,,,,,,,,,,,
,Trial,flow.Sequence,0_3_0_5,,completion,,122001,122015.94,122032.64,129166.02,7133.380000000005,129167,2021-10-22T20:46:10.164Z,129199.34,1634935437,full,ni_sequenzen,NI_Sequenzen,,5,,,,,,,,,,,,
,Move,canvas.Screen,0_3_0_6_0_0,right,response,,129180,129182.72,129199.34,130413,1213.6600000000035,130415,2021-10-22T20:46:11.413Z,130421.2,1634935437,full,ni_sequenzen,NI_Sequenzen,1,6,,,,,,,,,,,,
,Move,canvas.Screen,0_3_0_6_0_1,down,response,,130421,130420.88,130421.2,130647,225.8000000000029,130651,2021-10-22T20:46:11.650Z,130657.7,1634935437,full,ni_sequenzen,NI_Sequenzen,2,6,,,,,,,,,,,,
,Move,canvas.Screen,0_3_0_6_0_2,right,response,,130658,130657.5,130657.7,130897,239.3000000000029,130905,2021-10-22T20:46:11.902Z,130910.34,1634935437,full,ni_sequenzen,NI_Sequenzen,3,6,,,,,,,,,,,,
,Move,canvas.Screen,0_3_0_6_0_3,down,response,,130910,130910.2,130910.34,131100,189.6600000000035,131109,2021-10-22T20:46:12.107Z,131172.12,1634935437,full,ni_sequenzen,NI_Sequenzen,4,6,,,,,,,,,,,,
,Move,canvas.Screen,0_3_0_6_0_4,-999,skipped,,131114,,,131100,,131115,2021-10-22T20:46:12.112Z,131172.12,1634935437,full,ni_sequenzen,NI_Sequenzen,5,6,,,,,,,,,,,,
,Move,canvas.Screen,0_3_0_6_0_5,-999,skipped,,131120,,,131100,,131120,2021-10-22T20:46:12.118Z,131172.12,1634935437,full,ni_sequenzen,NI_Sequenzen,6,6,,,,,,,,,,,,
,Move,canvas.Screen,0_3_0_6_0_6,-999,skipped,,131125,,,131100,,131125,2021-10-22T20:46:12.123Z,131172.12,1634935437,full,ni_sequenzen,NI_Sequenzen,7,6,,,,,,,,,,,,
,Move,canvas.Screen,0_3_0_6_0_7,-999,skipped,,131131,,,131100,,131131,2021-10-22T20:46:12.128Z,131172.12,1634935437,full,ni_sequenzen,NI_Sequenzen,8,6,,,,,,,,,,,,
,Move,canvas.Screen,0_3_0_6_0_8,-999,skipped,,131135,,,131100,,131135,2021-10-22T20:46:12.133Z,131172.12,1634935437,full,ni_sequenzen,NI_Sequenzen,9,6,,,,,,,,,,,,
,Move,canvas.Screen,0_3_0_6_0_9,-999,skipped,,131141,,,131100,,131141,2021-10-22T20:46:12.140Z,131172.12,1634935437,full,ni_sequenzen,NI_Sequenzen,10,6,,,,,,,,,,,,
,Move,canvas.Screen,0_3_0_6_0_10,-999,skipped,,131146,,,131100,,131146,2021-10-22T20:46:12.145Z,131172.12,1634935437,full,ni_sequenzen,NI_Sequenzen,11,6,,,,,,,,,,,,
,Move,canvas.Screen,0_3_0_6_0_11,-999,skipped,,131151,,,131100,,131151,2021-10-22T20:46:12.150Z,131172.12,1634935437,full,ni_sequenzen,NI_Sequenzen,12,6,,,,,,,,,,,,
,Move,canvas.Screen,0_3_0_6_0_12,-999,skipped,,131156,,,131100,,131156,2021-10-22T20:46:12.155Z,131172.12,1634935437,full,ni_sequenzen,NI_Sequenzen,13,6,,,,,,,,,,,,
,Move,canvas.Screen,0_3_0_6_0_13,-999,skipped,,131162,,,131100,,131162,2021-10-22T20:46:12.159Z,131172.12,1634935437,full,ni_sequenzen,NI_Sequenzen,14,6,,,,,,,,,,,,
,Move,canvas.Screen,0_3_0_6_0_14,-999,skipped,,131167,,,131100,,131167,2021-10-22T20:46:12.164Z,131172.12,1634935437,full,ni_sequenzen,NI_Sequenzen,15,6,,,,,,,,,,,,
,Loop,flow.Loop,0_3_0_6_0,-999,completion,,129175,129182.72,129199.34,131100,1900.6600000000035,131167,2021-10-22T20:46:12.164Z,131172.12,1634935437,full,ni_sequenzen,NI_Sequenzen,,6,,,,,,,,,,,,
,Feedback,canvas.Screen,0_3_0_6_1,,timeout,,131172,131171.76,131172.12,135149.54,3993.9400000000023,135150,2021-10-22T20:46:16.148Z,135166.06,1634935437,full,ni_sequenzen,NI_Sequenzen,,6,,,,,,,,,,,,
,Trial,flow.Sequence,0_3_0_6,,completion,,129168,129182.72,129199.34,135149.54,5950.200000000012,135150,2021-10-22T20:46:16.148Z,135182.76,1634935437,full,ni_sequenzen,NI_Sequenzen,,6,,,,,,,,,,,,
,Move,canvas.Screen,0_3_0_7_0_0,right,response,,135165,135166.06,135182.76,136163,980.2399999999907,136169,2021-10-22T20:46:17.167Z,136175.58,1634935437,full,ni_sequenzen,NI_Sequenzen,1,7,,,,,,,,,,,,
,Move,canvas.Screen,0_3_0_7_0_1,down,response,,136176,136175.26,136175.58,136366,190.4200000000128,136382,2021-10-22T20:46:17.381Z,136388.34,1634935437,full,ni_sequenzen,NI_Sequenzen,2,7,,,,,,,,,,,,
,Move,canvas.Screen,0_3_0_7_0_2,right,response,,136388,136388.14,136388.34,136569,180.6600000000035,136586,2021-10-22T20:46:17.584Z,136599.56,1634935437,full,ni_sequenzen,NI_Sequenzen,3,7,,,,,,,,,,,,
,Move,canvas.Screen,0_3_0_7_0_3,down,response,,136592,136591.42,136599.56,136819,219.44000000000233,136825,2021-10-22T20:46:17.822Z,136886.82,1634935437,full,ni_sequenzen,NI_Sequenzen,4,7,,,,,,,,,,,,
,Move,canvas.Screen,0_3_0_7_0_4,-999,skipped,,136830,,,136819,,136830,2021-10-22T20:46:17.829Z,136886.82,1634935437,full,ni_sequenzen,NI_Sequenzen,5,7,,,,,,,,,,,,
,Move,canvas.Screen,0_3_0_7_0_5,-999,skipped,,136836,,,136819,,136837,2021-10-22T20:46:17.834Z,136886.82,1634935437,full,ni_sequenzen,NI_Sequenzen,6,7,,,,,,,,,,,,
,Move,canvas.Screen,0_3_0_7_0_6,-999,skipped,,136841,,,136819,,136841,2021-10-22T20:46:17.838Z,136886.82,1634935437,full,ni_sequenzen,NI_Sequenzen,7,7,,,,,,,,,,,,
,Move,canvas.Screen,0_3_0_7_0_7,-999,skipped,,136846,,,136819,,136846,2021-10-22T20:46:17.844Z,136886.82,1634935437,full,ni_sequenzen,NI_Sequenzen,8,7,,,,,,,,,,,,
,Move,canvas.Screen,0_3_0_7_0_8,-999,skipped,,136851,,,136819,,136851,2021-10-22T20:46:17.849Z,136886.82,1634935437,full,ni_sequenzen,NI_Sequenzen,9,7,,,,,,,,,,,,
,Move,canvas.Screen,0_3_0_7_0_9,-999,skipped,,136857,,,136819,,136857,2021-10-22T20:46:17.855Z,136886.82,1634935437,full,ni_sequenzen,NI_Sequenzen,10,7,,,,,,,,,,,,
,Move,canvas.Screen,0_3_0_7_0_10,-999,skipped,,136861,,,136819,,136862,2021-10-22T20:46:17.860Z,136886.82,1634935437,full,ni_sequenzen,NI_Sequenzen,11,7,,,,,,,,,,,,
,Move,canvas.Screen,0_3_0_7_0_11,-999,skipped,,136867,,,136819,,136867,2021-10-22T20:46:17.865Z,136886.82,1634935437,full,ni_sequenzen,NI_Sequenzen,12,7,,,,,,,,,,,,
,Move,canvas.Screen,0_3_0_7_0_12,-999,skipped,,136872,,,136819,,136872,2021-10-22T20:46:17.870Z,136886.82,1634935437,full,ni_sequenzen,NI_Sequenzen,13,7,,,,,,,,,,,,
,Move,canvas.Screen,0_3_0_7_0_13,-999,skipped,,136877,,,136819,,136877,2021-10-22T20:46:17.875Z,136886.82,1634935437,full,ni_sequenzen,NI_Sequenzen,14,7,,,,,,,,,,,,
,Move,canvas.Screen,0_3_0_7_0_14,-999,skipped,,136882,,,136819,,136882,2021-10-22T20:46:17.880Z,136886.82,1634935437,full,ni_sequenzen,NI_Sequenzen,15,7,,,,,,,,,,,,
,Loop,flow.Loop,0_3_0_7_0,-999,completion,,135157,135166.06,135182.76,136819,1636.2399999999907,136882,2021-10-22T20:46:17.880Z,136886.82,1634935437,full,ni_sequenzen,NI_Sequenzen,,7,,,,,,,,,,,,
,Feedback,canvas.Screen,0_3_0_7_1,,timeout,,136886,136886.34,136886.82,140866.18,3995.9400000000023,140867,2021-10-22T20:46:21.865Z,140882.76,1634935437,full,ni_sequenzen,NI_Sequenzen,,7,,,,,,,,,,,,
,Trial,flow.Sequence,0_3_0_7,,completion,,135150,135166.06,135182.76,140866.18,5683.419999999984,140867,2021-10-22T20:46:21.865Z,140899.48,1634935437,full,ni_sequenzen,NI_Sequenzen,,7,,,,,,,,,,,,
,Move,canvas.Screen,0_3_0_8_0_0,right,response,,140878,140882.76,140899.48,141850,950.5199999999895,141859,2021-10-22T20:46:22.856Z,141864.4,1634935437,full,ni_sequenzen,NI_Sequenzen,1,8,,,,,,,,,,,,
,Move,canvas.Screen,0_3_0_8_0_1,down,response,,141865,141864.16,141864.4,142069,204.60000000000582,142076,2021-10-22T20:46:23.074Z,142082.78,1634935437,full,ni_sequenzen,NI_Sequenzen,2,8,,,,,,,,,,,,
,Move,canvas.Screen,0_3_0_8_0_2,right,response,,142082,142081.7,142082.78,142319,236.22000000000116,142331,2021-10-22T20:46:23.329Z,142345.2,1634935437,full,ni_sequenzen,NI_Sequenzen,3,8,,,,,,,,,,,,
,Move,canvas.Screen,0_3_0_8_0_3,down,response,,142345,142345.06,142345.2,142553,207.79999999998836,142571,2021-10-22T20:46:23.568Z,142661.66,1634935437,full,ni_sequenzen,NI_Sequenzen,4,8,,,,,,,,,,,,
,Move,canvas.Screen,0_3_0_8_0_4,-999,skipped,,142581,,,142553,,142581,2021-10-22T20:46:23.579Z,142661.66,1634935437,full,ni_sequenzen,NI_Sequenzen,5,8,,,,,,,,,,,,
,Move,canvas.Screen,0_3_0_8_0_5,-999,skipped,,142591,,,142553,,142591,2021-10-22T20:46:23.590Z,142661.66,1634935437,full,ni_sequenzen,NI_Sequenzen,6,8,,,,,,,,,,,,
,Move,canvas.Screen,0_3_0_8_0_6,-999,skipped,,142600,,,142553,,142600,2021-10-22T20:46:23.598Z,142661.66,1634935437,full,ni_sequenzen,NI_Sequenzen,7,8,,,,,,,,,,,,
,Move,canvas.Screen,0_3_0_8_0_7,-999,skipped,,142608,,,142553,,142609,2021-10-22T20:46:23.606Z,142661.66,1634935437,full,ni_sequenzen,NI_Sequenzen,8,8,,,,,,,,,,,,
,Move,canvas.Screen,0_3_0_8_0_8,-999,skipped,,142615,,,142553,,142615,2021-10-22T20:46:23.613Z,142661.66,1634935437,full,ni_sequenzen,NI_Sequenzen,9,8,,,,,,,,,,,,
,Move,canvas.Screen,0_3_0_8_0_9,-999,skipped,,142621,,,142553,,142621,2021-10-22T20:46:23.619Z,142661.66,1634935437,full,ni_sequenzen,NI_Sequenzen,10,8,,,,,,,,,,,,
,Move,canvas.Screen,0_3_0_8_0_10,-999,skipped,,142627,,,142553,,142627,2021-10-22T20:46:23.625Z,142661.66,1634935437,full,ni_sequenzen,NI_Sequenzen,11,8,,,,,,,,,,,,
,Move,canvas.Screen,0_3_0_8_0_11,-999,skipped,,142634,,,142553,,142634,2021-10-22T20:46:23.632Z,142661.66,1634935437,full,ni_sequenzen,NI_Sequenzen,12,8,,,,,,,,,,,,
,Move,canvas.Screen,0_3_0_8_0_12,-999,skipped,,142640,,,142553,,142641,2021-10-22T20:46:23.638Z,142661.66,1634935437,full,ni_sequenzen,NI_Sequenzen,13,8,,,,,,,,,,,,
,Move,canvas.Screen,0_3_0_8_0_13,-999,skipped,,142647,,,142553,,142647,2021-10-22T20:46:23.645Z,142661.66,1634935437,full,ni_sequenzen,NI_Sequenzen,14,8,,,,,,,,,,,,
,Move,canvas.Screen,0_3_0_8_0_14,-999,skipped,,142653,,,142553,,142653,2021-10-22T20:46:23.652Z,142661.66,1634935437,full,ni_sequenzen,NI_Sequenzen,15,8,,,,,,,,,,,,
,Loop,flow.Loop,0_3_0_8_0,-999,completion,,140873,140882.76,140899.48,142553,1653.5199999999895,142654,2021-10-22T20:46:23.652Z,142661.66,1634935437,full,ni_sequenzen,NI_Sequenzen,,8,,,,,,,,,,,,
,Feedback,canvas.Screen,0_3_0_8_1,,timeout,,142661,142661.38,142661.66,146649.76,4010.220000000001,146650,2021-10-22T20:46:27.648Z,146671.88,1634935437,full,ni_sequenzen,NI_Sequenzen,,8,,,,,,,,,,,,
,Trial,flow.Sequence,0_3_0_8,,completion,,140867,140882.76,140899.48,146649.76,5750.279999999999,146650,2021-10-22T20:46:27.648Z,146682.9,1634935437,full,ni_sequenzen,NI_Sequenzen,,8,,,,,,,,,,,,
,Move,canvas.Screen,0_3_0_9_0_0,down,response,,146672,146671.88,146682.9,147850,1167.1000000000058,147856,2021-10-22T20:46:28.853Z,147862.48,1634935437,full,ni_sequenzen,NI_Sequenzen,1,9,,,,,,,,,,,,
,Move,canvas.Screen,0_3_0_9_0_1,left,response,,147862,147862.26,147862.48,148241,378.5199999999895,148244,2021-10-22T20:46:29.242Z,148250.12,1634935437,full,ni_sequenzen,NI_Sequenzen,2,9,,,,,,,,,,,,
,Move,canvas.Screen,0_3_0_9_0_2,down,response,,148250,148249.96,148250.12,149100,849.8800000000047,149117,2021-10-22T20:46:30.114Z,149122.74,1634935437,full,ni_sequenzen,NI_Sequenzen,3,9,,,,,,,,,,,,
,Move,canvas.Screen,0_3_0_9_0_3,left,response,,149122,149122.52,149122.74,149398,275.2600000000093,149412,2021-10-22T20:46:30.409Z,149480.72,1634935437,full,ni_sequenzen,NI_Sequenzen,4,9,,,,,,,,,,,,
,Move,canvas.Screen,0_3_0_9_0_4,-999,skipped,,149418,,,149398,,149418,2021-10-22T20:46:30.416Z,149480.72,1634935437,full,ni_sequenzen,NI_Sequenzen,5,9,,,,,,,,,,,,
,Move,canvas.Screen,0_3_0_9_0_5,-999,skipped,,149424,,,149398,,149424,2021-10-22T20:46:30.422Z,149480.72,1634935437,full,ni_sequenzen,NI_Sequenzen,6,9,,,,,,,,,,,,
,Move,canvas.Screen,0_3_0_9_0_6,-999,skipped,,149431,,,149398,,149431,2021-10-22T20:46:30.429Z,149480.72,1634935437,full,ni_sequenzen,NI_Sequenzen,7,9,,,,,,,,,,,,
,Move,canvas.Screen,0_3_0_9_0_7,-999,skipped,,149438,,,149398,,149438,2021-10-22T20:46:30.436Z,149480.72,1634935437,full,ni_sequenzen,NI_Sequenzen,8,9,,,,,,,,,,,,
,Move,canvas.Screen,0_3_0_9_0_8,-999,skipped,,149444,,,149398,,149444,2021-10-22T20:46:30.442Z,149480.72,1634935437,full,ni_sequenzen,NI_Sequenzen,9,9,,,,,,,,,,,,
,Move,canvas.Screen,0_3_0_9_0_9,-999,skipped,,149449,,,149398,,149449,2021-10-22T20:46:30.447Z,149480.72,1634935437,full,ni_sequenzen,NI_Sequenzen,10,9,,,,,,,,,,,,
,Move,canvas.Screen,0_3_0_9_0_10,-999,skipped,,149455,,,149398,,149455,2021-10-22T20:46:30.453Z,149480.72,1634935437,full,ni_sequenzen,NI_Sequenzen,11,9,,,,,,,,,,,,
,Move,canvas.Screen,0_3_0_9_0_11,-999,skipped,,149460,,,149398,,149460,2021-10-22T20:46:30.458Z,149480.72,1634935437,full,ni_sequenzen,NI_Sequenzen,12,9,,,,,,,,,,,,
,Move,canvas.Screen,0_3_0_9_0_12,-999,skipped,,149465,,,149398,,149465,2021-10-22T20:46:30.463Z,149480.72,1634935437,full,ni_sequenzen,NI_Sequenzen,13,9,,,,,,,,,,,,
,Move,canvas.Screen,0_3_0_9_0_13,-999,skipped,,149471,,,149398,,149471,2021-10-22T20:46:30.468Z,149480.72,1634935437,full,ni_sequenzen,NI_Sequenzen,14,9,,,,,,,,,,,,
,Move,canvas.Screen,0_3_0_9_0_14,-999,skipped,,149476,,,149398,,149476,2021-10-22T20:46:30.474Z,149480.72,1634935437,full,ni_sequenzen,NI_Sequenzen,15,9,,,,,,,,,,,,
,Loop,flow.Loop,0_3_0_9_0,-999,completion,,146665,146671.88,146682.9,149398,2715.100000000006,149476,2021-10-22T20:46:30.474Z,149480.72,1634935437,full,ni_sequenzen,NI_Sequenzen,,9,,,,,,,,,,,,
,Feedback,canvas.Screen,0_3_0_9_1,,timeout,,149480,149480.4,149480.72,153466.3,4060.6600000000035,153467,2021-10-22T20:46:34.465Z,153541.38,1634935437,full,ni_sequenzen,NI_Sequenzen,,9,,,,,,,,,,,,
,Trial,flow.Sequence,0_3_0_9,,completion,,146651,146671.88,146682.9,153466.3,6783.399999999994,153467,2021-10-22T20:46:34.465Z,153549.6,1634935437,full,ni_sequenzen,NI_Sequenzen,,9,,,,,,,,,,,,
,Block,flow.Loop,0_3_0,,completion,,80314,80332.96,80333.3,153466.3,73132.99999999999,153468,2021-10-22T20:46:34.465Z,153549.6,1634935437,full,ni_sequenzen,NI_Sequenzen,,,,,,,,,,,,,,
,Training_II,flow.Sequence,0_3,,completion,,80293,80332.96,80333.3,153466.3,73132.99999999999,153468,2021-10-22T20:46:34.465Z,153549.6,1634935437,full,ni_sequenzen,NI_Sequenzen,,,,,,,,,,,,,,
,Screen_1,canvas.Screen,0_4_0_0,cont,response,1,153542,153541.38,153549.6,159491,5941.399999999994,159500,2021-10-22T20:46:40.498Z,159502.62,1634935437,full,ni_sequenzen,NI_Sequenzen,,,,,,,,,,,,,,
,Screen_2,canvas.Screen,0_4_0_1,cont,response,1,159503,159502.48,159502.62,174428,14925.380000000005,174444,2021-10-22T20:46:55.441Z,174533.12,1634935437,full,ni_sequenzen,NI_Sequenzen,,,,,,,,,,,,,,
,Screen_3,canvas.Screen,0_4_0_2,cont,response,1,174526,174526.72,174533.12,184538,10004.880000000005,184548,2021-10-22T20:47:05.546Z,184749.92,1634935437,full,ni_sequenzen,NI_Sequenzen,,,,,,,,,,,,,,
,Sequence,flow.Sequence,0_4_0,,completion,1,153495,153541.38,153549.6,184538,30988.399999999994,184548,2021-10-22T20:47:05.546Z,184749.92,1634935437,full,ni_sequenzen,NI_Sequenzen,,,,,,,,,,,,,,
,Screen_1,canvas.Screen,0_4_1_0,,skipped,2,184553,,,184553,,184553,2021-10-22T20:47:05.550Z,184749.92,1634935437,full,ni_sequenzen,NI_Sequenzen,,,,,,,,,,,,,,
,Screen_2,canvas.Screen,0_4_1_1,,skipped,2,184555,,,184553,,184555,2021-10-22T20:47:05.554Z,184749.92,1634935437,full,ni_sequenzen,NI_Sequenzen,,,,,,,,,,,,,,
,Screen_3,canvas.Screen,0_4_1_2,,skipped,2,184557,,,184553,,184557,2021-10-22T20:47:05.555Z,184749.92,1634935437,full,ni_sequenzen,NI_Sequenzen,,,,,,,,,,,,,,
,Sequence,flow.Sequence,0_4_1,,completion,2,184550,,,184553,,184558,2021-10-22T20:47:05.556Z,184749.92,1634935437,full,ni_sequenzen,NI_Sequenzen,,,,,,,,,,,,,,
,Screen_1,canvas.Screen,0_4_2_0,,skipped,3,184562,,,184562,,184562,2021-10-22T20:47:05.559Z,184749.92,1634935437,full,ni_sequenzen,NI_Sequenzen,,,,,,,,,,,,,,
,Screen_2,canvas.Screen,0_4_2_1,,skipped,3,184563,,,184562,,184563,2021-10-22T20:47:05.561Z,184749.92,1634935437,full,ni_sequenzen,NI_Sequenzen,,,,,,,,,,,,,,
,Screen_3,canvas.Screen,0_4_2_2,,skipped,3,184565,,,184562,,184565,2021-10-22T20:47:05.563Z,184749.92,1634935437,full,ni_sequenzen,NI_Sequenzen,,,,,,,,,,,,,,
,Sequence,flow.Sequence,0_4_2,,completion,3,184559,,,184562,,184566,2021-10-22T20:47:05.564Z,184749.92,1634935437,full,ni_sequenzen,NI_Sequenzen,,,,,,,,,,,,,,
,Screen_1,canvas.Screen,0_4_3_0,,skipped,4,184570,,,184570,,184570,2021-10-22T20:47:05.567Z,184749.92,1634935437,full,ni_sequenzen,NI_Sequenzen,,,,,,,,,,,,,,
,Screen_2,canvas.Screen,0_4_3_1,,skipped,4,184573,,,184570,,184573,2021-10-22T20:47:05.570Z,184749.92,1634935437,full,ni_sequenzen,NI_Sequenzen,,,,,,,,,,,,,,
,Screen_3,canvas.Screen,0_4_3_2,,skipped,4,184576,,,184570,,184576,2021-10-22T20:47:05.573Z,184749.92,1634935437,full,ni_sequenzen,NI_Sequenzen,,,,,,,,,,,,,,
,Sequence,flow.Sequence,0_4_3,,completion,4,184566,,,184570,,184576,2021-10-22T20:47:05.574Z,184749.92,1634935437,full,ni_sequenzen,NI_Sequenzen,,,,,,,,,,,,,,
,Screen_1,canvas.Screen,0_4_4_0,,skipped,5,184579,,,184579,,184579,2021-10-22T20:47:05.577Z,184749.92,1634935437,full,ni_sequenzen,NI_Sequenzen,,,,,,,,,,,,,,
,Screen_2,canvas.Screen,0_4_4_1,,skipped,5,184581,,,184579,,184581,2021-10-22T20:47:05.578Z,184749.92,1634935437,full,ni_sequenzen,NI_Sequenzen,,,,,,,,,,,,,,
,Screen_3,canvas.Screen,0_4_4_2,,skipped,5,184582,,,184579,,184582,2021-10-22T20:47:05.580Z,184749.92,1634935437,full,ni_sequenzen,NI_Sequenzen,,,,,,,,,,,,,,
,Sequence,flow.Sequence,0_4_4,,completion,5,184577,,,184579,,184582,2021-10-22T20:47:05.581Z,184749.92,1634935437,full,ni_sequenzen,NI_Sequenzen,,,,,,,,,,,,,,
,Screen_1,canvas.Screen,0_4_5_0,,skipped,6,184585,,,184585,,184585,2021-10-22T20:47:05.583Z,184749.92,1634935437,full,ni_sequenzen,NI_Sequenzen,,,,,,,,,,,,,,
,Screen_2,canvas.Screen,0_4_5_1,,skipped,6,184586,,,184585,,184586,2021-10-22T20:47:05.584Z,184749.92,1634935437,full,ni_sequenzen,NI_Sequenzen,,,,,,,,,,,,,,
,Screen_3,canvas.Screen,0_4_5_2,,skipped,6,184588,,,184585,,184588,2021-10-22T20:47:05.586Z,184749.92,1634935437,full,ni_sequenzen,NI_Sequenzen,,,,,,,,,,,,,,
,Sequence,flow.Sequence,0_4_5,,completion,6,184583,,,184585,,184588,2021-10-22T20:47:05.586Z,184749.92,1634935437,full,ni_sequenzen,NI_Sequenzen,,,,,,,,,,,,,,
,Screen_1,canvas.Screen,0_4_6_0,,skipped,7,184590,,,184590,,184590,2021-10-22T20:47:05.588Z,184749.92,1634935437,full,ni_sequenzen,NI_Sequenzen,,,,,,,,,,,,,,
,Screen_2,canvas.Screen,0_4_6_1,,skipped,7,184592,,,184590,,184592,2021-10-22T20:47:05.590Z,184749.92,1634935437,full,ni_sequenzen,NI_Sequenzen,,,,,,,,,,,,,,
,Screen_3,canvas.Screen,0_4_6_2,,skipped,7,184594,,,184590,,184594,2021-10-22T20:47:05.591Z,184749.92,1634935437,full,ni_sequenzen,NI_Sequenzen,,,,,,,,,,,,,,
,Sequence,flow.Sequence,0_4_6,,completion,7,184589,,,184590,,184594,2021-10-22T20:47:05.591Z,184749.92,1634935437,full,ni_sequenzen,NI_Sequenzen,,,,,,,,,,,,,,
,Screen_1,canvas.Screen,0_4_7_0,,skipped,8,184596,,,184596,,184596,2021-10-22T20:47:05.594Z,184749.92,1634935437,full,ni_sequenzen,NI_Sequenzen,,,,,,,,,,,,,,
,Screen_2,canvas.Screen,0_4_7_1,,skipped,8,184598,,,184596,,184598,2021-10-22T20:47:05.595Z,184749.92,1634935437,full,ni_sequenzen,NI_Sequenzen,,,,,,,,,,,,,,
,Screen_3,canvas.Screen,0_4_7_2,,skipped,8,184600,,,184596,,184600,2021-10-22T20:47:05.598Z,184749.92,1634935437,full,ni_sequenzen,NI_Sequenzen,,,,,,,,,,,,,,
,Sequence,flow.Sequence,0_4_7,,completion,8,184595,,,184596,,184600,2021-10-22T20:47:05.598Z,184749.92,1634935437,full,ni_sequenzen,NI_Sequenzen,,,,,,,,,,,,,,
,Screen_1,canvas.Screen,0_4_8_0,,skipped,9,184602,,,184602,,184602,2021-10-22T20:47:05.600Z,184749.92,1634935437,full,ni_sequenzen,NI_Sequenzen,,,,,,,,,,,,,,
,Screen_2,canvas.Screen,0_4_8_1,,skipped,9,184604,,,184602,,184604,2021-10-22T20:47:05.602Z,184749.92,1634935437,full,ni_sequenzen,NI_Sequenzen,,,,,,,,,,,,,,
,Screen_3,canvas.Screen,0_4_8_2,,skipped,9,184606,,,184602,,184606,2021-10-22T20:47:05.603Z,184749.92,1634935437,full,ni_sequenzen,NI_Sequenzen,,,,,,,,,,,,,,
,Sequence,flow.Sequence,0_4_8,,completion,9,184601,,,184602,,184606,2021-10-22T20:47:05.603Z,184749.92,1634935437,full,ni_sequenzen,NI_Sequenzen,,,,,,,,,,,,,,
,Screen_1,canvas.Screen,0_4_9_0,,skipped,10,184609,,,184609,,184609,2021-10-22T20:47:05.607Z,184749.92,1634935437,full,ni_sequenzen,NI_Sequenzen,,,,,,,,,,,,,,
,Screen_2,canvas.Screen,0_4_9_1,,skipped,10,184610,,,184609,,184610,2021-10-22T20:47:05.608Z,184749.92,1634935437,full,ni_sequenzen,NI_Sequenzen,,,,,,,,,,,,,,
,Screen_3,canvas.Screen,0_4_9_2,,skipped,10,184612,,,184609,,184612,2021-10-22T20:47:05.610Z,184749.92,1634935437,full,ni_sequenzen,NI_Sequenzen,,,,,,,,,,,,,,
,Sequence,flow.Sequence,0_4_9,,completion,10,184607,,,184609,,184612,2021-10-22T20:47:05.610Z,184749.92,1634935437,full,ni_sequenzen,NI_Sequenzen,,,,,,,,,,,,,,
,Screen_1,canvas.Screen,0_4_10_0,,skipped,11,184614,,,184614,,184614,2021-10-22T20:47:05.612Z,184749.92,1634935437,full,ni_sequenzen,NI_Sequenzen,,,,,,,,,,,,,,
,Screen_2,canvas.Screen,0_4_10_1,,skipped,11,184615,,,184614,,184616,2021-10-22T20:47:05.613Z,184749.92,1634935437,full,ni_sequenzen,NI_Sequenzen,,,,,,,,,,,,,,
,Screen_3,canvas.Screen,0_4_10_2,,skipped,11,184617,,,184614,,184617,2021-10-22T20:47:05.615Z,184749.92,1634935437,full,ni_sequenzen,NI_Sequenzen,,,,,,,,,,,,,,
,Sequence,flow.Sequence,0_4_10,,completion,11,184613,,,184614,,184617,2021-10-22T20:47:05.615Z,184749.92,1634935437,full,ni_sequenzen,NI_Sequenzen,,,,,,,,,,,,,,
,Screen_1,canvas.Screen,0_4_11_0,,skipped,12,184619,,,184619,,184619,2021-10-22T20:47:05.617Z,184749.92,1634935437,full,ni_sequenzen,NI_Sequenzen,,,,,,,,,,,,,,
,Screen_2,canvas.Screen,0_4_11_1,,skipped,12,184620,,,184619,,184620,2021-10-22T20:47:05.619Z,184749.92,1634935437,full,ni_sequenzen,NI_Sequenzen,,,,,,,,,,,,,,
,Screen_3,canvas.Screen,0_4_11_2,,skipped,12,184622,,,184619,,184622,2021-10-22T20:47:05.620Z,184749.92,1634935437,full,ni_sequenzen,NI_Sequenzen,,,,,,,,,,,,,,
,Sequence,flow.Sequence,0_4_11,,completion,12,184618,,,184619,,184622,2021-10-22T20:47:05.620Z,184749.92,1634935437,full,ni_sequenzen,NI_Sequenzen,,,,,,,,,,,,,,
,Screen_1,canvas.Screen,0_4_12_0,,skipped,13,184624,,,184624,,184624,2021-10-22T20:47:05.622Z,184749.92,1634935437,full,ni_sequenzen,NI_Sequenzen,,,,,,,,,,,,,,
,Screen_2,canvas.Screen,0_4_12_1,,skipped,13,184625,,,184624,,184626,2021-10-22T20:47:05.624Z,184749.92,1634935437,full,ni_sequenzen,NI_Sequenzen,,,,,,,,,,,,,,
,Screen_3,canvas.Screen,0_4_12_2,,skipped,13,184628,,,184624,,184628,2021-10-22T20:47:05.625Z,184749.92,1634935437,full,ni_sequenzen,NI_Sequenzen,,,,,,,,,,,,,,
,Sequence,flow.Sequence,0_4_12,,completion,13,184623,,,184624,,184628,2021-10-22T20:47:05.625Z,184749.92,1634935437,full,ni_sequenzen,NI_Sequenzen,,,,,,,,,,,,,,
,Screen_1,canvas.Screen,0_4_13_0,,skipped,14,184630,,,184630,,184630,2021-10-22T20:47:05.627Z,184749.92,1634935437,full,ni_sequenzen,NI_Sequenzen,,,,,,,,,,,,,,
,Screen_2,canvas.Screen,0_4_13_1,,skipped,14,184631,,,184630,,184631,2021-10-22T20:47:05.628Z,184749.92,1634935437,full,ni_sequenzen,NI_Sequenzen,,,,,,,,,,,,,,
,Screen_3,canvas.Screen,0_4_13_2,,skipped,14,184633,,,184630,,184633,2021-10-22T20:47:05.630Z,184749.92,1634935437,full,ni_sequenzen,NI_Sequenzen,,,,,,,,,,,,,,
,Sequence,flow.Sequence,0_4_13,,completion,14,184628,,,184630,,184633,2021-10-22T20:47:05.630Z,184749.92,1634935437,full,ni_sequenzen,NI_Sequenzen,,,,,,,,,,,,,,
,Screen_1,canvas.Screen,0_4_14_0,,skipped,15,184635,,,184635,,184635,2021-10-22T20:47:05.633Z,184749.92,1634935437,full,ni_sequenzen,NI_Sequenzen,,,,,,,,,,,,,,
,Screen_2,canvas.Screen,0_4_14_1,,skipped,15,184637,,,184635,,184637,2021-10-22T20:47:05.635Z,184749.92,1634935437,full,ni_sequenzen,NI_Sequenzen,,,,,,,,,,,,,,
,Screen_3,canvas.Screen,0_4_14_2,,skipped,15,184639,,,184635,,184639,2021-10-22T20:47:05.636Z,184749.92,1634935437,full,ni_sequenzen,NI_Sequenzen,,,,,,,,,,,,,,
,Sequence,flow.Sequence,0_4_14,,completion,15,184634,,,184635,,184639,2021-10-22T20:47:05.636Z,184749.92,1634935437,full,ni_sequenzen,NI_Sequenzen,,,,,,,,,,,,,,
,Screen_1,canvas.Screen,0_4_15_0,,skipped,16,184641,,,184641,,184641,2021-10-22T20:47:05.639Z,184749.92,1634935437,full,ni_sequenzen,NI_Sequenzen,,,,,,,,,,,,,,
,Screen_2,canvas.Screen,0_4_15_1,,skipped,16,184642,,,184641,,184642,2021-10-22T20:47:05.640Z,184749.92,1634935437,full,ni_sequenzen,NI_Sequenzen,,,,,,,,,,,,,,
,Screen_3,canvas.Screen,0_4_15_2,,skipped,16,184643,,,184641,,184643,2021-10-22T20:47:05.642Z,184749.92,1634935437,full,ni_sequenzen,NI_Sequenzen,,,,,,,,,,,,,,
,Sequence,flow.Sequence,0_4_15,,completion,16,184639,,,184641,,184643,2021-10-22T20:47:05.642Z,184749.92,1634935437,full,ni_sequenzen,NI_Sequenzen,,,,,,,,,,,,,,
,Screen_1,canvas.Screen,0_4_16_0,,skipped,17,184645,,,184645,,184645,2021-10-22T20:47:05.643Z,184749.92,1634935437,full,ni_sequenzen,NI_Sequenzen,,,,,,,,,,,,,,
,Screen_2,canvas.Screen,0_4_16_1,,skipped,17,184646,,,184645,,184646,2021-10-22T20:47:05.645Z,184749.92,1634935437,full,ni_sequenzen,NI_Sequenzen,,,,,,,,,,,,,,
,Screen_3,canvas.Screen,0_4_16_2,,skipped,17,184648,,,184645,,184648,2021-10-22T20:47:05.646Z,184749.92,1634935437,full,ni_sequenzen,NI_Sequenzen,,,,,,,,,,,,,,
,Sequence,flow.Sequence,0_4_16,,completion,17,184644,,,184645,,184648,2021-10-22T20:47:05.647Z,184749.92,1634935437,full,ni_sequenzen,NI_Sequenzen,,,,,,,,,,,,,,
,Screen_1,canvas.Screen,0_4_17_0,,skipped,18,184651,,,184651,,184651,2021-10-22T20:47:05.649Z,184749.92,1634935437,full,ni_sequenzen,NI_Sequenzen,,,,,,,,,,,,,,
,Screen_2,canvas.Screen,0_4_17_1,,skipped,18,184653,,,184651,,184653,2021-10-22T20:47:05.650Z,184749.92,1634935437,full,ni_sequenzen,NI_Sequenzen,,,,,,,,,,,,,,
,Screen_3,canvas.Screen,0_4_17_2,,skipped,18,184654,,,184651,,184654,2021-10-22T20:47:05.652Z,184749.92,1634935437,full,ni_sequenzen,NI_Sequenzen,,,,,,,,,,,,,,
,Sequence,flow.Sequence,0_4_17,,completion,18,184650,,,184651,,184654,2021-10-22T20:47:05.652Z,184749.92,1634935437,full,ni_sequenzen,NI_Sequenzen,,,,,,,,,,,,,,
,Screen_1,canvas.Screen,0_4_18_0,,skipped,19,184656,,,184656,,184656,2021-10-22T20:47:05.654Z,184749.92,1634935437,full,ni_sequenzen,NI_Sequenzen,,,,,,,,,,,,,,
,Screen_2,canvas.Screen,0_4_18_1,,skipped,19,184658,,,184656,,184658,2021-10-22T20:47:05.656Z,184749.92,1634935437,full,ni_sequenzen,NI_Sequenzen,,,,,,,,,,,,,,
,Screen_3,canvas.Screen,0_4_18_2,,skipped,19,184660,,,184656,,184660,2021-10-22T20:47:05.658Z,184749.92,1634935437,full,ni_sequenzen,NI_Sequenzen,,,,,,,,,,,,,,
,Sequence,flow.Sequence,0_4_18,,completion,19,184655,,,184656,,184660,2021-10-22T20:47:05.658Z,184749.92,1634935437,full,ni_sequenzen,NI_Sequenzen,,,,,,,,,,,,,,
,Screen_1,canvas.Screen,0_4_19_0,,skipped,20,184663,,,184663,,184663,2021-10-22T20:47:05.660Z,184749.92,1634935437,full,ni_sequenzen,NI_Sequenzen,,,,,,,,,,,,,,
