meta,sender,sender_type,sender_id,response,ended_on,instrCount,time_run,time_render,time_show,time_end,duration,time_commit,timestamp,time_switch,openLabId,type,task,project,move,trialN,blockN_Train,blockN,moveCount,currPP,points,movesTrial,visitedFields,diff,reward,Strategie,Zweck,Probleme
[object Object],Screen_1,canvas.Screen,0_0_0_0,cont,response,1,1490.3999999761581,1475.721,1675.795,38232.69999998808,36556.90499998808,38241.09999996424,2021-11-06T17:57:14.363Z,38475.457,1634936702,full,ni_sequenzen,NI_Sequenzen,,,,,,,,,,,,,,
,Screen_2,canvas.Screen,0_0_0_1,cont,response,1,38449.69999998808,38434.368,38475.457,59700.39999997616,21224.942999976156,59701.5,2021-11-06T17:57:35.823Z,59932.491,1634936702,full,ni_sequenzen,NI_Sequenzen,,,,,,,,,,,,,,
,Screen_3,canvas.Screen,0_0_0_2,back,response,1,59857.59999996424,59849.415,59932.491,64880.69999998808,4948.208999988077,64881.19999998808,2021-11-06T17:57:41.003Z,64902.492,1634936702,full,ni_sequenzen,NI_Sequenzen,,,,,,,,,,,,,,
,Screen_4,canvas.Screen,0_0_0_3,,skipped,1,64884.69999998808,,,64880.69999998808,,64884.89999997616,2021-11-06T17:57:41.007Z,64902.492,1634936702,full,ni_sequenzen,NI_Sequenzen,,,,,,,,,,,,,,
,Sequence,flow.Sequence,0_0_0,,completion,1,1382.5999999642372,1475.721,1675.795,64880.69999998808,63204.90499998808,64886.39999997616,2021-11-06T17:57:41.008Z,64902.492,1634936702,full,ni_sequenzen,NI_Sequenzen,,,,,,,,,,,,,,
,Screen_1,canvas.Screen,0_0_1_0,,skipped,2,64888.69999998808,,,64888.69999998808,,64888.799999952316,2021-11-06T17:57:41.011Z,64902.492,1634936702,full,ni_sequenzen,NI_Sequenzen,,,,,,,,,,,,,,
,Screen_2,canvas.Screen,0_0_1_1,cont,response,2,64890.39999997616,64886.121,64902.492,123943.59999996424,59041.10799996424,123945.5,2021-11-06T17:58:40.071Z,123959.775,1634936702,full,ni_sequenzen,NI_Sequenzen,,,,,,,,,,,,,,
,Screen_3,canvas.Screen,0_0_1_2,cont,response,2,123948.5,123943.56,123959.775,146055.89999997616,22096.124999976164,146057.39999997616,2021-11-06T17:59:02.183Z,146075.314,1634936702,full,ni_sequenzen,NI_Sequenzen,,,,,,,,,,,,,,
,Screen_4,canvas.Screen,0_0_1_3,cont,response,2,146060.79999995232,146058.352,146075.314,161317.59999996424,15242.285999964224,161319.89999997616,2021-11-06T17:59:17.446Z,161685.768,1634936702,full,ni_sequenzen,NI_Sequenzen,,,,,,,,,,,,,,
,Sequence,flow.Sequence,0_0_1,,completion,2,64887.19999998808,64886.121,64902.492,161317.59999996424,96415.10799996424,161328.5,2021-11-06T17:59:17.454Z,161685.768,1634936702,full,ni_sequenzen,NI_Sequenzen,,,,,,,,,,,,,,
,Screen_1,canvas.Screen,0_0_2_0,,skipped,3,161333.79999995232,,,161333.79999995232,,161334.09999996424,2021-11-06T17:59:17.460Z,161685.768,1634936702,full,ni_sequenzen,NI_Sequenzen,,,,,,,,,,,,,,
,Screen_2,canvas.Screen,0_0_2_1,,skipped,3,161338.39999997616,,,161333.79999995232,,161338.69999998808,2021-11-06T17:59:17.465Z,161685.768,1634936702,full,ni_sequenzen,NI_Sequenzen,,,,,,,,,,,,,,
,Screen_3,canvas.Screen,0_0_2_2,,skipped,3,161341.19999998808,,,161333.79999995232,,161341.39999997616,2021-11-06T17:59:17.467Z,161685.768,1634936702,full,ni_sequenzen,NI_Sequenzen,,,,,,,,,,,,,,
,Screen_4,canvas.Screen,0_0_2_3,,skipped,3,161343.79999995232,,,161333.79999995232,,161344,2021-11-06T17:59:17.470Z,161685.768,1634936702,full,ni_sequenzen,NI_Sequenzen,,,,,,,,,,,,,,
,Sequence,flow.Sequence,0_0_2,,completion,3,161330.39999997616,,,161333.79999995232,,161344.59999996424,2021-11-06T17:59:17.471Z,161685.768,1634936702,full,ni_sequenzen,NI_Sequenzen,,,,,,,,,,,,,,
,Screen_1,canvas.Screen,0_0_3_0,,skipped,4,161349.09999996424,,,161349.09999996424,,161349.29999995232,2021-11-06T17:59:17.475Z,161685.768,1634936702,full,ni_sequenzen,NI_Sequenzen,,,,,,,,,,,,,,
,Screen_2,canvas.Screen,0_0_3_1,,skipped,4,161352.09999996424,,,161349.09999996424,,161352.5,2021-11-06T17:59:17.478Z,161685.768,1634936702,full,ni_sequenzen,NI_Sequenzen,,,,,,,,,,,,,,
,Screen_3,canvas.Screen,0_0_3_2,,skipped,4,161355.29999995232,,,161349.09999996424,,161355.39999997616,2021-11-06T17:59:17.481Z,161685.768,1634936702,full,ni_sequenzen,NI_Sequenzen,,,,,,,,,,,,,,
,Screen_4,canvas.Screen,0_0_3_3,,skipped,4,161358.19999998808,,,161349.09999996424,,161358.39999997616,2021-11-06T17:59:17.484Z,161685.768,1634936702,full,ni_sequenzen,NI_Sequenzen,,,,,,,,,,,,,,
,Sequence,flow.Sequence,0_0_3,,completion,4,161346.19999998808,,,161349.09999996424,,161358.69999998808,2021-11-06T17:59:17.485Z,161685.768,1634936702,full,ni_sequenzen,NI_Sequenzen,,,,,,,,,,,,,,
,Screen_1,canvas.Screen,0_0_4_0,,skipped,5,161362.39999997616,,,161362.39999997616,,161362.69999998808,2021-11-06T17:59:17.489Z,161685.768,1634936702,full,ni_sequenzen,NI_Sequenzen,,,,,,,,,,,,,,
,Screen_2,canvas.Screen,0_0_4_1,,skipped,5,161365,,,161362.39999997616,,161365.09999996424,2021-11-06T17:59:17.491Z,161685.768,1634936702,full,ni_sequenzen,NI_Sequenzen,,,,,,,,,,,,,,
,Screen_3,canvas.Screen,0_0_4_2,,skipped,5,161366.89999997616,,,161362.39999997616,,161367,2021-11-06T17:59:17.493Z,161685.768,1634936702,full,ni_sequenzen,NI_Sequenzen,,,,,,,,,,,,,,
,Screen_4,canvas.Screen,0_0_4_3,,skipped,5,161368.59999996424,,,161362.39999997616,,161368.69999998808,2021-11-06T17:59:17.495Z,161685.768,1634936702,full,ni_sequenzen,NI_Sequenzen,,,,,,,,,,,,,,
,Sequence,flow.Sequence,0_0_4,,completion,5,161359.69999998808,,,161362.39999997616,,161369.19999998808,2021-11-06T17:59:17.495Z,161685.768,1634936702,full,ni_sequenzen,NI_Sequenzen,,,,,,,,,,,,,,
,Screen_1,canvas.Screen,0_0_5_0,,skipped,6,161371.19999998808,,,161371.19999998808,,161371.39999997616,2021-11-06T17:59:17.497Z,161685.768,1634936702,full,ni_sequenzen,NI_Sequenzen,,,,,,,,,,,,,,
,Screen_2,canvas.Screen,0_0_5_1,,skipped,6,161373.69999998808,,,161371.19999998808,,161373.79999995232,2021-11-06T17:59:17.500Z,161685.768,1634936702,full,ni_sequenzen,NI_Sequenzen,,,,,,,,,,,,,,
,Screen_3,canvas.Screen,0_0_5_2,,skipped,6,161375.29999995232,,,161371.19999998808,,161375.5,2021-11-06T17:59:17.501Z,161685.768,1634936702,full,ni_sequenzen,NI_Sequenzen,,,,,,,,,,,,,,
,Screen_4,canvas.Screen,0_0_5_3,,skipped,6,161376.69999998808,,,161371.19999998808,,161376.79999995232,2021-11-06T17:59:17.503Z,161685.768,1634936702,full,ni_sequenzen,NI_Sequenzen,,,,,,,,,,,,,,
,Sequence,flow.Sequence,0_0_5,,completion,6,161369.89999997616,,,161371.19999998808,,161376.89999997616,2021-11-06T17:59:17.503Z,161685.768,1634936702,full,ni_sequenzen,NI_Sequenzen,,,,,,,,,,,,,,
,Screen_1,canvas.Screen,0_0_6_0,,skipped,7,161378.29999995232,,,161378.29999995232,,161378.39999997616,2021-11-06T17:59:17.504Z,161685.768,1634936702,full,ni_sequenzen,NI_Sequenzen,,,,,,,,,,,,,,
,Screen_2,canvas.Screen,0_0_6_1,,skipped,7,161379.5,,,161378.29999995232,,161379.59999996424,2021-11-06T17:59:17.506Z,161685.768,1634936702,full,ni_sequenzen,NI_Sequenzen,,,,,,,,,,,,,,
,Screen_3,canvas.Screen,0_0_6_2,,skipped,7,161380.79999995232,,,161378.29999995232,,161381,2021-11-06T17:59:17.507Z,161685.768,1634936702,full,ni_sequenzen,NI_Sequenzen,,,,,,,,,,,,,,
,Screen_4,canvas.Screen,0_0_6_3,,skipped,7,161382,,,161378.29999995232,,161382.09999996424,2021-11-06T17:59:17.508Z,161685.768,1634936702,full,ni_sequenzen,NI_Sequenzen,,,,,,,,,,,,,,
,Sequence,flow.Sequence,0_0_6,,completion,7,161377.29999995232,,,161378.29999995232,,161382.19999998808,2021-11-06T17:59:17.508Z,161685.768,1634936702,full,ni_sequenzen,NI_Sequenzen,,,,,,,,,,,,,,
,Screen_1,canvas.Screen,0_0_7_0,,skipped,8,161383.79999995232,,,161383.79999995232,,161383.79999995232,2021-11-06T17:59:17.510Z,161685.768,1634936702,full,ni_sequenzen,NI_Sequenzen,,,,,,,,,,,,,,
,Screen_2,canvas.Screen,0_0_7_1,,skipped,8,161384.89999997616,,,161383.79999995232,,161384.89999997616,2021-11-06T17:59:17.511Z,161685.768,1634936702,full,ni_sequenzen,NI_Sequenzen,,,,,,,,,,,,,,
,Screen_3,canvas.Screen,0_0_7_2,,skipped,8,161386.69999998808,,,161383.79999995232,,161386.79999995232,2021-11-06T17:59:17.513Z,161685.768,1634936702,full,ni_sequenzen,NI_Sequenzen,,,,,,,,,,,,,,
,Screen_4,canvas.Screen,0_0_7_3,,skipped,8,161388,,,161383.79999995232,,161388,2021-11-06T17:59:17.514Z,161685.768,1634936702,full,ni_sequenzen,NI_Sequenzen,,,,,,,,,,,,,,
,Sequence,flow.Sequence,0_0_7,,completion,8,161382.69999998808,,,161383.79999995232,,161388.29999995232,2021-11-06T17:59:17.514Z,161685.768,1634936702,full,ni_sequenzen,NI_Sequenzen,,,,,,,,,,,,,,
,Screen_1,canvas.Screen,0_0_8_0,,skipped,9,161389.79999995232,,,161389.79999995232,,161389.79999995232,2021-11-06T17:59:17.516Z,161685.768,1634936702,full,ni_sequenzen,NI_Sequenzen,,,,,,,,,,,,,,
,Screen_2,canvas.Screen,0_0_8_1,,skipped,9,161390.69999998808,,,161389.79999995232,,161390.69999998808,2021-11-06T17:59:17.517Z,161685.768,1634936702,full,ni_sequenzen,NI_Sequenzen,,,,,,,,,,,,,,
,Screen_3,canvas.Screen,0_0_8_2,,skipped,9,161392.5,,,161389.79999995232,,161392.59999996424,2021-11-06T17:59:17.519Z,161685.768,1634936702,full,ni_sequenzen,NI_Sequenzen,,,,,,,,,,,,,,
,Screen_4,canvas.Screen,0_0_8_3,,skipped,9,161393.59999996424,,,161389.79999995232,,161393.69999998808,2021-11-06T17:59:17.520Z,161685.768,1634936702,full,ni_sequenzen,NI_Sequenzen,,,,,,,,,,,,,,
,Sequence,flow.Sequence,0_0_8,,completion,9,161388.69999998808,,,161389.79999995232,,161393.89999997616,2021-11-06T17:59:17.520Z,161685.768,1634936702,full,ni_sequenzen,NI_Sequenzen,,,,,,,,,,,,,,
,Screen_1,canvas.Screen,0_0_9_0,,skipped,10,161395,,,161395,,161395,2021-11-06T17:59:17.521Z,161685.768,1634936702,full,ni_sequenzen,NI_Sequenzen,,,,,,,,,,,,,,
,Screen_2,canvas.Screen,0_0_9_1,,skipped,10,161395.89999997616,,,161395,,161395.89999997616,2021-11-06T17:59:17.522Z,161685.768,1634936702,full,ni_sequenzen,NI_Sequenzen,,,,,,,,,,,,,,
,Screen_3,canvas.Screen,0_0_9_2,,skipped,10,161396.79999995232,,,161395,,161396.79999995232,2021-11-06T17:59:17.523Z,161685.768,1634936702,full,ni_sequenzen,NI_Sequenzen,,,,,,,,,,,,,,
,Screen_4,canvas.Screen,0_0_9_3,,skipped,10,161397.69999998808,,,161395,,161397.79999995232,2021-11-06T17:59:17.524Z,161685.768,1634936702,full,ni_sequenzen,NI_Sequenzen,,,,,,,,,,,,,,
,Sequence,flow.Sequence,0_0_9,,completion,10,161394.19999998808,,,161395,,161397.89999997616,2021-11-06T17:59:17.524Z,161685.768,1634936702,full,ni_sequenzen,NI_Sequenzen,,,,,,,,,,,,,,
,Screen_1,canvas.Screen,0_0_10_0,,skipped,11,161399.19999998808,,,161399.19999998808,,161399.29999995232,2021-11-06T17:59:17.525Z,161685.768,1634936702,full,ni_sequenzen,NI_Sequenzen,,,,,,,,,,,,,,
,Screen_2,canvas.Screen,0_0_10_1,,skipped,11,161400.09999996424,,,161399.19999998808,,161400.19999998808,2021-11-06T17:59:17.526Z,161685.768,1634936702,full,ni_sequenzen,NI_Sequenzen,,,,,,,,,,,,,,
,Screen_3,canvas.Screen,0_0_10_2,,skipped,11,161401.09999996424,,,161399.19999998808,,161401.19999998808,2021-11-06T17:59:17.527Z,161685.768,1634936702,full,ni_sequenzen,NI_Sequenzen,,,,,,,,,,,,,,
,Screen_4,canvas.Screen,0_0_10_3,,skipped,11,161405.69999998808,,,161399.19999998808,,161405.79999995232,2021-11-06T17:59:17.532Z,161685.768,1634936702,full,ni_sequenzen,NI_Sequenzen,,,,,,,,,,,,,,
,Sequence,flow.Sequence,0_0_10,,completion,11,161398.39999997616,,,161399.19999998808,,161405.89999997616,2021-11-06T17:59:17.532Z,161685.768,1634936702,full,ni_sequenzen,NI_Sequenzen,,,,,,,,,,,,,,
,Screen_1,canvas.Screen,0_0_11_0,,skipped,12,161407.69999998808,,,161407.69999998808,,161407.79999995232,2021-11-06T17:59:17.534Z,161685.768,1634936702,full,ni_sequenzen,NI_Sequenzen,,,,,,,,,,,,,,
,Screen_2,canvas.Screen,0_0_11_1,,skipped,12,161409.59999996424,,,161407.69999998808,,161409.69999998808,2021-11-06T17:59:17.536Z,161685.768,1634936702,full,ni_sequenzen,NI_Sequenzen,,,,,,,,,,,,,,
,Screen_3,canvas.Screen,0_0_11_2,,skipped,12,161411.19999998808,,,161407.69999998808,,161411.29999995232,2021-11-06T17:59:17.537Z,161685.768,1634936702,full,ni_sequenzen,NI_Sequenzen,,,,,,,,,,,,,,
,Screen_4,canvas.Screen,0_0_11_3,,skipped,12,161413,,,161407.69999998808,,161413.19999998808,2021-11-06T17:59:17.539Z,161685.768,1634936702,full,ni_sequenzen,NI_Sequenzen,,,,,,,,,,,,,,
,Sequence,flow.Sequence,0_0_11,,completion,12,161406.5,,,161407.69999998808,,161413.29999995232,2021-11-06T17:59:17.539Z,161685.768,1634936702,full,ni_sequenzen,NI_Sequenzen,,,,,,,,,,,,,,
,Screen_1,canvas.Screen,0_0_12_0,,skipped,13,161415.79999995232,,,161415.79999995232,,161415.89999997616,2021-11-06T17:59:17.542Z,161685.768,1634936702,full,ni_sequenzen,NI_Sequenzen,,,,,,,,,,,,,,
,Screen_2,canvas.Screen,0_0_12_1,,skipped,13,161416.59999996424,,,161415.79999995232,,161416.69999998808,2021-11-06T17:59:17.543Z,161685.768,1634936702,full,ni_sequenzen,NI_Sequenzen,,,,,,,,,,,,,,
,Screen_3,canvas.Screen,0_0_12_2,,skipped,13,161417.39999997616,,,161415.79999995232,,161417.39999997616,2021-11-06T17:59:17.543Z,161685.768,1634936702,full,ni_sequenzen,NI_Sequenzen,,,,,,,,,,,,,,
,Screen_4,canvas.Screen,0_0_12_3,,skipped,13,161418.09999996424,,,161415.79999995232,,161418.19999998808,2021-11-06T17:59:17.544Z,161685.768,1634936702,full,ni_sequenzen,NI_Sequenzen,,,,,,,,,,,,,,
,Sequence,flow.Sequence,0_0_12,,completion,13,161415.09999996424,,,161415.79999995232,,161418.29999995232,2021-11-06T17:59:17.544Z,161685.768,1634936702,full,ni_sequenzen,NI_Sequenzen,,,,,,,,,,,,,,
,Screen_1,canvas.Screen,0_0_13_0,,skipped,14,161419.39999997616,,,161419.39999997616,,161419.59999996424,2021-11-06T17:59:17.546Z,161685.768,1634936702,full,ni_sequenzen,NI_Sequenzen,,,,,,,,,,,,,,
,Screen_2,canvas.Screen,0_0_13_1,,skipped,14,161420.19999998808,,,161419.39999997616,,161420.29999995232,2021-11-06T17:59:17.546Z,161685.768,1634936702,full,ni_sequenzen,NI_Sequenzen,,,,,,,,,,,,,,
,Screen_3,canvas.Screen,0_0_13_2,,skipped,14,161420.79999995232,,,161419.39999997616,,161420.89999997616,2021-11-06T17:59:17.547Z,161685.768,1634936702,full,ni_sequenzen,NI_Sequenzen,,,,,,,,,,,,,,
,Screen_4,canvas.Screen,0_0_13_3,,skipped,14,161421.5,,,161419.39999997616,,161421.5,2021-11-06T17:59:17.548Z,161685.768,1634936702,full,ni_sequenzen,NI_Sequenzen,,,,,,,,,,,,,,
,Sequence,flow.Sequence,0_0_13,,completion,14,161418.59999996424,,,161419.39999997616,,161421.59999996424,2021-11-06T17:59:17.548Z,161685.768,1634936702,full,ni_sequenzen,NI_Sequenzen,,,,,,,,,,,,,,
,Screen_1,canvas.Screen,0_0_14_0,,skipped,15,161422.59999996424,,,161422.59999996424,,161422.59999996424,2021-11-06T17:59:17.549Z,161685.768,1634936702,full,ni_sequenzen,NI_Sequenzen,,,,,,,,,,,,,,
,Screen_2,canvas.Screen,0_0_14_1,,skipped,15,161423.29999995232,,,161422.59999996424,,161423.29999995232,2021-11-06T17:59:17.549Z,161685.768,1634936702,full,ni_sequenzen,NI_Sequenzen,,,,,,,,,,,,,,
,Screen_3,canvas.Screen,0_0_14_2,,skipped,15,161424,,,161422.59999996424,,161424.09999996424,2021-11-06T17:59:17.550Z,161685.768,1634936702,full,ni_sequenzen,NI_Sequenzen,,,,,,,,,,,,,,
,Screen_4,canvas.Screen,0_0_14_3,,skipped,15,161424.69999998808,,,161422.59999996424,,161424.79999995232,2021-11-06T17:59:17.551Z,161685.768,1634936702,full,ni_sequenzen,NI_Sequenzen,,,,,,,,,,,,,,
,Sequence,flow.Sequence,0_0_14,,completion,15,161421.89999997616,,,161422.59999996424,,161425.59999996424,2021-11-06T17:59:17.552Z,161685.768,1634936702,full,ni_sequenzen,NI_Sequenzen,,,,,,,,,,,,,,
,Screen_1,canvas.Screen,0_0_15_0,,skipped,16,161426.59999996424,,,161426.59999996424,,161426.69999998808,2021-11-06T17:59:17.553Z,161685.768,1634936702,full,ni_sequenzen,NI_Sequenzen,,,,,,,,,,,,,,
,Screen_2,canvas.Screen,0_0_15_1,,skipped,16,161428.19999998808,,,161426.59999996424,,161428.29999995232,2021-11-06T17:59:17.554Z,161685.768,1634936702,full,ni_sequenzen,NI_Sequenzen,,,,,,,,,,,,,,
,Screen_3,canvas.Screen,0_0_15_2,,skipped,16,161429.19999998808,,,161426.59999996424,,161429.29999995232,2021-11-06T17:59:17.555Z,161685.768,1634936702,full,ni_sequenzen,NI_Sequenzen,,,,,,,,,,,,,,
,Screen_4,canvas.Screen,0_0_15_3,,skipped,16,161430.89999997616,,,161426.59999996424,,161431,2021-11-06T17:59:17.557Z,161685.768,1634936702,full,ni_sequenzen,NI_Sequenzen,,,,,,,,,,,,,,
,Sequence,flow.Sequence,0_0_15,,completion,16,161425.89999997616,,,161426.59999996424,,161431.29999995232,2021-11-06T17:59:17.557Z,161685.768,1634936702,full,ni_sequenzen,NI_Sequenzen,,,,,,,,,,,,,,
,Screen_1,canvas.Screen,0_0_16_0,,skipped,17,161432.79999995232,,,161432.89999997616,,161432.89999997616,2021-11-06T17:59:17.559Z,161685.768,1634936702,full,ni_sequenzen,NI_Sequenzen,,,,,,,,,,,,,,
,Screen_2,canvas.Screen,0_0_16_1,,skipped,17,161434,,,161432.89999997616,,161434.19999998808,2021-11-06T17:59:17.560Z,161685.768,1634936702,full,ni_sequenzen,NI_Sequenzen,,,,,,,,,,,,,,
,Screen_3,canvas.Screen,0_0_16_2,,skipped,17,161435.09999996424,,,161432.89999997616,,161435.09999996424,2021-11-06T17:59:17.561Z,161685.768,1634936702,full,ni_sequenzen,NI_Sequenzen,,,,,,,,,,,,,,
,Screen_4,canvas.Screen,0_0_16_3,,skipped,17,161436.29999995232,,,161432.89999997616,,161436.39999997616,2021-11-06T17:59:17.562Z,161685.768,1634936702,full,ni_sequenzen,NI_Sequenzen,,,,,,,,,,,,,,
,Sequence,flow.Sequence,0_0_16,,completion,17,161431.79999995232,,,161432.89999997616,,161436.5,2021-11-06T17:59:17.562Z,161685.768,1634936702,full,ni_sequenzen,NI_Sequenzen,,,,,,,,,,,,,,
,Screen_1,canvas.Screen,0_0_17_0,,skipped,18,161437.39999997616,,,161437.39999997616,,161437.39999997616,2021-11-06T17:59:17.563Z,161685.768,1634936702,full,ni_sequenzen,NI_Sequenzen,,,,,,,,,,,,,,
,Screen_2,canvas.Screen,0_0_17_1,,skipped,18,161438,,,161437.39999997616,,161438.09999996424,2021-11-06T17:59:17.564Z,161685.768,1634936702,full,ni_sequenzen,NI_Sequenzen,,,,,,,,,,,,,,
,Screen_3,canvas.Screen,0_0_17_2,,skipped,18,161438.59999996424,,,161437.39999997616,,161438.69999998808,2021-11-06T17:59:17.565Z,161685.768,1634936702,full,ni_sequenzen,NI_Sequenzen,,,,,,,,,,,,,,
,Screen_4,canvas.Screen,0_0_17_3,,skipped,18,161439.19999998808,,,161437.39999997616,,161439.29999995232,2021-11-06T17:59:17.565Z,161685.768,1634936702,full,ni_sequenzen,NI_Sequenzen,,,,,,,,,,,,,,
,Sequence,flow.Sequence,0_0_17,,completion,18,161436.79999995232,,,161437.39999997616,,161439.39999997616,2021-11-06T17:59:17.565Z,161685.768,1634936702,full,ni_sequenzen,NI_Sequenzen,,,,,,,,,,,,,,
,Screen_1,canvas.Screen,0_0_18_0,,skipped,19,161440.29999995232,,,161440.29999995232,,161440.39999997616,2021-11-06T17:59:17.566Z,161685.768,1634936702,full,ni_sequenzen,NI_Sequenzen,,,,,,,,,,,,,,
,Screen_2,canvas.Screen,0_0_18_1,,skipped,19,161440.89999997616,,,161440.29999995232,,161441,2021-11-06T17:59:17.567Z,161685.768,1634936702,full,ni_sequenzen,NI_Sequenzen,,,,,,,,,,,,,,
,Screen_3,canvas.Screen,0_0_18_2,,skipped,19,161441.5,,,161440.29999995232,,161441.59999996424,2021-11-06T17:59:17.568Z,161685.768,1634936702,full,ni_sequenzen,NI_Sequenzen,,,,,,,,,,,,,,
,Screen_4,canvas.Screen,0_0_18_3,,skipped,19,161443,,,161440.29999995232,,161443.19999998808,2021-11-06T17:59:17.569Z,161685.768,1634936702,full,ni_sequenzen,NI_Sequenzen,,,,,,,,,,,,,,
,Sequence,flow.Sequence,0_0_18,,completion,19,161439.69999998808,,,161440.29999995232,,161443.19999998808,2021-11-06T17:59:17.569Z,161685.768,1634936702,full,ni_sequenzen,NI_Sequenzen,,,,,,,,,,,,,,
,Screen_1,canvas.Screen,0_0_19_0,,skipped,20,161444.09999996424,,,161444.09999996424,,161444.09999996424,2021-11-06T17:59:17.570Z,161685.768,1634936702,full,ni_sequenzen,NI_Sequenzen,,,,,,,,,,,,,,
,Screen_2,canvas.Screen,0_0_19_1,,skipped,20,161444.69999998808,,,161444.09999996424,,161444.69999998808,2021-11-06T17:59:17.571Z,161685.768,1634936702,full,ni_sequenzen,NI_Sequenzen,,,,,,,,,,,,,,
,Screen_3,canvas.Screen,0_0_19_2,,skipped,20,161445.29999995232,,,161444.09999996424,,161445.39999997616,2021-11-06T17:59:17.571Z,161685.768,1634936702,full,ni_sequenzen,NI_Sequenzen,,,,,,,,,,,,,,
,Screen_4,canvas.Screen,0_0_19_3,,skipped,20,161445.79999995232,,,161444.09999996424,,161445.89999997616,2021-11-06T17:59:17.572Z,161685.768,1634936702,full,ni_sequenzen,NI_Sequenzen,,,,,,,,,,,,,,
,Sequence,flow.Sequence,0_0_19,,completion,20,161443.5,,,161444.09999996424,,161446,2021-11-06T17:59:17.572Z,161685.768,1634936702,full,ni_sequenzen,NI_Sequenzen,,,,,,,,,,,,,,
,Instructions_I,flow.Loop,0_0,,completion,,1379.199999988079,1475.721,1675.795,161444.09999996424,159768.30499996422,161446.09999996424,2021-11-06T17:59:17.572Z,161685.768,1634936702,full,ni_sequenzen,NI_Sequenzen,,,,,,,,,,,,,,
,Move,canvas.Screen,0_1_0_0,right,response,,161669.19999998808,161668.933,161685.768,163563.39999997616,1877.6319999761472,163564.39999997616,2021-11-06T17:59:19.690Z,163587.13,1634936702,full,ni_sequenzen,NI_Sequenzen,1,,,,,,,,,,,,,
,Move,canvas.Screen,0_1_0_1,right,response,,163570.89999997616,163570.488,163587.13,164143.59999996424,556.4699999642326,164144.79999995232,2021-11-06T17:59:20.271Z,164180.581,1634936702,full,ni_sequenzen,NI_Sequenzen,2,,,,,,,,,,,,,
,Move,canvas.Screen,0_1_0_2,left,response,,164152.89999997616,164137.741,164180.581,166083.69999998808,1903.1189999880735,166084.79999995232,2021-11-06T17:59:22.211Z,166122.136,1634936702,full,ni_sequenzen,NI_Sequenzen,3,,,,,,,,,,,,,
,Move,canvas.Screen,0_1_0_3,down,response,,166089.5,166089.127,166122.136,169013.5,2891.3640000000014,169014.69999998808,2021-11-06T17:59:25.141Z,169024.166,1634936702,full,ni_sequenzen,NI_Sequenzen,4,,,,,,,,,,,,,
,Move,canvas.Screen,0_1_0_4,down,response,,169020.59999996424,169007.581,169024.166,169413.39999997616,389.2339999761607,169414.5,2021-11-06T17:59:25.540Z,169424.428,1634936702,full,ni_sequenzen,NI_Sequenzen,5,,,,,,,,,,,,,
,Move,canvas.Screen,0_1_0_5,down,response,,169418.5,169408.095,169424.428,169673.59999996424,249.17199996422278,169675.09999996424,2021-11-06T17:59:25.801Z,169691.283,1634936702,full,ni_sequenzen,NI_Sequenzen,6,,,,,,,,,,,,,
,Move,canvas.Screen,0_1_0_6,left,response,,169680,169674.73,169691.283,171023.69999998808,1332.4169999880833,171025.19999998808,2021-11-06T17:59:27.151Z,171042.198,1634936702,full,ni_sequenzen,NI_Sequenzen,7,,,,,,,,,,,,,
,Move,canvas.Screen,0_1_0_7,left,response,,171030.29999995232,171025.742,171042.198,171546.79999995232,504.6019999523123,171548,2021-11-06T17:59:27.674Z,171559.255,1634936702,full,ni_sequenzen,NI_Sequenzen,8,,,,,,,,,,,,,
,Move,canvas.Screen,0_1_0_8,left,response,,171552.89999997616,171542.553,171559.255,171873.5,314.24499999999534,171874.59999996424,2021-11-06T17:59:28.001Z,171892.794,1634936702,full,ni_sequenzen,NI_Sequenzen,9,,,,,,,,,,,,,
,Move,canvas.Screen,0_1_0_9,down,response,,171880.29999995232,171876.374,171892.794,173453.59999996424,1560.8059999642428,173455,2021-11-06T17:59:29.581Z,173477.254,1634936702,full,ni_sequenzen,NI_Sequenzen,10,,,,,,,,,,,,,
,Move,canvas.Screen,0_1_0_10,down,response,,173460.39999997616,173460.531,173477.254,173763.29999995232,286.04599995233,173764.29999995232,2021-11-06T17:59:29.890Z,173777.429,1634936702,full,ni_sequenzen,NI_Sequenzen,11,,,,,,,,,,,,,
,Move,canvas.Screen,0_1_0_11,down,response,,173768.59999996424,173761.08,173777.429,174043.59999996424,266.1709999642335,174045.19999998808,2021-11-06T17:59:30.171Z,174060.94,1634936702,full,ni_sequenzen,NI_Sequenzen,12,,,,,,,,,,,,,
,Move,canvas.Screen,0_1_0_12,right,response,,174051.29999995232,174044.57,174060.94,174883.5,822.5599999999977,174884.69999998808,2021-11-06T17:59:31.011Z,174894.78,1634936702,full,ni_sequenzen,NI_Sequenzen,13,,,,,,,,,,,,,
,Move,canvas.Screen,0_1_0_13,right,response,,174888.19999998808,174878.564,174894.78,175463.79999995232,569.0199999523174,175464.89999997616,2021-11-06T17:59:31.591Z,175478.579,1634936702,full,ni_sequenzen,NI_Sequenzen,14,,,,,,,,,,,,,
,Move,canvas.Screen,0_1_0_14,down,response,,175469.69999998808,175462.144,175478.579,175943.79999995232,465.2209999523184,175944.79999995232,2021-11-06T17:59:32.071Z,175962.255,1634936702,full,ni_sequenzen,NI_Sequenzen,15,,,,,,,,,,,,,
,Move,canvas.Screen,0_1_0_15,left,response,,175949.59999996424,175945.794,175962.255,176283.5,321.24499999999534,176284.59999996424,2021-11-06T17:59:32.411Z,176295.842,1634936702,full,ni_sequenzen,NI_Sequenzen,16,,,,,,,,,,,,,
,Move,canvas.Screen,0_1_0_16,left,response,,176289.39999997616,176279.424,176295.842,176663.69999998808,367.8579999880749,176664.79999995232,2021-11-06T17:59:32.791Z,176679.419,1634936702,full,ni_sequenzen,NI_Sequenzen,17,,,,,,,,,,,,,
,Move,canvas.Screen,0_1_0_17,down,response,,176668.89999997616,176662.818,176679.419,177193.69999998808,514.2809999880847,177194.79999995232,2021-11-06T17:59:33.321Z,177213.08,1634936702,full,ni_sequenzen,NI_Sequenzen,18,,,,,,,,,,,,,
,Move,canvas.Screen,0_1_0_18,right,response,,177201.89999997616,177196.529,177213.08,177663.29999995232,450.2199999523291,177664.59999996424,2021-11-06T17:59:33.791Z,177680.077,1634936702,full,ni_sequenzen,NI_Sequenzen,19,,,,,,,,,,,,,
,Move,canvas.Screen,0_1_0_19,right,response,,177669.09999996424,177663.668,177680.077,178073.5,393.4230000000098,178074.89999997616,2021-11-06T17:59:34.201Z,178097.033,1634936702,full,ni_sequenzen,NI_Sequenzen,20,,,,,,,,,,,,,
,Move,canvas.Screen,0_1_0_20,down,response,,178081,178080.357,178097.033,178544.5,447.4670000000042,178545.5,2021-11-06T17:59:34.672Z,178564.047,1634936702,full,ni_sequenzen,NI_Sequenzen,21,,,,,,,,,,,,,
,Move,canvas.Screen,0_1_0_21,down,response,,178550.89999997616,178547.72,178564.047,179383.29999995232,819.2529999523249,179384.29999995232,2021-11-06T17:59:35.510Z,179398.038,1634936702,full,ni_sequenzen,NI_Sequenzen,22,,,,,,,,,,,,,
,Move,canvas.Screen,0_1_0_22,down,response,,179387.59999996424,179381.426,179398.038,179823.59999996424,425.56199996423675,179824.79999995232,2021-11-06T17:59:35.951Z,179848.254,1634936702,full,ni_sequenzen,NI_Sequenzen,23,,,,,,,,,,,,,
,Move,canvas.Screen,0_1_0_23,right,response,,179829,179815.015,179848.254,180613.59999996424,765.345999964251,180614.69999998808,2021-11-06T17:59:36.741Z,180632.107,1634936702,full,ni_sequenzen,NI_Sequenzen,24,,,,,,,,,,,,,
,Move,canvas.Screen,0_1_0_24,right,response,,180622.09999996424,180615.776,180632.107,181313.59999996424,681.4929999642482,181314.69999998808,2021-11-06T17:59:37.441Z,181332.615,1634936702,full,ni_sequenzen,NI_Sequenzen,25,,,,,,,,,,,,,
,Move,canvas.Screen,0_1_0_25,left,response,,181319.39999997616,181316.211,181332.615,182467.79999995232,1135.1849999523256,182469.79999995232,2021-11-06T17:59:38.596Z,182483.432,1634936702,full,ni_sequenzen,NI_Sequenzen,26,,,,,,,,,,,,,
,Move,canvas.Screen,0_1_0_26,down,response,,182475.89999997616,182466.723,182483.432,183813.39999997616,1329.9679999761574,183814.39999997616,2021-11-06T17:59:39.940Z,183834.594,1634936702,full,ni_sequenzen,NI_Sequenzen,27,,,,,,,,,,,,,
,Move,canvas.Screen,0_1_0_27,down,response,,183818.5,183818,183834.594,184063.5,228.90599999998813,184064.69999998808,2021-11-06T17:59:40.191Z,184084.479,1634936702,full,ni_sequenzen,NI_Sequenzen,28,,,,,,,,,,,,,
,Move,canvas.Screen,0_1_0_28,down,response,,184069.89999997616,184068.225,184084.479,184233.59999996424,149.12099996424513,184234.69999998808,2021-11-06T17:59:40.361Z,184251.291,1634936702,full,ni_sequenzen,NI_Sequenzen,29,,,,,,,,,,,,,
,Move,canvas.Screen,0_1_0_29,left,response,,184239.59999996424,184235.222,184251.291,187222.39999997616,2971.1089999761607,187223,2021-11-06T17:59:43.349Z,187269.952,1634936702,full,ni_sequenzen,NI_Sequenzen,30,,,,,,,,,,,,,
,Loop,flow.Loop,0_1_0,-999,completion,,161454.69999998808,161668.933,161685.768,187222.39999997616,25536.631999976147,187223.19999998808,2021-11-06T17:59:43.349Z,187269.952,1634936702,full,ni_sequenzen,NI_Sequenzen,,,,,,,,,,,,,,
,Training_I,flow.Sequence,0_1,,completion,,161446.39999997616,161668.933,161685.768,187222.39999997616,25536.631999976147,187223.29999995232,2021-11-06T17:59:43.349Z,187269.952,1634936702,full,ni_sequenzen,NI_Sequenzen,,,,,,,,,,,,,,
,Screen_1,canvas.Screen,0_2_0_0,cont,response,1,187266.89999997616,187253.375,187269.952,205769.09999996424,18499.147999964247,205770.89999997616,2021-11-06T18:00:01.897Z,205966.165,1634936702,full,ni_sequenzen,NI_Sequenzen,,,,,,,,,,,,,,
,Screen_2,canvas.Screen,0_2_0_1,cont,response,1,205952.39999997616,205949.349,205966.165,220507.19999998808,14541.034999988071,220508.59999996424,2021-11-06T18:00:16.635Z,220526.263,1634936702,full,ni_sequenzen,NI_Sequenzen,,,,,,,,,,,,,,
,Screen_3,canvas.Screen,0_2_0_2,cont,response,1,220517.09999996424,220509.398,220526.263,231057.19999998808,10530.936999988073,231058.5,2021-11-06T18:00:27.185Z,231300.254,1634936702,full,ni_sequenzen,NI_Sequenzen,,,,,,,,,,,,,,
,Screen_4,canvas.Screen,0_2_0_3,cont,response,1,231254.89999997616,231250.205,231300.254,238995.59999996424,7695.345999964251,238996.69999998808,2021-11-06T18:00:35.123Z,239038.904,1634936702,full,ni_sequenzen,NI_Sequenzen,,,,,,,,,,,,,,
,Screen_5,canvas.Screen,0_2_0_4,cont,response,1,239005,239022.416,239038.904,261778.29999995232,22739.395999952307,261779.5,2021-11-06T18:00:57.906Z,262004.675,1634936702,full,ni_sequenzen,NI_Sequenzen,,,,,,,,,,,,,,
,Screen_6,canvas.Screen,0_2_0_5,cont,response,1,261971.39999997616,261971.46,262004.675,272018.59999996424,10013.924999964249,272020,2021-11-06T18:01:08.146Z,272249.066,1634936702,full,ni_sequenzen,NI_Sequenzen,,,,,,,,,,,,,,
,Sequence,flow.Sequence,0_2_0,,completion,1,187265.89999997616,187253.375,187269.952,272018.59999996424,84748.64799996425,272024.09999996424,2021-11-06T18:01:08.150Z,272249.066,1634936702,full,ni_sequenzen,NI_Sequenzen,,,,,,,,,,,,,,
,Screen_1,canvas.Screen,0_2_1_0,,skipped,2,272034.1999999881,,,272034.1999999881,,272034.59999996424,2021-11-06T18:01:08.161Z,272249.066,1634936702,full,ni_sequenzen,NI_Sequenzen,,,,,,,,,,,,,,
,Screen_2,canvas.Screen,0_2_1_1,,skipped,2,272039.39999997616,,,272034.1999999881,,272039.6999999881,2021-11-06T18:01:08.166Z,272249.066,1634936702,full,ni_sequenzen,NI_Sequenzen,,,,,,,,,,,,,,
,Screen_3,canvas.Screen,0_2_1_2,,skipped,2,272043.1999999881,,,272034.1999999881,,272043.5,2021-11-06T18:01:08.170Z,272249.066,1634936702,full,ni_sequenzen,NI_Sequenzen,,,,,,,,,,,,,,
,Screen_4,canvas.Screen,0_2_1_3,,skipped,2,272048,,,272034.1999999881,,272048.2999999523,2021-11-06T18:01:08.175Z,272249.066,1634936702,full,ni_sequenzen,NI_Sequenzen,,,,,,,,,,,,,,
,Screen_5,canvas.Screen,0_2_1_4,,skipped,2,272052.39999997616,,,272034.1999999881,,272052.59999996424,2021-11-06T18:01:08.179Z,272249.066,1634936702,full,ni_sequenzen,NI_Sequenzen,,,,,,,,,,,,,,
,Screen_6,canvas.Screen,0_2_1_5,,skipped,2,272055.6999999881,,,272034.1999999881,,272056,2021-11-06T18:01:08.182Z,272249.066,1634936702,full,ni_sequenzen,NI_Sequenzen,,,,,,,,,,,,,,
,Sequence,flow.Sequence,0_2_1,,completion,2,272030.2999999523,,,272034.1999999881,,272056.39999997616,2021-11-06T18:01:08.183Z,272249.066,1634936702,full,ni_sequenzen,NI_Sequenzen,,,,,,,,,,,,,,
,Screen_1,canvas.Screen,0_2_2_0,,skipped,3,272059.6999999881,,,272059.6999999881,,272060,2021-11-06T18:01:08.186Z,272249.066,1634936702,full,ni_sequenzen,NI_Sequenzen,,,,,,,,,,,,,,
,Screen_2,canvas.Screen,0_2_2_1,,skipped,3,272063.1999999881,,,272059.6999999881,,272063.5,2021-11-06T18:01:08.190Z,272249.066,1634936702,full,ni_sequenzen,NI_Sequenzen,,,,,,,,,,,,,,
,Screen_3,canvas.Screen,0_2_2_2,,skipped,3,272065.89999997616,,,272059.6999999881,,272066.09999996424,2021-11-06T18:01:08.192Z,272249.066,1634936702,full,ni_sequenzen,NI_Sequenzen,,,,,,,,,,,,,,
,Screen_4,canvas.Screen,0_2_2_3,,skipped,3,272067.89999997616,,,272059.6999999881,,272068.09999996424,2021-11-06T18:01:08.194Z,272249.066,1634936702,full,ni_sequenzen,NI_Sequenzen,,,,,,,,,,,,,,
,Screen_5,canvas.Screen,0_2_2_4,,skipped,3,272069.7999999523,,,272059.6999999881,,272070,2021-11-06T18:01:08.196Z,272249.066,1634936702,full,ni_sequenzen,NI_Sequenzen,,,,,,,,,,,,,,
,Screen_6,canvas.Screen,0_2_2_5,,skipped,3,272071.5,,,272059.6999999881,,272071.59999996424,2021-11-06T18:01:08.198Z,272249.066,1634936702,full,ni_sequenzen,NI_Sequenzen,,,,,,,,,,,,,,
,Sequence,flow.Sequence,0_2_2,,completion,3,272057.5,,,272059.6999999881,,272071.89999997616,2021-11-06T18:01:08.198Z,272249.066,1634936702,full,ni_sequenzen,NI_Sequenzen,,,,,,,,,,,,,,
,Screen_1,canvas.Screen,0_2_3_0,,skipped,4,272074.09999996424,,,272074.09999996424,,272074.1999999881,2021-11-06T18:01:08.201Z,272249.066,1634936702,full,ni_sequenzen,NI_Sequenzen,,,,,,,,,,,,,,
,Screen_2,canvas.Screen,0_2_3_1,,skipped,4,272076.6999999881,,,272074.09999996424,,272076.7999999523,2021-11-06T18:01:08.203Z,272249.066,1634936702,full,ni_sequenzen,NI_Sequenzen,,,,,,,,,,,,,,
,Screen_3,canvas.Screen,0_2_3_2,,skipped,4,272078,,,272074.09999996424,,272078.09999996424,2021-11-06T18:01:08.204Z,272249.066,1634936702,full,ni_sequenzen,NI_Sequenzen,,,,,,,,,,,,,,
,Screen_4,canvas.Screen,0_2_3_3,,skipped,4,272079.5,,,272074.09999996424,,272079.59999996424,2021-11-06T18:01:08.206Z,272249.066,1634936702,full,ni_sequenzen,NI_Sequenzen,,,,,,,,,,,,,,
,Screen_5,canvas.Screen,0_2_3_4,,skipped,4,272080.6999999881,,,272074.09999996424,,272080.6999999881,2021-11-06T18:01:08.207Z,272249.066,1634936702,full,ni_sequenzen,NI_Sequenzen,,,,,,,,,,,,,,
,Screen_6,canvas.Screen,0_2_3_5,,skipped,4,272081.59999996424,,,272074.09999996424,,272081.6999999881,2021-11-06T18:01:08.208Z,272249.066,1634936702,full,ni_sequenzen,NI_Sequenzen,,,,,,,,,,,,,,
,Sequence,flow.Sequence,0_2_3,,completion,4,272072.59999996424,,,272074.09999996424,,272081.89999997616,2021-11-06T18:01:08.208Z,272249.066,1634936702,full,ni_sequenzen,NI_Sequenzen,,,,,,,,,,,,,,
,Screen_1,canvas.Screen,0_2_4_0,,skipped,5,272083.2999999523,,,272083.2999999523,,272083.39999997616,2021-11-06T18:01:08.210Z,272249.066,1634936702,full,ni_sequenzen,NI_Sequenzen,,,,,,,,,,,,,,
,Screen_2,canvas.Screen,0_2_4_1,,skipped,5,272084.2999999523,,,272083.2999999523,,272084.2999999523,2021-11-06T18:01:08.211Z,272249.066,1634936702,full,ni_sequenzen,NI_Sequenzen,,,,,,,,,,,,,,
,Screen_3,canvas.Screen,0_2_4_2,,skipped,5,272085.2999999523,,,272083.2999999523,,272085.2999999523,2021-11-06T18:01:08.212Z,272249.066,1634936702,full,ni_sequenzen,NI_Sequenzen,,,,,,,,,,,,,,
,Screen_4,canvas.Screen,0_2_4_3,,skipped,5,272086.1999999881,,,272083.2999999523,,272086.2999999523,2021-11-06T18:01:08.213Z,272249.066,1634936702,full,ni_sequenzen,NI_Sequenzen,,,,,,,,,,,,,,
,Screen_5,canvas.Screen,0_2_4_4,,skipped,5,272087,,,272083.2999999523,,272087.09999996424,2021-11-06T18:01:08.213Z,272249.066,1634936702,full,ni_sequenzen,NI_Sequenzen,,,,,,,,,,,,,,
,Screen_6,canvas.Screen,0_2_4_5,,skipped,5,272087.89999997616,,,272083.2999999523,,272087.89999997616,2021-11-06T18:01:08.214Z,272249.066,1634936702,full,ni_sequenzen,NI_Sequenzen,,,,,,,,,,,,,,
,Sequence,flow.Sequence,0_2_4,,completion,5,272082.2999999523,,,272083.2999999523,,272088,2021-11-06T18:01:08.214Z,272249.066,1634936702,full,ni_sequenzen,NI_Sequenzen,,,,,,,,,,,,,,
,Screen_1,canvas.Screen,0_2_5_0,,skipped,6,272089.09999996424,,,272089.09999996424,,272089.1999999881,2021-11-06T18:01:08.216Z,272249.066,1634936702,full,ni_sequenzen,NI_Sequenzen,,,,,,,,,,,,,,
,Screen_2,canvas.Screen,0_2_5_1,,skipped,6,272090,,,272089.09999996424,,272090,2021-11-06T18:01:08.216Z,272249.066,1634936702,full,ni_sequenzen,NI_Sequenzen,,,,,,,,,,,,,,
,Screen_3,canvas.Screen,0_2_5_2,,skipped,6,272091,,,272089.09999996424,,272091.09999996424,2021-11-06T18:01:08.217Z,272249.066,1634936702,full,ni_sequenzen,NI_Sequenzen,,,,,,,,,,,,,,
,Screen_4,canvas.Screen,0_2_5_3,,skipped,6,272092,,,272089.09999996424,,272092.09999996424,2021-11-06T18:01:08.218Z,272249.066,1634936702,full,ni_sequenzen,NI_Sequenzen,,,,,,,,,,,,,,
,Screen_5,canvas.Screen,0_2_5_4,,skipped,6,272093.6999999881,,,272089.09999996424,,272093.6999999881,2021-11-06T18:01:08.220Z,272249.066,1634936702,full,ni_sequenzen,NI_Sequenzen,,,,,,,,,,,,,,
,Screen_6,canvas.Screen,0_2_5_5,,skipped,6,272094.39999997616,,,272089.09999996424,,272094.59999996424,2021-11-06T18:01:08.221Z,272249.066,1634936702,full,ni_sequenzen,NI_Sequenzen,,,,,,,,,,,,,,
,Sequence,flow.Sequence,0_2_5,,completion,6,272088.39999997616,,,272089.09999996424,,272094.59999996424,2021-11-06T18:01:08.221Z,272249.066,1634936702,full,ni_sequenzen,NI_Sequenzen,,,,,,,,,,,,,,
,Screen_1,canvas.Screen,0_2_6_0,,skipped,7,272095.89999997616,,,272096,,272096,2021-11-06T18:01:08.222Z,272249.066,1634936702,full,ni_sequenzen,NI_Sequenzen,,,,,,,,,,,,,,
,Screen_2,canvas.Screen,0_2_6_1,,skipped,7,272096.6999999881,,,272096,,272096.7999999523,2021-11-06T18:01:08.223Z,272249.066,1634936702,full,ni_sequenzen,NI_Sequenzen,,,,,,,,,,,,,,
,Screen_3,canvas.Screen,0_2_6_2,,skipped,7,272097.39999997616,,,272096,,272097.39999997616,2021-11-06T18:01:08.224Z,272249.066,1634936702,full,ni_sequenzen,NI_Sequenzen,,,,,,,,,,,,,,
,Screen_4,canvas.Screen,0_2_6_3,,skipped,7,272098,,,272096,,272098,2021-11-06T18:01:08.224Z,272249.066,1634936702,full,ni_sequenzen,NI_Sequenzen,,,,,,,,,,,,,,
,Screen_5,canvas.Screen,0_2_6_4,,skipped,7,272098.59999996424,,,272096,,272098.59999996424,2021-11-06T18:01:08.225Z,272249.066,1634936702,full,ni_sequenzen,NI_Sequenzen,,,,,,,,,,,,,,
,Screen_6,canvas.Screen,0_2_6_5,,skipped,7,272099.1999999881,,,272096,,272099.1999999881,2021-11-06T18:01:08.226Z,272249.066,1634936702,full,ni_sequenzen,NI_Sequenzen,,,,,,,,,,,,,,
,Sequence,flow.Sequence,0_2_6,,completion,7,272095.09999996424,,,272096,,272099.39999997616,2021-11-06T18:01:08.226Z,272249.066,1634936702,full,ni_sequenzen,NI_Sequenzen,,,,,,,,,,,,,,
,Screen_1,canvas.Screen,0_2_7_0,,skipped,8,272100.2999999523,,,272100.2999999523,,272100.2999999523,2021-11-06T18:01:08.227Z,272249.066,1634936702,full,ni_sequenzen,NI_Sequenzen,,,,,,,,,,,,,,
,Screen_2,canvas.Screen,0_2_7_1,,skipped,8,272100.7999999523,,,272100.2999999523,,272100.89999997616,2021-11-06T18:01:08.227Z,272249.066,1634936702,full,ni_sequenzen,NI_Sequenzen,,,,,,,,,,,,,,
,Screen_3,canvas.Screen,0_2_7_2,,skipped,8,272101.39999997616,,,272100.2999999523,,272101.59999996424,2021-11-06T18:01:08.228Z,272249.066,1634936702,full,ni_sequenzen,NI_Sequenzen,,,,,,,,,,,,,,
,Screen_4,canvas.Screen,0_2_7_3,,skipped,8,272102,,,272100.2999999523,,272102.09999996424,2021-11-06T18:01:08.228Z,272249.066,1634936702,full,ni_sequenzen,NI_Sequenzen,,,,,,,,,,,,,,
,Screen_5,canvas.Screen,0_2_7_4,,skipped,8,272102.59999996424,,,272100.2999999523,,272102.59999996424,2021-11-06T18:01:08.229Z,272249.066,1634936702,full,ni_sequenzen,NI_Sequenzen,,,,,,,,,,,,,,
,Screen_6,canvas.Screen,0_2_7_5,,skipped,8,272103.1999999881,,,272100.2999999523,,272103.2999999523,2021-11-06T18:01:08.230Z,272249.066,1634936702,full,ni_sequenzen,NI_Sequenzen,,,,,,,,,,,,,,
,Sequence,flow.Sequence,0_2_7,,completion,8,272099.59999996424,,,272100.2999999523,,272103.2999999523,2021-11-06T18:01:08.230Z,272249.066,1634936702,full,ni_sequenzen,NI_Sequenzen,,,,,,,,,,,,,,
,Screen_1,canvas.Screen,0_2_8_0,,skipped,9,272104.6999999881,,,272104.6999999881,,272104.7999999523,2021-11-06T18:01:08.231Z,272249.066,1634936702,full,ni_sequenzen,NI_Sequenzen,,,,,,,,,,,,,,
,Screen_2,canvas.Screen,0_2_8_1,,skipped,9,272105.2999999523,,,272104.6999999881,,272105.39999997616,2021-11-06T18:01:08.232Z,272249.066,1634936702,full,ni_sequenzen,NI_Sequenzen,,,,,,,,,,,,,,
,Screen_3,canvas.Screen,0_2_8_2,,skipped,9,272106,,,272104.6999999881,,272106,2021-11-06T18:01:08.232Z,272249.066,1634936702,full,ni_sequenzen,NI_Sequenzen,,,,,,,,,,,,,,
,Screen_4,canvas.Screen,0_2_8_3,,skipped,9,272106.59999996424,,,272104.6999999881,,272106.6999999881,2021-11-06T18:01:08.233Z,272249.066,1634936702,full,ni_sequenzen,NI_Sequenzen,,,,,,,,,,,,,,
,Screen_5,canvas.Screen,0_2_8_4,,skipped,9,272107.2999999523,,,272104.6999999881,,272107.2999999523,2021-11-06T18:01:08.234Z,272249.066,1634936702,full,ni_sequenzen,NI_Sequenzen,,,,,,,,,,,,,,
,Screen_6,canvas.Screen,0_2_8_5,,skipped,9,272107.89999997616,,,272104.6999999881,,272107.89999997616,2021-11-06T18:01:08.234Z,272249.066,1634936702,full,ni_sequenzen,NI_Sequenzen,,,,,,,,,,,,,,
,Sequence,flow.Sequence,0_2_8,,completion,9,272103.59999996424,,,272104.6999999881,,272108,2021-11-06T18:01:08.234Z,272249.066,1634936702,full,ni_sequenzen,NI_Sequenzen,,,,,,,,,,,,,,
,Screen_1,canvas.Screen,0_2_9_0,,skipped,10,272109,,,272109,,272109,2021-11-06T18:01:08.235Z,272249.066,1634936702,full,ni_sequenzen,NI_Sequenzen,,,,,,,,,,,,,,
,Screen_2,canvas.Screen,0_2_9_1,,skipped,10,272109.5,,,272109,,272109.59999996424,2021-11-06T18:01:08.236Z,272249.066,1634936702,full,ni_sequenzen,NI_Sequenzen,,,,,,,,,,,,,,
,Screen_3,canvas.Screen,0_2_9_2,,skipped,10,272110.1999999881,,,272109,,272110.2999999523,2021-11-06T18:01:08.237Z,272249.066,1634936702,full,ni_sequenzen,NI_Sequenzen,,,,,,,,,,,,,,
,Screen_4,canvas.Screen,0_2_9_3,,skipped,10,272110.89999997616,,,272109,,272111,2021-11-06T18:01:08.237Z,272249.066,1634936702,full,ni_sequenzen,NI_Sequenzen,,,,,,,,,,,,,,
,Screen_5,canvas.Screen,0_2_9_4,,skipped,10,272111.5,,,272109,,272111.5,2021-11-06T18:01:08.238Z,272249.066,1634936702,full,ni_sequenzen,NI_Sequenzen,,,,,,,,,,,,,,
,Screen_6,canvas.Screen,0_2_9_5,,skipped,10,272112.5,,,272109,,272112.5,2021-11-06T18:01:08.239Z,272249.066,1634936702,full,ni_sequenzen,NI_Sequenzen,,,,,,,,,,,,,,
,Sequence,flow.Sequence,0_2_9,,completion,10,272108.2999999523,,,272109,,272112.6999999881,2021-11-06T18:01:08.239Z,272249.066,1634936702,full,ni_sequenzen,NI_Sequenzen,,,,,,,,,,,,,,
,Screen_1,canvas.Screen,0_2_10_0,,skipped,11,272113.5,,,272113.5,,272113.59999996424,2021-11-06T18:01:08.240Z,272249.066,1634936702,full,ni_sequenzen,NI_Sequenzen,,,,,,,,,,,,,,
,Screen_2,canvas.Screen,0_2_10_1,,skipped,11,272114.09999996424,,,272113.5,,272114.09999996424,2021-11-06T18:01:08.240Z,272249.066,1634936702,full,ni_sequenzen,NI_Sequenzen,,,,,,,,,,,,,,
,Screen_3,canvas.Screen,0_2_10_2,,skipped,11,272114.59999996424,,,272113.5,,272114.7999999523,2021-11-06T18:01:08.241Z,272249.066,1634936702,full,ni_sequenzen,NI_Sequenzen,,,,,,,,,,,,,,
,Screen_4,canvas.Screen,0_2_10_3,,skipped,11,272115.1999999881,,,272113.5,,272115.2999999523,2021-11-06T18:01:08.242Z,272249.066,1634936702,full,ni_sequenzen,NI_Sequenzen,,,,,,,,,,,,,,
,Screen_5,canvas.Screen,0_2_10_4,,skipped,11,272116.5,,,272113.5,,272116.5,2021-11-06T18:01:08.243Z,272249.066,1634936702,full,ni_sequenzen,NI_Sequenzen,,,,,,,,,,,,,,
,Screen_6,canvas.Screen,0_2_10_5,,skipped,11,272117.2999999523,,,272113.5,,272117.2999999523,2021-11-06T18:01:08.244Z,272249.066,1634936702,full,ni_sequenzen,NI_Sequenzen,,,,,,,,,,,,,,
,Sequence,flow.Sequence,0_2_10,,completion,11,272112.89999997616,,,272113.5,,272117.39999997616,2021-11-06T18:01:08.244Z,272249.066,1634936702,full,ni_sequenzen,NI_Sequenzen,,,,,,,,,,,,,,
,Screen_1,canvas.Screen,0_2_11_0,,skipped,12,272118.1999999881,,,272118.1999999881,,272118.1999999881,2021-11-06T18:01:08.245Z,272249.066,1634936702,full,ni_sequenzen,NI_Sequenzen,,,,,,,,,,,,,,
,Screen_2,canvas.Screen,0_2_11_1,,skipped,12,272118.7999999523,,,272118.1999999881,,272118.89999997616,2021-11-06T18:01:08.245Z,272249.066,1634936702,full,ni_sequenzen,NI_Sequenzen,,,,,,,,,,,,,,
,Screen_3,canvas.Screen,0_2_11_2,,skipped,12,272119.39999997616,,,272118.1999999881,,272119.39999997616,2021-11-06T18:01:08.246Z,272249.066,1634936702,full,ni_sequenzen,NI_Sequenzen,,,,,,,,,,,,,,
,Screen_4,canvas.Screen,0_2_11_3,,skipped,12,272119.89999997616,,,272118.1999999881,,272120,2021-11-06T18:01:08.246Z,272249.066,1634936702,full,ni_sequenzen,NI_Sequenzen,,,,,,,,,,,,,,
,Screen_5,canvas.Screen,0_2_11_4,,skipped,12,272120.39999997616,,,272118.1999999881,,272120.5,2021-11-06T18:01:08.247Z,272249.066,1634936702,full,ni_sequenzen,NI_Sequenzen,,,,,,,,,,,,,,
,Screen_6,canvas.Screen,0_2_11_5,,skipped,12,272121.09999996424,,,272118.1999999881,,272121.09999996424,2021-11-06T18:01:08.247Z,272249.066,1634936702,full,ni_sequenzen,NI_Sequenzen,,,,,,,,,,,,,,
,Sequence,flow.Sequence,0_2_11,,completion,12,272117.59999996424,,,272118.1999999881,,272121.1999999881,2021-11-06T18:01:08.248Z,272249.066,1634936702,full,ni_sequenzen,NI_Sequenzen,,,,,,,,,,,,,,
,Screen_1,canvas.Screen,0_2_12_0,,skipped,13,272122,,,272122,,272122.09999996424,2021-11-06T18:01:08.248Z,272249.066,1634936702,full,ni_sequenzen,NI_Sequenzen,,,,,,,,,,,,,,
,Screen_2,canvas.Screen,0_2_12_1,,skipped,13,272122.7999999523,,,272122,,272122.89999997616,2021-11-06T18:01:08.249Z,272249.066,1634936702,full,ni_sequenzen,NI_Sequenzen,,,,,,,,,,,,,,
,Screen_3,canvas.Screen,0_2_12_2,,skipped,13,272123.2999999523,,,272122,,272123.39999997616,2021-11-06T18:01:08.250Z,272249.066,1634936702,full,ni_sequenzen,NI_Sequenzen,,,,,,,,,,,,,,
,Screen_4,canvas.Screen,0_2_12_3,,skipped,13,272124,,,272122,,272124,2021-11-06T18:01:08.250Z,272249.066,1634936702,full,ni_sequenzen,NI_Sequenzen,,,,,,,,,,,,,,
,Screen_5,canvas.Screen,0_2_12_4,,skipped,13,272124.5,,,272122,,272124.5,2021-11-06T18:01:08.251Z,272249.066,1634936702,full,ni_sequenzen,NI_Sequenzen,,,,,,,,,,,,,,
,Screen_6,canvas.Screen,0_2_12_5,,skipped,13,272125,,,272122,,272125.09999996424,2021-11-06T18:01:08.251Z,272249.066,1634936702,full,ni_sequenzen,NI_Sequenzen,,,,,,,,,,,,,,
,Sequence,flow.Sequence,0_2_12,,completion,13,272121.5,,,272122,,272125.1999999881,2021-11-06T18:01:08.252Z,272249.066,1634936702,full,ni_sequenzen,NI_Sequenzen,,,,,,,,,,,,,,
,Screen_1,canvas.Screen,0_2_13_0,,skipped,14,272126,,,272126,,272126,2021-11-06T18:01:08.252Z,272249.066,1634936702,full,ni_sequenzen,NI_Sequenzen,,,,,,,,,,,,,,
,Screen_2,canvas.Screen,0_2_13_1,,skipped,14,272126.59999996424,,,272126,,272126.59999996424,2021-11-06T18:01:08.253Z,272249.066,1634936702,full,ni_sequenzen,NI_Sequenzen,,,,,,,,,,,,,,
,Screen_3,canvas.Screen,0_2_13_2,,skipped,14,272130.2999999523,,,272126,,272130.39999997616,2021-11-06T18:01:08.257Z,272249.066,1634936702,full,ni_sequenzen,NI_Sequenzen,,,,,,,,,,,,,,
,Screen_4,canvas.Screen,0_2_13_3,,skipped,14,272130.89999997616,,,272126,,272131,2021-11-06T18:01:08.257Z,272249.066,1634936702,full,ni_sequenzen,NI_Sequenzen,,,,,,,,,,,,,,
,Screen_5,canvas.Screen,0_2_13_4,,skipped,14,272131.5,,,272126,,272131.5,2021-11-06T18:01:08.258Z,272249.066,1634936702,full,ni_sequenzen,NI_Sequenzen,,,,,,,,,,,,,,
,Screen_6,canvas.Screen,0_2_13_5,,skipped,14,272132,,,272126,,272132.09999996424,2021-11-06T18:01:08.258Z,272249.066,1634936702,full,ni_sequenzen,NI_Sequenzen,,,,,,,,,,,,,,
,Sequence,flow.Sequence,0_2_13,,completion,14,272125.39999997616,,,272126,,272132.1999999881,2021-11-06T18:01:08.259Z,272249.066,1634936702,full,ni_sequenzen,NI_Sequenzen,,,,,,,,,,,,,,
,Screen_1,canvas.Screen,0_2_14_0,,skipped,15,272133,,,272133,,272133.09999996424,2021-11-06T18:01:08.259Z,272249.066,1634936702,full,ni_sequenzen,NI_Sequenzen,,,,,,,,,,,,,,
,Screen_2,canvas.Screen,0_2_14_1,,skipped,15,272133.59999996424,,,272133,,272133.59999996424,2021-11-06T18:01:08.260Z,272249.066,1634936702,full,ni_sequenzen,NI_Sequenzen,,,,,,,,,,,,,,
,Screen_3,canvas.Screen,0_2_14_2,,skipped,15,272134.1999999881,,,272133,,272134.1999999881,2021-11-06T18:01:08.261Z,272249.066,1634936702,full,ni_sequenzen,NI_Sequenzen,,,,,,,,,,,,,,
,Screen_4,canvas.Screen,0_2_14_3,,skipped,15,272134.7999999523,,,272133,,272134.7999999523,2021-11-06T18:01:08.261Z,272249.066,1634936702,full,ni_sequenzen,NI_Sequenzen,,,,,,,,,,,,,,
,Screen_5,canvas.Screen,0_2_14_4,,skipped,15,272135.2999999523,,,272133,,272135.2999999523,2021-11-06T18:01:08.262Z,272249.066,1634936702,full,ni_sequenzen,NI_Sequenzen,,,,,,,,,,,,,,
,Screen_6,canvas.Screen,0_2_14_5,,skipped,15,272135.7999999523,,,272133,,272135.89999997616,2021-11-06T18:01:08.262Z,272249.066,1634936702,full,ni_sequenzen,NI_Sequenzen,,,,,,,,,,,,,,
,Sequence,flow.Sequence,0_2_14,,completion,15,272132.39999997616,,,272133,,272136.09999996424,2021-11-06T18:01:08.262Z,272249.066,1634936702,full,ni_sequenzen,NI_Sequenzen,,,,,,,,,,,,,,
,Screen_1,canvas.Screen,0_2_15_0,,skipped,16,272136.89999997616,,,272136.89999997616,,272137,2021-11-06T18:01:08.263Z,272249.066,1634936702,full,ni_sequenzen,NI_Sequenzen,,,,,,,,,,,,,,
,Screen_2,canvas.Screen,0_2_15_1,,skipped,16,272137.39999997616,,,272136.89999997616,,272137.59999996424,2021-11-06T18:01:08.264Z,272249.066,1634936702,full,ni_sequenzen,NI_Sequenzen,,,,,,,,,,,,,,
,Screen_3,canvas.Screen,0_2_15_2,,skipped,16,272138.1999999881,,,272136.89999997616,,272138.2999999523,2021-11-06T18:01:08.265Z,272249.066,1634936702,full,ni_sequenzen,NI_Sequenzen,,,,,,,,,,,,,,
,Screen_4,canvas.Screen,0_2_15_3,,skipped,16,272138.89999997616,,,272136.89999997616,,272138.89999997616,2021-11-06T18:01:08.265Z,272249.066,1634936702,full,ni_sequenzen,NI_Sequenzen,,,,,,,,,,,,,,
,Screen_5,canvas.Screen,0_2_15_4,,skipped,16,272139.39999997616,,,272136.89999997616,,272139.5,2021-11-06T18:01:08.266Z,272249.066,1634936702,full,ni_sequenzen,NI_Sequenzen,,,,,,,,,,,,,,
,Screen_6,canvas.Screen,0_2_15_5,,skipped,16,272140.6999999881,,,272136.89999997616,,272140.6999999881,2021-11-06T18:01:08.267Z,272249.066,1634936702,full,ni_sequenzen,NI_Sequenzen,,,,,,,,,,,,,,
,Sequence,flow.Sequence,0_2_15,,completion,16,272136.2999999523,,,272136.89999997616,,272140.7999999523,2021-11-06T18:01:08.267Z,272249.066,1634936702,full,ni_sequenzen,NI_Sequenzen,,,,,,,,,,,,,,
,Screen_1,canvas.Screen,0_2_16_0,,skipped,17,272141.6999999881,,,272141.6999999881,,272141.6999999881,2021-11-06T18:01:08.268Z,272249.066,1634936702,full,ni_sequenzen,NI_Sequenzen,,,,,,,,,,,,,,
,Screen_2,canvas.Screen,0_2_16_1,,skipped,17,272142.1999999881,,,272141.6999999881,,272142.2999999523,2021-11-06T18:01:08.269Z,272249.066,1634936702,full,ni_sequenzen,NI_Sequenzen,,,,,,,,,,,,,,
,Screen_3,canvas.Screen,0_2_16_2,,skipped,17,272142.7999999523,,,272141.6999999881,,272142.89999997616,2021-11-06T18:01:08.269Z,272249.066,1634936702,full,ni_sequenzen,NI_Sequenzen,,,,,,,,,,,,,,
,Screen_4,canvas.Screen,0_2_16_3,,skipped,17,272143.39999997616,,,272141.6999999881,,272143.39999997616,2021-11-06T18:01:08.270Z,272249.066,1634936702,full,ni_sequenzen,NI_Sequenzen,,,,,,,,,,,,,,
,Screen_5,canvas.Screen,0_2_16_4,,skipped,17,272144,,,272141.6999999881,,272144,2021-11-06T18:01:08.270Z,272249.066,1634936702,full,ni_sequenzen,NI_Sequenzen,,,,,,,,,,,,,,
,Screen_6,canvas.Screen,0_2_16_5,,skipped,17,272144.5,,,272141.6999999881,,272144.59999996424,2021-11-06T18:01:08.271Z,272249.066,1634936702,full,ni_sequenzen,NI_Sequenzen,,,,,,,,,,,,,,
,Sequence,flow.Sequence,0_2_16,,completion,17,272141.09999996424,,,272141.6999999881,,272144.6999999881,2021-11-06T18:01:08.271Z,272249.066,1634936702,full,ni_sequenzen,NI_Sequenzen,,,,,,,,,,,,,,
,Screen_1,canvas.Screen,0_2_17_0,,skipped,18,272145.59999996424,,,272145.59999996424,,272145.59999996424,2021-11-06T18:01:08.272Z,272249.066,1634936702,full,ni_sequenzen,NI_Sequenzen,,,,,,,,,,,,,,
,Screen_2,canvas.Screen,0_2_17_1,,skipped,18,272146.2999999523,,,272145.59999996424,,272146.2999999523,2021-11-06T18:01:08.273Z,272249.066,1634936702,full,ni_sequenzen,NI_Sequenzen,,,,,,,,,,,,,,
,Screen_3,canvas.Screen,0_2_17_2,,skipped,18,272146.7999999523,,,272145.59999996424,,272146.7999999523,2021-11-06T18:01:08.273Z,272249.066,1634936702,full,ni_sequenzen,NI_Sequenzen,,,,,,,,,,,,,,
,Screen_4,canvas.Screen,0_2_17_3,,skipped,18,272147.39999997616,,,272145.59999996424,,272147.39999997616,2021-11-06T18:01:08.274Z,272249.066,1634936702,full,ni_sequenzen,NI_Sequenzen,,,,,,,,,,,,,,
,Screen_5,canvas.Screen,0_2_17_4,,skipped,18,272148,,,272145.59999996424,,272148,2021-11-06T18:01:08.274Z,272249.066,1634936702,full,ni_sequenzen,NI_Sequenzen,,,,,,,,,,,,,,
,Screen_6,canvas.Screen,0_2_17_5,,skipped,18,272148.5,,,272145.59999996424,,272148.59999996424,2021-11-06T18:01:08.275Z,272249.066,1634936702,full,ni_sequenzen,NI_Sequenzen,,,,,,,,,,,,,,
,Sequence,flow.Sequence,0_2_17,,completion,18,272144.89999997616,,,272145.59999996424,,272148.6999999881,2021-11-06T18:01:08.275Z,272249.066,1634936702,full,ni_sequenzen,NI_Sequenzen,,,,,,,,,,,,,,
,Screen_1,canvas.Screen,0_2_18_0,,skipped,19,272149.5,,,272149.5,,272149.59999996424,2021-11-06T18:01:08.276Z,272249.066,1634936702,full,ni_sequenzen,NI_Sequenzen,,,,,,,,,,,,,,
,Screen_2,canvas.Screen,0_2_18_1,,skipped,19,272150.09999996424,,,272149.5,,272150.09999996424,2021-11-06T18:01:08.276Z,272249.066,1634936702,full,ni_sequenzen,NI_Sequenzen,,,,,,,,,,,,,,
,Screen_3,canvas.Screen,0_2_18_2,,skipped,19,272151.1999999881,,,272149.5,,272151.2999999523,2021-11-06T18:01:08.278Z,272249.066,1634936702,full,ni_sequenzen,NI_Sequenzen,,,,,,,,,,,,,,
,Screen_4,canvas.Screen,0_2_18_3,,skipped,19,272151.7999999523,,,272149.5,,272151.7999999523,2021-11-06T18:01:08.278Z,272249.066,1634936702,full,ni_sequenzen,NI_Sequenzen,,,,,,,,,,,,,,
,Screen_5,canvas.Screen,0_2_18_4,,skipped,19,272152.39999997616,,,272149.5,,272152.5,2021-11-06T18:01:08.279Z,272249.066,1634936702,full,ni_sequenzen,NI_Sequenzen,,,,,,,,,,,,,,
,Screen_6,canvas.Screen,0_2_18_5,,skipped,19,272153,,,272149.5,,272153,2021-11-06T18:01:08.279Z,272249.066,1634936702,full,ni_sequenzen,NI_Sequenzen,,,,,,,,,,,,,,
,Sequence,flow.Sequence,0_2_18,,completion,19,272148.89999997616,,,272149.5,,272153.09999996424,2021-11-06T18:01:08.279Z,272249.066,1634936702,full,ni_sequenzen,NI_Sequenzen,,,,,,,,,,,,,,
,Screen_1,canvas.Screen,0_2_19_0,,skipped,20,272153.89999997616,,,272154,,272154,2021-11-06T18:01:08.280Z,272249.066,1634936702,full,ni_sequenzen,NI_Sequenzen,,,,,,,,,,,,,,
,Screen_2,canvas.Screen,0_2_19_1,,skipped,20,272154.6999999881,,,272154,,272154.6999999881,2021-11-06T18:01:08.281Z,272249.066,1634936702,full,ni_sequenzen,NI_Sequenzen,,,,,,,,,,,,,,
,Screen_3,canvas.Screen,0_2_19_2,,skipped,20,272155.2999999523,,,272154,,272155.2999999523,2021-11-06T18:01:08.282Z,272249.066,1634936702,full,ni_sequenzen,NI_Sequenzen,,,,,,,,,,,,,,
,Screen_4,canvas.Screen,0_2_19_3,,skipped,20,272155.7999999523,,,272154,,272155.89999997616,2021-11-06T18:01:08.282Z,272249.066,1634936702,full,ni_sequenzen,NI_Sequenzen,,,,,,,,,,,,,,
,Screen_5,canvas.Screen,0_2_19_4,,skipped,20,272156.39999997616,,,272154,,272156.5,2021-11-06T18:01:08.283Z,272249.066,1634936702,full,ni_sequenzen,NI_Sequenzen,,,,,,,,,,,,,,
,Screen_6,canvas.Screen,0_2_19_5,,skipped,20,272156.89999997616,,,272154,,272157,2021-11-06T18:01:08.283Z,272249.066,1634936702,full,ni_sequenzen,NI_Sequenzen,,,,,,,,,,,,,,
,Sequence,flow.Sequence,0_2_19,,completion,20,272153.2999999523,,,272154,,272157,2021-11-06T18:01:08.283Z,272249.066,1634936702,full,ni_sequenzen,NI_Sequenzen,,,,,,,,,,,,,,
,Screen_1,canvas.Screen,0_2_20_0,,skipped,21,272157.89999997616,,,272157.89999997616,,272158,2021-11-06T18:01:08.284Z,272249.066,1634936702,full,ni_sequenzen,NI_Sequenzen,,,,,,,,,,,,,,
,Screen_2,canvas.Screen,0_2_20_1,,skipped,21,272158.5,,,272157.89999997616,,272158.59999996424,2021-11-06T18:01:08.285Z,272249.066,1634936702,full,ni_sequenzen,NI_Sequenzen,,,,,,,,,,,,,,
,Screen_3,canvas.Screen,0_2_20_2,,skipped,21,272159,,,272157.89999997616,,272159.09999996424,2021-11-06T18:01:08.285Z,272249.066,1634936702,full,ni_sequenzen,NI_Sequenzen,,,,,,,,,,,,,,
,Screen_4,canvas.Screen,0_2_20_3,,skipped,21,272159.59999996424,,,272157.89999997616,,272159.6999999881,2021-11-06T18:01:08.286Z,272249.066,1634936702,full,ni_sequenzen,NI_Sequenzen,,,,,,,,,,,,,,
,Screen_5,canvas.Screen,0_2_20_4,,skipped,21,272160.1999999881,,,272157.89999997616,,272160.1999999881,2021-11-06T18:01:08.287Z,272249.066,1634936702,full,ni_sequenzen,NI_Sequenzen,,,,,,,,,,,,,,
,Screen_6,canvas.Screen,0_2_20_5,,skipped,21,272161.2999999523,,,272157.89999997616,,272161.39999997616,2021-11-06T18:01:08.288Z,272249.066,1634936702,full,ni_sequenzen,NI_Sequenzen,,,,,,,,,,,,,,
,Sequence,flow.Sequence,0_2_20,,completion,21,272157.39999997616,,,272157.89999997616,,272161.5,2021-11-06T18:01:08.288Z,272249.066,1634936702,full,ni_sequenzen,NI_Sequenzen,,,,,,,,,,,,,,
,Screen_1,canvas.Screen,0_2_21_0,,skipped,22,272162.59999996424,,,272162.59999996424,,272162.59999996424,2021-11-06T18:01:08.289Z,272249.066,1634936702,full,ni_sequenzen,NI_Sequenzen,,,,,,,,,,,,,,
,Screen_2,canvas.Screen,0_2_21_1,,skipped,22,272163.1999999881,,,272162.59999996424,,272163.1999999881,2021-11-06T18:01:08.290Z,272249.066,1634936702,full,ni_sequenzen,NI_Sequenzen,,,,,,,,,,,,,,
,Screen_3,canvas.Screen,0_2_21_2,,skipped,22,272163.6999999881,,,272162.59999996424,,272163.6999999881,2021-11-06T18:01:08.290Z,272249.066,1634936702,full,ni_sequenzen,NI_Sequenzen,,,,,,,,,,,,,,
,Screen_4,canvas.Screen,0_2_21_3,,skipped,22,272164.2999999523,,,272162.59999996424,,272164.2999999523,2021-11-06T18:01:08.291Z,272249.066,1634936702,full,ni_sequenzen,NI_Sequenzen,,,,,,,,,,,,,,
,Screen_5,canvas.Screen,0_2_21_4,,skipped,22,272164.7999999523,,,272162.59999996424,,272164.89999997616,2021-11-06T18:01:08.291Z,272249.066,1634936702,full,ni_sequenzen,NI_Sequenzen,,,,,,,,,,,,,,
,Screen_6,canvas.Screen,0_2_21_5,,skipped,22,272166,,,272162.59999996424,,272166,2021-11-06T18:01:08.292Z,272249.066,1634936702,full,ni_sequenzen,NI_Sequenzen,,,,,,,,,,,,,,
,Sequence,flow.Sequence,0_2_21,,completion,22,272161.89999997616,,,272162.59999996424,,272166.09999996424,2021-11-06T18:01:08.292Z,272249.066,1634936702,full,ni_sequenzen,NI_Sequenzen,,,,,,,,,,,,,,
,Screen_1,canvas.Screen,0_2_22_0,,skipped,23,272167,,,272167,,272167,2021-11-06T18:01:08.293Z,272249.066,1634936702,full,ni_sequenzen,NI_Sequenzen,,,,,,,,,,,,,,
,Screen_2,canvas.Screen,0_2_22_1,,skipped,23,272167.6999999881,,,272167,,272167.6999999881,2021-11-06T18:01:08.294Z,272249.066,1634936702,full,ni_sequenzen,NI_Sequenzen,,,,,,,,,,,,,,
,Screen_3,canvas.Screen,0_2_22_2,,skipped,23,272168.2999999523,,,272167,,272168.2999999523,2021-11-06T18:01:08.295Z,272249.066,1634936702,full,ni_sequenzen,NI_Sequenzen,,,,,,,,,,,,,,
,Screen_4,canvas.Screen,0_2_22_3,,skipped,23,272168.89999997616,,,272167,,272168.89999997616,2021-11-06T18:01:08.295Z,272249.066,1634936702,full,ni_sequenzen,NI_Sequenzen,,,,,,,,,,,,,,
,Screen_5,canvas.Screen,0_2_22_4,,skipped,23,272169.59999996424,,,272167,,272169.59999996424,2021-11-06T18:01:08.296Z,272249.066,1634936702,full,ni_sequenzen,NI_Sequenzen,,,,,,,,,,,,,,
,Screen_6,canvas.Screen,0_2_22_5,,skipped,23,272170.5,,,272167,,272170.59999996424,2021-11-06T18:01:08.297Z,272249.066,1634936702,full,ni_sequenzen,NI_Sequenzen,,,,,,,,,,,,,,
,Sequence,flow.Sequence,0_2_22,,completion,23,272166.39999997616,,,272167,,272170.6999999881,2021-11-06T18:01:08.297Z,272249.066,1634936702,full,ni_sequenzen,NI_Sequenzen,,,,,,,,,,,,,,
,Screen_1,canvas.Screen,0_2_23_0,,skipped,24,272171.5,,,272171.5,,272171.59999996424,2021-11-06T18:01:08.298Z,272249.066,1634936702,full,ni_sequenzen,NI_Sequenzen,,,,,,,,,,,,,,
,Screen_2,canvas.Screen,0_2_23_1,,skipped,24,272172.09999996424,,,272171.5,,272172.1999999881,2021-11-06T18:01:08.298Z,272249.066,1634936702,full,ni_sequenzen,NI_Sequenzen,,,,,,,,,,,,,,
,Screen_3,canvas.Screen,0_2_23_2,,skipped,24,272172.59999996424,,,272171.5,,272172.6999999881,2021-11-06T18:01:08.299Z,272249.066,1634936702,full,ni_sequenzen,NI_Sequenzen,,,,,,,,,,,,,,
,Screen_4,canvas.Screen,0_2_23_3,,skipped,24,272174.39999997616,,,272171.5,,272174.5,2021-11-06T18:01:08.301Z,272249.066,1634936702,full,ni_sequenzen,NI_Sequenzen,,,,,,,,,,,,,,
,Screen_5,canvas.Screen,0_2_23_4,,skipped,24,272175.09999996424,,,272171.5,,272175.1999999881,2021-11-06T18:01:08.302Z,272249.066,1634936702,full,ni_sequenzen,NI_Sequenzen,,,,,,,,,,,,,,
,Screen_6,canvas.Screen,0_2_23_5,,skipped,24,272175.6999999881,,,272171.5,,272175.89999997616,2021-11-06T18:01:08.302Z,272249.066,1634936702,full,ni_sequenzen,NI_Sequenzen,,,,,,,,,,,,,,
,Sequence,flow.Sequence,0_2_23,,completion,24,272171,,,272171.5,,272175.89999997616,2021-11-06T18:01:08.302Z,272249.066,1634936702,full,ni_sequenzen,NI_Sequenzen,,,,,,,,,,,,,,
,Screen_1,canvas.Screen,0_2_24_0,,skipped,25,272176.6999999881,,,272176.6999999881,,272176.6999999881,2021-11-06T18:01:08.303Z,272249.066,1634936702,full,ni_sequenzen,NI_Sequenzen,,,,,,,,,,,,,,
,Screen_2,canvas.Screen,0_2_24_1,,skipped,25,272177.2999999523,,,272176.6999999881,,272177.39999997616,2021-11-06T18:01:08.304Z,272249.066,1634936702,full,ni_sequenzen,NI_Sequenzen,,,,,,,,,,,,,,
,Screen_3,canvas.Screen,0_2_24_2,,skipped,25,272177.89999997616,,,272176.6999999881,,272177.89999997616,2021-11-06T18:01:08.304Z,272249.066,1634936702,full,ni_sequenzen,NI_Sequenzen,,,,,,,,,,,,,,
,Screen_4,canvas.Screen,0_2_24_3,,skipped,25,272178.59999996424,,,272176.6999999881,,272178.59999996424,2021-11-06T18:01:08.305Z,272249.066,1634936702,full,ni_sequenzen,NI_Sequenzen,,,,,,,,,,,,,,
,Screen_5,canvas.Screen,0_2_24_4,,skipped,25,272179.1999999881,,,272176.6999999881,,272179.2999999523,2021-11-06T18:01:08.306Z,272249.066,1634936702,full,ni_sequenzen,NI_Sequenzen,,,,,,,,,,,,,,
,Screen_6,canvas.Screen,0_2_24_5,,skipped,25,272179.6999999881,,,272176.6999999881,,272179.7999999523,2021-11-06T18:01:08.306Z,272249.066,1634936702,full,ni_sequenzen,NI_Sequenzen,,,,,,,,,,,,,,
,Sequence,flow.Sequence,0_2_24,,completion,25,272176.1999999881,,,272176.6999999881,,272179.89999997616,2021-11-06T18:01:08.306Z,272249.066,1634936702,full,ni_sequenzen,NI_Sequenzen,,,,,,,,,,,,,,
,Screen_1,canvas.Screen,0_2_25_0,,skipped,26,272180.6999999881,,,272180.6999999881,,272180.6999999881,2021-11-06T18:01:08.307Z,272249.066,1634936702,full,ni_sequenzen,NI_Sequenzen,,,,,,,,,,,,,,
,Screen_2,canvas.Screen,0_2_25_1,,skipped,26,272181.1999999881,,,272180.6999999881,,272181.2999999523,2021-11-06T18:01:08.308Z,272249.066,1634936702,full,ni_sequenzen,NI_Sequenzen,,,,,,,,,,,,,,
,Screen_3,canvas.Screen,0_2_25_2,,skipped,26,272181.7999999523,,,272180.6999999881,,272181.7999999523,2021-11-06T18:01:08.308Z,272249.066,1634936702,full,ni_sequenzen,NI_Sequenzen,,,,,,,,,,,,,,
,Screen_4,canvas.Screen,0_2_25_3,,skipped,26,272182.2999999523,,,272180.6999999881,,272182.39999997616,2021-11-06T18:01:08.309Z,272249.066,1634936702,full,ni_sequenzen,NI_Sequenzen,,,,,,,,,,,,,,
,Screen_5,canvas.Screen,0_2_25_4,,skipped,26,272182.89999997616,,,272180.6999999881,,272183,2021-11-06T18:01:08.309Z,272249.066,1634936702,full,ni_sequenzen,NI_Sequenzen,,,,,,,,,,,,,,
,Screen_6,canvas.Screen,0_2_25_5,,skipped,26,272183.5,,,272180.6999999881,,272183.5,2021-11-06T18:01:08.310Z,272249.066,1634936702,full,ni_sequenzen,NI_Sequenzen,,,,,,,,,,,,,,
,Sequence,flow.Sequence,0_2_25,,completion,26,272180.1999999881,,,272180.6999999881,,272183.5,2021-11-06T18:01:08.310Z,272249.066,1634936702,full,ni_sequenzen,NI_Sequenzen,,,,,,,,,,,,,,
,Screen_1,canvas.Screen,0_2_26_0,,skipped,27,272184.89999997616,,,272184.89999997616,,272184.89999997616,2021-11-06T18:01:08.311Z,272249.066,1634936702,full,ni_sequenzen,NI_Sequenzen,,,,,,,,,,,,,,
,Screen_2,canvas.Screen,0_2_26_1,,skipped,27,272185.89999997616,,,272184.89999997616,,272186,2021-11-06T18:01:08.312Z,272249.066,1634936702,full,ni_sequenzen,NI_Sequenzen,,,,,,,,,,,,,,
,Screen_3,canvas.Screen,0_2_26_2,,skipped,27,272186.59999996424,,,272184.89999997616,,272186.6999999881,2021-11-06T18:01:08.313Z,272249.066,1634936702,full,ni_sequenzen,NI_Sequenzen,,,,,,,,,,,,,,
,Screen_4,canvas.Screen,0_2_26_3,,skipped,27,272187.1999999881,,,272184.89999997616,,272187.2999999523,2021-11-06T18:01:08.314Z,272249.066,1634936702,full,ni_sequenzen,NI_Sequenzen,,,,,,,,,,,,,,
,Screen_5,canvas.Screen,0_2_26_4,,skipped,27,272187.6999999881,,,272184.89999997616,,272187.7999999523,2021-11-06T18:01:08.314Z,272249.066,1634936702,full,ni_sequenzen,NI_Sequenzen,,,,,,,,,,,,,,
,Screen_6,canvas.Screen,0_2_26_5,,skipped,27,272188.39999997616,,,272184.89999997616,,272188.39999997616,2021-11-06T18:01:08.315Z,272249.066,1634936702,full,ni_sequenzen,NI_Sequenzen,,,,,,,,,,,,,,
,Sequence,flow.Sequence,0_2_26,,completion,27,272184.2999999523,,,272184.89999997616,,272188.5,2021-11-06T18:01:08.315Z,272249.066,1634936702,full,ni_sequenzen,NI_Sequenzen,,,,,,,,,,,,,,
,Screen_1,canvas.Screen,0_2_27_0,,skipped,28,272189.2999999523,,,272189.2999999523,,272189.2999999523,2021-11-06T18:01:08.316Z,272249.066,1634936702,full,ni_sequenzen,NI_Sequenzen,,,,,,,,,,,,,,
,Screen_2,canvas.Screen,0_2_27_1,,skipped,28,272189.7999999523,,,272189.2999999523,,272189.7999999523,2021-11-06T18:01:08.316Z,272249.066,1634936702,full,ni_sequenzen,NI_Sequenzen,,,,,,,,,,,,,,
,Screen_3,canvas.Screen,0_2_27_2,,skipped,28,272190.2999999523,,,272189.2999999523,,272190.39999997616,2021-11-06T18:01:08.317Z,272249.066,1634936702,full,ni_sequenzen,NI_Sequenzen,,,,,,,,,,,,,,
,Screen_4,canvas.Screen,0_2_27_3,,skipped,28,272190.89999997616,,,272189.2999999523,,272191,2021-11-06T18:01:08.317Z,272249.066,1634936702,full,ni_sequenzen,NI_Sequenzen,,,,,,,,,,,,,,
,Screen_5,canvas.Screen,0_2_27_4,,skipped,28,272191.5,,,272189.2999999523,,272191.59999996424,2021-11-06T18:01:08.318Z,272249.066,1634936702,full,ni_sequenzen,NI_Sequenzen,,,,,,,,,,,,,,
,Screen_6,canvas.Screen,0_2_27_5,,skipped,28,272192,,,272189.2999999523,,272192.09999996424,2021-11-06T18:01:08.318Z,272249.066,1634936702,full,ni_sequenzen,NI_Sequenzen,,,,,,,,,,,,,,
,Sequence,flow.Sequence,0_2_27,,completion,28,272188.6999999881,,,272189.2999999523,,272192.09999996424,2021-11-06T18:01:08.318Z,272249.066,1634936702,full,ni_sequenzen,NI_Sequenzen,,,,,,,,,,,,,,
,Screen_1,canvas.Screen,0_2_28_0,,skipped,29,272192.89999997616,,,272192.89999997616,,272192.89999997616,2021-11-06T18:01:08.319Z,272249.066,1634936702,full,ni_sequenzen,NI_Sequenzen,,,,,,,,,,,,,,
,Screen_2,canvas.Screen,0_2_28_1,,skipped,29,272193.59999996424,,,272192.89999997616,,272193.59999996424,2021-11-06T18:01:08.320Z,272249.066,1634936702,full,ni_sequenzen,NI_Sequenzen,,,,,,,,,,,,,,
,Screen_3,canvas.Screen,0_2_28_2,,skipped,29,272194.09999996424,,,272192.89999997616,,272194.09999996424,2021-11-06T18:01:08.320Z,272249.066,1634936702,full,ni_sequenzen,NI_Sequenzen,,,,,,,,,,,,,,
,Screen_4,canvas.Screen,0_2_28_3,,skipped,29,272195.2999999523,,,272192.89999997616,,272195.2999999523,2021-11-06T18:01:08.322Z,272249.066,1634936702,full,ni_sequenzen,NI_Sequenzen,,,,,,,,,,,,,,
,Screen_5,canvas.Screen,0_2_28_4,,skipped,29,272196,,,272192.89999997616,,272196,2021-11-06T18:01:08.322Z,272249.066,1634936702,full,ni_sequenzen,NI_Sequenzen,,,,,,,,,,,,,,
,Screen_6,canvas.Screen,0_2_28_5,,skipped,29,272196.5,,,272192.89999997616,,272196.5,2021-11-06T18:01:08.323Z,272249.066,1634936702,full,ni_sequenzen,NI_Sequenzen,,,,,,,,,,,,,,
,Sequence,flow.Sequence,0_2_28,,completion,29,272192.39999997616,,,272192.89999997616,,272196.59999996424,2021-11-06T18:01:08.323Z,272249.066,1634936702,full,ni_sequenzen,NI_Sequenzen,,,,,,,,,,,,,,
,Screen_1,canvas.Screen,0_2_29_0,,skipped,30,272197.39999997616,,,272197.39999997616,,272197.39999997616,2021-11-06T18:01:08.324Z,272249.066,1634936702,full,ni_sequenzen,NI_Sequenzen,,,,,,,,,,,,,,
,Screen_2,canvas.Screen,0_2_29_1,,skipped,30,272197.89999997616,,,272197.39999997616,,272197.89999997616,2021-11-06T18:01:08.324Z,272249.066,1634936702,full,ni_sequenzen,NI_Sequenzen,,,,,,,,,,,,,,
,Screen_3,canvas.Screen,0_2_29_2,,skipped,30,272198.39999997616,,,272197.39999997616,,272198.39999997616,2021-11-06T18:01:08.325Z,272249.066,1634936702,full,ni_sequenzen,NI_Sequenzen,,,,,,,,,,,,,,
,Screen_4,canvas.Screen,0_2_29_3,,skipped,30,272198.89999997616,,,272197.39999997616,,272199,2021-11-06T18:01:08.325Z,272249.066,1634936702,full,ni_sequenzen,NI_Sequenzen,,,,,,,,,,,,,,
,Screen_5,canvas.Screen,0_2_29_4,,skipped,30,272199.5,,,272197.39999997616,,272199.5,2021-11-06T18:01:08.326Z,272249.066,1634936702,full,ni_sequenzen,NI_Sequenzen,,,,,,,,,,,,,,
,Screen_6,canvas.Screen,0_2_29_5,,skipped,30,272200,,,272197.39999997616,,272200,2021-11-06T18:01:08.326Z,272249.066,1634936702,full,ni_sequenzen,NI_Sequenzen,,,,,,,,,,,,,,
,Sequence,flow.Sequence,0_2_29,,completion,30,272196.89999997616,,,272197.39999997616,,272200.09999996424,2021-11-06T18:01:08.326Z,272249.066,1634936702,full,ni_sequenzen,NI_Sequenzen,,,,,,,,,,,,,,
,Instructions_II,flow.Loop,0_2,,completion,,187265.39999997616,187253.375,187269.952,272197.39999997616,84927.44799997617,272200.1999999881,2021-11-06T18:01:08.326Z,272249.066,1634936702,full,ni_sequenzen,NI_Sequenzen,,,,,,,,,,,,,,
,Move,canvas.Screen,0_3_0_0_0_0,left,response,,272227.5,272211.823,272249.066,279926.5,7677.434000000008,279927.6999999881,2021-11-06T18:01:16.054Z,280000.396,1634936702,full,ni_sequenzen,NI_Sequenzen,1,0,,,,,,,,,,,,
,Move,canvas.Screen,0_3_0_0_0_1,down,response,,279947.89999997616,279933.892,280000.396,284320.89999997616,4320.50399997615,284321.39999997616,2021-11-06T18:01:20.448Z,284336.657,1634936702,full,ni_sequenzen,NI_Sequenzen,2,0,,,,,,,,,,,,
,Move,canvas.Screen,0_3_0_0_0_2,right,response,,284323.7999999523,284320.145,284336.657,286486.6999999881,2150.0429999880726,286488.2999999523,2021-11-06T18:01:22.614Z,286504.926,1634936702,full,ni_sequenzen,NI_Sequenzen,3,0,,,,,,,,,,,,
,Move,canvas.Screen,0_3_0_0_0_3,down,response,,286499,286488.476,286504.926,288857.09999996424,2352.1739999642596,288858.1999999881,2021-11-06T18:01:24.984Z,288923.212,1634936702,full,ni_sequenzen,NI_Sequenzen,4,0,,,,,,,,,,,,
,Move,canvas.Screen,0_3_0_0_0_4,left,response,,288866,288856.68,288923.212,294286.59999996424,5363.387999964238,294287.6999999881,2021-11-06T18:01:30.414Z,294360.243,1634936702,full,ni_sequenzen,NI_Sequenzen,5,0,,,,,,,,,,,,
,Move,canvas.Screen,0_3_0_0_0_5,-999,skipped,,294296.5,,,294286.59999996424,,294296.89999997616,2021-11-06T18:01:30.423Z,294360.243,1634936702,full,ni_sequenzen,NI_Sequenzen,6,0,,,,,,,,,,,,
,Move,canvas.Screen,0_3_0_0_0_6,-999,skipped,,294305.7999999523,,,294286.59999996424,,294306.09999996424,2021-11-06T18:01:30.432Z,294360.243,1634936702,full,ni_sequenzen,NI_Sequenzen,7,0,,,,,,,,,,,,
,Move,canvas.Screen,0_3_0_0_0_7,-999,skipped,,294313.6999999881,,,294286.59999996424,,294313.89999997616,2021-11-06T18:01:30.440Z,294360.243,1634936702,full,ni_sequenzen,NI_Sequenzen,8,0,,,,,,,,,,,,
,Move,canvas.Screen,0_3_0_0_0_8,-999,skipped,,294319.5,,,294286.59999996424,,294319.6999999881,2021-11-06T18:01:30.446Z,294360.243,1634936702,full,ni_sequenzen,NI_Sequenzen,9,0,,,,,,,,,,,,
,Move,canvas.Screen,0_3_0_0_0_9,-999,skipped,,294323.89999997616,,,294286.59999996424,,294324.1999999881,2021-11-06T18:01:30.450Z,294360.243,1634936702,full,ni_sequenzen,NI_Sequenzen,10,0,,,,,,,,,,,,
,Move,canvas.Screen,0_3_0_0_0_10,-999,skipped,,294328.6999999881,,,294286.59999996424,,294328.7999999523,2021-11-06T18:01:30.455Z,294360.243,1634936702,full,ni_sequenzen,NI_Sequenzen,11,0,,,,,,,,,,,,
,Move,canvas.Screen,0_3_0_0_0_11,-999,skipped,,294331.7999999523,,,294286.59999996424,,294332,2021-11-06T18:01:30.458Z,294360.243,1634936702,full,ni_sequenzen,NI_Sequenzen,12,0,,,,,,,,,,,,
,Move,canvas.Screen,0_3_0_0_0_12,-999,skipped,,294334.1999999881,,,294286.59999996424,,294334.2999999523,2021-11-06T18:01:30.460Z,294360.243,1634936702,full,ni_sequenzen,NI_Sequenzen,13,0,,,,,,,,,,,,
,Move,canvas.Screen,0_3_0_0_0_13,-999,skipped,,294339.1999999881,,,294286.59999996424,,294339.2999999523,2021-11-06T18:01:30.465Z,294360.243,1634936702,full,ni_sequenzen,NI_Sequenzen,14,0,,,,,,,,,,,,
,Move,canvas.Screen,0_3_0_0_0_14,-999,skipped,,294342.59999996424,,,294286.59999996424,,294342.7999999523,2021-11-06T18:01:30.469Z,294360.243,1634936702,full,ni_sequenzen,NI_Sequenzen,15,0,,,,,,,,,,,,
,Loop,flow.Loop,0_3_0_0_0,-999,completion,,272224.2999999523,272211.823,272249.066,294286.59999996424,22037.533999964246,294342.7999999523,2021-11-06T18:01:30.469Z,294360.243,1634936702,full,ni_sequenzen,NI_Sequenzen,,0,,,,,,,,,,,,
,Feedback,canvas.Screen,0_3_0_0_1,,timeout,,294345.59999996424,294343.602,294360.243,298346.453,4019.420999999973,298348.6999999881,2021-11-06T18:01:34.475Z,298379.664,1634936702,full,ni_sequenzen,NI_Sequenzen,,0,,,,,,,,,,,,
,Trial,flow.Sequence,0_3_0_0,,completion,,272214,272211.823,272249.066,298346.453,26097.386999999988,298349.09999996424,2021-11-06T18:01:34.475Z,298396.346,1634936702,full,ni_sequenzen,NI_Sequenzen,,0,,,,,,,,,,,,
,Move,canvas.Screen,0_3_0_1_0_0,right,response,,298386.1999999881,298379.664,298396.346,302696.39999997616,4300.053999976139,302697.6999999881,2021-11-06T18:01:38.824Z,302732.664,1634936702,full,ni_sequenzen,NI_Sequenzen,1,1,,,,,,,,,,,,
,Move,canvas.Screen,0_3_0_1_0_1,down,response,,302706.1999999881,302699.58,302732.664,304026.5,1293.8360000000102,304027.59999996424,2021-11-06T18:01:40.154Z,304084.254,1634936702,full,ni_sequenzen,NI_Sequenzen,2,1,,,,,,,,,,,,
,Move,canvas.Screen,0_3_0_1_0_2,down,response,,304038.89999997616,304033.72,304084.254,306005.5,1921.2459999999846,306006.2999999523,2021-11-06T18:01:42.132Z,306018.241,1634936702,full,ni_sequenzen,NI_Sequenzen,3,1,,,,,,,,,,,,
,Move,canvas.Screen,0_3_0_1_0_3,right,response,,306011,306001.648,306018.241,306637.7999999523,619.5589999523363,306639.59999996424,2021-11-06T18:01:42.766Z,306702.045,1634936702,full,ni_sequenzen,NI_Sequenzen,4,1,,,,,,,,,,,,
,Move,canvas.Screen,0_3_0_1_0_4,-999,skipped,,306646.5,,,306637.7999999523,,306646.7999999523,2021-11-06T18:01:42.773Z,306702.045,1634936702,full,ni_sequenzen,NI_Sequenzen,5,1,,,,,,,,,,,,
,Move,canvas.Screen,0_3_0_1_0_5,-999,skipped,,306654.39999997616,,,306637.7999999523,,306654.59999996424,2021-11-06T18:01:42.781Z,306702.045,1634936702,full,ni_sequenzen,NI_Sequenzen,6,1,,,,,,,,,,,,
,Move,canvas.Screen,0_3_0_1_0_6,-999,skipped,,306661.1999999881,,,306637.7999999523,,306661.2999999523,2021-11-06T18:01:42.787Z,306702.045,1634936702,full,ni_sequenzen,NI_Sequenzen,7,1,,,,,,,,,,,,
,Move,canvas.Screen,0_3_0_1_0_7,-999,skipped,,306665.09999996424,,,306637.7999999523,,306665.1999999881,2021-11-06T18:01:42.791Z,306702.045,1634936702,full,ni_sequenzen,NI_Sequenzen,8,1,,,,,,,,,,,,
,Move,canvas.Screen,0_3_0_1_0_8,-999,skipped,,306667.89999997616,,,306637.7999999523,,306668,2021-11-06T18:01:42.794Z,306702.045,1634936702,full,ni_sequenzen,NI_Sequenzen,9,1,,,,,,,,,,,,
,Move,canvas.Screen,0_3_0_1_0_9,-999,skipped,,306671.89999997616,,,306637.7999999523,,306672.09999996424,2021-11-06T18:01:42.798Z,306702.045,1634936702,full,ni_sequenzen,NI_Sequenzen,10,1,,,,,,,,,,,,
,Move,canvas.Screen,0_3_0_1_0_10,-999,skipped,,306675,,,306637.7999999523,,306675.09999996424,2021-11-06T18:01:42.801Z,306702.045,1634936702,full,ni_sequenzen,NI_Sequenzen,11,1,,,,,,,,,,,,
,Move,canvas.Screen,0_3_0_1_0_11,-999,skipped,,306677.2999999523,,,306637.7999999523,,306677.39999997616,2021-11-06T18:01:42.804Z,306702.045,1634936702,full,ni_sequenzen,NI_Sequenzen,12,1,,,,,,,,,,,,
,Move,canvas.Screen,0_3_0_1_0_12,-999,skipped,,306679.89999997616,,,306637.7999999523,,306680,2021-11-06T18:01:42.806Z,306702.045,1634936702,full,ni_sequenzen,NI_Sequenzen,13,1,,,,,,,,,,,,
,Move,canvas.Screen,0_3_0_1_0_13,-999,skipped,,306681.6999999881,,,306637.7999999523,,306681.7999999523,2021-11-06T18:01:42.808Z,306702.045,1634936702,full,ni_sequenzen,NI_Sequenzen,14,1,,,,,,,,,,,,
,Move,canvas.Screen,0_3_0_1_0_14,-999,skipped,,306683.6999999881,,,306637.7999999523,,306683.6999999881,2021-11-06T18:01:42.810Z,306702.045,1634936702,full,ni_sequenzen,NI_Sequenzen,15,1,,,,,,,,,,,,
,Loop,flow.Loop,0_3_0_1_0,-999,completion,,298382.6999999881,298379.664,298396.346,306637.7999999523,8241.453999952297,306683.89999997616,2021-11-06T18:01:42.810Z,306702.045,1634936702,full,ni_sequenzen,NI_Sequenzen,,1,,,,,,,,,,,,
,Feedback,canvas.Screen,0_3_0_1_1,,timeout,,306685.6999999881,306685.397,306702.045,310688.471,4019.4860000000335,310690.1999999881,2021-11-06T18:01:46.816Z,310721.531,1634936702,full,ni_sequenzen,NI_Sequenzen,,1,,,,,,,,,,,,
,Trial,flow.Sequence,0_3_0_1,,completion,,298350,298379.664,298396.346,310688.471,12292.125,310690.59999996424,2021-11-06T18:01:46.817Z,310738.202,1634936702,full,ni_sequenzen,NI_Sequenzen,,1,,,,,,,,,,,,
,Move,canvas.Screen,0_3_0_2_0_0,down,response,,310733.59999996424,310721.531,310738.202,316191.89999997616,5453.697999976168,316193.6999999881,2021-11-06T18:01:52.320Z,316241.966,1634936702,full,ni_sequenzen,NI_Sequenzen,1,2,,,,,,,,,,,,
,Move,canvas.Screen,0_3_0_2_0_1,right,response,,316200.5,316192.112,316241.966,318347.39999997616,2105.4339999761432,318348.59999996424,2021-11-06T18:01:54.475Z,318376.84,1634936702,full,ni_sequenzen,NI_Sequenzen,2,2,,,,,,,,,,,,
,Move,canvas.Screen,0_3_0_2_0_2,right,response,,318356.7999999523,318343.519,318376.84,319918,1541.1599999999744,319919.2999999523,2021-11-06T18:01:56.045Z,319977.914,1634936702,full,ni_sequenzen,NI_Sequenzen,3,2,,,,,,,,,,,,
,Move,canvas.Screen,0_3_0_2_0_3,down,response,,319926.39999997616,319911.287,319977.914,320837.1999999881,859.2859999880893,320838.2999999523,2021-11-06T18:01:56.964Z,320928.507,1634936702,full,ni_sequenzen,NI_Sequenzen,4,2,,,,,,,,,,,,
,Move,canvas.Screen,0_3_0_2_0_4,-999,skipped,,320845.39999997616,,,320837.1999999881,,320845.89999997616,2021-11-06T18:01:56.972Z,320928.507,1634936702,full,ni_sequenzen,NI_Sequenzen,5,2,,,,,,,,,,,,
,Move,canvas.Screen,0_3_0_2_0_5,-999,skipped,,320852.1999999881,,,320837.1999999881,,320852.5,2021-11-06T18:01:56.979Z,320928.507,1634936702,full,ni_sequenzen,NI_Sequenzen,6,2,,,,,,,,,,,,
,Move,canvas.Screen,0_3_0_2_0_6,-999,skipped,,320858.5,,,320837.1999999881,,320858.6999999881,2021-11-06T18:01:56.985Z,320928.507,1634936702,full,ni_sequenzen,NI_Sequenzen,7,2,,,,,,,,,,,,
,Move,canvas.Screen,0_3_0_2_0_7,-999,skipped,,320867.1999999881,,,320837.1999999881,,320867.5,2021-11-06T18:01:56.994Z,320928.507,1634936702,full,ni_sequenzen,NI_Sequenzen,8,2,,,,,,,,,,,,
,Move,canvas.Screen,0_3_0_2_0_8,-999,skipped,,320873.59999996424,,,320837.1999999881,,320873.89999997616,2021-11-06T18:01:57.000Z,320928.507,1634936702,full,ni_sequenzen,NI_Sequenzen,9,2,,,,,,,,,,,,
,Move,canvas.Screen,0_3_0_2_0_9,-999,skipped,,320881,,,320837.1999999881,,320881.2999999523,2021-11-06T18:01:57.007Z,320928.507,1634936702,full,ni_sequenzen,NI_Sequenzen,10,2,,,,,,,,,,,,
,Move,canvas.Screen,0_3_0_2_0_10,-999,skipped,,320889.09999996424,,,320837.1999999881,,320889.5,2021-11-06T18:01:57.016Z,320928.507,1634936702,full,ni_sequenzen,NI_Sequenzen,11,2,,,,,,,,,,,,
,Move,canvas.Screen,0_3_0_2_0_11,-999,skipped,,320896.39999997616,,,320837.1999999881,,320896.59999996424,2021-11-06T18:01:57.023Z,320928.507,1634936702,full,ni_sequenzen,NI_Sequenzen,12,2,,,,,,,,,,,,
,Move,canvas.Screen,0_3_0_2_0_12,-999,skipped,,320900.39999997616,,,320837.1999999881,,320900.59999996424,2021-11-06T18:01:57.027Z,320928.507,1634936702,full,ni_sequenzen,NI_Sequenzen,13,2,,,,,,,,,,,,
,Move,canvas.Screen,0_3_0_2_0_13,-999,skipped,,320904.39999997616,,,320837.1999999881,,320904.59999996424,2021-11-06T18:01:57.031Z,320928.507,1634936702,full,ni_sequenzen,NI_Sequenzen,14,2,,,,,,,,,,,,
,Move,canvas.Screen,0_3_0_2_0_14,-999,skipped,,320909.59999996424,,,320837.1999999881,,320909.7999999523,2021-11-06T18:01:57.036Z,320928.507,1634936702,full,ni_sequenzen,NI_Sequenzen,15,2,,,,,,,,,,,,
,Loop,flow.Loop,0_3_0_2_0,-999,completion,,310727.59999996424,310721.531,310738.202,320837.1999999881,10098.997999988089,320910,2021-11-06T18:01:57.036Z,320928.507,1634936702,full,ni_sequenzen,NI_Sequenzen,,2,,,,,,,,,,,,
,Feedback,canvas.Screen,0_3_0_2_1,,timeout,,320916.59999996424,320912.022,320928.507,324914.711,4019.4530000000377,324916.5,2021-11-06T18:02:01.043Z,324947.96,1634936702,full,ni_sequenzen,NI_Sequenzen,,2,,,,,,,,,,,,
,Trial,flow.Sequence,0_3_0_2,,completion,,310691.5,310721.531,310738.202,324914.711,14176.50900000002,324916.6999999881,2021-11-06T18:02:01.043Z,324964.586,1634936702,full,ni_sequenzen,NI_Sequenzen,,2,,,,,,,,,,,,
,Move,canvas.Screen,0_3_0_3_0_0,left,response,,324955.7999999523,324947.96,324964.586,333563.39999997616,8598.813999976148,333566.89999997616,2021-11-06T18:02:09.693Z,333637.267,1634936702,full,ni_sequenzen,NI_Sequenzen,1,3,,,,,,,,,,,,
,Move,canvas.Screen,0_3_0_3_0_1,down,response,,333577,333570.457,333637.267,334617.59999996424,980.3329999642447,334619,2021-11-06T18:02:10.745Z,334654.661,1634936702,full,ni_sequenzen,NI_Sequenzen,2,3,,,,,,,,,,,,
,Move,canvas.Screen,0_3_0_3_0_2,down,response,,334628.39999997616,334621.317,334654.661,335228.1999999881,573.5389999880572,335229.5,2021-11-06T18:02:11.356Z,335271.743,1634936702,full,ni_sequenzen,NI_Sequenzen,3,3,,,,,,,,,,,,
,Move,canvas.Screen,0_3_0_3_0_3,left,response,,335239.5,335238.433,335271.743,336360.1999999881,1088.4569999880623,336361.59999996424,2021-11-06T18:02:12.488Z,336472.564,1634936702,full,ni_sequenzen,NI_Sequenzen,4,3,,,,,,,,,,,,
,Move,canvas.Screen,0_3_0_3_0_4,-999,skipped,,336369.2999999523,,,336360.1999999881,,336369.6999999881,2021-11-06T18:02:12.496Z,336472.564,1634936702,full,ni_sequenzen,NI_Sequenzen,5,3,,,,,,,,,,,,
,Move,canvas.Screen,0_3_0_3_0_5,-999,skipped,,336376.39999997616,,,336360.1999999881,,336376.59999996424,2021-11-06T18:02:12.503Z,336472.564,1634936702,full,ni_sequenzen,NI_Sequenzen,6,3,,,,,,,,,,,,
,Move,canvas.Screen,0_3_0_3_0_6,-999,skipped,,336382.5,,,336360.1999999881,,336382.7999999523,2021-11-06T18:02:12.509Z,336472.564,1634936702,full,ni_sequenzen,NI_Sequenzen,7,3,,,,,,,,,,,,
,Move,canvas.Screen,0_3_0_3_0_7,-999,skipped,,336391.09999996424,,,336360.1999999881,,336391.39999997616,2021-11-06T18:02:12.518Z,336472.564,1634936702,full,ni_sequenzen,NI_Sequenzen,8,3,,,,,,,,,,,,
,Move,canvas.Screen,0_3_0_3_0_8,-999,skipped,,336397.39999997616,,,336360.1999999881,,336397.59999996424,2021-11-06T18:02:12.524Z,336472.564,1634936702,full,ni_sequenzen,NI_Sequenzen,9,3,,,,,,,,,,,,
,Move,canvas.Screen,0_3_0_3_0_9,-999,skipped,,336403.59999996424,,,336360.1999999881,,336403.7999999523,2021-11-06T18:02:12.530Z,336472.564,1634936702,full,ni_sequenzen,NI_Sequenzen,10,3,,,,,,,,,,,,
,Move,canvas.Screen,0_3_0_3_0_10,-999,skipped,,336412.5,,,336360.1999999881,,336412.7999999523,2021-11-06T18:02:12.539Z,336472.564,1634936702,full,ni_sequenzen,NI_Sequenzen,11,3,,,,,,,,,,,,
,Move,canvas.Screen,0_3_0_3_0_11,-999,skipped,,336418.6999999881,,,336360.1999999881,,336419,2021-11-06T18:02:12.545Z,336472.564,1634936702,full,ni_sequenzen,NI_Sequenzen,12,3,,,,,,,,,,,,
,Move,canvas.Screen,0_3_0_3_0_12,-999,skipped,,336427.09999996424,,,336360.1999999881,,336427.5,2021-11-06T18:02:12.554Z,336472.564,1634936702,full,ni_sequenzen,NI_Sequenzen,13,3,,,,,,,,,,,,
,Move,canvas.Screen,0_3_0_3_0_13,-999,skipped,,336433.09999996424,,,336360.1999999881,,336433.2999999523,2021-11-06T18:02:12.560Z,336472.564,1634936702,full,ni_sequenzen,NI_Sequenzen,14,3,,,,,,,,,,,,
,Move,canvas.Screen,0_3_0_3_0_14,-999,skipped,,336441.5,,,336360.1999999881,,336441.6999999881,2021-11-06T18:02:12.568Z,336472.564,1634936702,full,ni_sequenzen,NI_Sequenzen,15,3,,,,,,,,,,,,
,Loop,flow.Loop,0_3_0_3_0,-999,completion,,324952.2999999523,324947.96,324964.586,336360.1999999881,11395.613999988069,336442.09999996424,2021-11-06T18:02:12.568Z,336472.564,1634936702,full,ni_sequenzen,NI_Sequenzen,,3,,,,,,,,,,,,
,Feedback,canvas.Screen,0_3_0_3_1,,timeout,,336446.7999999523,336439.275,336472.564,340458.99,4019.4379999999655,340464.09999996424,2021-11-06T18:02:16.590Z,340492.002,1634936702,full,ni_sequenzen,NI_Sequenzen,,3,,,,,,,,,,,,
,Trial,flow.Sequence,0_3_0_3,,completion,,324917.5,324947.96,324964.586,340458.99,15494.40399999998,340464.39999997616,2021-11-06T18:02:16.591Z,340508.62,1634936702,full,ni_sequenzen,NI_Sequenzen,,3,,,,,,,,,,,,
,Move,canvas.Screen,0_3_0_4_0_0,down,response,,340501.1999999881,340492.002,340508.62,343990.7999999523,3482.179999952321,343992.1999999881,2021-11-06T18:02:20.118Z,344011.019,1634936702,full,ni_sequenzen,NI_Sequenzen,1,4,,,,,,,,,,,,
,Move,canvas.Screen,0_3_0_4_0_1,right,response,,343996.1999999881,343994.662,344011.019,346358.09999996424,2347.080999964266,346359.1999999881,2021-11-06T18:02:22.486Z,346396.086,1634936702,full,ni_sequenzen,NI_Sequenzen,2,4,,,,,,,,,,,,
,Move,canvas.Screen,0_3_0_4_0_2,right,response,,346367.09999996424,346363.01,346396.086,346877.59999996424,481.51399996422697,346878.6999999881,2021-11-06T18:02:23.005Z,346896.435,1634936702,full,ni_sequenzen,NI_Sequenzen,3,4,,,,,,,,,,,,
,Move,canvas.Screen,0_3_0_4_0_3,down,response,,346885.89999997616,346879.747,346896.435,347878.1999999881,981.7649999880814,347879.89999997616,2021-11-06T18:02:24.006Z,347963.758,1634936702,full,ni_sequenzen,NI_Sequenzen,4,4,,,,,,,,,,,,
,Move,canvas.Screen,0_3_0_4_0_4,-999,skipped,,347887.6999999881,,,347878.1999999881,,347888,2021-11-06T18:02:24.014Z,347963.758,1634936702,full,ni_sequenzen,NI_Sequenzen,5,4,,,,,,,,,,,,
,Move,canvas.Screen,0_3_0_4_0_5,-999,skipped,,347894.09999996424,,,347878.1999999881,,347894.39999997616,2021-11-06T18:02:24.021Z,347963.758,1634936702,full,ni_sequenzen,NI_Sequenzen,6,4,,,,,,,,,,,,
,Move,canvas.Screen,0_3_0_4_0_6,-999,skipped,,347901.39999997616,,,347878.1999999881,,347901.7999999523,2021-11-06T18:02:24.028Z,347963.758,1634936702,full,ni_sequenzen,NI_Sequenzen,7,4,,,,,,,,,,,,
,Move,canvas.Screen,0_3_0_4_0_7,-999,skipped,,347909.59999996424,,,347878.1999999881,,347910,2021-11-06T18:02:24.036Z,347963.758,1634936702,full,ni_sequenzen,NI_Sequenzen,8,4,,,,,,,,,,,,
,Move,canvas.Screen,0_3_0_4_0_8,-999,skipped,,347916.6999999881,,,347878.1999999881,,347917,2021-11-06T18:02:24.043Z,347963.758,1634936702,full,ni_sequenzen,NI_Sequenzen,9,4,,,,,,,,,,,,
,Move,canvas.Screen,0_3_0_4_0_9,-999,skipped,,347923.2999999523,,,347878.1999999881,,347923.6999999881,2021-11-06T18:02:24.050Z,347963.758,1634936702,full,ni_sequenzen,NI_Sequenzen,10,4,,,,,,,,,,,,
,Move,canvas.Screen,0_3_0_4_0_10,-999,skipped,,347931.6999999881,,,347878.1999999881,,347932,2021-11-06T18:02:24.058Z,347963.758,1634936702,full,ni_sequenzen,NI_Sequenzen,11,4,,,,,,,,,,,,
,Move,canvas.Screen,0_3_0_4_0_11,-999,skipped,,347939.09999996424,,,347878.1999999881,,347939.2999999523,2021-11-06T18:02:24.066Z,347963.758,1634936702,full,ni_sequenzen,NI_Sequenzen,12,4,,,,,,,,,,,,
,Move,canvas.Screen,0_3_0_4_0_12,-999,skipped,,347948.2999999523,,,347878.1999999881,,347948.39999997616,2021-11-06T18:02:24.075Z,347963.758,1634936702,full,ni_sequenzen,NI_Sequenzen,13,4,,,,,,,,,,,,
,Move,canvas.Screen,0_3_0_4_0_13,-999,skipped,,347952.7999999523,,,347878.1999999881,,347953,2021-11-06T18:02:24.079Z,347963.758,1634936702,full,ni_sequenzen,NI_Sequenzen,14,4,,,,,,,,,,,,
,Move,canvas.Screen,0_3_0_4_0_14,-999,skipped,,347956.7999999523,,,347878.1999999881,,347956.89999997616,2021-11-06T18:02:24.083Z,347963.758,1634936702,full,ni_sequenzen,NI_Sequenzen,15,4,,,,,,,,,,,,
,Loop,flow.Loop,0_3_0_4_0,-999,completion,,340497.39999997616,340492.002,340508.62,347878.1999999881,7369.579999988084,347957.09999996424,2021-11-06T18:02:24.083Z,347963.758,1634936702,full,ni_sequenzen,NI_Sequenzen,,4,,,,,,,,,,,,
,Feedback,canvas.Screen,0_3_0_4_1,,timeout,,347961.5,347947.144,347963.758,351950.021,4036.155000000028,351956.09999996424,2021-11-06T18:02:28.082Z,351999.913,1634936702,full,ni_sequenzen,NI_Sequenzen,,4,,,,,,,,,,,,
,Trial,flow.Sequence,0_3_0_4,,completion,,340465.09999996424,340492.002,340508.62,351950.021,11441.401000000013,351956.39999997616,2021-11-06T18:02:28.083Z,352049.912,1634936702,full,ni_sequenzen,NI_Sequenzen,,4,,,,,,,,,,,,
,Move,canvas.Screen,0_3_0_5_0_0,left,response,,352002.5,351999.913,352049.912,354138,2088.087999999989,354138.5,2021-11-06T18:02:30.265Z,354151.332,1634936702,full,ni_sequenzen,NI_Sequenzen,1,5,,,,,,,,,,,,
,Move,canvas.Screen,0_3_0_5_0_1,down,response,,354141,354134.748,354151.332,356158.6999999881,2007.3679999880842,356160.09999996424,2021-11-06T18:02:32.286Z,356190.053,1634936702,full,ni_sequenzen,NI_Sequenzen,2,5,,,,,,,,,,,,
,Move,canvas.Screen,0_3_0_5_0_2,down,response,,356168.39999997616,356152.672,356190.053,358948.09999996424,2758.046999964223,358949.5,2021-11-06T18:02:35.076Z,359004.773,1634936702,full,ni_sequenzen,NI_Sequenzen,3,5,,,,,,,,,,,,
,Move,canvas.Screen,0_3_0_5_0_3,left,response,,358959.7999999523,358954.701,359004.773,360548.5,1543.7270000000135,360550,2021-11-06T18:02:36.676Z,360672.478,1634936702,full,ni_sequenzen,NI_Sequenzen,4,5,,,,,,,,,,,,
,Move,canvas.Screen,0_3_0_5_0_4,-999,skipped,,360604.39999997616,,,360548.5,,360604.7999999523,2021-11-06T18:02:36.731Z,360672.478,1634936702,full,ni_sequenzen,NI_Sequenzen,5,5,,,,,,,,,,,,
,Move,canvas.Screen,0_3_0_5_0_5,-999,skipped,,360616.39999997616,,,360548.5,,360616.6999999881,2021-11-06T18:02:36.743Z,360672.478,1634936702,full,ni_sequenzen,NI_Sequenzen,6,5,,,,,,,,,,,,
,Move,canvas.Screen,0_3_0_5_0_6,-999,skipped,,360624.59999996424,,,360548.5,,360624.7999999523,2021-11-06T18:02:36.751Z,360672.478,1634936702,full,ni_sequenzen,NI_Sequenzen,7,5,,,,,,,,,,,,
,Move,canvas.Screen,0_3_0_5_0_7,-999,skipped,,360629.89999997616,,,360548.5,,360630.1999999881,2021-11-06T18:02:36.756Z,360672.478,1634936702,full,ni_sequenzen,NI_Sequenzen,8,5,,,,,,,,,,,,
,Move,canvas.Screen,0_3_0_5_0_8,-999,skipped,,360635.7999999523,,,360548.5,,360635.89999997616,2021-11-06T18:02:36.762Z,360672.478,1634936702,full,ni_sequenzen,NI_Sequenzen,9,5,,,,,,,,,,,,
,Move,canvas.Screen,0_3_0_5_0_9,-999,skipped,,360639.89999997616,,,360548.5,,360640,2021-11-06T18:02:36.766Z,360672.478,1634936702,full,ni_sequenzen,NI_Sequenzen,10,5,,,,,,,,,,,,
,Move,canvas.Screen,0_3_0_5_0_10,-999,skipped,,360642.89999997616,,,360548.5,,360643,2021-11-06T18:02:36.769Z,360672.478,1634936702,full,ni_sequenzen,NI_Sequenzen,11,5,,,,,,,,,,,,
,Move,canvas.Screen,0_3_0_5_0_11,-999,skipped,,360646.09999996424,,,360548.5,,360646.1999999881,2021-11-06T18:02:36.773Z,360672.478,1634936702,full,ni_sequenzen,NI_Sequenzen,12,5,,,,,,,,,,,,
,Move,canvas.Screen,0_3_0_5_0_12,-999,skipped,,360648.7999999523,,,360548.5,,360648.89999997616,2021-11-06T18:02:36.775Z,360672.478,1634936702,full,ni_sequenzen,NI_Sequenzen,13,5,,,,,,,,,,,,
,Move,canvas.Screen,0_3_0_5_0_13,-999,skipped,,360651.39999997616,,,360548.5,,360651.5,2021-11-06T18:02:36.778Z,360672.478,1634936702,full,ni_sequenzen,NI_Sequenzen,14,5,,,,,,,,,,,,
,Move,canvas.Screen,0_3_0_5_0_14,-999,skipped,,360654.39999997616,,,360548.5,,360654.5,2021-11-06T18:02:36.781Z,360672.478,1634936702,full,ni_sequenzen,NI_Sequenzen,15,5,,,,,,,,,,,,
,Loop,flow.Loop,0_3_0_5_0,-999,completion,,351991.5,351999.913,352049.912,360548.5,8498.587999999989,360654.6999999881,2021-11-06T18:02:36.781Z,360672.478,1634936702,full,ni_sequenzen,NI_Sequenzen,,5,,,,,,,,,,,,
,Feedback,canvas.Screen,0_3_0_5_1,,timeout,,360658.59999996424,360655.861,360672.478,364658.712,4019.512999999977,364660.5,2021-11-06T18:02:40.787Z,364691.991,1634936702,full,ni_sequenzen,NI_Sequenzen,,5,,,,,,,,,,,,
,Trial,flow.Sequence,0_3_0_5,,completion,,351957.1999999881,351999.913,352049.912,364658.712,12608.799999999988,364660.7999999523,2021-11-06T18:02:40.787Z,364758.673,1634936702,full,ni_sequenzen,NI_Sequenzen,,5,,,,,,,,,,,,
,Move,canvas.Screen,0_3_0_6_0_0,right,response,,364704.6999999881,364691.991,364758.673,367232.5,2473.82699999999,367234.1999999881,2021-11-06T18:02:43.361Z,367277.156,1634936702,full,ni_sequenzen,NI_Sequenzen,1,6,,,,,,,,,,,,
,Move,canvas.Screen,0_3_0_6_0_1,down,response,,367242.6999999881,367227.124,367277.156,370549.39999997616,3272.243999976141,370551.2999999523,2021-11-06T18:02:46.678Z,370579.464,1634936702,full,ni_sequenzen,NI_Sequenzen,2,6,,,,,,,,,,,,
,Move,canvas.Screen,0_3_0_6_0_2,right,response,,370561.5,370545.99,370579.464,371108.59999996424,529.1359999642591,371110,2021-11-06T18:02:47.236Z,371146.421,1634936702,full,ni_sequenzen,NI_Sequenzen,3,6,,,,,,,,,,,,
,Move,canvas.Screen,0_3_0_6_0_3,down,response,,371117.89999997616,371113.32,371146.421,371548.1999999881,401.7789999881061,371549.59999996424,2021-11-06T18:02:47.676Z,371596.625,1634936702,full,ni_sequenzen,NI_Sequenzen,4,6,,,,,,,,,,,,
,Move,canvas.Screen,0_3_0_6_0_4,-999,skipped,,371556.7999999523,,,371548.1999999881,,371556.89999997616,2021-11-06T18:02:47.683Z,371596.625,1634936702,full,ni_sequenzen,NI_Sequenzen,5,6,,,,,,,,,,,,
,Move,canvas.Screen,0_3_0_6_0_5,-999,skipped,,371560,,,371548.1999999881,,371560.09999996424,2021-11-06T18:02:47.686Z,371596.625,1634936702,full,ni_sequenzen,NI_Sequenzen,6,6,,,,,,,,,,,,
,Move,canvas.Screen,0_3_0_6_0_6,-999,skipped,,371563,,,371548.1999999881,,371563.09999996424,2021-11-06T18:02:47.689Z,371596.625,1634936702,full,ni_sequenzen,NI_Sequenzen,7,6,,,,,,,,,,,,
,Move,canvas.Screen,0_3_0_6_0_7,-999,skipped,,371566.59999996424,,,371548.1999999881,,371566.6999999881,2021-11-06T18:02:47.693Z,371596.625,1634936702,full,ni_sequenzen,NI_Sequenzen,8,6,,,,,,,,,,,,
,Move,canvas.Screen,0_3_0_6_0_8,-999,skipped,,371568.89999997616,,,371548.1999999881,,371569,2021-11-06T18:02:47.695Z,371596.625,1634936702,full,ni_sequenzen,NI_Sequenzen,9,6,,,,,,,,,,,,
,Move,canvas.Screen,0_3_0_6_0_9,-999,skipped,,371570.6999999881,,,371548.1999999881,,371570.6999999881,2021-11-06T18:02:47.697Z,371596.625,1634936702,full,ni_sequenzen,NI_Sequenzen,10,6,,,,,,,,,,,,
,Move,canvas.Screen,0_3_0_6_0_10,-999,skipped,,371573.39999997616,,,371548.1999999881,,371573.5,2021-11-06T18:02:47.700Z,371596.625,1634936702,full,ni_sequenzen,NI_Sequenzen,11,6,,,,,,,,,,,,
,Move,canvas.Screen,0_3_0_6_0_11,-999,skipped,,371575.39999997616,,,371548.1999999881,,371575.5,2021-11-06T18:02:47.702Z,371596.625,1634936702,full,ni_sequenzen,NI_Sequenzen,12,6,,,,,,,,,,,,
,Move,canvas.Screen,0_3_0_6_0_12,-999,skipped,,371577.09999996424,,,371548.1999999881,,371577.1999999881,2021-11-06T18:02:47.704Z,371596.625,1634936702,full,ni_sequenzen,NI_Sequenzen,13,6,,,,,,,,,,,,
,Move,canvas.Screen,0_3_0_6_0_13,-999,skipped,,371578.7999999523,,,371548.1999999881,,371578.7999999523,2021-11-06T18:02:47.705Z,371596.625,1634936702,full,ni_sequenzen,NI_Sequenzen,14,6,,,,,,,,,,,,
,Move,canvas.Screen,0_3_0_6_0_14,-999,skipped,,371581.39999997616,,,371548.1999999881,,371581.39999997616,2021-11-06T18:02:47.708Z,371596.625,1634936702,full,ni_sequenzen,NI_Sequenzen,15,6,,,,,,,,,,,,
,Loop,flow.Loop,0_3_0_6_0,-999,completion,,364694.1999999881,364691.991,364758.673,371548.1999999881,6789.526999988069,371581.5,2021-11-06T18:02:47.708Z,371596.625,1634936702,full,ni_sequenzen,NI_Sequenzen,,6,,,,,,,,,,,,
,Feedback,canvas.Screen,0_3_0_6_1,,timeout,,371585.39999997616,371580.146,371596.625,375583.119,4019.523999999976,375585.09999996424,2021-11-06T18:02:51.711Z,375616.149,1634936702,full,ni_sequenzen,NI_Sequenzen,,6,,,,,,,,,,,,
,Trial,flow.Sequence,0_3_0_6,,completion,,364661.7999999523,364691.991,364758.673,375583.119,10824.445999999996,375585.39999997616,2021-11-06T18:02:51.712Z,375682.837,1634936702,full,ni_sequenzen,NI_Sequenzen,,6,,,,,,,,,,,,
,Move,canvas.Screen,0_3_0_7_0_0,down,response,,375627.39999997616,375616.149,375682.837,381918.59999996424,6235.762999964238,381919,2021-11-06T18:02:58.045Z,381937.101,1634936702,full,ni_sequenzen,NI_Sequenzen,1,7,,,,,,,,,,,,
,Move,canvas.Screen,0_3_0_7_0_1,right,response,,381921.1999999881,381920.565,381937.101,383198.6999999881,1261.5989999880549,383199.7999999523,2021-11-06T18:02:59.326Z,383237.99,1634936702,full,ni_sequenzen,NI_Sequenzen,2,7,,,,,,,,,,,,
,Move,canvas.Screen,0_3_0_7_0_2,right,response,,383206.59999996424,383204.613,383237.99,386961.2999999523,3723.3099999523256,386963,2021-11-06T18:03:03.089Z,387023.976,1634936702,full,ni_sequenzen,NI_Sequenzen,3,7,,,,,,,,,,,,
,Move,canvas.Screen,0_3_0_7_0_3,down,response,,386972.59999996424,386957.359,387023.976,387630.09999996424,606.123999964213,387631.1999999881,2021-11-06T18:03:03.758Z,387722.428,1634936702,full,ni_sequenzen,NI_Sequenzen,4,7,,,,,,,,,,,,
,Move,canvas.Screen,0_3_0_7_0_4,-999,skipped,,387637.7999999523,,,387630.09999996424,,387638.09999996424,2021-11-06T18:03:03.764Z,387722.428,1634936702,full,ni_sequenzen,NI_Sequenzen,5,7,,,,,,,,,,,,
,Move,canvas.Screen,0_3_0_7_0_5,-999,skipped,,387645.2999999523,,,387630.09999996424,,387645.6999999881,2021-11-06T18:03:03.772Z,387722.428,1634936702,full,ni_sequenzen,NI_Sequenzen,6,7,,,,,,,,,,,,
,Move,canvas.Screen,0_3_0_7_0_6,-999,skipped,,387651,,,387630.09999996424,,387651.1999999881,2021-11-06T18:03:03.778Z,387722.428,1634936702,full,ni_sequenzen,NI_Sequenzen,7,7,,,,,,,,,,,,
,Move,canvas.Screen,0_3_0_7_0_7,-999,skipped,,387657.89999997616,,,387630.09999996424,,387658.1999999881,2021-11-06T18:03:03.785Z,387722.428,1634936702,full,ni_sequenzen,NI_Sequenzen,8,7,,,,,,,,,,,,
,Move,canvas.Screen,0_3_0_7_0_8,-999,skipped,,387663.2999999523,,,387630.09999996424,,387663.5,2021-11-06T18:03:03.790Z,387722.428,1634936702,full,ni_sequenzen,NI_Sequenzen,9,7,,,,,,,,,,,,
,Move,canvas.Screen,0_3_0_7_0_9,-999,skipped,,387669.89999997616,,,387630.09999996424,,387670.09999996424,2021-11-06T18:03:03.796Z,387722.428,1634936702,full,ni_sequenzen,NI_Sequenzen,10,7,,,,,,,,,,,,
,Move,canvas.Screen,0_3_0_7_0_10,-999,skipped,,387675.39999997616,,,387630.09999996424,,387675.5,2021-11-06T18:03:03.802Z,387722.428,1634936702,full,ni_sequenzen,NI_Sequenzen,11,7,,,,,,,,,,,,
,Move,canvas.Screen,0_3_0_7_0_11,-999,skipped,,387678.39999997616,,,387630.09999996424,,387678.39999997616,2021-11-06T18:03:03.805Z,387722.428,1634936702,full,ni_sequenzen,NI_Sequenzen,12,7,,,,,,,,,,,,
,Move,canvas.Screen,0_3_0_7_0_12,-999,skipped,,387681.09999996424,,,387630.09999996424,,387681.1999999881,2021-11-06T18:03:03.808Z,387722.428,1634936702,full,ni_sequenzen,NI_Sequenzen,13,7,,,,,,,,,,,,
,Move,canvas.Screen,0_3_0_7_0_13,-999,skipped,,387683.6999999881,,,387630.09999996424,,387683.6999999881,2021-11-06T18:03:03.810Z,387722.428,1634936702,full,ni_sequenzen,NI_Sequenzen,14,7,,,,,,,,,,,,
,Move,canvas.Screen,0_3_0_7_0_14,-999,skipped,,387686.39999997616,,,387630.09999996424,,387686.5,2021-11-06T18:03:03.813Z,387722.428,1634936702,full,ni_sequenzen,NI_Sequenzen,15,7,,,,,,,,,,,,
,Loop,flow.Loop,0_3_0_7_0,-999,completion,,375619.09999996424,375616.149,375682.837,387630.09999996424,11947.262999964238,387686.6999999881,2021-11-06T18:03:03.813Z,387722.428,1634936702,full,ni_sequenzen,NI_Sequenzen,,7,,,,,,,,,,,,
,Feedback,canvas.Screen,0_3_0_7_1,,timeout,,387690,387674.663,387722.428,391710.673,4021.448999999964,391715,2021-11-06T18:03:07.841Z,391743.877,1634936702,full,ni_sequenzen,NI_Sequenzen,,7,,,,,,,,,,,,
,Trial,flow.Sequence,0_3_0_7,,completion,,375586.09999996424,375616.149,375682.837,391710.673,16027.83600000001,391715.39999997616,2021-11-06T18:03:07.842Z,391793.924,1634936702,full,ni_sequenzen,NI_Sequenzen,,7,,,,,,,,,,,,
,Move,canvas.Screen,0_3_0_8_0_0,left,response,,391756.39999997616,391743.877,391793.924,394953.2999999523,3159.375999952317,394955.09999996424,2021-11-06T18:03:11.081Z,394962.694,1634936702,full,ni_sequenzen,NI_Sequenzen,1,8,,,,,,,,,,,,
,Move,canvas.Screen,0_3_0_8_0_1,down,response,,394961.1999999881,394946.202,394962.694,399469.39999997616,4506.70599997614,399470.5,2021-11-06T18:03:15.597Z,399515.888,1634936702,full,ni_sequenzen,NI_Sequenzen,2,8,,,,,,,,,,,,
,Move,canvas.Screen,0_3_0_8_0_2,right,response,,399476.59999996424,399465.938,399515.888,400409.1999999881,893.3119999881019,400410.2999999523,2021-11-06T18:03:16.537Z,400433.156,1634936702,full,ni_sequenzen,NI_Sequenzen,3,8,,,,,,,,,,,,
,Move,canvas.Screen,0_3_0_8_0_3,right,response,,400417.89999997616,400416.831,400433.156,402629.59999996424,2196.44399996422,402630.6999999881,2021-11-06T18:03:18.757Z,402684.937,1634936702,full,ni_sequenzen,NI_Sequenzen,4,8,,,,,,,,,,,,
,Move,canvas.Screen,0_3_0_8_0_4,-999,skipped,,402637.59999996424,,,402629.59999996424,,402638,2021-11-06T18:03:18.764Z,402684.937,1634936702,full,ni_sequenzen,NI_Sequenzen,5,8,,,,,,,,,,,,
,Move,canvas.Screen,0_3_0_8_0_5,-999,skipped,,402643.5,,,402629.59999996424,,402643.6999999881,2021-11-06T18:03:18.770Z,402684.937,1634936702,full,ni_sequenzen,NI_Sequenzen,6,8,,,,,,,,,,,,
,Move,canvas.Screen,0_3_0_8_0_6,-999,skipped,,402647.2999999523,,,402629.59999996424,,402647.5,2021-11-06T18:03:18.774Z,402684.937,1634936702,full,ni_sequenzen,NI_Sequenzen,7,8,,,,,,,,,,,,
,Move,canvas.Screen,0_3_0_8_0_7,-999,skipped,,402652,,,402629.59999996424,,402652.1999999881,2021-11-06T18:03:18.779Z,402684.937,1634936702,full,ni_sequenzen,NI_Sequenzen,8,8,,,,,,,,,,,,
,Move,canvas.Screen,0_3_0_8_0_8,-999,skipped,,402655,,,402629.59999996424,,402655.09999996424,2021-11-06T18:03:18.781Z,402684.937,1634936702,full,ni_sequenzen,NI_Sequenzen,9,8,,,,,,,,,,,,
,Move,canvas.Screen,0_3_0_8_0_9,-999,skipped,,402657.6999999881,,,402629.59999996424,,402657.7999999523,2021-11-06T18:03:18.784Z,402684.937,1634936702,full,ni_sequenzen,NI_Sequenzen,10,8,,,,,,,,,,,,
,Move,canvas.Screen,0_3_0_8_0_10,-999,skipped,,402660.7999999523,,,402629.59999996424,,402660.89999997616,2021-11-06T18:03:18.787Z,402684.937,1634936702,full,ni_sequenzen,NI_Sequenzen,11,8,,,,,,,,,,,,
,Move,canvas.Screen,0_3_0_8_0_11,-999,skipped,,402662.89999997616,,,402629.59999996424,,402663,2021-11-06T18:03:18.789Z,402684.937,1634936702,full,ni_sequenzen,NI_Sequenzen,12,8,,,,,,,,,,,,
,Move,canvas.Screen,0_3_0_8_0_12,-999,skipped,,402665.39999997616,,,402629.59999996424,,402665.5,2021-11-06T18:03:18.792Z,402684.937,1634936702,full,ni_sequenzen,NI_Sequenzen,13,8,,,,,,,,,,,,
