meta,sender,sender_type,sender_id,response,ended_on,instrCount,time_run,time_render,time_show,time_end,duration,time_commit,timestamp,time_switch,openLabId,type,task,project,move,trialN,blockN_Train,blockN,moveCount,currPP,points,movesTrial,visitedFields,diff,reward,Strategie,Zweck,Probleme
[object Object],Screen_1,canvas.Screen,0_0_0_0,cont,response,1,1520.699999988079,1507.211,1557.019,50488.299999952316,48931.280999952316,50494.39999997616,2021-10-20T16:10:40.590Z,50592.396,1634746180,full,ni_sequenzen,NI_Sequenzen,,,,,,,,,,,,,,
,Screen_2,canvas.Screen,0_0_0_1,cont,response,1,50586.799999952316,50575.886,50592.396,66702.69999998808,16110.303999988078,66703.79999995232,2021-10-20T16:10:56.799Z,66809.851,1634746180,full,ni_sequenzen,NI_Sequenzen,,,,,,,,,,,,,,
,Screen_3,canvas.Screen,0_0_0_2,cont,response,1,66797.5,66793.429,66809.851,95789.29999995232,28979.44899995232,95790.09999996424,2021-10-20T16:11:25.886Z,95798.206,1634746180,full,ni_sequenzen,NI_Sequenzen,,,,,,,,,,,,,,
,Screen_4,canvas.Screen,0_0_0_3,cont,response,1,95796,95781.025,95798.206,101934.59999996424,6136.393999964232,101935.39999997616,2021-10-20T16:11:32.031Z,102075.343,1634746180,full,ni_sequenzen,NI_Sequenzen,,,,,,,,,,,,,,
,Sequence,flow.Sequence,0_0_0,,completion,1,1437.8999999761581,1507.211,1557.019,101934.59999996424,100377.58099996424,101940.09999996424,2021-10-20T16:11:32.036Z,102075.343,1634746180,full,ni_sequenzen,NI_Sequenzen,,,,,,,,,,,,,,
,Screen_1,canvas.Screen,0_0_1_0,,skipped,2,101942.29999995232,,,101942.29999995232,,101942.39999997616,2021-10-20T16:11:32.038Z,102075.343,1634746180,full,ni_sequenzen,NI_Sequenzen,,,,,,,,,,,,,,
,Screen_2,canvas.Screen,0_0_1_1,,skipped,2,101943.59999996424,,,101942.29999995232,,101943.69999998808,2021-10-20T16:11:32.039Z,102075.343,1634746180,full,ni_sequenzen,NI_Sequenzen,,,,,,,,,,,,,,
,Screen_3,canvas.Screen,0_0_1_2,,skipped,2,101945.59999996424,,,101942.29999995232,,101945.69999998808,2021-10-20T16:11:32.041Z,102075.343,1634746180,full,ni_sequenzen,NI_Sequenzen,,,,,,,,,,,,,,
,Screen_4,canvas.Screen,0_0_1_3,,skipped,2,101947,,,101942.29999995232,,101947,2021-10-20T16:11:32.043Z,102075.343,1634746180,full,ni_sequenzen,NI_Sequenzen,,,,,,,,,,,,,,
,Sequence,flow.Sequence,0_0_1,,completion,2,101940.69999998808,,,101942.29999995232,,101947.39999997616,2021-10-20T16:11:32.043Z,102075.343,1634746180,full,ni_sequenzen,NI_Sequenzen,,,,,,,,,,,,,,
,Screen_1,canvas.Screen,0_0_2_0,,skipped,3,101948.89999997616,,,101948.89999997616,,101949.09999996424,2021-10-20T16:11:32.045Z,102075.343,1634746180,full,ni_sequenzen,NI_Sequenzen,,,,,,,,,,,,,,
,Screen_2,canvas.Screen,0_0_2_1,,skipped,3,101949.89999997616,,,101948.89999997616,,101950,2021-10-20T16:11:32.045Z,102075.343,1634746180,full,ni_sequenzen,NI_Sequenzen,,,,,,,,,,,,,,
,Screen_3,canvas.Screen,0_0_2_2,,skipped,3,101964.59999996424,,,101948.89999997616,,101964.69999998808,2021-10-20T16:11:32.060Z,102075.343,1634746180,full,ni_sequenzen,NI_Sequenzen,,,,,,,,,,,,,,
,Screen_4,canvas.Screen,0_0_2_3,,skipped,3,101965.79999995232,,,101948.89999997616,,101965.89999997616,2021-10-20T16:11:32.061Z,102075.343,1634746180,full,ni_sequenzen,NI_Sequenzen,,,,,,,,,,,,,,
,Sequence,flow.Sequence,0_0_2,,completion,3,101947.89999997616,,,101948.89999997616,,101966,2021-10-20T16:11:32.062Z,102075.343,1634746180,full,ni_sequenzen,NI_Sequenzen,,,,,,,,,,,,,,
,Screen_1,canvas.Screen,0_0_3_0,,skipped,4,101967.29999995232,,,101967.29999995232,,101967.29999995232,2021-10-20T16:11:32.063Z,102075.343,1634746180,full,ni_sequenzen,NI_Sequenzen,,,,,,,,,,,,,,
,Screen_2,canvas.Screen,0_0_3_1,,skipped,4,101968.19999998808,,,101967.29999995232,,101968.29999995232,2021-10-20T16:11:32.064Z,102075.343,1634746180,full,ni_sequenzen,NI_Sequenzen,,,,,,,,,,,,,,
,Screen_3,canvas.Screen,0_0_3_2,,skipped,4,101969.19999998808,,,101967.29999995232,,101969.19999998808,2021-10-20T16:11:32.065Z,102075.343,1634746180,full,ni_sequenzen,NI_Sequenzen,,,,,,,,,,,,,,
,Screen_4,canvas.Screen,0_0_3_3,,skipped,4,101970.09999996424,,,101967.29999995232,,101970.19999998808,2021-10-20T16:11:32.066Z,102075.343,1634746180,full,ni_sequenzen,NI_Sequenzen,,,,,,,,,,,,,,
,Sequence,flow.Sequence,0_0_3,,completion,4,101966.39999997616,,,101967.29999995232,,101970.29999995232,2021-10-20T16:11:32.066Z,102075.343,1634746180,full,ni_sequenzen,NI_Sequenzen,,,,,,,,,,,,,,
,Screen_1,canvas.Screen,0_0_4_0,,skipped,5,101971.39999997616,,,101971.5,,101971.5,2021-10-20T16:11:32.067Z,102075.343,1634746180,full,ni_sequenzen,NI_Sequenzen,,,,,,,,,,,,,,
,Screen_2,canvas.Screen,0_0_4_1,,skipped,5,101972.39999997616,,,101971.5,,101972.5,2021-10-20T16:11:32.068Z,102075.343,1634746180,full,ni_sequenzen,NI_Sequenzen,,,,,,,,,,,,,,
,Screen_3,canvas.Screen,0_0_4_2,,skipped,5,101973.59999996424,,,101971.5,,101973.69999998808,2021-10-20T16:11:32.069Z,102075.343,1634746180,full,ni_sequenzen,NI_Sequenzen,,,,,,,,,,,,,,
,Screen_4,canvas.Screen,0_0_4_3,,skipped,5,101974.59999996424,,,101971.5,,101974.69999998808,2021-10-20T16:11:32.070Z,102075.343,1634746180,full,ni_sequenzen,NI_Sequenzen,,,,,,,,,,,,,,
,Sequence,flow.Sequence,0_0_4,,completion,5,101970.59999996424,,,101971.5,,101974.79999995232,2021-10-20T16:11:32.070Z,102075.343,1634746180,full,ni_sequenzen,NI_Sequenzen,,,,,,,,,,,,,,
,Screen_1,canvas.Screen,0_0_5_0,,skipped,6,101975.89999997616,,,101975.89999997616,,101976.09999996424,2021-10-20T16:11:32.072Z,102075.343,1634746180,full,ni_sequenzen,NI_Sequenzen,,,,,,,,,,,,,,
,Screen_2,canvas.Screen,0_0_5_1,,skipped,6,101976.89999997616,,,101975.89999997616,,101976.89999997616,2021-10-20T16:11:32.072Z,102075.343,1634746180,full,ni_sequenzen,NI_Sequenzen,,,,,,,,,,,,,,
,Screen_3,canvas.Screen,0_0_5_2,,skipped,6,101977.89999997616,,,101975.89999997616,,101977.89999997616,2021-10-20T16:11:32.073Z,102075.343,1634746180,full,ni_sequenzen,NI_Sequenzen,,,,,,,,,,,,,,
,Screen_4,canvas.Screen,0_0_5_3,,skipped,6,101978.79999995232,,,101975.89999997616,,101978.89999997616,2021-10-20T16:11:32.074Z,102075.343,1634746180,full,ni_sequenzen,NI_Sequenzen,,,,,,,,,,,,,,
,Sequence,flow.Sequence,0_0_5,,completion,6,101975.19999998808,,,101975.89999997616,,101979,2021-10-20T16:11:32.075Z,102075.343,1634746180,full,ni_sequenzen,NI_Sequenzen,,,,,,,,,,,,,,
,Screen_1,canvas.Screen,0_0_6_0,,skipped,7,101981.09999996424,,,101981.09999996424,,101981.09999996424,2021-10-20T16:11:32.077Z,102075.343,1634746180,full,ni_sequenzen,NI_Sequenzen,,,,,,,,,,,,,,
,Screen_2,canvas.Screen,0_0_6_1,,skipped,7,101982,,,101981.09999996424,,101982,2021-10-20T16:11:32.078Z,102075.343,1634746180,full,ni_sequenzen,NI_Sequenzen,,,,,,,,,,,,,,
,Screen_3,canvas.Screen,0_0_6_2,,skipped,7,101983.19999998808,,,101981.09999996424,,101983.29999995232,2021-10-20T16:11:32.079Z,102075.343,1634746180,full,ni_sequenzen,NI_Sequenzen,,,,,,,,,,,,,,
,Screen_4,canvas.Screen,0_0_6_3,,skipped,7,101984.29999995232,,,101981.09999996424,,101984.39999997616,2021-10-20T16:11:32.080Z,102075.343,1634746180,full,ni_sequenzen,NI_Sequenzen,,,,,,,,,,,,,,
,Sequence,flow.Sequence,0_0_6,,completion,7,101979.29999995232,,,101981.09999996424,,101984.5,2021-10-20T16:11:32.080Z,102075.343,1634746180,full,ni_sequenzen,NI_Sequenzen,,,,,,,,,,,,,,
,Screen_1,canvas.Screen,0_0_7_0,,skipped,8,101985.79999995232,,,101985.79999995232,,101985.89999997616,2021-10-20T16:11:32.081Z,102075.343,1634746180,full,ni_sequenzen,NI_Sequenzen,,,,,,,,,,,,,,
,Screen_2,canvas.Screen,0_0_7_1,,skipped,8,101986.69999998808,,,101985.79999995232,,101986.79999995232,2021-10-20T16:11:32.082Z,102075.343,1634746180,full,ni_sequenzen,NI_Sequenzen,,,,,,,,,,,,,,
,Screen_3,canvas.Screen,0_0_7_2,,skipped,8,101987.59999996424,,,101985.79999995232,,101987.79999995232,2021-10-20T16:11:32.083Z,102075.343,1634746180,full,ni_sequenzen,NI_Sequenzen,,,,,,,,,,,,,,
,Screen_4,canvas.Screen,0_0_7_3,,skipped,8,101988.59999996424,,,101985.79999995232,,101988.69999998808,2021-10-20T16:11:32.084Z,102075.343,1634746180,full,ni_sequenzen,NI_Sequenzen,,,,,,,,,,,,,,
,Sequence,flow.Sequence,0_0_7,,completion,8,101984.89999997616,,,101985.79999995232,,101988.89999997616,2021-10-20T16:11:32.084Z,102075.343,1634746180,full,ni_sequenzen,NI_Sequenzen,,,,,,,,,,,,,,
,Screen_1,canvas.Screen,0_0_8_0,,skipped,9,101990.59999996424,,,101990.59999996424,,101990.69999998808,2021-10-20T16:11:32.086Z,102075.343,1634746180,full,ni_sequenzen,NI_Sequenzen,,,,,,,,,,,,,,
,Screen_2,canvas.Screen,0_0_8_1,,skipped,9,101991.69999998808,,,101990.59999996424,,101991.79999995232,2021-10-20T16:11:32.087Z,102075.343,1634746180,full,ni_sequenzen,NI_Sequenzen,,,,,,,,,,,,,,
,Screen_3,canvas.Screen,0_0_8_2,,skipped,9,101992.69999998808,,,101990.59999996424,,101992.69999998808,2021-10-20T16:11:32.088Z,102075.343,1634746180,full,ni_sequenzen,NI_Sequenzen,,,,,,,,,,,,,,
,Screen_4,canvas.Screen,0_0_8_3,,skipped,9,101993.59999996424,,,101990.59999996424,,101993.79999995232,2021-10-20T16:11:32.089Z,102075.343,1634746180,full,ni_sequenzen,NI_Sequenzen,,,,,,,,,,,,,,
,Sequence,flow.Sequence,0_0_8,,completion,9,101989.5,,,101990.59999996424,,101993.79999995232,2021-10-20T16:11:32.089Z,102075.343,1634746180,full,ni_sequenzen,NI_Sequenzen,,,,,,,,,,,,,,
,Screen_1,canvas.Screen,0_0_9_0,,skipped,10,101995.89999997616,,,101995.89999997616,,101996,2021-10-20T16:11:32.092Z,102075.343,1634746180,full,ni_sequenzen,NI_Sequenzen,,,,,,,,,,,,,,
,Screen_2,canvas.Screen,0_0_9_1,,skipped,10,101996.89999997616,,,101995.89999997616,,101997,2021-10-20T16:11:32.093Z,102075.343,1634746180,full,ni_sequenzen,NI_Sequenzen,,,,,,,,,,,,,,
,Screen_3,canvas.Screen,0_0_9_2,,skipped,10,101998,,,101995.89999997616,,101998,2021-10-20T16:11:32.094Z,102075.343,1634746180,full,ni_sequenzen,NI_Sequenzen,,,,,,,,,,,,,,
,Screen_4,canvas.Screen,0_0_9_3,,skipped,10,101998.89999997616,,,101995.89999997616,,101998.89999997616,2021-10-20T16:11:32.094Z,102075.343,1634746180,full,ni_sequenzen,NI_Sequenzen,,,,,,,,,,,,,,
,Sequence,flow.Sequence,0_0_9,,completion,10,101994.19999998808,,,101995.89999997616,,101999.09999996424,2021-10-20T16:11:32.095Z,102075.343,1634746180,full,ni_sequenzen,NI_Sequenzen,,,,,,,,,,,,,,
,Screen_1,canvas.Screen,0_0_10_0,,skipped,11,102000.29999995232,,,102000.29999995232,,102000.39999997616,2021-10-20T16:11:32.096Z,102075.343,1634746180,full,ni_sequenzen,NI_Sequenzen,,,,,,,,,,,,,,
,Screen_2,canvas.Screen,0_0_10_1,,skipped,11,102001.29999995232,,,102000.29999995232,,102001.29999995232,2021-10-20T16:11:32.097Z,102075.343,1634746180,full,ni_sequenzen,NI_Sequenzen,,,,,,,,,,,,,,
,Screen_3,canvas.Screen,0_0_10_2,,skipped,11,102002.39999997616,,,102000.29999995232,,102002.5,2021-10-20T16:11:32.098Z,102075.343,1634746180,full,ni_sequenzen,NI_Sequenzen,,,,,,,,,,,,,,
,Screen_4,canvas.Screen,0_0_10_3,,skipped,11,102003.59999996424,,,102000.29999995232,,102003.69999998808,2021-10-20T16:11:32.099Z,102075.343,1634746180,full,ni_sequenzen,NI_Sequenzen,,,,,,,,,,,,,,
,Sequence,flow.Sequence,0_0_10,,completion,11,101999.39999997616,,,102000.29999995232,,102003.89999997616,2021-10-20T16:11:32.099Z,102075.343,1634746180,full,ni_sequenzen,NI_Sequenzen,,,,,,,,,,,,,,
,Screen_1,canvas.Screen,0_0_11_0,,skipped,12,102007.19999998808,,,102007.19999998808,,102007.39999997616,2021-10-20T16:11:32.103Z,102075.343,1634746180,full,ni_sequenzen,NI_Sequenzen,,,,,,,,,,,,,,
,Screen_2,canvas.Screen,0_0_11_1,,skipped,12,102008.69999998808,,,102007.19999998808,,102008.79999995232,2021-10-20T16:11:32.104Z,102075.343,1634746180,full,ni_sequenzen,NI_Sequenzen,,,,,,,,,,,,,,
,Screen_3,canvas.Screen,0_0_11_2,,skipped,12,102009.79999995232,,,102007.19999998808,,102009.89999997616,2021-10-20T16:11:32.105Z,102075.343,1634746180,full,ni_sequenzen,NI_Sequenzen,,,,,,,,,,,,,,
,Screen_4,canvas.Screen,0_0_11_3,,skipped,12,102010.79999995232,,,102007.19999998808,,102010.89999997616,2021-10-20T16:11:32.106Z,102075.343,1634746180,full,ni_sequenzen,NI_Sequenzen,,,,,,,,,,,,,,
,Sequence,flow.Sequence,0_0_11,,completion,12,102005,,,102007.19999998808,,102011,2021-10-20T16:11:32.107Z,102075.343,1634746180,full,ni_sequenzen,NI_Sequenzen,,,,,,,,,,,,,,
,Screen_1,canvas.Screen,0_0_12_0,,skipped,13,102012.39999997616,,,102012.39999997616,,102012.5,2021-10-20T16:11:32.108Z,102075.343,1634746180,full,ni_sequenzen,NI_Sequenzen,,,,,,,,,,,,,,
,Screen_2,canvas.Screen,0_0_12_1,,skipped,13,102014.39999997616,,,102012.39999997616,,102014.5,2021-10-20T16:11:32.110Z,102075.343,1634746180,full,ni_sequenzen,NI_Sequenzen,,,,,,,,,,,,,,
,Screen_3,canvas.Screen,0_0_12_2,,skipped,13,102015.59999996424,,,102012.39999997616,,102015.79999995232,2021-10-20T16:11:32.111Z,102075.343,1634746180,full,ni_sequenzen,NI_Sequenzen,,,,,,,,,,,,,,
,Screen_4,canvas.Screen,0_0_12_3,,skipped,13,102016.59999996424,,,102012.39999997616,,102016.69999998808,2021-10-20T16:11:32.112Z,102075.343,1634746180,full,ni_sequenzen,NI_Sequenzen,,,,,,,,,,,,,,
,Sequence,flow.Sequence,0_0_12,,completion,13,102011.5,,,102012.39999997616,,102016.79999995232,2021-10-20T16:11:32.112Z,102075.343,1634746180,full,ni_sequenzen,NI_Sequenzen,,,,,,,,,,,,,,
,Screen_1,canvas.Screen,0_0_13_0,,skipped,14,102018,,,102018,,102018.09999996424,2021-10-20T16:11:32.114Z,102075.343,1634746180,full,ni_sequenzen,NI_Sequenzen,,,,,,,,,,,,,,
,Screen_2,canvas.Screen,0_0_13_1,,skipped,14,102018.89999997616,,,102018,,102019,2021-10-20T16:11:32.115Z,102075.343,1634746180,full,ni_sequenzen,NI_Sequenzen,,,,,,,,,,,,,,
,Screen_3,canvas.Screen,0_0_13_2,,skipped,14,102019.79999995232,,,102018,,102019.89999997616,2021-10-20T16:11:32.115Z,102075.343,1634746180,full,ni_sequenzen,NI_Sequenzen,,,,,,,,,,,,,,
,Screen_4,canvas.Screen,0_0_13_3,,skipped,14,102020.89999997616,,,102018,,102021,2021-10-20T16:11:32.116Z,102075.343,1634746180,full,ni_sequenzen,NI_Sequenzen,,,,,,,,,,,,,,
,Sequence,flow.Sequence,0_0_13,,completion,14,102017.19999998808,,,102018,,102021.09999996424,2021-10-20T16:11:32.117Z,102075.343,1634746180,full,ni_sequenzen,NI_Sequenzen,,,,,,,,,,,,,,
,Screen_1,canvas.Screen,0_0_14_0,,skipped,15,102022.19999998808,,,102022.19999998808,,102022.29999995232,2021-10-20T16:11:32.118Z,102075.343,1634746180,full,ni_sequenzen,NI_Sequenzen,,,,,,,,,,,,,,
,Screen_2,canvas.Screen,0_0_14_1,,skipped,15,102023.09999996424,,,102022.19999998808,,102023.19999998808,2021-10-20T16:11:32.119Z,102075.343,1634746180,full,ni_sequenzen,NI_Sequenzen,,,,,,,,,,,,,,
,Screen_3,canvas.Screen,0_0_14_2,,skipped,15,102024.09999996424,,,102022.19999998808,,102024.09999996424,2021-10-20T16:11:32.120Z,102075.343,1634746180,full,ni_sequenzen,NI_Sequenzen,,,,,,,,,,,,,,
,Screen_4,canvas.Screen,0_0_14_3,,skipped,15,102025,,,102022.19999998808,,102025,2021-10-20T16:11:32.121Z,102075.343,1634746180,full,ni_sequenzen,NI_Sequenzen,,,,,,,,,,,,,,
,Sequence,flow.Sequence,0_0_14,,completion,15,102021.5,,,102022.19999998808,,102025.39999997616,2021-10-20T16:11:32.121Z,102075.343,1634746180,full,ni_sequenzen,NI_Sequenzen,,,,,,,,,,,,,,
,Screen_1,canvas.Screen,0_0_15_0,,skipped,16,102026.69999998808,,,102026.69999998808,,102026.69999998808,2021-10-20T16:11:32.122Z,102075.343,1634746180,full,ni_sequenzen,NI_Sequenzen,,,,,,,,,,,,,,
,Screen_2,canvas.Screen,0_0_15_1,,skipped,16,102029,,,102026.69999998808,,102029.19999998808,2021-10-20T16:11:32.125Z,102075.343,1634746180,full,ni_sequenzen,NI_Sequenzen,,,,,,,,,,,,,,
,Screen_3,canvas.Screen,0_0_15_2,,skipped,16,102031.79999995232,,,102026.69999998808,,102032,2021-10-20T16:11:32.127Z,102075.343,1634746180,full,ni_sequenzen,NI_Sequenzen,,,,,,,,,,,,,,
,Screen_4,canvas.Screen,0_0_15_3,,skipped,16,102033.5,,,102026.69999998808,,102033.59999996424,2021-10-20T16:11:32.129Z,102075.343,1634746180,full,ni_sequenzen,NI_Sequenzen,,,,,,,,,,,,,,
,Sequence,flow.Sequence,0_0_15,,completion,16,102025.79999995232,,,102026.69999998808,,102033.79999995232,2021-10-20T16:11:32.129Z,102075.343,1634746180,full,ni_sequenzen,NI_Sequenzen,,,,,,,,,,,,,,
,Screen_1,canvas.Screen,0_0_16_0,,skipped,17,102035.09999996424,,,102035.09999996424,,102035.19999998808,2021-10-20T16:11:32.131Z,102075.343,1634746180,full,ni_sequenzen,NI_Sequenzen,,,,,,,,,,,,,,
,Screen_2,canvas.Screen,0_0_16_1,,skipped,17,102036.19999998808,,,102035.09999996424,,102036.29999995232,2021-10-20T16:11:32.132Z,102075.343,1634746180,full,ni_sequenzen,NI_Sequenzen,,,,,,,,,,,,,,
,Screen_3,canvas.Screen,0_0_16_2,,skipped,17,102037.19999998808,,,102035.09999996424,,102037.29999995232,2021-10-20T16:11:32.133Z,102075.343,1634746180,full,ni_sequenzen,NI_Sequenzen,,,,,,,,,,,,,,
,Screen_4,canvas.Screen,0_0_16_3,,skipped,17,102038.29999995232,,,102035.09999996424,,102038.39999997616,2021-10-20T16:11:32.134Z,102075.343,1634746180,full,ni_sequenzen,NI_Sequenzen,,,,,,,,,,,,,,
,Sequence,flow.Sequence,0_0_16,,completion,17,102034.19999998808,,,102035.09999996424,,102038.5,2021-10-20T16:11:32.134Z,102075.343,1634746180,full,ni_sequenzen,NI_Sequenzen,,,,,,,,,,,,,,
,Screen_1,canvas.Screen,0_0_17_0,,skipped,18,102039.79999995232,,,102039.79999995232,,102039.79999995232,2021-10-20T16:11:32.135Z,102075.343,1634746180,full,ni_sequenzen,NI_Sequenzen,,,,,,,,,,,,,,
,Screen_2,canvas.Screen,0_0_17_1,,skipped,18,102040.79999995232,,,102039.79999995232,,102040.89999997616,2021-10-20T16:11:32.136Z,102075.343,1634746180,full,ni_sequenzen,NI_Sequenzen,,,,,,,,,,,,,,
,Screen_3,canvas.Screen,0_0_17_2,,skipped,18,102041.79999995232,,,102039.79999995232,,102041.89999997616,2021-10-20T16:11:32.137Z,102075.343,1634746180,full,ni_sequenzen,NI_Sequenzen,,,,,,,,,,,,,,
,Screen_4,canvas.Screen,0_0_17_3,,skipped,18,102043.39999997616,,,102039.79999995232,,102043.39999997616,2021-10-20T16:11:32.139Z,102075.343,1634746180,full,ni_sequenzen,NI_Sequenzen,,,,,,,,,,,,,,
,Sequence,flow.Sequence,0_0_17,,completion,18,102038.89999997616,,,102039.79999995232,,102043.5,2021-10-20T16:11:32.139Z,102075.343,1634746180,full,ni_sequenzen,NI_Sequenzen,,,,,,,,,,,,,,
,Screen_1,canvas.Screen,0_0_18_0,,skipped,19,102044.69999998808,,,102044.69999998808,,102044.69999998808,2021-10-20T16:11:32.140Z,102075.343,1634746180,full,ni_sequenzen,NI_Sequenzen,,,,,,,,,,,,,,
,Screen_2,canvas.Screen,0_0_18_1,,skipped,19,102045.59999996424,,,102044.69999998808,,102045.69999998808,2021-10-20T16:11:32.141Z,102075.343,1634746180,full,ni_sequenzen,NI_Sequenzen,,,,,,,,,,,,,,
,Screen_3,canvas.Screen,0_0_18_2,,skipped,19,102047.19999998808,,,102044.69999998808,,102047.29999995232,2021-10-20T16:11:32.143Z,102075.343,1634746180,full,ni_sequenzen,NI_Sequenzen,,,,,,,,,,,,,,
,Screen_4,canvas.Screen,0_0_18_3,,skipped,19,102048.19999998808,,,102044.69999998808,,102048.29999995232,2021-10-20T16:11:32.144Z,102075.343,1634746180,full,ni_sequenzen,NI_Sequenzen,,,,,,,,,,,,,,
,Sequence,flow.Sequence,0_0_18,,completion,19,102043.89999997616,,,102044.69999998808,,102048.39999997616,2021-10-20T16:11:32.144Z,102075.343,1634746180,full,ni_sequenzen,NI_Sequenzen,,,,,,,,,,,,,,
,Screen_1,canvas.Screen,0_0_19_0,,skipped,20,102049.5,,,102049.5,,102049.69999998808,2021-10-20T16:11:32.145Z,102075.343,1634746180,full,ni_sequenzen,NI_Sequenzen,,,,,,,,,,,,,,
,Screen_2,canvas.Screen,0_0_19_1,,skipped,20,102050.39999997616,,,102049.5,,102050.5,2021-10-20T16:11:32.146Z,102075.343,1634746180,full,ni_sequenzen,NI_Sequenzen,,,,,,,,,,,,,,
,Screen_3,canvas.Screen,0_0_19_2,,skipped,20,102051.29999995232,,,102049.5,,102051.39999997616,2021-10-20T16:11:32.147Z,102075.343,1634746180,full,ni_sequenzen,NI_Sequenzen,,,,,,,,,,,,,,
,Screen_4,canvas.Screen,0_0_19_3,,skipped,20,102052.39999997616,,,102049.5,,102052.5,2021-10-20T16:11:32.148Z,102075.343,1634746180,full,ni_sequenzen,NI_Sequenzen,,,,,,,,,,,,,,
,Sequence,flow.Sequence,0_0_19,,completion,20,102048.69999998808,,,102049.5,,102052.59999996424,2021-10-20T16:11:32.148Z,102075.343,1634746180,full,ni_sequenzen,NI_Sequenzen,,,,,,,,,,,,,,
,Instructions_I,flow.Loop,0_0,,completion,,1436.5,1507.211,1557.019,102049.5,100492.481,102052.69999998808,2021-10-20T16:11:32.148Z,102075.343,1634746180,full,ni_sequenzen,NI_Sequenzen,,,,,,,,,,,,,,
,Move,canvas.Screen,0_1_0_0,down,response,,102071.69999998808,102058.947,102075.343,105608.89999997616,3533.5569999761647,105609.79999995232,2021-10-20T16:11:35.705Z,105621.952,1634746180,full,ni_sequenzen,NI_Sequenzen,1,,,,,,,,,,,,,
,Move,canvas.Screen,0_1_0_1,left,response,,105614.69999998808,105605.227,105621.952,106006.59999996424,384.64799996423244,106007.5,2021-10-20T16:11:36.103Z,106021.613,1634746180,full,ni_sequenzen,NI_Sequenzen,2,,,,,,,,,,,,,
,Move,canvas.Screen,0_1_0_2,right,response,,106013.89999997616,106005.263,106021.613,107050.39999997616,1028.7869999761606,107051.29999995232,2021-10-20T16:11:37.147Z,107070.819,1634746180,full,ni_sequenzen,NI_Sequenzen,3,,,,,,,,,,,,,
,Move,canvas.Screen,0_1_0_3,left,response,,107054.5,107054.19,107070.819,107542,471.18099999999686,107542.89999997616,2021-10-20T16:11:37.638Z,107553.367,1634746180,full,ni_sequenzen,NI_Sequenzen,4,,,,,,,,,,,,,
,Move,canvas.Screen,0_1_0_4,down,response,,107546,107536.874,107553.367,108663.69999998808,1110.3329999880807,108664.5,2021-10-20T16:11:38.760Z,108701.529,1634746180,full,ni_sequenzen,NI_Sequenzen,5,,,,,,,,,,,,,
,Move,canvas.Screen,0_1_0_5,right,response,,108667.89999997616,108652.606,108701.529,109339.29999995232,637.7709999523213,109340.29999995232,2021-10-20T16:11:39.436Z,109351.688,1634746180,full,ni_sequenzen,NI_Sequenzen,6,,,,,,,,,,,,,
,Move,canvas.Screen,0_1_0_6,down,response,,109343.79999995232,109335.243,109351.688,109956.19999998808,604.5119999880844,109956.79999995232,2021-10-20T16:11:40.052Z,109967.716,1634746180,full,ni_sequenzen,NI_Sequenzen,7,,,,,,,,,,,,,
,Move,canvas.Screen,0_1_0_7,down,response,,109958.59999996424,109951.359,109967.716,110295,327.28399999999965,110295.89999997616,2021-10-20T16:11:40.391Z,110300.632,1634746180,full,ni_sequenzen,NI_Sequenzen,8,,,,,,,,,,,,,
,Move,canvas.Screen,0_1_0_8,right,response,,110299.19999998808,110284.347,110300.632,110966.89999997616,666.2679999761604,110967.59999996424,2021-10-20T16:11:41.058Z,110983.66,1634746180,full,ni_sequenzen,NI_Sequenzen,9,,,,,,,,,,,,,
,Move,canvas.Screen,0_1_0_9,right,response,,110969.19999998808,110966.841,110983.66,111309.69999998808,326.0399999880756,111310.59999996424,2021-10-20T16:11:41.401Z,111316.276,1634746180,full,ni_sequenzen,NI_Sequenzen,10,,,,,,,,,,,,,
,Move,canvas.Screen,0_1_0_10,down,response,,111313.79999995232,111299.727,111316.276,111843.29999995232,527.0239999523183,111844.19999998808,2021-10-20T16:11:41.935Z,111849.091,1634746180,full,ni_sequenzen,NI_Sequenzen,11,,,,,,,,,,,,,
,Move,canvas.Screen,0_1_0_11,down,response,,111847.5,111832.868,111849.091,112165.59999996424,316.50899996423686,112166.19999998808,2021-10-20T16:11:42.257Z,112182.096,1634746180,full,ni_sequenzen,NI_Sequenzen,12,,,,,,,,,,,,,
,Move,canvas.Screen,0_1_0_12,left,response,,112168.19999998808,112165.486,112182.096,112488.79999995232,306.7039999523113,112489.29999995232,2021-10-20T16:11:42.580Z,112498.488,1634746180,full,ni_sequenzen,NI_Sequenzen,13,,,,,,,,,,,,,
,Move,canvas.Screen,0_1_0_13,left,response,,112490.89999997616,112481.795,112498.488,114452.39999997616,1953.9119999761606,114453.29999995232,2021-10-20T16:11:44.544Z,114463.345,1634746180,full,ni_sequenzen,NI_Sequenzen,14,,,,,,,,,,,,,
,Move,canvas.Screen,0_1_0_14,down,response,,114456.09999996424,114446.566,114463.345,115029.89999997616,566.554999976157,115030.59999996424,2021-10-20T16:11:45.121Z,115045.992,1634746180,full,ni_sequenzen,NI_Sequenzen,15,,,,,,,,,,,,,
,Move,canvas.Screen,0_1_0_15,down,response,,115032.29999995232,115029.558,115045.992,115329.69999998808,283.7079999880807,115330.69999998808,2021-10-20T16:11:45.421Z,115345.703,1634746180,full,ni_sequenzen,NI_Sequenzen,16,,,,,,,,,,,,,
,Move,canvas.Screen,0_1_0_16,down,response,,115334,115329.388,115345.703,115610.69999998808,264.996999988085,115611.89999997616,2021-10-20T16:11:45.702Z,115628.927,1634746180,full,ni_sequenzen,NI_Sequenzen,17,,,,,,,,,,,,,
,Move,canvas.Screen,0_1_0_17,down,response,,115615.5,115612.449,115628.927,115883,254.07300000000396,115884.09999996424,2021-10-20T16:11:45.975Z,115895.278,1634746180,full,ni_sequenzen,NI_Sequenzen,18,,,,,,,,,,,,,
,Move,canvas.Screen,0_1_0_18,right,response,,115887.5,115878.751,115895.278,116245.59999996424,350.3219999642315,116246.09999996424,2021-10-20T16:11:46.337Z,116261.433,1634746180,full,ni_sequenzen,NI_Sequenzen,19,,,,,,,,,,,,,
,Move,canvas.Screen,0_1_0_19,left,response,,116248.19999998808,116245.052,116261.433,116725.59999996424,464.1669999642327,116726.5,2021-10-20T16:11:46.817Z,116744.301,1634746180,full,ni_sequenzen,NI_Sequenzen,20,,,,,,,,,,,,,
,Move,canvas.Screen,0_1_0_20,left,response,,116729.59999996424,116727.656,116744.301,117256.79999995232,512.4989999523095,117257.39999997616,2021-10-20T16:11:47.348Z,117292.966,1634746180,full,ni_sequenzen,NI_Sequenzen,21,,,,,,,,,,,,,
,Move,canvas.Screen,0_1_0_21,left,response,,117259.29999995232,117244.187,117292.966,117456.29999995232,163.33399995231593,117457.09999996424,2021-10-20T16:11:47.548Z,117477.312,1634746180,full,ni_sequenzen,NI_Sequenzen,22,,,,,,,,,,,,,
,Move,canvas.Screen,0_1_0_22,right,response,,117461.19999998808,117460.578,117477.312,119947.79999995232,2470.487999952311,119949,2021-10-20T16:11:50.040Z,119957.925,1634746180,full,ni_sequenzen,NI_Sequenzen,23,,,,,,,,,,,,,
,Move,canvas.Screen,0_1_0_23,down,response,,119952.19999998808,119941.803,119957.925,120880.59999996424,922.6749999642343,120881.69999998808,2021-10-20T16:11:50.972Z,120890.324,1634746180,full,ni_sequenzen,NI_Sequenzen,24,,,,,,,,,,,,,
,Move,canvas.Screen,0_1_0_24,right,response,,120886,120874.047,120890.324,121709.29999995232,818.975999952323,121710.39999997616,2021-10-20T16:11:51.801Z,121722.819,1634746180,full,ni_sequenzen,NI_Sequenzen,25,,,,,,,,,,,,,
,Move,canvas.Screen,0_1_0_25,down,response,,121713.5,121706.536,121722.819,122406.89999997616,684.080999976155,122407.79999995232,2021-10-20T16:11:52.498Z,122422.129,1634746180,full,ni_sequenzen,NI_Sequenzen,26,,,,,,,,,,,,,
,Move,canvas.Screen,0_1_0_26,right,response,,122410.89999997616,122405.709,122422.129,122740.09999996424,317.9709999642364,122741.59999996424,2021-10-20T16:11:52.832Z,122755.163,1634746180,full,ni_sequenzen,NI_Sequenzen,27,,,,,,,,,,,,,
,Move,canvas.Screen,0_1_0_27,down,response,,122745.59999996424,122738.889,122755.163,123040.39999997616,285.2369999761577,123041.5,2021-10-20T16:11:53.132Z,123055.079,1634746180,full,ni_sequenzen,NI_Sequenzen,28,,,,,,,,,,,,,
,Move,canvas.Screen,0_1_0_28,right,response,,123044.5,123038.473,123055.079,123320.29999995232,265.2209999523184,123320.89999997616,2021-10-20T16:11:53.411Z,123338.451,1634746180,full,ni_sequenzen,NI_Sequenzen,29,,,,,,,,,,,,,
,Move,canvas.Screen,0_1_0_29,down,response,,123322.29999995232,123321.24,123338.451,123562.29999995232,223.84899995231535,123563.29999995232,2021-10-20T16:11:53.654Z,123654.397,1634746180,full,ni_sequenzen,NI_Sequenzen,30,,,,,,,,,,,,,
,Loop,flow.Loop,0_1_0,-999,completion,,102068.39999997616,102058.947,102075.343,123562.29999995232,21486.956999952323,123563.59999996424,2021-10-20T16:11:53.654Z,123654.397,1634746180,full,ni_sequenzen,NI_Sequenzen,,,,,,,,,,,,,,
,Training_I,flow.Sequence,0_1,,completion,,102053.09999996424,102058.947,102075.343,123562.29999995232,21486.956999952323,123563.79999995232,2021-10-20T16:11:53.654Z,123654.397,1634746180,full,ni_sequenzen,NI_Sequenzen,,,,,,,,,,,,,,
,Screen_1,canvas.Screen,0_2_0_0,cont,response,1,123639.79999995232,123637.549,123654.397,151029.19999998808,27374.802999988082,151030.29999995232,2021-10-20T16:12:21.121Z,151127.325,1634746180,full,ni_sequenzen,NI_Sequenzen,,,,,,,,,,,,,,
,Screen_2,canvas.Screen,0_2_0_1,cont,response,1,151122.59999996424,151110.395,151127.325,164830.19999998808,13702.874999988067,164831.19999998808,2021-10-20T16:12:34.922Z,164847.272,1634746180,full,ni_sequenzen,NI_Sequenzen,,,,,,,,,,,,,,
,Screen_3,canvas.Screen,0_2_0_2,cont,response,1,164837,164830.463,164847.272,189013.79999995232,24166.52799995232,189014.5,2021-10-20T16:12:59.103Z,189106.842,1634746180,full,ni_sequenzen,NI_Sequenzen,,,,,,,,,,,,,,
,Screen_4,canvas.Screen,0_2_0_3,cont,response,1,189095.89999997616,189090.012,189106.842,209073.69999998808,19966.857999988075,209075,2021-10-20T16:13:19.163Z,209087.419,1634746180,full,ni_sequenzen,NI_Sequenzen,,,,,,,,,,,,,,
,Screen_5,canvas.Screen,0_2_0_4,cont,response,1,209079.59999996424,209070.238,209087.419,461971.2999999523,252883.88099995232,461972,2021-10-20T16:17:32.068Z,462156.346,1634746180,full,ni_sequenzen,NI_Sequenzen,,,,,,,,,,,,,,
,Screen_6,canvas.Screen,0_2_0_5,cont,response,1,462148.1999999881,462139.682,462156.346,485616.89999997616,23460.55399997614,485617.89999997616,2021-10-20T16:17:55.714Z,485866.619,1634746180,full,ni_sequenzen,NI_Sequenzen,,,,,,,,,,,,,,
,Sequence,flow.Sequence,0_2_0,,completion,1,123637.09999996424,123637.549,123654.397,485616.89999997616,361962.50299997616,485620.5,2021-10-20T16:17:55.717Z,485866.619,1634746180,full,ni_sequenzen,NI_Sequenzen,,,,,,,,,,,,,,
,Screen_1,canvas.Screen,0_2_1_0,,skipped,2,485623.5,,,485623.5,,485623.59999996424,2021-10-20T16:17:55.720Z,485866.619,1634746180,full,ni_sequenzen,NI_Sequenzen,,,,,,,,,,,,,,
,Screen_2,canvas.Screen,0_2_1_1,,skipped,2,485624.6999999881,,,485623.5,,485624.7999999523,2021-10-20T16:17:55.721Z,485866.619,1634746180,full,ni_sequenzen,NI_Sequenzen,,,,,,,,,,,,,,
,Screen_3,canvas.Screen,0_2_1_2,,skipped,2,485625.7999999523,,,485623.5,,485625.89999997616,2021-10-20T16:17:55.722Z,485866.619,1634746180,full,ni_sequenzen,NI_Sequenzen,,,,,,,,,,,,,,
,Screen_4,canvas.Screen,0_2_1_3,,skipped,2,485626.89999997616,,,485623.5,,485627,2021-10-20T16:17:55.723Z,485866.619,1634746180,full,ni_sequenzen,NI_Sequenzen,,,,,,,,,,,,,,
,Screen_5,canvas.Screen,0_2_1_4,,skipped,2,485627.89999997616,,,485623.5,,485628,2021-10-20T16:17:55.724Z,485866.619,1634746180,full,ni_sequenzen,NI_Sequenzen,,,,,,,,,,,,,,
,Screen_6,canvas.Screen,0_2_1_5,,skipped,2,485629.09999996424,,,485623.5,,485629.09999996424,2021-10-20T16:17:55.725Z,485866.619,1634746180,full,ni_sequenzen,NI_Sequenzen,,,,,,,,,,,,,,
,Sequence,flow.Sequence,0_2_1,,completion,2,485622.2999999523,,,485623.5,,485629.1999999881,2021-10-20T16:17:55.725Z,485866.619,1634746180,full,ni_sequenzen,NI_Sequenzen,,,,,,,,,,,,,,
,Screen_1,canvas.Screen,0_2_2_0,,skipped,3,485630.39999997616,,,485630.39999997616,,485630.5,2021-10-20T16:17:55.727Z,485866.619,1634746180,full,ni_sequenzen,NI_Sequenzen,,,,,,,,,,,,,,
,Screen_2,canvas.Screen,0_2_2_1,,skipped,3,485631.5,,,485630.39999997616,,485631.59999996424,2021-10-20T16:17:55.728Z,485866.619,1634746180,full,ni_sequenzen,NI_Sequenzen,,,,,,,,,,,,,,
,Screen_3,canvas.Screen,0_2_2_2,,skipped,3,485632.39999997616,,,485630.39999997616,,485632.5,2021-10-20T16:17:55.728Z,485866.619,1634746180,full,ni_sequenzen,NI_Sequenzen,,,,,,,,,,,,,,
,Screen_4,canvas.Screen,0_2_2_3,,skipped,3,485633.1999999881,,,485630.39999997616,,485633.2999999523,2021-10-20T16:17:55.729Z,485866.619,1634746180,full,ni_sequenzen,NI_Sequenzen,,,,,,,,,,,,,,
,Screen_5,canvas.Screen,0_2_2_4,,skipped,3,485634,,,485630.39999997616,,485634.1999999881,2021-10-20T16:17:55.730Z,485866.619,1634746180,full,ni_sequenzen,NI_Sequenzen,,,,,,,,,,,,,,
,Screen_6,canvas.Screen,0_2_2_5,,skipped,3,485635,,,485630.39999997616,,485635,2021-10-20T16:17:55.731Z,485866.619,1634746180,full,ni_sequenzen,NI_Sequenzen,,,,,,,,,,,,,,
,Sequence,flow.Sequence,0_2_2,,completion,3,485629.5,,,485630.39999997616,,485635.09999996424,2021-10-20T16:17:55.731Z,485866.619,1634746180,full,ni_sequenzen,NI_Sequenzen,,,,,,,,,,,,,,
,Screen_1,canvas.Screen,0_2_3_0,,skipped,4,485636.2999999523,,,485636.2999999523,,485636.2999999523,2021-10-20T16:17:55.732Z,485866.619,1634746180,full,ni_sequenzen,NI_Sequenzen,,,,,,,,,,,,,,
,Screen_2,canvas.Screen,0_2_3_1,,skipped,4,485638,,,485636.2999999523,,485638.09999996424,2021-10-20T16:17:55.734Z,485866.619,1634746180,full,ni_sequenzen,NI_Sequenzen,,,,,,,,,,,,,,
,Screen_3,canvas.Screen,0_2_3_2,,skipped,4,485638.89999997616,,,485636.2999999523,,485639,2021-10-20T16:17:55.735Z,485866.619,1634746180,full,ni_sequenzen,NI_Sequenzen,,,,,,,,,,,,,,
,Screen_4,canvas.Screen,0_2_3_3,,skipped,4,485639.6999999881,,,485636.2999999523,,485639.89999997616,2021-10-20T16:17:55.736Z,485866.619,1634746180,full,ni_sequenzen,NI_Sequenzen,,,,,,,,,,,,,,
,Screen_5,canvas.Screen,0_2_3_4,,skipped,4,485640.5,,,485636.2999999523,,485640.59999996424,2021-10-20T16:17:55.737Z,485866.619,1634746180,full,ni_sequenzen,NI_Sequenzen,,,,,,,,,,,,,,
,Screen_6,canvas.Screen,0_2_3_5,,skipped,4,485641.39999997616,,,485636.2999999523,,485641.59999996424,2021-10-20T16:17:55.738Z,485866.619,1634746180,full,ni_sequenzen,NI_Sequenzen,,,,,,,,,,,,,,
,Sequence,flow.Sequence,0_2_3,,completion,4,485635.5,,,485636.2999999523,,485641.6999999881,2021-10-20T16:17:55.738Z,485866.619,1634746180,full,ni_sequenzen,NI_Sequenzen,,,,,,,,,,,,,,
,Screen_1,canvas.Screen,0_2_4_0,,skipped,5,485642.7999999523,,,485642.7999999523,,485642.89999997616,2021-10-20T16:17:55.739Z,485866.619,1634746180,full,ni_sequenzen,NI_Sequenzen,,,,,,,,,,,,,,
,Screen_2,canvas.Screen,0_2_4_1,,skipped,5,485643.6999999881,,,485642.7999999523,,485643.7999999523,2021-10-20T16:17:55.740Z,485866.619,1634746180,full,ni_sequenzen,NI_Sequenzen,,,,,,,,,,,,,,
,Screen_3,canvas.Screen,0_2_4_2,,skipped,5,485644.59999996424,,,485642.7999999523,,485644.6999999881,2021-10-20T16:17:55.741Z,485866.619,1634746180,full,ni_sequenzen,NI_Sequenzen,,,,,,,,,,,,,,
,Screen_4,canvas.Screen,0_2_4_3,,skipped,5,485645.2999999523,,,485642.7999999523,,485645.5,2021-10-20T16:17:55.741Z,485866.619,1634746180,full,ni_sequenzen,NI_Sequenzen,,,,,,,,,,,,,,
,Screen_5,canvas.Screen,0_2_4_4,,skipped,5,485646.1999999881,,,485642.7999999523,,485646.1999999881,2021-10-20T16:17:55.742Z,485866.619,1634746180,full,ni_sequenzen,NI_Sequenzen,,,,,,,,,,,,,,
,Screen_6,canvas.Screen,0_2_4_5,,skipped,5,485647,,,485642.7999999523,,485647.09999996424,2021-10-20T16:17:55.743Z,485866.619,1634746180,full,ni_sequenzen,NI_Sequenzen,,,,,,,,,,,,,,
,Sequence,flow.Sequence,0_2_4,,completion,5,485642,,,485642.7999999523,,485647.2999999523,2021-10-20T16:17:55.743Z,485866.619,1634746180,full,ni_sequenzen,NI_Sequenzen,,,,,,,,,,,,,,
,Screen_1,canvas.Screen,0_2_5_0,,skipped,6,485648.39999997616,,,485648.39999997616,,485648.5,2021-10-20T16:17:55.744Z,485866.619,1634746180,full,ni_sequenzen,NI_Sequenzen,,,,,,,,,,,,,,
,Screen_2,canvas.Screen,0_2_5_1,,skipped,6,485649.1999999881,,,485648.39999997616,,485649.2999999523,2021-10-20T16:17:55.745Z,485866.619,1634746180,full,ni_sequenzen,NI_Sequenzen,,,,,,,,,,,,,,
,Screen_3,canvas.Screen,0_2_5_2,,skipped,6,485650.09999996424,,,485648.39999997616,,485650.1999999881,2021-10-20T16:17:55.746Z,485866.619,1634746180,full,ni_sequenzen,NI_Sequenzen,,,,,,,,,,,,,,
,Screen_4,canvas.Screen,0_2_5_3,,skipped,6,485651,,,485648.39999997616,,485651,2021-10-20T16:17:55.747Z,485866.619,1634746180,full,ni_sequenzen,NI_Sequenzen,,,,,,,,,,,,,,
,Screen_5,canvas.Screen,0_2_5_4,,skipped,6,485652.7999999523,,,485648.39999997616,,485653,2021-10-20T16:17:55.749Z,485866.619,1634746180,full,ni_sequenzen,NI_Sequenzen,,,,,,,,,,,,,,
,Screen_6,canvas.Screen,0_2_5_5,,skipped,6,485653.89999997616,,,485648.39999997616,,485653.89999997616,2021-10-20T16:17:55.750Z,485866.619,1634746180,full,ni_sequenzen,NI_Sequenzen,,,,,,,,,,,,,,
,Sequence,flow.Sequence,0_2_5,,completion,6,485647.5,,,485648.39999997616,,485654,2021-10-20T16:17:55.750Z,485866.619,1634746180,full,ni_sequenzen,NI_Sequenzen,,,,,,,,,,,,,,
,Screen_1,canvas.Screen,0_2_6_0,,skipped,7,485655.1999999881,,,485655.1999999881,,485655.1999999881,2021-10-20T16:17:55.751Z,485866.619,1634746180,full,ni_sequenzen,NI_Sequenzen,,,,,,,,,,,,,,
,Screen_2,canvas.Screen,0_2_6_1,,skipped,7,485656.1999999881,,,485655.1999999881,,485656.1999999881,2021-10-20T16:17:55.752Z,485866.619,1634746180,full,ni_sequenzen,NI_Sequenzen,,,,,,,,,,,,,,
,Screen_3,canvas.Screen,0_2_6_2,,skipped,7,485657.09999996424,,,485655.1999999881,,485657.1999999881,2021-10-20T16:17:55.753Z,485866.619,1634746180,full,ni_sequenzen,NI_Sequenzen,,,,,,,,,,,,,,
,Screen_4,canvas.Screen,0_2_6_3,,skipped,7,485657.89999997616,,,485655.1999999881,,485658,2021-10-20T16:17:55.754Z,485866.619,1634746180,full,ni_sequenzen,NI_Sequenzen,,,,,,,,,,,,,,
,Screen_5,canvas.Screen,0_2_6_4,,skipped,7,485658.7999999523,,,485655.1999999881,,485658.7999999523,2021-10-20T16:17:55.755Z,485866.619,1634746180,full,ni_sequenzen,NI_Sequenzen,,,,,,,,,,,,,,
,Screen_6,canvas.Screen,0_2_6_5,,skipped,7,485659.59999996424,,,485655.1999999881,,485659.59999996424,2021-10-20T16:17:55.756Z,485866.619,1634746180,full,ni_sequenzen,NI_Sequenzen,,,,,,,,,,,,,,
,Sequence,flow.Sequence,0_2_6,,completion,7,485654.39999997616,,,485655.1999999881,,485659.6999999881,2021-10-20T16:17:55.756Z,485866.619,1634746180,full,ni_sequenzen,NI_Sequenzen,,,,,,,,,,,,,,
,Screen_1,canvas.Screen,0_2_7_0,,skipped,8,485660.89999997616,,,485660.89999997616,,485660.89999997616,2021-10-20T16:17:55.757Z,485866.619,1634746180,full,ni_sequenzen,NI_Sequenzen,,,,,,,,,,,,,,
,Screen_2,canvas.Screen,0_2_7_1,,skipped,8,485661.7999999523,,,485660.89999997616,,485661.7999999523,2021-10-20T16:17:55.758Z,485866.619,1634746180,full,ni_sequenzen,NI_Sequenzen,,,,,,,,,,,,,,
,Screen_3,canvas.Screen,0_2_7_2,,skipped,8,485662.59999996424,,,485660.89999997616,,485662.6999999881,2021-10-20T16:17:55.759Z,485866.619,1634746180,full,ni_sequenzen,NI_Sequenzen,,,,,,,,,,,,,,
,Screen_4,canvas.Screen,0_2_7_3,,skipped,8,485663.39999997616,,,485660.89999997616,,485663.5,2021-10-20T16:17:55.760Z,485866.619,1634746180,full,ni_sequenzen,NI_Sequenzen,,,,,,,,,,,,,,
,Screen_5,canvas.Screen,0_2_7_4,,skipped,8,485664.2999999523,,,485660.89999997616,,485664.2999999523,2021-10-20T16:17:55.760Z,485866.619,1634746180,full,ni_sequenzen,NI_Sequenzen,,,,,,,,,,,,,,
,Screen_6,canvas.Screen,0_2_7_5,,skipped,8,485665.7999999523,,,485660.89999997616,,485665.89999997616,2021-10-20T16:17:55.762Z,485866.619,1634746180,full,ni_sequenzen,NI_Sequenzen,,,,,,,,,,,,,,
,Sequence,flow.Sequence,0_2_7,,completion,8,485660.09999996424,,,485660.89999997616,,485666.09999996424,2021-10-20T16:17:55.762Z,485866.619,1634746180,full,ni_sequenzen,NI_Sequenzen,,,,,,,,,,,,,,
,Screen_1,canvas.Screen,0_2_8_0,,skipped,9,485682.5,,,485682.5,,485682.6999999881,2021-10-20T16:17:55.779Z,485866.619,1634746180,full,ni_sequenzen,NI_Sequenzen,,,,,,,,,,,,,,
,Screen_2,canvas.Screen,0_2_8_1,,skipped,9,485684.1999999881,,,485682.5,,485684.2999999523,2021-10-20T16:17:55.780Z,485866.619,1634746180,full,ni_sequenzen,NI_Sequenzen,,,,,,,,,,,,,,
,Screen_3,canvas.Screen,0_2_8_2,,skipped,9,485685.2999999523,,,485682.5,,485685.39999997616,2021-10-20T16:17:55.781Z,485866.619,1634746180,full,ni_sequenzen,NI_Sequenzen,,,,,,,,,,,,,,
,Screen_4,canvas.Screen,0_2_8_3,,skipped,9,485686.1999999881,,,485682.5,,485686.1999999881,2021-10-20T16:17:55.782Z,485866.619,1634746180,full,ni_sequenzen,NI_Sequenzen,,,,,,,,,,,,,,
,Screen_5,canvas.Screen,0_2_8_4,,skipped,9,485687.09999996424,,,485682.5,,485687.1999999881,2021-10-20T16:17:55.783Z,485866.619,1634746180,full,ni_sequenzen,NI_Sequenzen,,,,,,,,,,,,,,
,Screen_6,canvas.Screen,0_2_8_5,,skipped,9,485688,,,485682.5,,485688.09999996424,2021-10-20T16:17:55.784Z,485866.619,1634746180,full,ni_sequenzen,NI_Sequenzen,,,,,,,,,,,,,,
,Sequence,flow.Sequence,0_2_8,,completion,9,485666.5,,,485682.5,,485688.1999999881,2021-10-20T16:17:55.784Z,485866.619,1634746180,full,ni_sequenzen,NI_Sequenzen,,,,,,,,,,,,,,
,Screen_1,canvas.Screen,0_2_9_0,,skipped,10,485689.2999999523,,,485689.2999999523,,485689.39999997616,2021-10-20T16:17:55.785Z,485866.619,1634746180,full,ni_sequenzen,NI_Sequenzen,,,,,,,,,,,,,,
,Screen_2,canvas.Screen,0_2_9_1,,skipped,10,485690.09999996424,,,485689.2999999523,,485690.1999999881,2021-10-20T16:17:55.786Z,485866.619,1634746180,full,ni_sequenzen,NI_Sequenzen,,,,,,,,,,,,,,
,Screen_3,canvas.Screen,0_2_9_2,,skipped,10,485691,,,485689.2999999523,,485691,2021-10-20T16:17:55.787Z,485866.619,1634746180,full,ni_sequenzen,NI_Sequenzen,,,,,,,,,,,,,,
,Screen_4,canvas.Screen,0_2_9_3,,skipped,10,485691.7999999523,,,485689.2999999523,,485691.89999997616,2021-10-20T16:17:55.788Z,485866.619,1634746180,full,ni_sequenzen,NI_Sequenzen,,,,,,,,,,,,,,
,Screen_5,canvas.Screen,0_2_9_4,,skipped,10,485693.09999996424,,,485689.2999999523,,485693.1999999881,2021-10-20T16:17:55.789Z,485866.619,1634746180,full,ni_sequenzen,NI_Sequenzen,,,,,,,,,,,,,,
,Screen_6,canvas.Screen,0_2_9_5,,skipped,10,485694.09999996424,,,485689.2999999523,,485694.2999999523,2021-10-20T16:17:55.790Z,485866.619,1634746180,full,ni_sequenzen,NI_Sequenzen,,,,,,,,,,,,,,
,Sequence,flow.Sequence,0_2_9,,completion,10,485688.59999996424,,,485689.2999999523,,485694.5,2021-10-20T16:17:55.790Z,485866.619,1634746180,full,ni_sequenzen,NI_Sequenzen,,,,,,,,,,,,,,
,Screen_1,canvas.Screen,0_2_10_0,,skipped,11,485695.59999996424,,,485695.59999996424,,485695.6999999881,2021-10-20T16:17:55.792Z,485866.619,1634746180,full,ni_sequenzen,NI_Sequenzen,,,,,,,,,,,,,,
,Screen_2,canvas.Screen,0_2_10_1,,skipped,11,485696.39999997616,,,485695.59999996424,,485696.5,2021-10-20T16:17:55.793Z,485866.619,1634746180,full,ni_sequenzen,NI_Sequenzen,,,,,,,,,,,,,,
,Screen_3,canvas.Screen,0_2_10_2,,skipped,11,485697.89999997616,,,485695.59999996424,,485698,2021-10-20T16:17:55.794Z,485866.619,1634746180,full,ni_sequenzen,NI_Sequenzen,,,,,,,,,,,,,,
,Screen_4,canvas.Screen,0_2_10_3,,skipped,11,485698.89999997616,,,485695.59999996424,,485699.09999996424,2021-10-20T16:17:55.795Z,485866.619,1634746180,full,ni_sequenzen,NI_Sequenzen,,,,,,,,,,,,,,
,Screen_5,canvas.Screen,0_2_10_4,,skipped,11,485699.7999999523,,,485695.59999996424,,485699.89999997616,2021-10-20T16:17:55.796Z,485866.619,1634746180,full,ni_sequenzen,NI_Sequenzen,,,,,,,,,,,,,,
,Screen_6,canvas.Screen,0_2_10_5,,skipped,11,485700.6999999881,,,485695.59999996424,,485700.7999999523,2021-10-20T16:17:55.797Z,485866.619,1634746180,full,ni_sequenzen,NI_Sequenzen,,,,,,,,,,,,,,
,Sequence,flow.Sequence,0_2_10,,completion,11,485694.7999999523,,,485695.59999996424,,485700.89999997616,2021-10-20T16:17:55.797Z,485866.619,1634746180,full,ni_sequenzen,NI_Sequenzen,,,,,,,,,,,,,,
,Screen_1,canvas.Screen,0_2_11_0,,skipped,12,485702,,,485702,,485702.09999996424,2021-10-20T16:17:55.798Z,485866.619,1634746180,full,ni_sequenzen,NI_Sequenzen,,,,,,,,,,,,,,
,Screen_2,canvas.Screen,0_2_11_1,,skipped,12,485703.1999999881,,,485702,,485703.1999999881,2021-10-20T16:17:55.799Z,485866.619,1634746180,full,ni_sequenzen,NI_Sequenzen,,,,,,,,,,,,,,
,Screen_3,canvas.Screen,0_2_11_2,,skipped,12,485704,,,485702,,485704,2021-10-20T16:17:55.800Z,485866.619,1634746180,full,ni_sequenzen,NI_Sequenzen,,,,,,,,,,,,,,
,Screen_4,canvas.Screen,0_2_11_3,,skipped,12,485704.89999997616,,,485702,,485705,2021-10-20T16:17:55.801Z,485866.619,1634746180,full,ni_sequenzen,NI_Sequenzen,,,,,,,,,,,,,,
,Screen_5,canvas.Screen,0_2_11_4,,skipped,12,485705.6999999881,,,485702,,485705.6999999881,2021-10-20T16:17:55.802Z,485866.619,1634746180,full,ni_sequenzen,NI_Sequenzen,,,,,,,,,,,,,,
,Screen_6,canvas.Screen,0_2_11_5,,skipped,12,485706.5,,,485702,,485706.59999996424,2021-10-20T16:17:55.803Z,485866.619,1634746180,full,ni_sequenzen,NI_Sequenzen,,,,,,,,,,,,,,
,Sequence,flow.Sequence,0_2_11,,completion,12,485701.1999999881,,,485702,,485706.6999999881,2021-10-20T16:17:55.803Z,485866.619,1634746180,full,ni_sequenzen,NI_Sequenzen,,,,,,,,,,,,,,
,Screen_1,canvas.Screen,0_2_12_0,,skipped,13,485707.7999999523,,,485707.7999999523,,485707.89999997616,2021-10-20T16:17:55.804Z,485866.619,1634746180,full,ni_sequenzen,NI_Sequenzen,,,,,,,,,,,,,,
,Screen_2,canvas.Screen,0_2_12_1,,skipped,13,485708.7999999523,,,485707.7999999523,,485709,2021-10-20T16:17:55.805Z,485866.619,1634746180,full,ni_sequenzen,NI_Sequenzen,,,,,,,,,,,,,,
,Screen_3,canvas.Screen,0_2_12_2,,skipped,13,485710.2999999523,,,485707.7999999523,,485710.39999997616,2021-10-20T16:17:55.806Z,485866.619,1634746180,full,ni_sequenzen,NI_Sequenzen,,,,,,,,,,,,,,
,Screen_4,canvas.Screen,0_2_12_3,,skipped,13,485712.09999996424,,,485707.7999999523,,485712.1999999881,2021-10-20T16:17:55.808Z,485866.619,1634746180,full,ni_sequenzen,NI_Sequenzen,,,,,,,,,,,,,,
,Screen_5,canvas.Screen,0_2_12_4,,skipped,13,485713,,,485707.7999999523,,485713.09999996424,2021-10-20T16:17:55.809Z,485866.619,1634746180,full,ni_sequenzen,NI_Sequenzen,,,,,,,,,,,,,,
,Screen_6,canvas.Screen,0_2_12_5,,skipped,13,485713.7999999523,,,485707.7999999523,,485714,2021-10-20T16:17:55.810Z,485866.619,1634746180,full,ni_sequenzen,NI_Sequenzen,,,,,,,,,,,,,,
,Sequence,flow.Sequence,0_2_12,,completion,13,485707,,,485707.7999999523,,485714,2021-10-20T16:17:55.810Z,485866.619,1634746180,full,ni_sequenzen,NI_Sequenzen,,,,,,,,,,,,,,
,Screen_1,canvas.Screen,0_2_13_0,,skipped,14,485715.1999999881,,,485715.1999999881,,485715.1999999881,2021-10-20T16:17:55.811Z,485866.619,1634746180,full,ni_sequenzen,NI_Sequenzen,,,,,,,,,,,,,,
,Screen_2,canvas.Screen,0_2_13_1,,skipped,14,485716,,,485715.1999999881,,485716.09999996424,2021-10-20T16:17:55.812Z,485866.619,1634746180,full,ni_sequenzen,NI_Sequenzen,,,,,,,,,,,,,,
,Screen_3,canvas.Screen,0_2_13_2,,skipped,14,485716.7999999523,,,485715.1999999881,,485716.89999997616,2021-10-20T16:17:55.813Z,485866.619,1634746180,full,ni_sequenzen,NI_Sequenzen,,,,,,,,,,,,,,
,Screen_4,canvas.Screen,0_2_13_3,,skipped,14,485717.6999999881,,,485715.1999999881,,485717.6999999881,2021-10-20T16:17:55.814Z,485866.619,1634746180,full,ni_sequenzen,NI_Sequenzen,,,,,,,,,,,,,,
,Screen_5,canvas.Screen,0_2_13_4,,skipped,14,485718.6999999881,,,485715.1999999881,,485718.7999999523,2021-10-20T16:17:55.815Z,485866.619,1634746180,full,ni_sequenzen,NI_Sequenzen,,,,,,,,,,,,,,
,Screen_6,canvas.Screen,0_2_13_5,,skipped,14,485719.59999996424,,,485715.1999999881,,485719.6999999881,2021-10-20T16:17:55.816Z,485866.619,1634746180,full,ni_sequenzen,NI_Sequenzen,,,,,,,,,,,,,,
,Sequence,flow.Sequence,0_2_13,,completion,14,485714.39999997616,,,485715.1999999881,,485719.89999997616,2021-10-20T16:17:55.816Z,485866.619,1634746180,full,ni_sequenzen,NI_Sequenzen,,,,,,,,,,,,,,
,Screen_1,canvas.Screen,0_2_14_0,,skipped,15,485720.89999997616,,,485720.89999997616,,485721,2021-10-20T16:17:55.817Z,485866.619,1634746180,full,ni_sequenzen,NI_Sequenzen,,,,,,,,,,,,,,
,Screen_2,canvas.Screen,0_2_14_1,,skipped,15,485721.7999999523,,,485720.89999997616,,485721.7999999523,2021-10-20T16:17:55.818Z,485866.619,1634746180,full,ni_sequenzen,NI_Sequenzen,,,,,,,,,,,,,,
,Screen_3,canvas.Screen,0_2_14_2,,skipped,15,485722.59999996424,,,485720.89999997616,,485722.6999999881,2021-10-20T16:17:55.819Z,485866.619,1634746180,full,ni_sequenzen,NI_Sequenzen,,,,,,,,,,,,,,
,Screen_4,canvas.Screen,0_2_14_3,,skipped,15,485723.39999997616,,,485720.89999997616,,485723.5,2021-10-20T16:17:55.820Z,485866.619,1634746180,full,ni_sequenzen,NI_Sequenzen,,,,,,,,,,,,,,
,Screen_5,canvas.Screen,0_2_14_4,,skipped,15,485724.2999999523,,,485720.89999997616,,485724.39999997616,2021-10-20T16:17:55.820Z,485866.619,1634746180,full,ni_sequenzen,NI_Sequenzen,,,,,,,,,,,,,,
,Screen_6,canvas.Screen,0_2_14_5,,skipped,15,485726,,,485720.89999997616,,485726.09999996424,2021-10-20T16:17:55.822Z,485866.619,1634746180,full,ni_sequenzen,NI_Sequenzen,,,,,,,,,,,,,,
,Sequence,flow.Sequence,0_2_14,,completion,15,485720.1999999881,,,485720.89999997616,,485726.5,2021-10-20T16:17:55.823Z,485866.619,1634746180,full,ni_sequenzen,NI_Sequenzen,,,,,,,,,,,,,,
,Screen_1,canvas.Screen,0_2_15_0,,skipped,16,485727.6999999881,,,485727.6999999881,,485727.6999999881,2021-10-20T16:17:55.824Z,485866.619,1634746180,full,ni_sequenzen,NI_Sequenzen,,,,,,,,,,,,,,
,Screen_2,canvas.Screen,0_2_15_1,,skipped,16,485728.5,,,485727.6999999881,,485728.59999996424,2021-10-20T16:17:55.825Z,485866.619,1634746180,full,ni_sequenzen,NI_Sequenzen,,,,,,,,,,,,,,
,Screen_3,canvas.Screen,0_2_15_2,,skipped,16,485729.5,,,485727.6999999881,,485729.5,2021-10-20T16:17:55.826Z,485866.619,1634746180,full,ni_sequenzen,NI_Sequenzen,,,,,,,,,,,,,,
,Screen_4,canvas.Screen,0_2_15_3,,skipped,16,485730.1999999881,,,485727.6999999881,,485730.2999999523,2021-10-20T16:17:55.826Z,485866.619,1634746180,full,ni_sequenzen,NI_Sequenzen,,,,,,,,,,,,,,
,Screen_5,canvas.Screen,0_2_15_4,,skipped,16,485731.09999996424,,,485727.6999999881,,485731.1999999881,2021-10-20T16:17:55.827Z,485866.619,1634746180,full,ni_sequenzen,NI_Sequenzen,,,,,,,,,,,,,,
,Screen_6,canvas.Screen,0_2_15_5,,skipped,16,485731.89999997616,,,485727.6999999881,,485732,2021-10-20T16:17:55.828Z,485866.619,1634746180,full,ni_sequenzen,NI_Sequenzen,,,,,,,,,,,,,,
,Sequence,flow.Sequence,0_2_15,,completion,16,485726.7999999523,,,485727.6999999881,,485732.1999999881,2021-10-20T16:17:55.828Z,485866.619,1634746180,full,ni_sequenzen,NI_Sequenzen,,,,,,,,,,,,,,
,Screen_1,canvas.Screen,0_2_16_0,,skipped,17,485733.2999999523,,,485733.2999999523,,485733.39999997616,2021-10-20T16:17:55.829Z,485866.619,1634746180,full,ni_sequenzen,NI_Sequenzen,,,,,,,,,,,,,,
,Screen_2,canvas.Screen,0_2_16_1,,skipped,17,485734.2999999523,,,485733.2999999523,,485734.2999999523,2021-10-20T16:17:55.830Z,485866.619,1634746180,full,ni_sequenzen,NI_Sequenzen,,,,,,,,,,,,,,
,Screen_3,canvas.Screen,0_2_16_2,,skipped,17,485735.5,,,485733.2999999523,,485735.59999996424,2021-10-20T16:17:55.832Z,485866.619,1634746180,full,ni_sequenzen,NI_Sequenzen,,,,,,,,,,,,,,
,Screen_4,canvas.Screen,0_2_16_3,,skipped,17,485736.39999997616,,,485733.2999999523,,485736.5,2021-10-20T16:17:55.832Z,485866.619,1634746180,full,ni_sequenzen,NI_Sequenzen,,,,,,,,,,,,,,
,Screen_5,canvas.Screen,0_2_16_4,,skipped,17,485737.39999997616,,,485733.2999999523,,485737.5,2021-10-20T16:17:55.834Z,485866.619,1634746180,full,ni_sequenzen,NI_Sequenzen,,,,,,,,,,,,,,
,Screen_6,canvas.Screen,0_2_16_5,,skipped,17,485738.59999996424,,,485733.2999999523,,485738.59999996424,2021-10-20T16:17:55.835Z,485866.619,1634746180,full,ni_sequenzen,NI_Sequenzen,,,,,,,,,,,,,,
,Sequence,flow.Sequence,0_2_16,,completion,17,485732.5,,,485733.2999999523,,485738.6999999881,2021-10-20T16:17:55.835Z,485866.619,1634746180,full,ni_sequenzen,NI_Sequenzen,,,,,,,,,,,,,,
,Screen_1,canvas.Screen,0_2_17_0,,skipped,18,485740.7999999523,,,485740.89999997616,,485741,2021-10-20T16:17:55.837Z,485866.619,1634746180,full,ni_sequenzen,NI_Sequenzen,,,,,,,,,,,,,,
,Screen_2,canvas.Screen,0_2_17_1,,skipped,18,485741.7999999523,,,485740.89999997616,,485741.89999997616,2021-10-20T16:17:55.838Z,485866.619,1634746180,full,ni_sequenzen,NI_Sequenzen,,,,,,,,,,,,,,
,Screen_3,canvas.Screen,0_2_17_2,,skipped,18,485742.6999999881,,,485740.89999997616,,485742.6999999881,2021-10-20T16:17:55.839Z,485866.619,1634746180,full,ni_sequenzen,NI_Sequenzen,,,,,,,,,,,,,,
,Screen_4,canvas.Screen,0_2_17_3,,skipped,18,485743.5,,,485740.89999997616,,485743.59999996424,2021-10-20T16:17:55.840Z,485866.619,1634746180,full,ni_sequenzen,NI_Sequenzen,,,,,,,,,,,,,,
,Screen_5,canvas.Screen,0_2_17_4,,skipped,18,485744.39999997616,,,485740.89999997616,,485744.39999997616,2021-10-20T16:17:55.840Z,485866.619,1634746180,full,ni_sequenzen,NI_Sequenzen,,,,,,,,,,,,,,
,Screen_6,canvas.Screen,0_2_17_5,,skipped,18,485745.1999999881,,,485740.89999997616,,485745.2999999523,2021-10-20T16:17:55.841Z,485866.619,1634746180,full,ni_sequenzen,NI_Sequenzen,,,,,,,,,,,,,,
,Sequence,flow.Sequence,0_2_17,,completion,18,485739.09999996424,,,485740.89999997616,,485745.39999997616,2021-10-20T16:17:55.841Z,485866.619,1634746180,full,ni_sequenzen,NI_Sequenzen,,,,,,,,,,,,,,
,Screen_1,canvas.Screen,0_2_18_0,,skipped,19,485746.7999999523,,,485746.7999999523,,485746.7999999523,2021-10-20T16:17:55.843Z,485866.619,1634746180,full,ni_sequenzen,NI_Sequenzen,,,,,,,,,,,,,,
,Screen_2,canvas.Screen,0_2_18_1,,skipped,19,485747.59999996424,,,485746.7999999523,,485747.6999999881,2021-10-20T16:17:55.844Z,485866.619,1634746180,full,ni_sequenzen,NI_Sequenzen,,,,,,,,,,,,,,
,Screen_3,canvas.Screen,0_2_18_2,,skipped,19,485748.39999997616,,,485746.7999999523,,485748.5,2021-10-20T16:17:55.845Z,485866.619,1634746180,full,ni_sequenzen,NI_Sequenzen,,,,,,,,,,,,,,
,Screen_4,canvas.Screen,0_2_18_3,,skipped,19,485749.2999999523,,,485746.7999999523,,485749.39999997616,2021-10-20T16:17:55.845Z,485866.619,1634746180,full,ni_sequenzen,NI_Sequenzen,,,,,,,,,,,,,,
,Screen_5,canvas.Screen,0_2_18_4,,skipped,19,485750.09999996424,,,485746.7999999523,,485750.2999999523,2021-10-20T16:17:55.846Z,485866.619,1634746180,full,ni_sequenzen,NI_Sequenzen,,,,,,,,,,,,,,
,Screen_6,canvas.Screen,0_2_18_5,,skipped,19,485751,,,485746.7999999523,,485751.09999996424,2021-10-20T16:17:55.847Z,485866.619,1634746180,full,ni_sequenzen,NI_Sequenzen,,,,,,,,,,,,,,
,Sequence,flow.Sequence,0_2_18,,completion,19,485745.89999997616,,,485746.7999999523,,485751.1999999881,2021-10-20T16:17:55.847Z,485866.619,1634746180,full,ni_sequenzen,NI_Sequenzen,,,,,,,,,,,,,,
,Screen_1,canvas.Screen,0_2_19_0,,skipped,20,485752.39999997616,,,485752.39999997616,,485752.5,2021-10-20T16:17:55.848Z,485866.619,1634746180,full,ni_sequenzen,NI_Sequenzen,,,,,,,,,,,,,,
,Screen_2,canvas.Screen,0_2_19_1,,skipped,20,485753.89999997616,,,485752.39999997616,,485753.89999997616,2021-10-20T16:17:55.850Z,485866.619,1634746180,full,ni_sequenzen,NI_Sequenzen,,,,,,,,,,,,,,
,Screen_3,canvas.Screen,0_2_19_2,,skipped,20,485754.89999997616,,,485752.39999997616,,485755,2021-10-20T16:17:55.851Z,485866.619,1634746180,full,ni_sequenzen,NI_Sequenzen,,,,,,,,,,,,,,
,Screen_4,canvas.Screen,0_2_19_3,,skipped,20,485755.6999999881,,,485752.39999997616,,485755.6999999881,2021-10-20T16:17:55.852Z,485866.619,1634746180,full,ni_sequenzen,NI_Sequenzen,,,,,,,,,,,,,,
,Screen_5,canvas.Screen,0_2_19_4,,skipped,20,485756.5,,,485752.39999997616,,485756.59999996424,2021-10-20T16:17:55.853Z,485866.619,1634746180,full,ni_sequenzen,NI_Sequenzen,,,,,,,,,,,,,,
,Screen_6,canvas.Screen,0_2_19_5,,skipped,20,485757.2999999523,,,485752.39999997616,,485757.39999997616,2021-10-20T16:17:55.853Z,485866.619,1634746180,full,ni_sequenzen,NI_Sequenzen,,,,,,,,,,,,,,
,Sequence,flow.Sequence,0_2_19,,completion,20,485751.5,,,485752.39999997616,,485757.59999996424,2021-10-20T16:17:55.854Z,485866.619,1634746180,full,ni_sequenzen,NI_Sequenzen,,,,,,,,,,,,,,
,Screen_1,canvas.Screen,0_2_20_0,,skipped,21,485758.6999999881,,,485758.6999999881,,485758.7999999523,2021-10-20T16:17:55.855Z,485866.619,1634746180,full,ni_sequenzen,NI_Sequenzen,,,,,,,,,,,,,,
,Screen_2,canvas.Screen,0_2_20_1,,skipped,21,485759.59999996424,,,485758.6999999881,,485759.59999996424,2021-10-20T16:17:55.856Z,485866.619,1634746180,full,ni_sequenzen,NI_Sequenzen,,,,,,,,,,,,,,
,Screen_3,canvas.Screen,0_2_20_2,,skipped,21,485760.39999997616,,,485758.6999999881,,485760.39999997616,2021-10-20T16:17:55.856Z,485866.619,1634746180,full,ni_sequenzen,NI_Sequenzen,,,,,,,,,,,,,,
,Screen_4,canvas.Screen,0_2_20_3,,skipped,21,485761.1999999881,,,485758.6999999881,,485761.2999999523,2021-10-20T16:17:55.857Z,485866.619,1634746180,full,ni_sequenzen,NI_Sequenzen,,,,,,,,,,,,,,
,Screen_5,canvas.Screen,0_2_20_4,,skipped,21,485762,,,485758.6999999881,,485762,2021-10-20T16:17:55.858Z,485866.619,1634746180,full,ni_sequenzen,NI_Sequenzen,,,,,,,,,,,,,,
,Screen_6,canvas.Screen,0_2_20_5,,skipped,21,485762.7999999523,,,485758.6999999881,,485762.89999997616,2021-10-20T16:17:55.859Z,485866.619,1634746180,full,ni_sequenzen,NI_Sequenzen,,,,,,,,,,,,,,
,Sequence,flow.Sequence,0_2_20,,completion,21,485757.89999997616,,,485758.6999999881,,485763,2021-10-20T16:17:55.859Z,485866.619,1634746180,full,ni_sequenzen,NI_Sequenzen,,,,,,,,,,,,,,
,Screen_1,canvas.Screen,0_2_21_0,,skipped,22,485764.1999999881,,,485764.1999999881,,485764.1999999881,2021-10-20T16:17:55.860Z,485866.619,1634746180,full,ni_sequenzen,NI_Sequenzen,,,,,,,,,,,,,,
,Screen_2,canvas.Screen,0_2_21_1,,skipped,22,485765.09999996424,,,485764.1999999881,,485765.1999999881,2021-10-20T16:17:55.861Z,485866.619,1634746180,full,ni_sequenzen,NI_Sequenzen,,,,,,,,,,,,,,
,Screen_3,canvas.Screen,0_2_21_2,,skipped,22,485766,,,485764.1999999881,,485766.09999996424,2021-10-20T16:17:55.862Z,485866.619,1634746180,full,ni_sequenzen,NI_Sequenzen,,,,,,,,,,,,,,
,Screen_4,canvas.Screen,0_2_21_3,,skipped,22,485767.59999996424,,,485764.1999999881,,485767.6999999881,2021-10-20T16:17:55.864Z,485866.619,1634746180,full,ni_sequenzen,NI_Sequenzen,,,,,,,,,,,,,,
,Screen_5,canvas.Screen,0_2_21_4,,skipped,22,485769.1999999881,,,485764.1999999881,,485769.2999999523,2021-10-20T16:17:55.865Z,485866.619,1634746180,full,ni_sequenzen,NI_Sequenzen,,,,,,,,,,,,,,
,Screen_6,canvas.Screen,0_2_21_5,,skipped,22,485770.1999999881,,,485764.1999999881,,485770.1999999881,2021-10-20T16:17:55.866Z,485866.619,1634746180,full,ni_sequenzen,NI_Sequenzen,,,,,,,,,,,,,,
,Sequence,flow.Sequence,0_2_21,,completion,22,485763.39999997616,,,485764.1999999881,,485770.39999997616,2021-10-20T16:17:55.866Z,485866.619,1634746180,full,ni_sequenzen,NI_Sequenzen,,,,,,,,,,,,,,
,Screen_1,canvas.Screen,0_2_22_0,,skipped,23,485771.59999996424,,,485771.6999999881,,485771.6999999881,2021-10-20T16:17:55.868Z,485866.619,1634746180,full,ni_sequenzen,NI_Sequenzen,,,,,,,,,,,,,,
,Screen_2,canvas.Screen,0_2_22_1,,skipped,23,485772.5,,,485771.6999999881,,485772.6999999881,2021-10-20T16:17:55.869Z,485866.619,1634746180,full,ni_sequenzen,NI_Sequenzen,,,,,,,,,,,,,,
,Screen_3,canvas.Screen,0_2_22_2,,skipped,23,485773.7999999523,,,485771.6999999881,,485774,2021-10-20T16:17:55.870Z,485866.619,1634746180,full,ni_sequenzen,NI_Sequenzen,,,,,,,,,,,,,,
,Screen_4,canvas.Screen,0_2_22_3,,skipped,23,485775,,,485771.6999999881,,485775.39999997616,2021-10-20T16:17:55.871Z,485866.619,1634746180,full,ni_sequenzen,NI_Sequenzen,,,,,,,,,,,,,,
,Screen_5,canvas.Screen,0_2_22_4,,skipped,23,485776.09999996424,,,485771.6999999881,,485776.2999999523,2021-10-20T16:17:55.872Z,485866.619,1634746180,full,ni_sequenzen,NI_Sequenzen,,,,,,,,,,,,,,
,Screen_6,canvas.Screen,0_2_22_5,,skipped,23,485777,,,485771.6999999881,,485777.09999996424,2021-10-20T16:17:55.873Z,485866.619,1634746180,full,ni_sequenzen,NI_Sequenzen,,,,,,,,,,,,,,
,Sequence,flow.Sequence,0_2_22,,completion,23,485770.6999999881,,,485771.6999999881,,485777.1999999881,2021-10-20T16:17:55.873Z,485866.619,1634746180,full,ni_sequenzen,NI_Sequenzen,,,,,,,,,,,,,,
,Screen_1,canvas.Screen,0_2_23_0,,skipped,24,485778.39999997616,,,485778.39999997616,,485778.39999997616,2021-10-20T16:17:55.874Z,485866.619,1634746180,full,ni_sequenzen,NI_Sequenzen,,,,,,,,,,,,,,
,Screen_2,canvas.Screen,0_2_23_1,,skipped,24,485779.1999999881,,,485778.39999997616,,485779.2999999523,2021-10-20T16:17:55.875Z,485866.619,1634746180,full,ni_sequenzen,NI_Sequenzen,,,,,,,,,,,,,,
,Screen_3,canvas.Screen,0_2_23_2,,skipped,24,485780,,,485778.39999997616,,485780.09999996424,2021-10-20T16:17:55.876Z,485866.619,1634746180,full,ni_sequenzen,NI_Sequenzen,,,,,,,,,,,,,,
,Screen_4,canvas.Screen,0_2_23_3,,skipped,24,485781,,,485778.39999997616,,485781.09999996424,2021-10-20T16:17:55.877Z,485866.619,1634746180,full,ni_sequenzen,NI_Sequenzen,,,,,,,,,,,,,,
,Screen_5,canvas.Screen,0_2_23_4,,skipped,24,485781.89999997616,,,485778.39999997616,,485782,2021-10-20T16:17:55.878Z,485866.619,1634746180,full,ni_sequenzen,NI_Sequenzen,,,,,,,,,,,,,,
,Screen_6,canvas.Screen,0_2_23_5,,skipped,24,485782.7999999523,,,485778.39999997616,,485782.89999997616,2021-10-20T16:17:55.879Z,485866.619,1634746180,full,ni_sequenzen,NI_Sequenzen,,,,,,,,,,,,,,
,Sequence,flow.Sequence,0_2_23,,completion,24,485777.5,,,485778.39999997616,,485782.89999997616,2021-10-20T16:17:55.879Z,485866.619,1634746180,full,ni_sequenzen,NI_Sequenzen,,,,,,,,,,,,,,
,Screen_1,canvas.Screen,0_2_24_0,,skipped,25,485784.09999996424,,,485784.09999996424,,485784.1999999881,2021-10-20T16:17:55.880Z,485866.619,1634746180,full,ni_sequenzen,NI_Sequenzen,,,,,,,,,,,,,,
,Screen_2,canvas.Screen,0_2_24_1,,skipped,25,485785.89999997616,,,485784.09999996424,,485785.89999997616,2021-10-20T16:17:55.882Z,485866.619,1634746180,full,ni_sequenzen,NI_Sequenzen,,,,,,,,,,,,,,
,Screen_3,canvas.Screen,0_2_24_2,,skipped,25,485786.6999999881,,,485784.09999996424,,485786.7999999523,2021-10-20T16:17:55.883Z,485866.619,1634746180,full,ni_sequenzen,NI_Sequenzen,,,,,,,,,,,,,,
,Screen_4,canvas.Screen,0_2_24_3,,skipped,25,485787.5,,,485784.09999996424,,485787.59999996424,2021-10-20T16:17:55.884Z,485866.619,1634746180,full,ni_sequenzen,NI_Sequenzen,,,,,,,,,,,,,,
,Screen_5,canvas.Screen,0_2_24_4,,skipped,25,485788.2999999523,,,485784.09999996424,,485788.39999997616,2021-10-20T16:17:55.884Z,485866.619,1634746180,full,ni_sequenzen,NI_Sequenzen,,,,,,,,,,,,,,
,Screen_6,canvas.Screen,0_2_24_5,,skipped,25,485789.09999996424,,,485784.09999996424,,485789.1999999881,2021-10-20T16:17:55.885Z,485866.619,1634746180,full,ni_sequenzen,NI_Sequenzen,,,,,,,,,,,,,,
,Sequence,flow.Sequence,0_2_24,,completion,25,485783.2999999523,,,485784.09999996424,,485789.2999999523,2021-10-20T16:17:55.885Z,485866.619,1634746180,full,ni_sequenzen,NI_Sequenzen,,,,,,,,,,,,,,
,Screen_1,canvas.Screen,0_2_25_0,,skipped,26,485790.5,,,485790.5,,485790.59999996424,2021-10-20T16:17:55.887Z,485866.619,1634746180,full,ni_sequenzen,NI_Sequenzen,,,,,,,,,,,,,,
,Screen_2,canvas.Screen,0_2_25_1,,skipped,26,485791.2999999523,,,485790.5,,485791.2999999523,2021-10-20T16:17:55.887Z,485866.619,1634746180,full,ni_sequenzen,NI_Sequenzen,,,,,,,,,,,,,,
,Screen_3,canvas.Screen,0_2_25_2,,skipped,26,485792.09999996424,,,485790.5,,485792.1999999881,2021-10-20T16:17:55.888Z,485866.619,1634746180,full,ni_sequenzen,NI_Sequenzen,,,,,,,,,,,,,,
,Screen_4,canvas.Screen,0_2_25_3,,skipped,26,485792.89999997616,,,485790.5,,485793,2021-10-20T16:17:55.889Z,485866.619,1634746180,full,ni_sequenzen,NI_Sequenzen,,,,,,,,,,,,,,
,Screen_5,canvas.Screen,0_2_25_4,,skipped,26,485793.6999999881,,,485790.5,,485793.7999999523,2021-10-20T16:17:55.890Z,485866.619,1634746180,full,ni_sequenzen,NI_Sequenzen,,,,,,,,,,,,,,
,Screen_6,canvas.Screen,0_2_25_5,,skipped,26,485794.5,,,485790.5,,485794.59999996424,2021-10-20T16:17:55.891Z,485866.619,1634746180,full,ni_sequenzen,NI_Sequenzen,,,,,,,,,,,,,,
,Sequence,flow.Sequence,0_2_25,,completion,26,485789.6999999881,,,485790.5,,485794.7999999523,2021-10-20T16:17:55.891Z,485866.619,1634746180,full,ni_sequenzen,NI_Sequenzen,,,,,,,,,,,,,,
,Screen_1,canvas.Screen,0_2_26_0,,skipped,27,485795.89999997616,,,485795.89999997616,,485796,2021-10-20T16:17:55.892Z,485866.619,1634746180,full,ni_sequenzen,NI_Sequenzen,,,,,,,,,,,,,,
,Screen_2,canvas.Screen,0_2_26_1,,skipped,27,485796.89999997616,,,485795.89999997616,,485797.1999999881,2021-10-20T16:17:55.893Z,485866.619,1634746180,full,ni_sequenzen,NI_Sequenzen,,,,,,,,,,,,,,
,Screen_3,canvas.Screen,0_2_26_2,,skipped,27,485798.2999999523,,,485795.89999997616,,485798.39999997616,2021-10-20T16:17:55.894Z,485866.619,1634746180,full,ni_sequenzen,NI_Sequenzen,,,,,,,,,,,,,,
,Screen_4,canvas.Screen,0_2_26_3,,skipped,27,485799.1999999881,,,485795.89999997616,,485799.1999999881,2021-10-20T16:17:55.895Z,485866.619,1634746180,full,ni_sequenzen,NI_Sequenzen,,,,,,,,,,,,,,
,Screen_5,canvas.Screen,0_2_26_4,,skipped,27,485801,,,485795.89999997616,,485801,2021-10-20T16:17:55.897Z,485866.619,1634746180,full,ni_sequenzen,NI_Sequenzen,,,,,,,,,,,,,,
,Screen_6,canvas.Screen,0_2_26_5,,skipped,27,485801.89999997616,,,485795.89999997616,,485802,2021-10-20T16:17:55.898Z,485866.619,1634746180,full,ni_sequenzen,NI_Sequenzen,,,,,,,,,,,,,,
,Sequence,flow.Sequence,0_2_26,,completion,27,485795,,,485795.89999997616,,485802,2021-10-20T16:17:55.898Z,485866.619,1634746180,full,ni_sequenzen,NI_Sequenzen,,,,,,,,,,,,,,
,Screen_1,canvas.Screen,0_2_27_0,,skipped,28,485803.09999996424,,,485803.09999996424,,485803.2999999523,2021-10-20T16:17:55.899Z,485866.619,1634746180,full,ni_sequenzen,NI_Sequenzen,,,,,,,,,,,,,,
,Screen_2,canvas.Screen,0_2_27_1,,skipped,28,485804,,,485803.09999996424,,485804.09999996424,2021-10-20T16:17:55.900Z,485866.619,1634746180,full,ni_sequenzen,NI_Sequenzen,,,,,,,,,,,,,,
,Screen_3,canvas.Screen,0_2_27_2,,skipped,28,485804.89999997616,,,485803.09999996424,,485804.89999997616,2021-10-20T16:17:55.901Z,485866.619,1634746180,full,ni_sequenzen,NI_Sequenzen,,,,,,,,,,,,,,
,Screen_4,canvas.Screen,0_2_27_3,,skipped,28,485805.6999999881,,,485803.09999996424,,485805.6999999881,2021-10-20T16:17:55.902Z,485866.619,1634746180,full,ni_sequenzen,NI_Sequenzen,,,,,,,,,,,,,,
,Screen_5,canvas.Screen,0_2_27_4,,skipped,28,485806.5,,,485803.09999996424,,485806.59999996424,2021-10-20T16:17:55.903Z,485866.619,1634746180,full,ni_sequenzen,NI_Sequenzen,,,,,,,,,,,,,,
,Screen_6,canvas.Screen,0_2_27_5,,skipped,28,485807.2999999523,,,485803.09999996424,,485807.39999997616,2021-10-20T16:17:55.903Z,485866.619,1634746180,full,ni_sequenzen,NI_Sequenzen,,,,,,,,,,,,,,
,Sequence,flow.Sequence,0_2_27,,completion,28,485802.2999999523,,,485803.09999996424,,485807.5,2021-10-20T16:17:55.904Z,485866.619,1634746180,full,ni_sequenzen,NI_Sequenzen,,,,,,,,,,,,,,
,Screen_1,canvas.Screen,0_2_28_0,,skipped,29,485808.59999996424,,,485808.59999996424,,485808.6999999881,2021-10-20T16:17:55.905Z,485866.619,1634746180,full,ni_sequenzen,NI_Sequenzen,,,,,,,,,,,,,,
,Screen_2,canvas.Screen,0_2_28_1,,skipped,29,485809.5,,,485808.59999996424,,485809.5,2021-10-20T16:17:55.906Z,485866.619,1634746180,full,ni_sequenzen,NI_Sequenzen,,,,,,,,,,,,,,
,Screen_3,canvas.Screen,0_2_28_2,,skipped,29,485810.2999999523,,,485808.59999996424,,485810.2999999523,2021-10-20T16:17:55.906Z,485866.619,1634746180,full,ni_sequenzen,NI_Sequenzen,,,,,,,,,,,,,,
,Screen_4,canvas.Screen,0_2_28_3,,skipped,29,485811.09999996424,,,485808.59999996424,,485811.1999999881,2021-10-20T16:17:55.907Z,485866.619,1634746180,full,ni_sequenzen,NI_Sequenzen,,,,,,,,,,,,,,
,Screen_5,canvas.Screen,0_2_28_4,,skipped,29,485812.09999996424,,,485808.59999996424,,485812.1999999881,2021-10-20T16:17:55.908Z,485866.619,1634746180,full,ni_sequenzen,NI_Sequenzen,,,,,,,,,,,,,,
,Screen_6,canvas.Screen,0_2_28_5,,skipped,29,485813.09999996424,,,485808.59999996424,,485813.09999996424,2021-10-20T16:17:55.909Z,485866.619,1634746180,full,ni_sequenzen,NI_Sequenzen,,,,,,,,,,,,,,
,Sequence,flow.Sequence,0_2_28,,completion,29,485807.7999999523,,,485808.59999996424,,485813.2999999523,2021-10-20T16:17:55.909Z,485866.619,1634746180,full,ni_sequenzen,NI_Sequenzen,,,,,,,,,,,,,,
,Screen_1,canvas.Screen,0_2_29_0,,skipped,30,485814.39999997616,,,485814.39999997616,,485814.39999997616,2021-10-20T16:17:55.910Z,485866.619,1634746180,full,ni_sequenzen,NI_Sequenzen,,,,,,,,,,,,,,
,Screen_2,canvas.Screen,0_2_29_1,,skipped,30,485815.1999999881,,,485814.39999997616,,485815.2999999523,2021-10-20T16:17:55.911Z,485866.619,1634746180,full,ni_sequenzen,NI_Sequenzen,,,,,,,,,,,,,,
,Screen_3,canvas.Screen,0_2_29_2,,skipped,30,485816.09999996424,,,485814.39999997616,,485816.09999996424,2021-10-20T16:17:55.912Z,485866.619,1634746180,full,ni_sequenzen,NI_Sequenzen,,,,,,,,,,,,,,
,Screen_4,canvas.Screen,0_2_29_3,,skipped,30,485816.7999999523,,,485814.39999997616,,485817,2021-10-20T16:17:55.913Z,485866.619,1634746180,full,ni_sequenzen,NI_Sequenzen,,,,,,,,,,,,,,
,Screen_5,canvas.Screen,0_2_29_4,,skipped,30,485817.6999999881,,,485814.39999997616,,485817.7999999523,2021-10-20T16:17:55.914Z,485866.619,1634746180,full,ni_sequenzen,NI_Sequenzen,,,,,,,,,,,,,,
,Screen_6,canvas.Screen,0_2_29_5,,skipped,30,485818.5,,,485814.39999997616,,485818.59999996424,2021-10-20T16:17:55.915Z,485866.619,1634746180,full,ni_sequenzen,NI_Sequenzen,,,,,,,,,,,,,,
,Sequence,flow.Sequence,0_2_29,,completion,30,485813.59999996424,,,485814.39999997616,,485818.6999999881,2021-10-20T16:17:55.915Z,485866.619,1634746180,full,ni_sequenzen,NI_Sequenzen,,,,,,,,,,,,,,
,Instructions_II,flow.Loop,0_2,,completion,,123636.19999998808,123637.549,123654.397,485814.39999997616,362160.00299997616,485818.7999999523,2021-10-20T16:17:55.915Z,485866.619,1634746180,full,ni_sequenzen,NI_Sequenzen,,,,,,,,,,,,,,
,Move,canvas.Screen,0_3_0_0_0_0,left,response,,485852.5,485849.672,485866.619,501401.2999999523,15534.68099995231,501402.2999999523,2021-10-20T16:18:11.498Z,501417.935,1634746180,full,ni_sequenzen,NI_Sequenzen,1,0,,,,,,,,,,,,
,Move,canvas.Screen,0_3_0_0_0_1,down,response,,501415.89999997616,501401.043,501417.935,502148.89999997616,730.9649999761605,502149.6999999881,2021-10-20T16:18:12.246Z,502167.267,1634746180,full,ni_sequenzen,NI_Sequenzen,2,0,,,,,,,,,,,,
,Move,canvas.Screen,0_3_0_0_0_2,down,response,,502153.89999997616,502150.816,502167.267,502788.09999996424,620.8329999642447,502788.7999999523,2021-10-20T16:18:12.885Z,502800.033,1634746180,full,ni_sequenzen,NI_Sequenzen,3,0,,,,,,,,,,,,
,Move,canvas.Screen,0_3_0_0_0_3,right,response,,502793.2999999523,502783.548,502800.033,505226.39999997616,2426.3669999761623,505227.09999996424,2021-10-20T16:18:15.323Z,505247.548,1634746180,full,ni_sequenzen,NI_Sequenzen,4,0,,,,,,,,,,,,
,Move,canvas.Screen,0_3_0_0_0_4,right,response,,505232.59999996424,505231.109,505247.548,510908.2999999523,5660.7519999523065,510909.09999996424,2021-10-20T16:18:21.002Z,510925.319,1634746180,full,ni_sequenzen,NI_Sequenzen,5,0,,,,,,,,,,,,
,Move,canvas.Screen,0_3_0_0_0_5,left,response,,510913.89999997616,510908.819,510925.319,511551.1999999881,625.8809999880614,511552,2021-10-20T16:18:21.645Z,511591.425,1634746180,full,ni_sequenzen,NI_Sequenzen,6,0,,,,,,,,,,,,
,Move,canvas.Screen,0_3_0_0_0_6,-999,skipped,,511557.5,,,511551.1999999881,,511557.59999996424,2021-10-20T16:18:21.651Z,511591.425,1634746180,full,ni_sequenzen,NI_Sequenzen,7,0,,,,,,,,,,,,
,Move,canvas.Screen,0_3_0_0_0_7,-999,skipped,,511559.59999996424,,,511551.1999999881,,511559.6999999881,2021-10-20T16:18:21.653Z,511591.425,1634746180,full,ni_sequenzen,NI_Sequenzen,8,0,,,,,,,,,,,,
,Move,canvas.Screen,0_3_0_0_0_8,-999,skipped,,511561.89999997616,,,511551.1999999881,,511561.89999997616,2021-10-20T16:18:21.655Z,511591.425,1634746180,full,ni_sequenzen,NI_Sequenzen,9,0,,,,,,,,,,,,
,Move,canvas.Screen,0_3_0_0_0_9,-999,skipped,,511564.5,,,511551.1999999881,,511564.59999996424,2021-10-20T16:18:21.658Z,511591.425,1634746180,full,ni_sequenzen,NI_Sequenzen,10,0,,,,,,,,,,,,
,Move,canvas.Screen,0_3_0_0_0_10,-999,skipped,,511566.5,,,511551.1999999881,,511566.59999996424,2021-10-20T16:18:21.660Z,511591.425,1634746180,full,ni_sequenzen,NI_Sequenzen,11,0,,,,,,,,,,,,
,Move,canvas.Screen,0_3_0_0_0_11,-999,skipped,,511568.5,,,511551.1999999881,,511568.59999996424,2021-10-20T16:18:21.662Z,511591.425,1634746180,full,ni_sequenzen,NI_Sequenzen,12,0,,,,,,,,,,,,
,Move,canvas.Screen,0_3_0_0_0_12,-999,skipped,,511571.6999999881,,,511551.1999999881,,511571.7999999523,2021-10-20T16:18:21.665Z,511591.425,1634746180,full,ni_sequenzen,NI_Sequenzen,13,0,,,,,,,,,,,,
,Move,canvas.Screen,0_3_0_0_0_13,-999,skipped,,511574,,,511551.1999999881,,511574.09999996424,2021-10-20T16:18:21.667Z,511591.425,1634746180,full,ni_sequenzen,NI_Sequenzen,14,0,,,,,,,,,,,,
,Move,canvas.Screen,0_3_0_0_0_14,-999,skipped,,511577.7999999523,,,511551.1999999881,,511577.89999997616,2021-10-20T16:18:21.671Z,511591.425,1634746180,full,ni_sequenzen,NI_Sequenzen,15,0,,,,,,,,,,,,
,Loop,flow.Loop,0_3_0_0_0,-999,completion,,485846.89999997616,485849.672,485866.619,511551.1999999881,25684.580999988073,511578.09999996424,2021-10-20T16:18:21.671Z,511591.425,1634746180,full,ni_sequenzen,NI_Sequenzen,,0,,,,,,,,,,,,
,Feedback,canvas.Screen,0_3_0_0_1,,timeout,,511582.2999999523,511575.03,511591.425,515571.103,3995.9640000000363,515572.2999999523,2021-10-20T16:18:25.665Z,515587.389,1634746180,full,ni_sequenzen,NI_Sequenzen,,0,,,,,,,,,,,,
,Trial,flow.Sequence,0_3_0_0,,completion,,485834.39999997616,485849.672,485866.619,515571.103,29704.483999999997,515572.5,2021-10-20T16:18:25.666Z,515604.34,1634746180,full,ni_sequenzen,NI_Sequenzen,,0,,,,,,,,,,,,
,Move,canvas.Screen,0_3_0_1_0_0,down,response,,515591.5,515587.389,515604.34,534713.3999999762,19109.059999976133,534714.3999999762,2021-10-20T16:18:44.807Z,534751.59,1634746180,full,ni_sequenzen,NI_Sequenzen,1,1,,,,,,,,,,,,
,Move,canvas.Screen,0_3_0_1_0_1,right,response,,534717.5,534702.02,534751.59,535131.6999999881,380.10999998811167,535132.3999999762,2021-10-20T16:18:45.225Z,535151.854,1634746180,full,ni_sequenzen,NI_Sequenzen,2,1,,,,,,,,,,,,
,Move,canvas.Screen,0_3_0_1_0_2,right,response,,535136.0999999642,535134.952,535151.854,535614.0999999642,462.2459999641869,535615,2021-10-20T16:18:45.708Z,535634.748,1634746180,full,ni_sequenzen,NI_Sequenzen,3,1,,,,,,,,,,,,
,Move,canvas.Screen,0_3_0_1_0_3,down,response,,535620.1999999881,535618.141,535634.748,535922.2999999523,287.55199995229486,535922.6999999881,2021-10-20T16:18:46.016Z,535967.786,1634746180,full,ni_sequenzen,NI_Sequenzen,4,1,,,,,,,,,,,,
,Move,canvas.Screen,0_3_0_1_0_4,-999,skipped,,535925.0999999642,,,535922.2999999523,,535925.1999999881,2021-10-20T16:18:46.018Z,535967.786,1634746180,full,ni_sequenzen,NI_Sequenzen,5,1,,,,,,,,,,,,
,Move,canvas.Screen,0_3_0_1_0_5,-999,skipped,,535927.8999999762,,,535922.2999999523,,535928,2021-10-20T16:18:46.021Z,535967.786,1634746180,full,ni_sequenzen,NI_Sequenzen,6,1,,,,,,,,,,,,
,Move,canvas.Screen,0_3_0_1_0_6,-999,skipped,,535929.8999999762,,,535922.2999999523,,535930,2021-10-20T16:18:46.023Z,535967.786,1634746180,full,ni_sequenzen,NI_Sequenzen,7,1,,,,,,,,,,,,
,Move,canvas.Screen,0_3_0_1_0_7,-999,skipped,,535931.7999999523,,,535922.2999999523,,535931.8999999762,2021-10-20T16:18:46.025Z,535967.786,1634746180,full,ni_sequenzen,NI_Sequenzen,8,1,,,,,,,,,,,,
,Move,canvas.Screen,0_3_0_1_0_8,-999,skipped,,535934.5999999642,,,535922.2999999523,,535934.6999999881,2021-10-20T16:18:46.028Z,535967.786,1634746180,full,ni_sequenzen,NI_Sequenzen,9,1,,,,,,,,,,,,
,Move,canvas.Screen,0_3_0_1_0_9,-999,skipped,,535937.2999999523,,,535922.2999999523,,535937.3999999762,2021-10-20T16:18:46.030Z,535967.786,1634746180,full,ni_sequenzen,NI_Sequenzen,10,1,,,,,,,,,,,,
,Move,canvas.Screen,0_3_0_1_0_10,-999,skipped,,535939.6999999881,,,535922.2999999523,,535939.6999999881,2021-10-20T16:18:46.033Z,535967.786,1634746180,full,ni_sequenzen,NI_Sequenzen,11,1,,,,,,,,,,,,
,Move,canvas.Screen,0_3_0_1_0_11,-999,skipped,,535941.6999999881,,,535922.2999999523,,535941.8999999762,2021-10-20T16:18:46.035Z,535967.786,1634746180,full,ni_sequenzen,NI_Sequenzen,12,1,,,,,,,,,,,,
,Move,canvas.Screen,0_3_0_1_0_12,-999,skipped,,535944.5,,,535922.2999999523,,535944.5999999642,2021-10-20T16:18:46.038Z,535967.786,1634746180,full,ni_sequenzen,NI_Sequenzen,13,1,,,,,,,,,,,,
,Move,canvas.Screen,0_3_0_1_0_13,-999,skipped,,535946.5,,,535922.2999999523,,535946.5,2021-10-20T16:18:46.040Z,535967.786,1634746180,full,ni_sequenzen,NI_Sequenzen,14,1,,,,,,,,,,,,
,Move,canvas.Screen,0_3_0_1_0_14,-999,skipped,,535948.7999999523,,,535922.2999999523,,535949,2021-10-20T16:18:46.042Z,535967.786,1634746180,full,ni_sequenzen,NI_Sequenzen,15,1,,,,,,,,,,,,
,Loop,flow.Loop,0_3_0_1_0,-999,completion,,515588.89999997616,515587.389,515604.34,535922.2999999523,20317.95999995229,535949.0999999642,2021-10-20T16:18:46.042Z,535967.786,1634746180,full,ni_sequenzen,NI_Sequenzen,,1,,,,,,,,,,,,
,Feedback,canvas.Screen,0_3_0_1_1,,timeout,,535951.6999999881,535951.104,535967.786,539946.992,3995.734000000055,539947.8999999762,2021-10-20T16:18:50.041Z,539963.52,1634746180,full,ni_sequenzen,NI_Sequenzen,,1,,,,,,,,,,,,
,Trial,flow.Sequence,0_3_0_1,,completion,,515573.09999996424,515587.389,515604.34,539946.992,24342.651999999944,539948.0999999642,2021-10-20T16:18:50.041Z,539980.191,1634746180,full,ni_sequenzen,NI_Sequenzen,,1,,,,,,,,,,,,
,Move,canvas.Screen,0_3_0_2_0_0,right,response,,539965.5999999642,539963.52,539980.191,550936.5,10956.309000000008,550937.3999999762,2021-10-20T16:19:01.030Z,550952.782,1634746180,full,ni_sequenzen,NI_Sequenzen,1,2,,,,,,,,,,,,
,Move,canvas.Screen,0_3_0_2_0_1,down,response,,550942.7999999523,550936.21,550952.782,551315.2999999523,362.51799995230976,551316,2021-10-20T16:19:01.409Z,551335.764,1634746180,full,ni_sequenzen,NI_Sequenzen,2,2,,,,,,,,,,,,
,Move,canvas.Screen,0_3_0_2_0_2,down,response,,551322.5999999642,551319.456,551335.764,551680.3999999762,344.63599997619167,551681.1999999881,2021-10-20T16:19:01.774Z,551702.451,1634746180,full,ni_sequenzen,NI_Sequenzen,3,2,,,,,,,,,,,,
,Move,canvas.Screen,0_3_0_2_0_3,right,response,,551686.5999999642,551685.937,551702.451,552181.5,479.04899999999907,552182.3999999762,2021-10-20T16:19:02.275Z,552235.022,1634746180,full,ni_sequenzen,NI_Sequenzen,4,2,,,,,,,,,,,,
,Move,canvas.Screen,0_3_0_2_0_4,-999,skipped,,552187.5,,,552181.5,,552187.6999999881,2021-10-20T16:19:02.281Z,552235.022,1634746180,full,ni_sequenzen,NI_Sequenzen,5,2,,,,,,,,,,,,
,Move,canvas.Screen,0_3_0_2_0_5,-999,skipped,,552194.5999999642,,,552181.5,,552194.8999999762,2021-10-20T16:19:02.288Z,552235.022,1634746180,full,ni_sequenzen,NI_Sequenzen,6,2,,,,,,,,,,,,
,Move,canvas.Screen,0_3_0_2_0_6,-999,skipped,,552203,,,552181.5,,552203.2999999523,2021-10-20T16:19:02.296Z,552235.022,1634746180,full,ni_sequenzen,NI_Sequenzen,7,2,,,,,,,,,,,,
,Move,canvas.Screen,0_3_0_2_0_7,-999,skipped,,552206.8999999762,,,552181.5,,552206.8999999762,2021-10-20T16:19:02.300Z,552235.022,1634746180,full,ni_sequenzen,NI_Sequenzen,8,2,,,,,,,,,,,,
,Move,canvas.Screen,0_3_0_2_0_8,-999,skipped,,552208.7999999523,,,552181.5,,552208.8999999762,2021-10-20T16:19:02.302Z,552235.022,1634746180,full,ni_sequenzen,NI_Sequenzen,9,2,,,,,,,,,,,,
,Move,canvas.Screen,0_3_0_2_0_9,-999,skipped,,552211.8999999762,,,552181.5,,552212,2021-10-20T16:19:02.305Z,552235.022,1634746180,full,ni_sequenzen,NI_Sequenzen,10,2,,,,,,,,,,,,
,Move,canvas.Screen,0_3_0_2_0_10,-999,skipped,,552214,,,552181.5,,552214.0999999642,2021-10-20T16:19:02.307Z,552235.022,1634746180,full,ni_sequenzen,NI_Sequenzen,11,2,,,,,,,,,,,,
,Move,canvas.Screen,0_3_0_2_0_11,-999,skipped,,552215.8999999762,,,552181.5,,552216,2021-10-20T16:19:02.309Z,552235.022,1634746180,full,ni_sequenzen,NI_Sequenzen,12,2,,,,,,,,,,,,
,Move,canvas.Screen,0_3_0_2_0_12,-999,skipped,,552218.3999999762,,,552181.5,,552218.5,2021-10-20T16:19:02.312Z,552235.022,1634746180,full,ni_sequenzen,NI_Sequenzen,13,2,,,,,,,,,,,,
,Move,canvas.Screen,0_3_0_2_0_13,-999,skipped,,552220.5,,,552181.5,,552220.6999999881,2021-10-20T16:19:02.314Z,552235.022,1634746180,full,ni_sequenzen,NI_Sequenzen,14,2,,,,,,,,,,,,
,Move,canvas.Screen,0_3_0_2_0_14,-999,skipped,,552222.7999999523,,,552181.5,,552222.8999999762,2021-10-20T16:19:02.316Z,552235.022,1634746180,full,ni_sequenzen,NI_Sequenzen,15,2,,,,,,,,,,,,
,Loop,flow.Loop,0_3_0_2_0,-999,completion,,539962.0999999642,539963.52,539980.191,552181.5,12201.309000000008,552223,2021-10-20T16:19:02.316Z,552235.022,1634746180,full,ni_sequenzen,NI_Sequenzen,,2,,,,,,,,,,,,
,Feedback,canvas.Screen,0_3_0_2_1,,timeout,,552224.7999999523,552218.55,552235.022,556197.185,3996.234999999986,556197.7999999523,2021-10-20T16:19:06.291Z,556231.257,1634746180,full,ni_sequenzen,NI_Sequenzen,,2,,,,,,,,,,,,
,Trial,flow.Sequence,0_3_0_2,,completion,,539948.6999999881,539963.52,539980.191,556197.185,16216.994000000064,556198,2021-10-20T16:19:06.291Z,556247.646,1634746180,full,ni_sequenzen,NI_Sequenzen,,2,,,,,,,,,,,,
,Move,canvas.Screen,0_3_0_3_0_0,down,response,,556223.0999999642,556231.257,556247.646,561173.1999999881,4925.553999988129,561174,2021-10-20T16:19:11.267Z,561192.776,1634746180,full,ni_sequenzen,NI_Sequenzen,1,3,,,,,,,,,,,,
,Move,canvas.Screen,0_3_0_3_0_1,left,response,,561178.5,561176.297,561192.776,561667.2999999523,474.5239999523619,561668.0999999642,2021-10-20T16:19:11.761Z,561675.684,1634746180,full,ni_sequenzen,NI_Sequenzen,2,3,,,,,,,,,,,,
,Move,canvas.Screen,0_3_0_3_0_2,right,response,,561673.5,561659.383,561675.684,562131.3999999762,455.71599997614976,562132.2999999523,2021-10-20T16:19:12.225Z,562141.969,1634746180,full,ni_sequenzen,NI_Sequenzen,3,3,,,,,,,,,,,,
,Move,canvas.Screen,0_3_0_3_0_3,down,response,,562136.6999999881,562125.596,562141.969,562486.8999999762,344.93099997611716,562487.6999999881,2021-10-20T16:19:12.581Z,562508.206,1634746180,full,ni_sequenzen,NI_Sequenzen,4,3,,,,,,,,,,,,
,Move,canvas.Screen,0_3_0_3_0_4,right,response,,562493.5,562491.809,562508.206,563188.5,680.2939999999944,563189.3999999762,2021-10-20T16:19:13.282Z,563224.242,1634746180,full,ni_sequenzen,NI_Sequenzen,5,3,,,,,,,,,,,,
,Move,canvas.Screen,0_3_0_3_0_5,-999,skipped,,563193.0999999642,,,563188.5,,563193.1999999881,2021-10-20T16:19:13.286Z,563224.242,1634746180,full,ni_sequenzen,NI_Sequenzen,6,3,,,,,,,,,,,,
,Move,canvas.Screen,0_3_0_3_0_6,-999,skipped,,563195.1999999881,,,563188.5,,563195.2999999523,2021-10-20T16:19:13.288Z,563224.242,1634746180,full,ni_sequenzen,NI_Sequenzen,7,3,,,,,,,,,,,,
,Move,canvas.Screen,0_3_0_3_0_7,-999,skipped,,563197.5999999642,,,563188.5,,563197.6999999881,2021-10-20T16:19:13.291Z,563224.242,1634746180,full,ni_sequenzen,NI_Sequenzen,8,3,,,,,,,,,,,,
,Move,canvas.Screen,0_3_0_3_0_8,-999,skipped,,563199.6999999881,,,563188.5,,563199.7999999523,2021-10-20T16:19:13.293Z,563224.242,1634746180,full,ni_sequenzen,NI_Sequenzen,9,3,,,,,,,,,,,,
,Move,canvas.Screen,0_3_0_3_0_9,-999,skipped,,563201.5999999642,,,563188.5,,563201.6999999881,2021-10-20T16:19:13.295Z,563224.242,1634746180,full,ni_sequenzen,NI_Sequenzen,10,3,,,,,,,,,,,,
,Move,canvas.Screen,0_3_0_3_0_10,-999,skipped,,563203.5999999642,,,563188.5,,563203.6999999881,2021-10-20T16:19:13.297Z,563224.242,1634746180,full,ni_sequenzen,NI_Sequenzen,11,3,,,,,,,,,,,,
,Move,canvas.Screen,0_3_0_3_0_11,-999,skipped,,563206.3999999762,,,563188.5,,563206.5,2021-10-20T16:19:13.300Z,563224.242,1634746180,full,ni_sequenzen,NI_Sequenzen,12,3,,,,,,,,,,,,
,Move,canvas.Screen,0_3_0_3_0_12,-999,skipped,,563208.3999999762,,,563188.5,,563208.3999999762,2021-10-20T16:19:13.301Z,563224.242,1634746180,full,ni_sequenzen,NI_Sequenzen,13,3,,,,,,,,,,,,
,Move,canvas.Screen,0_3_0_3_0_13,-999,skipped,,563210.2999999523,,,563188.5,,563210.5,2021-10-20T16:19:13.303Z,563224.242,1634746180,full,ni_sequenzen,NI_Sequenzen,14,3,,,,,,,,,,,,
,Move,canvas.Screen,0_3_0_3_0_14,-999,skipped,,563212.8999999762,,,563188.5,,563213,2021-10-20T16:19:13.306Z,563224.242,1634746180,full,ni_sequenzen,NI_Sequenzen,15,3,,,,,,,,,,,,
,Loop,flow.Loop,0_3_0_3_0,-999,completion,,556220.8999999762,556231.257,556247.646,563188.5,6940.85400000005,563213.0999999642,2021-10-20T16:19:13.306Z,563224.242,1634746180,full,ni_sequenzen,NI_Sequenzen,,3,,,,,,,,,,,,
,Feedback,canvas.Screen,0_3_0_3_1,,timeout,,563215,563207.795,563224.242,567203.922,3995.9610000000102,567204.6999999881,2021-10-20T16:19:17.298Z,567220.203,1634746180,full,ni_sequenzen,NI_Sequenzen,,3,,,,,,,,,,,,
,Trial,flow.Sequence,0_3_0_3,,completion,,556198.3999999762,556231.257,556247.646,567203.922,10956.27600000007,567205,2021-10-20T16:19:17.298Z,567237.197,1634746180,full,ni_sequenzen,NI_Sequenzen,,3,,,,,,,,,,,,
,Move,canvas.Screen,0_3_0_4_0_0,down,response,,567224,567220.203,567237.197,574827.1999999881,7590.002999988035,574828.0999999642,2021-10-20T16:19:24.913Z,574846.109,1634746180,full,ni_sequenzen,NI_Sequenzen,1,4,,,,,,,,,,,,
,Move,canvas.Screen,0_3_0_4_0_1,right,response,,574834.8999999762,574829.614,574846.109,575188.5999999642,342.49099996418227,575190.0999999642,2021-10-20T16:19:25.275Z,575195.712,1634746180,full,ni_sequenzen,NI_Sequenzen,2,4,,,,,,,,,,,,
,Move,canvas.Screen,0_3_0_4_0_2,right,response,,575193.2999999523,575179.285,575195.712,576295.8999999762,1100.1879999761004,576296.6999999881,2021-10-20T16:19:26.381Z,576311.345,1634746180,full,ni_sequenzen,NI_Sequenzen,3,4,,,,,,,,,,,,
,Move,canvas.Screen,0_3_0_4_0_3,down,response,,576300.8999999762,576294.939,576311.345,576571.5,260.15500000002794,576572.2999999523,2021-10-20T16:19:26.657Z,576610.979,1634746180,full,ni_sequenzen,NI_Sequenzen,4,4,,,,,,,,,,,,
,Move,canvas.Screen,0_3_0_4_0_4,-999,skipped,,576576.6999999881,,,576571.5,,576576.8999999762,2021-10-20T16:19:26.661Z,576610.979,1634746180,full,ni_sequenzen,NI_Sequenzen,5,4,,,,,,,,,,,,
,Move,canvas.Screen,0_3_0_4_0_5,-999,skipped,,576578.8999999762,,,576571.5,,576578.8999999762,2021-10-20T16:19:26.663Z,576610.979,1634746180,full,ni_sequenzen,NI_Sequenzen,6,4,,,,,,,,,,,,
,Move,canvas.Screen,0_3_0_4_0_6,-999,skipped,,576580.8999999762,,,576571.5,,576581,2021-10-20T16:19:26.666Z,576610.979,1634746180,full,ni_sequenzen,NI_Sequenzen,7,4,,,,,,,,,,,,
,Move,canvas.Screen,0_3_0_4_0_7,-999,skipped,,576582.8999999762,,,576571.5,,576583,2021-10-20T16:19:26.668Z,576610.979,1634746180,full,ni_sequenzen,NI_Sequenzen,8,4,,,,,,,,,,,,
,Move,canvas.Screen,0_3_0_4_0_8,-999,skipped,,576585.5,,,576571.5,,576585.5999999642,2021-10-20T16:19:26.670Z,576610.979,1634746180,full,ni_sequenzen,NI_Sequenzen,9,4,,,,,,,,,,,,
,Move,canvas.Screen,0_3_0_4_0_9,-999,skipped,,576587.7999999523,,,576571.5,,576587.8999999762,2021-10-20T16:19:26.672Z,576610.979,1634746180,full,ni_sequenzen,NI_Sequenzen,10,4,,,,,,,,,,,,
,Move,canvas.Screen,0_3_0_4_0_10,-999,skipped,,576589.6999999881,,,576571.5,,576589.7999999523,2021-10-20T16:19:26.674Z,576610.979,1634746180,full,ni_sequenzen,NI_Sequenzen,11,4,,,,,,,,,,,,
,Move,canvas.Screen,0_3_0_4_0_11,-999,skipped,,576592.5,,,576571.5,,576592.5999999642,2021-10-20T16:19:26.677Z,576610.979,1634746180,full,ni_sequenzen,NI_Sequenzen,12,4,,,,,,,,,,,,
,Move,canvas.Screen,0_3_0_4_0_12,-999,skipped,,576595.1999999881,,,576571.5,,576595.5,2021-10-20T16:19:26.680Z,576610.979,1634746180,full,ni_sequenzen,NI_Sequenzen,13,4,,,,,,,,,,,,
,Move,canvas.Screen,0_3_0_4_0_13,-999,skipped,,576597.6999999881,,,576571.5,,576597.8999999762,2021-10-20T16:19:26.682Z,576610.979,1634746180,full,ni_sequenzen,NI_Sequenzen,14,4,,,,,,,,,,,,
,Move,canvas.Screen,0_3_0_4_0_14,-999,skipped,,576600.2999999523,,,576571.5,,576600.3999999762,2021-10-20T16:19:26.685Z,576610.979,1634746180,full,ni_sequenzen,NI_Sequenzen,15,4,,,,,,,,,,,,
,Loop,flow.Loop,0_3_0_4_0,-999,completion,,567220.3999999762,567220.203,567237.197,576571.5,9334.302999999956,576600.5999999642,2021-10-20T16:19:26.685Z,576610.979,1634746180,full,ni_sequenzen,NI_Sequenzen,,4,,,,,,,,,,,,
,Feedback,canvas.Screen,0_3_0_4_1,,timeout,,576602.2999999523,576594.75,576610.979,580590.764,3996.1019999999553,580591.5,2021-10-20T16:19:30.676Z,580607.081,1634746180,full,ni_sequenzen,NI_Sequenzen,,4,,,,,,,,,,,,
,Trial,flow.Sequence,0_3_0_4,,completion,,567205.5999999642,567220.203,567237.197,580590.764,13353.566999999923,580591.7999999523,2021-10-20T16:19:30.676Z,580624.012,1634746180,full,ni_sequenzen,NI_Sequenzen,,4,,,,,,,,,,,,
,Move,canvas.Screen,0_3_0_5_0_0,down,response,,580606.8999999762,580607.081,580624.012,589397.3999999762,8773.38799997617,589398.0999999642,2021-10-20T16:19:39.483Z,589415.495,1634746180,full,ni_sequenzen,NI_Sequenzen,1,5,,,,,,,,,,,,
,Move,canvas.Screen,0_3_0_5_0_1,right,response,,589402.0999999642,589398.71,589415.495,590059.8999999762,644.4049999761628,590060.7999999523,2021-10-20T16:19:40.145Z,590081.174,1634746180,full,ni_sequenzen,NI_Sequenzen,2,5,,,,,,,,,,,,
,Move,canvas.Screen,0_3_0_5_0_2,right,response,,590069,590064.694,590081.174,590381.3999999762,300.2259999761591,590382.1999999881,2021-10-20T16:19:40.467Z,590397.678,1634746180,full,ni_sequenzen,NI_Sequenzen,3,5,,,,,,,,,,,,
,Move,canvas.Screen,0_3_0_5_0_3,down,response,,590388,590381.178,590397.678,590874.3999999762,476.7219999762019,590875,2021-10-20T16:19:40.960Z,590913.66,1634746180,full,ni_sequenzen,NI_Sequenzen,4,5,,,,,,,,,,,,
,Move,canvas.Screen,0_3_0_5_0_4,-999,skipped,,590879.5,,,590874.3999999762,,590879.5999999642,2021-10-20T16:19:40.964Z,590913.66,1634746180,full,ni_sequenzen,NI_Sequenzen,5,5,,,,,,,,,,,,
,Move,canvas.Screen,0_3_0_5_0_5,-999,skipped,,590882.5999999642,,,590874.3999999762,,590882.6999999881,2021-10-20T16:19:40.967Z,590913.66,1634746180,full,ni_sequenzen,NI_Sequenzen,6,5,,,,,,,,,,,,
,Move,canvas.Screen,0_3_0_5_0_6,-999,skipped,,590885.8999999762,,,590874.3999999762,,590886,2021-10-20T16:19:40.971Z,590913.66,1634746180,full,ni_sequenzen,NI_Sequenzen,7,5,,,,,,,,,,,,
,Move,canvas.Screen,0_3_0_5_0_7,-999,skipped,,590889.3999999762,,,590874.3999999762,,590889.3999999762,2021-10-20T16:19:40.974Z,590913.66,1634746180,full,ni_sequenzen,NI_Sequenzen,8,5,,,,,,,,,,,,
,Move,canvas.Screen,0_3_0_5_0_8,-999,skipped,,590892.5,,,590874.3999999762,,590892.5,2021-10-20T16:19:40.977Z,590913.66,1634746180,full,ni_sequenzen,NI_Sequenzen,9,5,,,,,,,,,,,,
,Move,canvas.Screen,0_3_0_5_0_9,-999,skipped,,590895.0999999642,,,590874.3999999762,,590895.0999999642,2021-10-20T16:19:40.980Z,590913.66,1634746180,full,ni_sequenzen,NI_Sequenzen,10,5,,,,,,,,,,,,
,Move,canvas.Screen,0_3_0_5_0_10,-999,skipped,,590897,,,590874.3999999762,,590897.0999999642,2021-10-20T16:19:40.982Z,590913.66,1634746180,full,ni_sequenzen,NI_Sequenzen,11,5,,,,,,,,,,,,
,Move,canvas.Screen,0_3_0_5_0_11,-999,skipped,,590898.8999999762,,,590874.3999999762,,590899.0999999642,2021-10-20T16:19:40.984Z,590913.66,1634746180,full,ni_sequenzen,NI_Sequenzen,12,5,,,,,,,,,,,,
,Move,canvas.Screen,0_3_0_5_0_12,-999,skipped,,590901.7999999523,,,590874.3999999762,,590901.8999999762,2021-10-20T16:19:40.987Z,590913.66,1634746180,full,ni_sequenzen,NI_Sequenzen,13,5,,,,,,,,,,,,
,Move,canvas.Screen,0_3_0_5_0_13,-999,skipped,,590903.8999999762,,,590874.3999999762,,590904,2021-10-20T16:19:40.988Z,590913.66,1634746180,full,ni_sequenzen,NI_Sequenzen,14,5,,,,,,,,,,,,
,Move,canvas.Screen,0_3_0_5_0_14,-999,skipped,,590905.7999999523,,,590874.3999999762,,590905.8999999762,2021-10-20T16:19:40.990Z,590913.66,1634746180,full,ni_sequenzen,NI_Sequenzen,15,5,,,,,,,,,,,,
,Loop,flow.Loop,0_3_0_5_0,-999,completion,,580604.3999999762,580607.081,580624.012,590874.3999999762,10250.38799997617,590906,2021-10-20T16:19:40.991Z,590913.66,1634746180,full,ni_sequenzen,NI_Sequenzen,,5,,,,,,,,,,,,
,Feedback,canvas.Screen,0_3_0_5_1,,timeout,,590907.6999999881,590897.254,590913.66,594893.196,3996.0960000000196,594894.0999999642,2021-10-20T16:19:44.979Z,594909.756,1634746180,full,ni_sequenzen,NI_Sequenzen,,5,,,,,,,,,,,,
,Trial,flow.Sequence,0_3_0_5,,completion,,580592.5,580607.081,580624.012,594893.196,14269.184000000008,594894.3999999762,2021-10-20T16:19:44.979Z,594926.793,1634746180,full,ni_sequenzen,NI_Sequenzen,,5,,,,,,,,,,,,
,Move,canvas.Screen,0_3_0_6_0_0,right,response,,594912.1999999881,594909.756,594926.793,607677.2999999523,12750.50699995237,607678.3999999762,2021-10-20T16:19:57.763Z,607697.593,1634746180,full,ni_sequenzen,NI_Sequenzen,1,6,,,,,,,,,,,,
,Move,canvas.Screen,0_3_0_6_0_1,down,response,,607682,607680.701,607697.593,608003.8999999762,306.30699997616466,608004.8999999762,2021-10-20T16:19:58.090Z,608013.623,1634746180,full,ni_sequenzen,NI_Sequenzen,2,6,,,,,,,,,,,,
,Move,canvas.Screen,0_3_0_6_0_2,down,response,,608010.0999999642,607997.27,608013.623,608343,329.3769999999786,608343.6999999881,2021-10-20T16:19:58.428Z,608363.317,1634746180,full,ni_sequenzen,NI_Sequenzen,3,6,,,,,,,,,,,,
,Move,canvas.Screen,0_3_0_6_0_3,right,response,,608348.3999999762,608346.972,608363.317,609397.1999999881,1033.88299998804,609397.6999999881,2021-10-20T16:19:59.482Z,609445.528,1634746180,full,ni_sequenzen,NI_Sequenzen,4,6,,,,,,,,,,,,
,Move,canvas.Screen,0_3_0_6_0_4,-999,skipped,,609399.7999999523,,,609397.1999999881,,609399.8999999762,2021-10-20T16:19:59.485Z,609445.528,1634746180,full,ni_sequenzen,NI_Sequenzen,5,6,,,,,,,,,,,,
,Move,canvas.Screen,0_3_0_6_0_5,-999,skipped,,609402.3999999762,,,609397.1999999881,,609402.5,2021-10-20T16:19:59.487Z,609445.528,1634746180,full,ni_sequenzen,NI_Sequenzen,6,6,,,,,,,,,,,,
,Move,canvas.Screen,0_3_0_6_0_6,-999,skipped,,609405.3999999762,,,609397.1999999881,,609405.5,2021-10-20T16:19:59.490Z,609445.528,1634746180,full,ni_sequenzen,NI_Sequenzen,7,6,,,,,,,,,,,,
,Move,canvas.Screen,0_3_0_6_0_7,-999,skipped,,609407.2999999523,,,609397.1999999881,,609407.3999999762,2021-10-20T16:19:59.492Z,609445.528,1634746180,full,ni_sequenzen,NI_Sequenzen,8,6,,,,,,,,,,,,
,Move,canvas.Screen,0_3_0_6_0_8,-999,skipped,,609409.5999999642,,,609397.1999999881,,609409.7999999523,2021-10-20T16:19:59.494Z,609445.528,1634746180,full,ni_sequenzen,NI_Sequenzen,9,6,,,,,,,,,,,,
,Move,canvas.Screen,0_3_0_6_0_9,-999,skipped,,609412.2999999523,,,609397.1999999881,,609412.5999999642,2021-10-20T16:19:59.497Z,609445.528,1634746180,full,ni_sequenzen,NI_Sequenzen,10,6,,,,,,,,,,,,
,Move,canvas.Screen,0_3_0_6_0_10,-999,skipped,,609414.5999999642,,,609397.1999999881,,609414.6999999881,2021-10-20T16:19:59.499Z,609445.528,1634746180,full,ni_sequenzen,NI_Sequenzen,11,6,,,,,,,,,,,,
,Move,canvas.Screen,0_3_0_6_0_11,-999,skipped,,609416.5999999642,,,609397.1999999881,,609416.5999999642,2021-10-20T16:19:59.501Z,609445.528,1634746180,full,ni_sequenzen,NI_Sequenzen,12,6,,,,,,,,,,,,
,Move,canvas.Screen,0_3_0_6_0_12,-999,skipped,,609419,,,609397.1999999881,,609419.0999999642,2021-10-20T16:19:59.504Z,609445.528,1634746180,full,ni_sequenzen,NI_Sequenzen,13,6,,,,,,,,,,,,
,Move,canvas.Screen,0_3_0_6_0_13,-999,skipped,,609421,,,609397.1999999881,,609421,2021-10-20T16:19:59.506Z,609445.528,1634746180,full,ni_sequenzen,NI_Sequenzen,14,6,,,,,,,,,,,,
,Move,canvas.Screen,0_3_0_6_0_14,-999,skipped,,609423.1999999881,,,609397.1999999881,,609423.2999999523,2021-10-20T16:19:59.508Z,609445.528,1634746180,full,ni_sequenzen,NI_Sequenzen,15,6,,,,,,,,,,,,
,Loop,flow.Loop,0_3_0_6_0,-999,completion,,594909.2999999523,594909.756,594926.793,609397.1999999881,14470.406999988132,609423.3999999762,2021-10-20T16:19:59.508Z,609445.528,1634746180,full,ni_sequenzen,NI_Sequenzen,,6,,,,,,,,,,,,
,Feedback,canvas.Screen,0_3_0_6_1,,timeout,,609425,609412.581,609445.528,613425.323,3996.152000000002,613426.0999999642,2021-10-20T16:20:03.511Z,613441.68,1634746180,full,ni_sequenzen,NI_Sequenzen,,6,,,,,,,,,,,,
,Trial,flow.Sequence,0_3_0_6,,completion,,594894.8999999762,594909.756,594926.793,613425.323,18498.530000000028,613426.2999999523,2021-10-20T16:20:03.511Z,613458.374,1634746180,full,ni_sequenzen,NI_Sequenzen,,6,,,,,,,,,,,,
,Move,canvas.Screen,0_3_0_7_0_0,down,response,,613453.0999999642,613441.68,613458.374,625382.0999999642,11923.725999964285,625383.1999999881,2021-10-20T16:20:15.468Z,625396.733,1634746180,full,ni_sequenzen,NI_Sequenzen,1,7,,,,,,,,,,,,
,Move,canvas.Screen,0_3_0_7_0_1,left,response,,625387.5999999642,625380.091,625396.733,625676.8999999762,280.1669999761507,625677.6999999881,2021-10-20T16:20:15.762Z,625696.401,1634746180,full,ni_sequenzen,NI_Sequenzen,2,7,,,,,,,,,,,,
,Move,canvas.Screen,0_3_0_7_0_2,left,response,,625683.6999999881,625679.992,625696.401,629570.5,3874.0990000000456,629571.2999999523,2021-10-20T16:20:19.656Z,629592.498,1634746180,full,ni_sequenzen,NI_Sequenzen,3,7,,,,,,,,,,,,
,Move,canvas.Screen,0_3_0_7_0_3,down,response,,629576.0999999642,629576.103,629592.498,629799.7999999523,207.30199995229486,629800.6999999881,2021-10-20T16:20:19.885Z,629842.58,1634746180,full,ni_sequenzen,NI_Sequenzen,4,7,,,,,,,,,,,,
,Move,canvas.Screen,0_3_0_7_0_4,-999,skipped,,629804.7999999523,,,629799.7999999523,,629804.8999999762,2021-10-20T16:20:19.889Z,629842.58,1634746180,full,ni_sequenzen,NI_Sequenzen,5,7,,,,,,,,,,,,
,Move,canvas.Screen,0_3_0_7_0_5,-999,skipped,,629807.0999999642,,,629799.7999999523,,629807.0999999642,2021-10-20T16:20:19.892Z,629842.58,1634746180,full,ni_sequenzen,NI_Sequenzen,6,7,,,,,,,,,,,,
,Move,canvas.Screen,0_3_0_7_0_6,-999,skipped,,629809,,,629799.7999999523,,629809.0999999642,2021-10-20T16:20:19.894Z,629842.58,1634746180,full,ni_sequenzen,NI_Sequenzen,7,7,,,,,,,,,,,,
,Move,canvas.Screen,0_3_0_7_0_7,-999,skipped,,629811.5999999642,,,629799.7999999523,,629811.6999999881,2021-10-20T16:20:19.896Z,629842.58,1634746180,full,ni_sequenzen,NI_Sequenzen,8,7,,,,,,,,,,,,
,Move,canvas.Screen,0_3_0_7_0_8,-999,skipped,,629813.6999999881,,,629799.7999999523,,629813.6999999881,2021-10-20T16:20:19.898Z,629842.58,1634746180,full,ni_sequenzen,NI_Sequenzen,9,7,,,,,,,,,,,,
,Move,canvas.Screen,0_3_0_7_0_9,-999,skipped,,629816.2999999523,,,629799.7999999523,,629816.2999999523,2021-10-20T16:20:19.901Z,629842.58,1634746180,full,ni_sequenzen,NI_Sequenzen,10,7,,,,,,,,,,,,
,Move,canvas.Screen,0_3_0_7_0_10,-999,skipped,,629819.0999999642,,,629799.7999999523,,629819.1999999881,2021-10-20T16:20:19.904Z,629842.58,1634746180,full,ni_sequenzen,NI_Sequenzen,11,7,,,,,,,,,,,,
,Move,canvas.Screen,0_3_0_7_0_11,-999,skipped,,629821.1999999881,,,629799.7999999523,,629821.1999999881,2021-10-20T16:20:19.906Z,629842.58,1634746180,full,ni_sequenzen,NI_Sequenzen,12,7,,,,,,,,,,,,
,Move,canvas.Screen,0_3_0_7_0_12,-999,skipped,,629823.3999999762,,,629799.7999999523,,629823.5,2021-10-20T16:20:19.908Z,629842.58,1634746180,full,ni_sequenzen,NI_Sequenzen,13,7,,,,,,,,,,,,
,Move,canvas.Screen,0_3_0_7_0_13,-999,skipped,,629825.3999999762,,,629799.7999999523,,629825.3999999762,2021-10-20T16:20:19.910Z,629842.58,1634746180,full,ni_sequenzen,NI_Sequenzen,14,7,,,,,,,,,,,,
,Move,canvas.Screen,0_3_0_7_0_14,-999,skipped,,629827.8999999762,,,629799.7999999523,,629828,2021-10-20T16:20:19.913Z,629842.58,1634746180,full,ni_sequenzen,NI_Sequenzen,15,7,,,,,,,,,,,,
,Loop,flow.Loop,0_3_0_7_0,-999,completion,,613450.0999999642,613441.68,613458.374,629799.7999999523,16341.425999952364,629828.0999999642,2021-10-20T16:20:19.913Z,629842.58,1634746180,full,ni_sequenzen,NI_Sequenzen,,7,,,,,,,,,,,,
,Feedback,canvas.Screen,0_3_0_7_1,,timeout,,629829.7999999523,629826.008,629842.58,633805.439,3979.1020000000717,633806.1999999881,2021-10-20T16:20:23.891Z,633821.682,1634746180,full,ni_sequenzen,NI_Sequenzen,,7,,,,,,,,,,,,
,Trial,flow.Sequence,0_3_0_7,,completion,,613427,613441.68,613458.374,633805.439,20347.06500000006,633806.3999999762,2021-10-20T16:20:23.891Z,633838.67,1634746180,full,ni_sequenzen,NI_Sequenzen,,7,,,,,,,,,,,,
,Move,canvas.Screen,0_3_0_8_0_0,down,response,,633822.5,633821.682,633838.67,639628,5789.329999999958,639628.5999999642,2021-10-20T16:20:29.725Z,639666.41,1634746180,full,ni_sequenzen,NI_Sequenzen,1,8,,,,,,,,,,,,
,Move,canvas.Screen,0_3_0_8_0_1,right,response,,639632.5999999642,639649.758,639666.41,639940.8999999762,274.48999997612555,639941.7999999523,2021-10-20T16:20:30.038Z,639949.1,1634746180,full,ni_sequenzen,NI_Sequenzen,2,8,,,,,,,,,,,,
,Move,canvas.Screen,0_3_0_8_0_2,right,response,,639946.0999999642,639932.63,639949.1,640215.3999999762,266.2999999761814,640216.2999999523,2021-10-20T16:20:30.313Z,640232.07,1634746180,full,ni_sequenzen,NI_Sequenzen,3,8,,,,,,,,,,,,
,Move,canvas.Screen,0_3_0_8_0_3,down,response,,640221.6999999881,640215.664,640232.07,640507.0999999642,275.02999996428844,640507.8999999762,2021-10-20T16:20:30.604Z,640548.565,1634746180,full,ni_sequenzen,NI_Sequenzen,4,8,,,,,,,,,,,,
,Move,canvas.Screen,0_3_0_8_0_4,-999,skipped,,640512,,,640507.0999999642,,640512.1999999881,2021-10-20T16:20:30.609Z,640548.565,1634746180,full,ni_sequenzen,NI_Sequenzen,5,8,,,,,,,,,,,,
,Move,canvas.Screen,0_3_0_8_0_5,-999,skipped,,640514.0999999642,,,640507.0999999642,,640514.1999999881,2021-10-20T16:20:30.611Z,640548.565,1634746180,full,ni_sequenzen,NI_Sequenzen,6,8,,,,,,,,,,,,
,Move,canvas.Screen,0_3_0_8_0_6,-999,skipped,,640516.0999999642,,,640507.0999999642,,640516.1999999881,2021-10-20T16:20:30.613Z,640548.565,1634746180,full,ni_sequenzen,NI_Sequenzen,7,8,,,,,,,,,,,,
,Move,canvas.Screen,0_3_0_8_0_7,-999,skipped,,640518.6999999881,,,640507.0999999642,,640518.6999999881,2021-10-20T16:20:30.615Z,640548.565,1634746180,full,ni_sequenzen,NI_Sequenzen,8,8,,,,,,,,,,,,
,Move,canvas.Screen,0_3_0_8_0_8,-999,skipped,,640520.6999999881,,,640507.0999999642,,640520.6999999881,2021-10-20T16:20:30.617Z,640548.565,1634746180,full,ni_sequenzen,NI_Sequenzen,9,8,,,,,,,,,,,,
,Move,canvas.Screen,0_3_0_8_0_9,-999,skipped,,640523.3999999762,,,640507.0999999642,,640523.5,2021-10-20T16:20:30.620Z,640548.565,1634746180,full,ni_sequenzen,NI_Sequenzen,10,8,,,,,,,,,,,,
,Move,canvas.Screen,0_3_0_8_0_10,-999,skipped,,640526.0999999642,,,640507.0999999642,,640526.1999999881,2021-10-20T16:20:30.623Z,640548.565,1634746180,full,ni_sequenzen,NI_Sequenzen,11,8,,,,,,,,,,,,
,Move,canvas.Screen,0_3_0_8_0_11,-999,skipped,,640528.0999999642,,,640507.0999999642,,640528.1999999881,2021-10-20T16:20:30.624Z,640548.565,1634746180,full,ni_sequenzen,NI_Sequenzen,12,8,,,,,,,,,,,,
,Move,canvas.Screen,0_3_0_8_0_12,-999,skipped,,640529.8999999762,,,640507.0999999642,,640530.0999999642,2021-10-20T16:20:30.626Z,640548.565,1634746180,full,ni_sequenzen,NI_Sequenzen,13,8,,,,,,,,,,,,
