meta,sender,sender_type,sender_id,response,ended_on,instrCount,time_run,time_render,time_show,time_end,duration,time_commit,timestamp,time_switch,openLabId,type,task,project,move,trialN,blockN_Train,blockN,moveCount,currPP,points,movesTrial,visitedFields,diff,reward,Strategie,Zweck,Probleme
[object Object],Screen_1,canvas.Screen,0_0_0_0,cont,response,1,771.5,772.492,889.193,9721.199999809265,8832.006999809266,9726.799999952316,2021-11-03T23:02:15.069Z,9839.221,1635980512,full,ni_sequenzen,NI_Sequenzen,,,,,,,,,,,,,,
,Screen_2,canvas.Screen,0_0_0_1,cont,response,1,9822,9822.483,9839.221,238739.89999985695,228900.67899985696,238740.59999990463,2021-11-03T23:06:04.084Z,238889.804,1635980512,full,ni_sequenzen,NI_Sequenzen,,,,,,,,,,,,,,
,Screen_3,canvas.Screen,0_0_0_2,cont,response,1,238887.59999990463,238873.057,238889.804,263834.69999980927,24944.89599980926,263835.59999990463,2021-11-03T23:06:29.179Z,263856.471,1635980512,full,ni_sequenzen,NI_Sequenzen,,,,,,,,,,,,,,
,Screen_4,canvas.Screen,0_0_0_3,cont,response,1,263844.19999980927,263838.87,263856.471,268240.7999999523,4384.328999952297,268241.89999985695,2021-11-03T23:06:33.585Z,268406.467,1635980512,full,ni_sequenzen,NI_Sequenzen,,,,,,,,,,,,,,
,Sequence,flow.Sequence,0_0_0,,completion,1,719,772.492,889.193,268240.7999999523,267351.6069999523,268248,2021-11-03T23:06:33.591Z,268406.467,1635980512,full,ni_sequenzen,NI_Sequenzen,,,,,,,,,,,,,,
,Screen_1,canvas.Screen,0_0_1_0,,skipped,2,268253,,,268253.09999990463,,268253.2999999523,2021-11-03T23:06:33.596Z,268406.467,1635980512,full,ni_sequenzen,NI_Sequenzen,,,,,,,,,,,,,,
,Screen_2,canvas.Screen,0_0_1_1,,skipped,2,268256.19999980927,,,268253.09999990463,,268256.39999985695,2021-11-03T23:06:33.600Z,268406.467,1635980512,full,ni_sequenzen,NI_Sequenzen,,,,,,,,,,,,,,
,Screen_3,canvas.Screen,0_0_1_2,,skipped,2,268258.7999999523,,,268253.09999990463,,268258.7999999523,2021-11-03T23:06:33.602Z,268406.467,1635980512,full,ni_sequenzen,NI_Sequenzen,,,,,,,,,,,,,,
,Screen_4,canvas.Screen,0_0_1_3,,skipped,2,268260.69999980927,,,268253.09999990463,,268261,2021-11-03T23:06:33.604Z,268406.467,1635980512,full,ni_sequenzen,NI_Sequenzen,,,,,,,,,,,,,,
,Sequence,flow.Sequence,0_0_1,,completion,2,268249.89999985695,,,268253.09999990463,,268261.39999985695,2021-11-03T23:06:33.604Z,268406.467,1635980512,full,ni_sequenzen,NI_Sequenzen,,,,,,,,,,,,,,
,Screen_1,canvas.Screen,0_0_2_0,,skipped,3,268263,,,268263,,268263.09999990463,2021-11-03T23:06:33.606Z,268406.467,1635980512,full,ni_sequenzen,NI_Sequenzen,,,,,,,,,,,,,,
,Screen_2,canvas.Screen,0_0_2_1,,skipped,3,268264.19999980927,,,268263,,268264.2999999523,2021-11-03T23:06:33.607Z,268406.467,1635980512,full,ni_sequenzen,NI_Sequenzen,,,,,,,,,,,,,,
,Screen_3,canvas.Screen,0_0_2_2,,skipped,3,268265.5,,,268263,,268265.69999980927,2021-11-03T23:06:33.609Z,268406.467,1635980512,full,ni_sequenzen,NI_Sequenzen,,,,,,,,,,,,,,
,Screen_4,canvas.Screen,0_0_2_3,,skipped,3,268266.5,,,268263,,268266.59999990463,2021-11-03T23:06:33.610Z,268406.467,1635980512,full,ni_sequenzen,NI_Sequenzen,,,,,,,,,,,,,,
,Sequence,flow.Sequence,0_0_2,,completion,3,268261.7999999523,,,268263,,268266.7999999523,2021-11-03T23:06:33.610Z,268406.467,1635980512,full,ni_sequenzen,NI_Sequenzen,,,,,,,,,,,,,,
,Screen_1,canvas.Screen,0_0_3_0,,skipped,4,268267.89999985695,,,268267.89999985695,,268267.89999985695,2021-11-03T23:06:33.611Z,268406.467,1635980512,full,ni_sequenzen,NI_Sequenzen,,,,,,,,,,,,,,
,Screen_2,canvas.Screen,0_0_3_1,,skipped,4,268268.7999999523,,,268267.89999985695,,268268.89999985695,2021-11-03T23:06:33.612Z,268406.467,1635980512,full,ni_sequenzen,NI_Sequenzen,,,,,,,,,,,,,,
,Screen_3,canvas.Screen,0_0_3_2,,skipped,4,268269.89999985695,,,268267.89999985695,,268270,2021-11-03T23:06:33.613Z,268406.467,1635980512,full,ni_sequenzen,NI_Sequenzen,,,,,,,,,,,,,,
,Screen_4,canvas.Screen,0_0_3_3,,skipped,4,268270.7999999523,,,268267.89999985695,,268270.89999985695,2021-11-03T23:06:33.614Z,268406.467,1635980512,full,ni_sequenzen,NI_Sequenzen,,,,,,,,,,,,,,
,Sequence,flow.Sequence,0_0_3,,completion,4,268267.19999980927,,,268267.89999985695,,268271,2021-11-03T23:06:33.614Z,268406.467,1635980512,full,ni_sequenzen,NI_Sequenzen,,,,,,,,,,,,,,
,Screen_1,canvas.Screen,0_0_4_0,,skipped,5,268272.2999999523,,,268272.2999999523,,268272.39999985695,2021-11-03T23:06:33.616Z,268406.467,1635980512,full,ni_sequenzen,NI_Sequenzen,,,,,,,,,,,,,,
,Screen_2,canvas.Screen,0_0_4_1,,skipped,5,268273.59999990463,,,268272.2999999523,,268273.59999990463,2021-11-03T23:06:33.617Z,268406.467,1635980512,full,ni_sequenzen,NI_Sequenzen,,,,,,,,,,,,,,
,Screen_3,canvas.Screen,0_0_4_2,,skipped,5,268275.19999980927,,,268272.2999999523,,268275.2999999523,2021-11-03T23:06:33.618Z,268406.467,1635980512,full,ni_sequenzen,NI_Sequenzen,,,,,,,,,,,,,,
,Screen_4,canvas.Screen,0_0_4_3,,skipped,5,268275.89999985695,,,268272.2999999523,,268275.89999985695,2021-11-03T23:06:33.619Z,268406.467,1635980512,full,ni_sequenzen,NI_Sequenzen,,,,,,,,,,,,,,
,Sequence,flow.Sequence,0_0_4,,completion,5,268271.39999985695,,,268272.2999999523,,268276.09999990463,2021-11-03T23:06:33.619Z,268406.467,1635980512,full,ni_sequenzen,NI_Sequenzen,,,,,,,,,,,,,,
,Screen_1,canvas.Screen,0_0_5_0,,skipped,6,268277,,,268277,,268277.09999990463,2021-11-03T23:06:33.620Z,268406.467,1635980512,full,ni_sequenzen,NI_Sequenzen,,,,,,,,,,,,,,
,Screen_2,canvas.Screen,0_0_5_1,,skipped,6,268277.69999980927,,,268277,,268277.7999999523,2021-11-03T23:06:33.621Z,268406.467,1635980512,full,ni_sequenzen,NI_Sequenzen,,,,,,,,,,,,,,
,Screen_3,canvas.Screen,0_0_5_2,,skipped,6,268278.39999985695,,,268277,,268278.5,2021-11-03T23:06:33.622Z,268406.467,1635980512,full,ni_sequenzen,NI_Sequenzen,,,,,,,,,,,,,,
,Screen_4,canvas.Screen,0_0_5_3,,skipped,6,268279.09999990463,,,268277,,268279.19999980927,2021-11-03T23:06:33.622Z,268406.467,1635980512,full,ni_sequenzen,NI_Sequenzen,,,,,,,,,,,,,,
,Sequence,flow.Sequence,0_0_5,,completion,6,268276.39999985695,,,268277,,268279.2999999523,2021-11-03T23:06:33.622Z,268406.467,1635980512,full,ni_sequenzen,NI_Sequenzen,,,,,,,,,,,,,,
,Screen_1,canvas.Screen,0_0_6_0,,skipped,7,268280.09999990463,,,268280.09999990463,,268280.09999990463,2021-11-03T23:06:33.623Z,268406.467,1635980512,full,ni_sequenzen,NI_Sequenzen,,,,,,,,,,,,,,
,Screen_2,canvas.Screen,0_0_6_1,,skipped,7,268280.69999980927,,,268280.09999990463,,268280.7999999523,2021-11-03T23:06:33.624Z,268406.467,1635980512,full,ni_sequenzen,NI_Sequenzen,,,,,,,,,,,,,,
,Screen_3,canvas.Screen,0_0_6_2,,skipped,7,268281.2999999523,,,268280.09999990463,,268281.2999999523,2021-11-03T23:06:33.624Z,268406.467,1635980512,full,ni_sequenzen,NI_Sequenzen,,,,,,,,,,,,,,
,Screen_4,canvas.Screen,0_0_6_3,,skipped,7,268282,,,268280.09999990463,,268282,2021-11-03T23:06:33.625Z,268406.467,1635980512,full,ni_sequenzen,NI_Sequenzen,,,,,,,,,,,,,,
,Sequence,flow.Sequence,0_0_6,,completion,7,268279.59999990463,,,268280.09999990463,,268282,2021-11-03T23:06:33.625Z,268406.467,1635980512,full,ni_sequenzen,NI_Sequenzen,,,,,,,,,,,,,,
,Screen_1,canvas.Screen,0_0_7_0,,skipped,8,268282.69999980927,,,268282.69999980927,,268282.7999999523,2021-11-03T23:06:33.626Z,268406.467,1635980512,full,ni_sequenzen,NI_Sequenzen,,,,,,,,,,,,,,
,Screen_2,canvas.Screen,0_0_7_1,,skipped,8,268283.2999999523,,,268282.69999980927,,268283.39999985695,2021-11-03T23:06:33.627Z,268406.467,1635980512,full,ni_sequenzen,NI_Sequenzen,,,,,,,,,,,,,,
,Screen_3,canvas.Screen,0_0_7_2,,skipped,8,268284.19999980927,,,268282.69999980927,,268284.7999999523,2021-11-03T23:06:33.628Z,268406.467,1635980512,full,ni_sequenzen,NI_Sequenzen,,,,,,,,,,,,,,
,Screen_4,canvas.Screen,0_0_7_3,,skipped,8,268285.5,,,268282.69999980927,,268285.5,2021-11-03T23:06:33.629Z,268406.467,1635980512,full,ni_sequenzen,NI_Sequenzen,,,,,,,,,,,,,,
,Sequence,flow.Sequence,0_0_7,,completion,8,268282.2999999523,,,268282.69999980927,,268285.59999990463,2021-11-03T23:06:33.629Z,268406.467,1635980512,full,ni_sequenzen,NI_Sequenzen,,,,,,,,,,,,,,
,Screen_1,canvas.Screen,0_0_8_0,,skipped,9,268286.2999999523,,,268286.2999999523,,268286.39999985695,2021-11-03T23:06:33.629Z,268406.467,1635980512,full,ni_sequenzen,NI_Sequenzen,,,,,,,,,,,,,,
,Screen_2,canvas.Screen,0_0_8_1,,skipped,9,268286.89999985695,,,268286.2999999523,,268286.89999985695,2021-11-03T23:06:33.630Z,268406.467,1635980512,full,ni_sequenzen,NI_Sequenzen,,,,,,,,,,,,,,
,Screen_3,canvas.Screen,0_0_8_2,,skipped,9,268287.39999985695,,,268286.2999999523,,268287.39999985695,2021-11-03T23:06:33.631Z,268406.467,1635980512,full,ni_sequenzen,NI_Sequenzen,,,,,,,,,,,,,,
,Screen_4,canvas.Screen,0_0_8_3,,skipped,9,268287.89999985695,,,268286.2999999523,,268287.89999985695,2021-11-03T23:06:33.631Z,268406.467,1635980512,full,ni_sequenzen,NI_Sequenzen,,,,,,,,,,,,,,
,Sequence,flow.Sequence,0_0_8,,completion,9,268285.89999985695,,,268286.2999999523,,268288.09999990463,2021-11-03T23:06:33.631Z,268406.467,1635980512,full,ni_sequenzen,NI_Sequenzen,,,,,,,,,,,,,,
,Screen_1,canvas.Screen,0_0_9_0,,skipped,10,268288.89999985695,,,268288.89999985695,,268288.89999985695,2021-11-03T23:06:33.632Z,268406.467,1635980512,full,ni_sequenzen,NI_Sequenzen,,,,,,,,,,,,,,
,Screen_2,canvas.Screen,0_0_9_1,,skipped,10,268289.39999985695,,,268288.89999985695,,268289.5,2021-11-03T23:06:33.633Z,268406.467,1635980512,full,ni_sequenzen,NI_Sequenzen,,,,,,,,,,,,,,
,Screen_3,canvas.Screen,0_0_9_2,,skipped,10,268290.09999990463,,,268288.89999985695,,268290.19999980927,2021-11-03T23:06:33.633Z,268406.467,1635980512,full,ni_sequenzen,NI_Sequenzen,,,,,,,,,,,,,,
,Screen_4,canvas.Screen,0_0_9_3,,skipped,10,268290.89999985695,,,268288.89999985695,,268290.89999985695,2021-11-03T23:06:33.634Z,268406.467,1635980512,full,ni_sequenzen,NI_Sequenzen,,,,,,,,,,,,,,
,Sequence,flow.Sequence,0_0_9,,completion,10,268288.2999999523,,,268288.89999985695,,268291,2021-11-03T23:06:33.634Z,268406.467,1635980512,full,ni_sequenzen,NI_Sequenzen,,,,,,,,,,,,,,
,Screen_1,canvas.Screen,0_0_10_0,,skipped,11,268291.69999980927,,,268291.69999980927,,268291.7999999523,2021-11-03T23:06:33.635Z,268406.467,1635980512,full,ni_sequenzen,NI_Sequenzen,,,,,,,,,,,,,,
,Screen_2,canvas.Screen,0_0_10_1,,skipped,11,268292.2999999523,,,268291.69999980927,,268292.2999999523,2021-11-03T23:06:33.635Z,268406.467,1635980512,full,ni_sequenzen,NI_Sequenzen,,,,,,,,,,,,,,
,Screen_3,canvas.Screen,0_0_10_2,,skipped,11,268292.69999980927,,,268291.69999980927,,268292.69999980927,2021-11-03T23:06:33.636Z,268406.467,1635980512,full,ni_sequenzen,NI_Sequenzen,,,,,,,,,,,,,,
,Screen_4,canvas.Screen,0_0_10_3,,skipped,11,268293.09999990463,,,268291.69999980927,,268293.19999980927,2021-11-03T23:06:33.636Z,268406.467,1635980512,full,ni_sequenzen,NI_Sequenzen,,,,,,,,,,,,,,
,Sequence,flow.Sequence,0_0_10,,completion,11,268291.19999980927,,,268291.69999980927,,268293.2999999523,2021-11-03T23:06:33.636Z,268406.467,1635980512,full,ni_sequenzen,NI_Sequenzen,,,,,,,,,,,,,,
,Screen_1,canvas.Screen,0_0_11_0,,skipped,12,268294.5,,,268294.5,,268294.5,2021-11-03T23:06:33.638Z,268406.467,1635980512,full,ni_sequenzen,NI_Sequenzen,,,,,,,,,,,,,,
,Screen_2,canvas.Screen,0_0_11_1,,skipped,12,268295.69999980927,,,268294.5,,268295.69999980927,2021-11-03T23:06:33.639Z,268406.467,1635980512,full,ni_sequenzen,NI_Sequenzen,,,,,,,,,,,,,,
,Screen_3,canvas.Screen,0_0_11_2,,skipped,12,268296.2999999523,,,268294.5,,268296.2999999523,2021-11-03T23:06:33.639Z,268406.467,1635980512,full,ni_sequenzen,NI_Sequenzen,,,,,,,,,,,,,,
,Screen_4,canvas.Screen,0_0_11_3,,skipped,12,268296.89999985695,,,268294.5,,268296.89999985695,2021-11-03T23:06:33.640Z,268406.467,1635980512,full,ni_sequenzen,NI_Sequenzen,,,,,,,,,,,,,,
,Sequence,flow.Sequence,0_0_11,,completion,12,268293.89999985695,,,268294.5,,268297.09999990463,2021-11-03T23:06:33.640Z,268406.467,1635980512,full,ni_sequenzen,NI_Sequenzen,,,,,,,,,,,,,,
,Screen_1,canvas.Screen,0_0_12_0,,skipped,13,268297.69999980927,,,268297.69999980927,,268297.69999980927,2021-11-03T23:06:33.641Z,268406.467,1635980512,full,ni_sequenzen,NI_Sequenzen,,,,,,,,,,,,,,
,Screen_2,canvas.Screen,0_0_12_1,,skipped,13,268298.09999990463,,,268297.69999980927,,268298.19999980927,2021-11-03T23:06:33.641Z,268406.467,1635980512,full,ni_sequenzen,NI_Sequenzen,,,,,,,,,,,,,,
,Screen_3,canvas.Screen,0_0_12_2,,skipped,13,268298.69999980927,,,268297.69999980927,,268298.69999980927,2021-11-03T23:06:33.642Z,268406.467,1635980512,full,ni_sequenzen,NI_Sequenzen,,,,,,,,,,,,,,
,Screen_4,canvas.Screen,0_0_12_3,,skipped,13,268299.09999990463,,,268297.69999980927,,268299.09999990463,2021-11-03T23:06:33.642Z,268406.467,1635980512,full,ni_sequenzen,NI_Sequenzen,,,,,,,,,,,,,,
,Sequence,flow.Sequence,0_0_12,,completion,13,268297.19999980927,,,268297.69999980927,,268299.19999980927,2021-11-03T23:06:33.642Z,268406.467,1635980512,full,ni_sequenzen,NI_Sequenzen,,,,,,,,,,,,,,
,Screen_1,canvas.Screen,0_0_13_0,,skipped,14,268299.89999985695,,,268299.89999985695,,268300,2021-11-03T23:06:33.643Z,268406.467,1635980512,full,ni_sequenzen,NI_Sequenzen,,,,,,,,,,,,,,
,Screen_2,canvas.Screen,0_0_13_1,,skipped,14,268300.39999985695,,,268299.89999985695,,268300.5,2021-11-03T23:06:33.644Z,268406.467,1635980512,full,ni_sequenzen,NI_Sequenzen,,,,,,,,,,,,,,
,Screen_3,canvas.Screen,0_0_13_2,,skipped,14,268300.89999985695,,,268299.89999985695,,268300.89999985695,2021-11-03T23:06:33.644Z,268406.467,1635980512,full,ni_sequenzen,NI_Sequenzen,,,,,,,,,,,,,,
,Screen_4,canvas.Screen,0_0_13_3,,skipped,14,268301.39999985695,,,268299.89999985695,,268301.5,2021-11-03T23:06:33.645Z,268406.467,1635980512,full,ni_sequenzen,NI_Sequenzen,,,,,,,,,,,,,,
,Sequence,flow.Sequence,0_0_13,,completion,14,268299.5,,,268299.89999985695,,268301.5,2021-11-03T23:06:33.645Z,268406.467,1635980512,full,ni_sequenzen,NI_Sequenzen,,,,,,,,,,,,,,
,Screen_1,canvas.Screen,0_0_14_0,,skipped,15,268302.09999990463,,,268302.09999990463,,268302.19999980927,2021-11-03T23:06:33.645Z,268406.467,1635980512,full,ni_sequenzen,NI_Sequenzen,,,,,,,,,,,,,,
,Screen_2,canvas.Screen,0_0_14_1,,skipped,15,268302.59999990463,,,268302.09999990463,,268302.69999980927,2021-11-03T23:06:33.646Z,268406.467,1635980512,full,ni_sequenzen,NI_Sequenzen,,,,,,,,,,,,,,
,Screen_3,canvas.Screen,0_0_14_2,,skipped,15,268303.59999990463,,,268302.09999990463,,268303.69999980927,2021-11-03T23:06:33.647Z,268406.467,1635980512,full,ni_sequenzen,NI_Sequenzen,,,,,,,,,,,,,,
,Screen_4,canvas.Screen,0_0_14_3,,skipped,15,268304.19999980927,,,268302.09999990463,,268304.2999999523,2021-11-03T23:06:33.647Z,268406.467,1635980512,full,ni_sequenzen,NI_Sequenzen,,,,,,,,,,,,,,
,Sequence,flow.Sequence,0_0_14,,completion,15,268301.69999980927,,,268302.09999990463,,268304.39999985695,2021-11-03T23:06:33.648Z,268406.467,1635980512,full,ni_sequenzen,NI_Sequenzen,,,,,,,,,,,,,,
,Screen_1,canvas.Screen,0_0_15_0,,skipped,16,268305.19999980927,,,268305.19999980927,,268305.2999999523,2021-11-03T23:06:33.648Z,268406.467,1635980512,full,ni_sequenzen,NI_Sequenzen,,,,,,,,,,,,,,
,Screen_2,canvas.Screen,0_0_15_1,,skipped,16,268305.69999980927,,,268305.19999980927,,268305.69999980927,2021-11-03T23:06:33.649Z,268406.467,1635980512,full,ni_sequenzen,NI_Sequenzen,,,,,,,,,,,,,,
,Screen_3,canvas.Screen,0_0_15_2,,skipped,16,268306.19999980927,,,268305.19999980927,,268306.19999980927,2021-11-03T23:06:33.649Z,268406.467,1635980512,full,ni_sequenzen,NI_Sequenzen,,,,,,,,,,,,,,
,Screen_4,canvas.Screen,0_0_15_3,,skipped,16,268307.89999985695,,,268305.19999980927,,268307.89999985695,2021-11-03T23:06:33.651Z,268406.467,1635980512,full,ni_sequenzen,NI_Sequenzen,,,,,,,,,,,,,,
,Sequence,flow.Sequence,0_0_15,,completion,16,268304.69999980927,,,268305.19999980927,,268308,2021-11-03T23:06:33.651Z,268406.467,1635980512,full,ni_sequenzen,NI_Sequenzen,,,,,,,,,,,,,,
,Screen_1,canvas.Screen,0_0_16_0,,skipped,17,268308.69999980927,,,268308.69999980927,,268308.7999999523,2021-11-03T23:06:33.652Z,268406.467,1635980512,full,ni_sequenzen,NI_Sequenzen,,,,,,,,,,,,,,
,Screen_2,canvas.Screen,0_0_16_1,,skipped,17,268309.2999999523,,,268308.69999980927,,268309.2999999523,2021-11-03T23:06:33.652Z,268406.467,1635980512,full,ni_sequenzen,NI_Sequenzen,,,,,,,,,,,,,,
,Screen_3,canvas.Screen,0_0_16_2,,skipped,17,268309.89999985695,,,268308.69999980927,,268310,2021-11-03T23:06:33.653Z,268406.467,1635980512,full,ni_sequenzen,NI_Sequenzen,,,,,,,,,,,,,,
,Screen_4,canvas.Screen,0_0_16_3,,skipped,17,268310.5,,,268308.69999980927,,268310.5,2021-11-03T23:06:33.654Z,268406.467,1635980512,full,ni_sequenzen,NI_Sequenzen,,,,,,,,,,,,,,
,Sequence,flow.Sequence,0_0_16,,completion,17,268308.19999980927,,,268308.69999980927,,268310.59999990463,2021-11-03T23:06:33.654Z,268406.467,1635980512,full,ni_sequenzen,NI_Sequenzen,,,,,,,,,,,,,,
,Screen_1,canvas.Screen,0_0_17_0,,skipped,18,268311.19999980927,,,268311.19999980927,,268311.2999999523,2021-11-03T23:06:33.654Z,268406.467,1635980512,full,ni_sequenzen,NI_Sequenzen,,,,,,,,,,,,,,
,Screen_2,canvas.Screen,0_0_17_1,,skipped,18,268311.69999980927,,,268311.19999980927,,268311.69999980927,2021-11-03T23:06:33.655Z,268406.467,1635980512,full,ni_sequenzen,NI_Sequenzen,,,,,,,,,,,,,,
,Screen_3,canvas.Screen,0_0_17_2,,skipped,18,268312.09999990463,,,268311.19999980927,,268312.19999980927,2021-11-03T23:06:33.655Z,268406.467,1635980512,full,ni_sequenzen,NI_Sequenzen,,,,,,,,,,,,,,
,Screen_4,canvas.Screen,0_0_17_3,,skipped,18,268312.69999980927,,,268311.19999980927,,268312.69999980927,2021-11-03T23:06:33.656Z,268406.467,1635980512,full,ni_sequenzen,NI_Sequenzen,,,,,,,,,,,,,,
,Sequence,flow.Sequence,0_0_17,,completion,18,268310.7999999523,,,268311.19999980927,,268313.5,2021-11-03T23:06:33.657Z,268406.467,1635980512,full,ni_sequenzen,NI_Sequenzen,,,,,,,,,,,,,,
,Screen_1,canvas.Screen,0_0_18_0,,skipped,19,268314.09999990463,,,268314.09999990463,,268314.09999990463,2021-11-03T23:06:33.657Z,268406.467,1635980512,full,ni_sequenzen,NI_Sequenzen,,,,,,,,,,,,,,
,Screen_2,canvas.Screen,0_0_18_1,,skipped,19,268314.59999990463,,,268314.09999990463,,268314.59999990463,2021-11-03T23:06:33.658Z,268406.467,1635980512,full,ni_sequenzen,NI_Sequenzen,,,,,,,,,,,,,,
,Screen_3,canvas.Screen,0_0_18_2,,skipped,19,268314.89999985695,,,268314.09999990463,,268315.09999990463,2021-11-03T23:06:33.658Z,268406.467,1635980512,full,ni_sequenzen,NI_Sequenzen,,,,,,,,,,,,,,
,Screen_4,canvas.Screen,0_0_18_3,,skipped,19,268315.5,,,268314.09999990463,,268315.5,2021-11-03T23:06:33.659Z,268406.467,1635980512,full,ni_sequenzen,NI_Sequenzen,,,,,,,,,,,,,,
,Sequence,flow.Sequence,0_0_18,,completion,19,268313.59999990463,,,268314.09999990463,,268315.5,2021-11-03T23:06:33.659Z,268406.467,1635980512,full,ni_sequenzen,NI_Sequenzen,,,,,,,,,,,,,,
,Screen_1,canvas.Screen,0_0_19_0,,skipped,20,268316.19999980927,,,268316.19999980927,,268316.19999980927,2021-11-03T23:06:33.659Z,268406.467,1635980512,full,ni_sequenzen,NI_Sequenzen,,,,,,,,,,,,,,
,Screen_2,canvas.Screen,0_0_19_1,,skipped,20,268316.59999990463,,,268316.19999980927,,268316.69999980927,2021-11-03T23:06:33.660Z,268406.467,1635980512,full,ni_sequenzen,NI_Sequenzen,,,,,,,,,,,,,,
,Screen_3,canvas.Screen,0_0_19_2,,skipped,20,268317.09999990463,,,268316.19999980927,,268317.09999990463,2021-11-03T23:06:33.660Z,268406.467,1635980512,full,ni_sequenzen,NI_Sequenzen,,,,,,,,,,,,,,
,Screen_4,canvas.Screen,0_0_19_3,,skipped,20,268317.5,,,268316.19999980927,,268317.5,2021-11-03T23:06:33.661Z,268406.467,1635980512,full,ni_sequenzen,NI_Sequenzen,,,,,,,,,,,,,,
,Sequence,flow.Sequence,0_0_19,,completion,20,268315.69999980927,,,268316.19999980927,,268317.59999990463,2021-11-03T23:06:33.661Z,268406.467,1635980512,full,ni_sequenzen,NI_Sequenzen,,,,,,,,,,,,,,
,Instructions_I,flow.Loop,0_0,,completion,,716.5,772.492,889.193,268316.19999980927,267427.00699980924,268317.69999980927,2021-11-03T23:06:33.661Z,268406.467,1635980512,full,ni_sequenzen,NI_Sequenzen,,,,,,,,,,,,,,
,Move,canvas.Screen,0_1_0_0,right,response,,268397.19999980927,268389.967,268406.467,270357.69999980927,1951.232999809261,270359.09999990463,2021-11-03T23:06:35.702Z,270373.377,1635980512,full,ni_sequenzen,NI_Sequenzen,1,,,,,,,,,,,,,
,Move,canvas.Screen,0_1_0_1,left,response,,270363.69999980927,270356.481,270373.377,271195.39999985695,822.0229998569703,271196.39999985695,2021-11-03T23:06:36.540Z,271206.452,1635980512,full,ni_sequenzen,NI_Sequenzen,2,,,,,,,,,,,,,
,Move,canvas.Screen,0_1_0_2,down,response,,271202.59999990463,271190.063,271206.452,272475.2999999523,1268.847999952326,272476.19999980927,2021-11-03T23:06:37.819Z,272489.952,1635980512,full,ni_sequenzen,NI_Sequenzen,3,,,,,,,,,,,,,
,Move,canvas.Screen,0_1_0_3,down,response,,272478.7999999523,272473.237,272489.952,272764.39999985695,274.44799985695863,272765.2999999523,2021-11-03T23:06:38.108Z,272773.15,1635980512,full,ni_sequenzen,NI_Sequenzen,4,,,,,,,,,,,,,
,Move,canvas.Screen,0_1_0_4,down,response,,272769.39999985695,272756.768,272773.15,272991.59999990463,218.44999990460929,272992.2999999523,2021-11-03T23:06:38.335Z,273006.702,1635980512,full,ni_sequenzen,NI_Sequenzen,5,,,,,,,,,,,,,
,Move,canvas.Screen,0_1_0_5,left,response,,272995.19999980927,272989.864,273006.702,273307.09999990463,300.39799990464235,273308.09999990463,2021-11-03T23:06:38.651Z,273323.207,1635980512,full,ni_sequenzen,NI_Sequenzen,6,,,,,,,,,,,,,
,Move,canvas.Screen,0_1_0_6,right,response,,273311.7999999523,273306.652,273323.207,273554.5,231.29300000000512,273555.19999980927,2021-11-03T23:06:38.898Z,273573.202,1635980512,full,ni_sequenzen,NI_Sequenzen,7,,,,,,,,,,,,,
,Move,canvas.Screen,0_1_0_7,right,response,,273557.19999980927,273556.628,273573.202,274017.59999990463,444.39799990464235,274018.09999990463,2021-11-03T23:06:39.361Z,274023.164,1635980512,full,ni_sequenzen,NI_Sequenzen,8,,,,,,,,,,,,,
,Move,canvas.Screen,0_1_0_8,left,response,,274020.09999990463,274006.521,274023.164,274283.39999985695,260.2359998569591,274284.39999985695,2021-11-03T23:06:39.628Z,274289.9,1635980512,full,ni_sequenzen,NI_Sequenzen,9,,,,,,,,,,,,,
,Move,canvas.Screen,0_1_0_9,down,response,,274287.09999990463,274273.209,274289.9,275239.7999999523,949.899999952293,275240.89999985695,2021-11-03T23:06:40.584Z,275256.512,1635980512,full,ni_sequenzen,NI_Sequenzen,10,,,,,,,,,,,,,
,Move,canvas.Screen,0_1_0_10,down,response,,275244.5,275240.066,275256.512,275680.39999985695,423.88799985696096,275680.89999985695,2021-11-03T23:06:41.024Z,275690.015,1635980512,full,ni_sequenzen,NI_Sequenzen,11,,,,,,,,,,,,,
,Move,canvas.Screen,0_1_0_11,down,response,,275681.89999985695,275673.157,275690.015,275928.5,238.48499999998603,275929,2021-11-03T23:06:41.272Z,275939.866,1635980512,full,ni_sequenzen,NI_Sequenzen,12,,,,,,,,,,,,,
,Move,canvas.Screen,0_1_0_12,down,response,,275931.09999990463,275923.407,275939.866,276376.59999990463,436.7339999046526,276377.39999985695,2021-11-03T23:06:41.721Z,276389.899,1635980512,full,ni_sequenzen,NI_Sequenzen,13,,,,,,,,,,,,,
,Move,canvas.Screen,0_1_0_13,left,response,,276381.39999985695,276373.201,276389.899,276849.2999999523,459.4009999523405,276850.2999999523,2021-11-03T23:06:42.193Z,276856.529,1635980512,full,ni_sequenzen,NI_Sequenzen,14,,,,,,,,,,,,,
,Move,canvas.Screen,0_1_0_14,left,response,,276853.69999980927,276839.843,276856.529,277505.39999985695,648.8709998569684,277506.2999999523,2021-11-03T23:06:42.849Z,277523.302,1635980512,full,ni_sequenzen,NI_Sequenzen,15,,,,,,,,,,,,,
,Move,canvas.Screen,0_1_0_15,left,response,,277510.5,277506.536,277523.302,277998.5,475.19799999997485,277998.89999985695,2021-11-03T23:06:43.342Z,278006.598,1635980512,full,ni_sequenzen,NI_Sequenzen,16,,,,,,,,,,,,,
,Move,canvas.Screen,0_1_0_16,right,response,,277999.89999985695,277989.927,278006.598,278843.09999990463,836.5019999046344,278844,2021-11-03T23:06:44.187Z,278856.729,1635980512,full,ni_sequenzen,NI_Sequenzen,17,,,,,,,,,,,,,
,Move,canvas.Screen,0_1_0_17,down,response,,278847.59999990463,278839.998,278856.729,279372.2999999523,515.5709999523242,279373.09999990463,2021-11-03T23:06:44.716Z,279390.065,1635980512,full,ni_sequenzen,NI_Sequenzen,18,,,,,,,,,,,,,
,Move,canvas.Screen,0_1_0_18,down,response,,279376.39999985695,279373.206,279390.065,280061.5,671.4349999999977,280062.2999999523,2021-11-03T23:06:45.405Z,280073.196,1635980512,full,ni_sequenzen,NI_Sequenzen,19,,,,,,,,,,,,,
,Move,canvas.Screen,0_1_0_19,right,response,,280065.89999985695,280056.696,280073.196,280797.2999999523,724.10399995232,280798,2021-11-03T23:06:46.141Z,280806.594,1635980512,full,ni_sequenzen,NI_Sequenzen,20,,,,,,,,,,,,,
,Move,canvas.Screen,0_1_0_20,down,response,,280801.39999985695,280789.922,280806.594,281267.89999985695,461.3059998569661,281268.89999985695,2021-11-03T23:06:46.612Z,281289.871,1635980512,full,ni_sequenzen,NI_Sequenzen,21,,,,,,,,,,,,,
,Move,canvas.Screen,0_1_0_21,right,response,,281272.5,281256.631,281289.871,281599.7999999523,309.92899995233165,281600.09999990463,2021-11-03T23:06:46.943Z,281606.471,1635980512,full,ni_sequenzen,NI_Sequenzen,22,,,,,,,,,,,,,
,Move,canvas.Screen,0_1_0_22,down,response,,281604.19999980927,281589.889,281606.471,282005.69999980927,399.2289998092456,282006.19999980927,2021-11-03T23:06:47.349Z,282023.428,1635980512,full,ni_sequenzen,NI_Sequenzen,23,,,,,,,,,,,,,
,Move,canvas.Screen,0_1_0_23,down,response,,282008.19999980927,282006.577,282023.428,282638.5,615.0719999999856,282638.7999999523,2021-11-03T23:06:47.982Z,282656.52,1635980512,full,ni_sequenzen,NI_Sequenzen,24,,,,,,,,,,,,,
,Move,canvas.Screen,0_1_0_24,down,response,,282639.89999985695,282640.002,282656.52,283050.89999985695,394.3799998569302,283051.09999990463,2021-11-03T23:06:48.394Z,283056.465,1635980512,full,ni_sequenzen,NI_Sequenzen,25,,,,,,,,,,,,,
,Move,canvas.Screen,0_1_0_25,left,response,,283052.09999990463,283039.842,283056.465,283420.09999990463,363.63499990460696,283420.59999990463,2021-11-03T23:06:48.764Z,283441.136,1635980512,full,ni_sequenzen,NI_Sequenzen,26,,,,,,,,,,,,,
,Move,canvas.Screen,0_1_0_26,left,response,,283422.09999990463,283406.544,283441.136,284010.2999999523,569.1639999523177,284010.7999999523,2021-11-03T23:06:49.354Z,284023.172,1635980512,full,ni_sequenzen,NI_Sequenzen,27,,,,,,,,,,,,,
,Move,canvas.Screen,0_1_0_27,down,response,,284012.19999980927,284006.505,284023.172,286697.39999985695,2674.2279998569284,286697.89999985695,2021-11-03T23:06:52.041Z,286706.569,1635980512,full,ni_sequenzen,NI_Sequenzen,28,,,,,,,,,,,,,
,Move,canvas.Screen,0_1_0_28,down,response,,286700.09999990463,286689.987,286706.569,286938.5,231.9309999999823,286938.89999985695,2021-11-03T23:06:52.282Z,286956.55,1635980512,full,ni_sequenzen,NI_Sequenzen,29,,,,,,,,,,,,,
,Move,canvas.Screen,0_1_0_29,right,response,,286940.09999990463,286939.943,286956.55,288272.2999999523,1315.749999952328,288273.2999999523,2021-11-03T23:06:53.617Z,288306.519,1635980512,full,ni_sequenzen,NI_Sequenzen,30,,,,,,,,,,,,,
,Loop,flow.Loop,0_1_0,-999,completion,,268324.2999999523,268389.967,268406.467,288272.2999999523,19865.832999952312,288273.7999999523,2021-11-03T23:06:53.617Z,288306.519,1635980512,full,ni_sequenzen,NI_Sequenzen,,,,,,,,,,,,,,
,Training_I,flow.Sequence,0_1,,completion,,268317.89999985695,268389.967,268406.467,288272.2999999523,19865.832999952312,288274,2021-11-03T23:06:53.617Z,288306.519,1635980512,full,ni_sequenzen,NI_Sequenzen,,,,,,,,,,,,,,
,Screen_1,canvas.Screen,0_2_0_0,cont,response,1,288304,288290.009,288306.519,315286.59999990463,26980.08099990466,315287,2021-11-03T23:07:20.630Z,315406.567,1635980512,full,ni_sequenzen,NI_Sequenzen,,,,,,,,,,,,,,
,Screen_2,canvas.Screen,0_2_0_1,cont,response,1,315398.7999999523,315389.884,315406.567,322727.39999985695,7320.832999856968,322728.2999999523,2021-11-03T23:07:28.071Z,322740.042,1635980512,full,ni_sequenzen,NI_Sequenzen,,,,,,,,,,,,,,
,Screen_3,canvas.Screen,0_2_0_2,cont,response,1,322733.69999980927,322723.15,322740.042,334820.59999990463,12080.557999904617,334821.5,2021-11-03T23:07:40.164Z,334906.701,1635980512,full,ni_sequenzen,NI_Sequenzen,,,,,,,,,,,,,,
,Screen_4,canvas.Screen,0_2_0_3,cont,response,1,334901,334889.771,334906.701,339416.09999990463,4509.398999904632,339416.5,2021-11-03T23:07:44.759Z,339423.312,1635980512,full,ni_sequenzen,NI_Sequenzen,,,,,,,,,,,,,,
,Screen_5,canvas.Screen,0_2_0_4,cont,response,1,339418,339406.645,339423.312,343972.89999985695,4549.587999856973,343973.89999985695,2021-11-03T23:07:49.317Z,344056.802,1635980512,full,ni_sequenzen,NI_Sequenzen,,,,,,,,,,,,,,
,Screen_6,canvas.Screen,0_2_0_5,cont,response,1,344041.59999990463,344039.993,344056.802,351117.09999990463,7060.297999904607,351117.5,2021-11-03T23:07:56.460Z,351240.022,1635980512,full,ni_sequenzen,NI_Sequenzen,,,,,,,,,,,,,,
,Sequence,flow.Sequence,0_2_0,,completion,1,288303.19999980927,288290.009,288306.519,351117.09999990463,62810.58099990466,351118.59999990463,2021-11-03T23:07:56.461Z,351240.022,1635980512,full,ni_sequenzen,NI_Sequenzen,,,,,,,,,,,,,,
,Screen_1,canvas.Screen,0_2_1_0,,skipped,2,351120.5,,,351120.5,,351120.5,2021-11-03T23:07:56.463Z,351240.022,1635980512,full,ni_sequenzen,NI_Sequenzen,,,,,,,,,,,,,,
,Screen_2,canvas.Screen,0_2_1_1,,skipped,2,351121.19999980927,,,351120.5,,351121.2999999523,2021-11-03T23:07:56.464Z,351240.022,1635980512,full,ni_sequenzen,NI_Sequenzen,,,,,,,,,,,,,,
,Screen_3,canvas.Screen,0_2_1_2,,skipped,2,351121.89999985695,,,351120.5,,351121.89999985695,2021-11-03T23:07:56.465Z,351240.022,1635980512,full,ni_sequenzen,NI_Sequenzen,,,,,,,,,,,,,,
,Screen_4,canvas.Screen,0_2_1_3,,skipped,2,351122.5,,,351120.5,,351122.59999990463,2021-11-03T23:07:56.465Z,351240.022,1635980512,full,ni_sequenzen,NI_Sequenzen,,,,,,,,,,,,,,
,Screen_5,canvas.Screen,0_2_1_4,,skipped,2,351123.19999980927,,,351120.5,,351123.2999999523,2021-11-03T23:07:56.466Z,351240.022,1635980512,full,ni_sequenzen,NI_Sequenzen,,,,,,,,,,,,,,
,Screen_6,canvas.Screen,0_2_1_5,,skipped,2,351123.89999985695,,,351120.5,,351124,2021-11-03T23:07:56.467Z,351240.022,1635980512,full,ni_sequenzen,NI_Sequenzen,,,,,,,,,,,,,,
,Sequence,flow.Sequence,0_2_1,,completion,2,351119.69999980927,,,351120.5,,351124,2021-11-03T23:07:56.467Z,351240.022,1635980512,full,ni_sequenzen,NI_Sequenzen,,,,,,,,,,,,,,
,Screen_1,canvas.Screen,0_2_2_0,,skipped,3,351124.7999999523,,,351124.7999999523,,351124.7999999523,2021-11-03T23:07:56.468Z,351240.022,1635980512,full,ni_sequenzen,NI_Sequenzen,,,,,,,,,,,,,,
,Screen_2,canvas.Screen,0_2_2_1,,skipped,3,351125.59999990463,,,351124.7999999523,,351125.59999990463,2021-11-03T23:07:56.468Z,351240.022,1635980512,full,ni_sequenzen,NI_Sequenzen,,,,,,,,,,,,,,
,Screen_3,canvas.Screen,0_2_2_2,,skipped,3,351126.09999990463,,,351124.7999999523,,351126.19999980927,2021-11-03T23:07:56.469Z,351240.022,1635980512,full,ni_sequenzen,NI_Sequenzen,,,,,,,,,,,,,,
,Screen_4,canvas.Screen,0_2_2_3,,skipped,3,351127.09999990463,,,351124.7999999523,,351127.2999999523,2021-11-03T23:07:56.470Z,351240.022,1635980512,full,ni_sequenzen,NI_Sequenzen,,,,,,,,,,,,,,
,Screen_5,canvas.Screen,0_2_2_4,,skipped,3,351127.7999999523,,,351124.7999999523,,351127.7999999523,2021-11-03T23:07:56.471Z,351240.022,1635980512,full,ni_sequenzen,NI_Sequenzen,,,,,,,,,,,,,,
,Screen_6,canvas.Screen,0_2_2_5,,skipped,3,351128.2999999523,,,351124.7999999523,,351128.5,2021-11-03T23:07:56.471Z,351240.022,1635980512,full,ni_sequenzen,NI_Sequenzen,,,,,,,,,,,,,,
,Sequence,flow.Sequence,0_2_2,,completion,3,351124.2999999523,,,351124.7999999523,,351128.5,2021-11-03T23:07:56.471Z,351240.022,1635980512,full,ni_sequenzen,NI_Sequenzen,,,,,,,,,,,,,,
,Screen_1,canvas.Screen,0_2_3_0,,skipped,4,351129.19999980927,,,351129.19999980927,,351129.19999980927,2021-11-03T23:07:56.472Z,351240.022,1635980512,full,ni_sequenzen,NI_Sequenzen,,,,,,,,,,,,,,
,Screen_2,canvas.Screen,0_2_3_1,,skipped,4,351129.7999999523,,,351129.19999980927,,351129.7999999523,2021-11-03T23:07:56.473Z,351240.022,1635980512,full,ni_sequenzen,NI_Sequenzen,,,,,,,,,,,,,,
,Screen_3,canvas.Screen,0_2_3_2,,skipped,4,351130.39999985695,,,351129.19999980927,,351130.39999985695,2021-11-03T23:07:56.473Z,351240.022,1635980512,full,ni_sequenzen,NI_Sequenzen,,,,,,,,,,,,,,
,Screen_4,canvas.Screen,0_2_3_3,,skipped,4,351130.89999985695,,,351129.19999980927,,351130.89999985695,2021-11-03T23:07:56.474Z,351240.022,1635980512,full,ni_sequenzen,NI_Sequenzen,,,,,,,,,,,,,,
,Screen_5,canvas.Screen,0_2_3_4,,skipped,4,351131.39999985695,,,351129.19999980927,,351131.5,2021-11-03T23:07:56.474Z,351240.022,1635980512,full,ni_sequenzen,NI_Sequenzen,,,,,,,,,,,,,,
,Screen_6,canvas.Screen,0_2_3_5,,skipped,4,351132,,,351129.19999980927,,351132,2021-11-03T23:07:56.475Z,351240.022,1635980512,full,ni_sequenzen,NI_Sequenzen,,,,,,,,,,,,,,
,Sequence,flow.Sequence,0_2_3,,completion,4,351128.69999980927,,,351129.19999980927,,351132.09999990463,2021-11-03T23:07:56.475Z,351240.022,1635980512,full,ni_sequenzen,NI_Sequenzen,,,,,,,,,,,,,,
,Screen_1,canvas.Screen,0_2_4_0,,skipped,5,351132.69999980927,,,351132.69999980927,,351132.7999999523,2021-11-03T23:07:56.476Z,351240.022,1635980512,full,ni_sequenzen,NI_Sequenzen,,,,,,,,,,,,,,
,Screen_2,canvas.Screen,0_2_4_1,,skipped,5,351133.2999999523,,,351132.69999980927,,351133.39999985695,2021-11-03T23:07:56.476Z,351240.022,1635980512,full,ni_sequenzen,NI_Sequenzen,,,,,,,,,,,,,,
,Screen_3,canvas.Screen,0_2_4_2,,skipped,5,351133.7999999523,,,351132.69999980927,,351133.89999985695,2021-11-03T23:07:56.477Z,351240.022,1635980512,full,ni_sequenzen,NI_Sequenzen,,,,,,,,,,,,,,
,Screen_4,canvas.Screen,0_2_4_3,,skipped,5,351134.2999999523,,,351132.69999980927,,351134.39999985695,2021-11-03T23:07:56.477Z,351240.022,1635980512,full,ni_sequenzen,NI_Sequenzen,,,,,,,,,,,,,,
,Screen_5,canvas.Screen,0_2_4_4,,skipped,5,351134.89999985695,,,351132.69999980927,,351134.89999985695,2021-11-03T23:07:56.478Z,351240.022,1635980512,full,ni_sequenzen,NI_Sequenzen,,,,,,,,,,,,,,
,Screen_6,canvas.Screen,0_2_4_5,,skipped,5,351135.39999985695,,,351132.69999980927,,351135.39999985695,2021-11-03T23:07:56.478Z,351240.022,1635980512,full,ni_sequenzen,NI_Sequenzen,,,,,,,,,,,,,,
,Sequence,flow.Sequence,0_2_4,,completion,5,351132.39999985695,,,351132.69999980927,,351135.5,2021-11-03T23:07:56.478Z,351240.022,1635980512,full,ni_sequenzen,NI_Sequenzen,,,,,,,,,,,,,,
,Screen_1,canvas.Screen,0_2_5_0,,skipped,6,351136.7999999523,,,351136.7999999523,,351136.89999985695,2021-11-03T23:07:56.480Z,351240.022,1635980512,full,ni_sequenzen,NI_Sequenzen,,,,,,,,,,,,,,
,Screen_2,canvas.Screen,0_2_5_1,,skipped,6,351137.39999985695,,,351136.7999999523,,351137.39999985695,2021-11-03T23:07:56.480Z,351240.022,1635980512,full,ni_sequenzen,NI_Sequenzen,,,,,,,,,,,,,,
,Screen_3,canvas.Screen,0_2_5_2,,skipped,6,351137.89999985695,,,351136.7999999523,,351137.89999985695,2021-11-03T23:07:56.481Z,351240.022,1635980512,full,ni_sequenzen,NI_Sequenzen,,,,,,,,,,,,,,
,Screen_4,canvas.Screen,0_2_5_3,,skipped,6,351138.5,,,351136.7999999523,,351138.5,2021-11-03T23:07:56.481Z,351240.022,1635980512,full,ni_sequenzen,NI_Sequenzen,,,,,,,,,,,,,,
,Screen_5,canvas.Screen,0_2_5_4,,skipped,6,351138.89999985695,,,351136.7999999523,,351138.89999985695,2021-11-03T23:07:56.482Z,351240.022,1635980512,full,ni_sequenzen,NI_Sequenzen,,,,,,,,,,,,,,
,Screen_6,canvas.Screen,0_2_5_5,,skipped,6,351139.2999999523,,,351136.7999999523,,351139.39999985695,2021-11-03T23:07:56.482Z,351240.022,1635980512,full,ni_sequenzen,NI_Sequenzen,,,,,,,,,,,,,,
,Sequence,flow.Sequence,0_2_5,,completion,6,351135.7999999523,,,351136.7999999523,,351139.5,2021-11-03T23:07:56.482Z,351240.022,1635980512,full,ni_sequenzen,NI_Sequenzen,,,,,,,,,,,,,,
,Screen_1,canvas.Screen,0_2_6_0,,skipped,7,351140.09999990463,,,351140.19999980927,,351140.19999980927,2021-11-03T23:07:56.483Z,351240.022,1635980512,full,ni_sequenzen,NI_Sequenzen,,,,,,,,,,,,,,
,Screen_2,canvas.Screen,0_2_6_1,,skipped,7,351140.69999980927,,,351140.19999980927,,351140.7999999523,2021-11-03T23:07:56.484Z,351240.022,1635980512,full,ni_sequenzen,NI_Sequenzen,,,,,,,,,,,,,,
,Screen_3,canvas.Screen,0_2_6_2,,skipped,7,351141.09999990463,,,351140.19999980927,,351141.19999980927,2021-11-03T23:07:56.484Z,351240.022,1635980512,full,ni_sequenzen,NI_Sequenzen,,,,,,,,,,,,,,
,Screen_4,canvas.Screen,0_2_6_3,,skipped,7,351141.59999990463,,,351140.19999980927,,351141.59999990463,2021-11-03T23:07:56.484Z,351240.022,1635980512,full,ni_sequenzen,NI_Sequenzen,,,,,,,,,,,,,,
,Screen_5,canvas.Screen,0_2_6_4,,skipped,7,351142.09999990463,,,351140.19999980927,,351142.09999990463,2021-11-03T23:07:56.485Z,351240.022,1635980512,full,ni_sequenzen,NI_Sequenzen,,,,,,,,,,,,,,
,Screen_6,canvas.Screen,0_2_6_5,,skipped,7,351142.5,,,351140.19999980927,,351142.5,2021-11-03T23:07:56.485Z,351240.022,1635980512,full,ni_sequenzen,NI_Sequenzen,,,,,,,,,,,,,,
,Sequence,flow.Sequence,0_2_6,,completion,7,351139.69999980927,,,351140.19999980927,,351142.59999990463,2021-11-03T23:07:56.485Z,351240.022,1635980512,full,ni_sequenzen,NI_Sequenzen,,,,,,,,,,,,,,
,Screen_1,canvas.Screen,0_2_7_0,,skipped,8,351143.19999980927,,,351143.19999980927,,351143.2999999523,2021-11-03T23:07:56.486Z,351240.022,1635980512,full,ni_sequenzen,NI_Sequenzen,,,,,,,,,,,,,,
,Screen_2,canvas.Screen,0_2_7_1,,skipped,8,351143.59999990463,,,351143.19999980927,,351143.69999980927,2021-11-03T23:07:56.486Z,351240.022,1635980512,full,ni_sequenzen,NI_Sequenzen,,,,,,,,,,,,,,
,Screen_3,canvas.Screen,0_2_7_2,,skipped,8,351144.09999990463,,,351143.19999980927,,351144.09999990463,2021-11-03T23:07:56.487Z,351240.022,1635980512,full,ni_sequenzen,NI_Sequenzen,,,,,,,,,,,,,,
,Screen_4,canvas.Screen,0_2_7_3,,skipped,8,351144.5,,,351143.19999980927,,351144.5,2021-11-03T23:07:56.487Z,351240.022,1635980512,full,ni_sequenzen,NI_Sequenzen,,,,,,,,,,,,,,
,Screen_5,canvas.Screen,0_2_7_4,,skipped,8,351145.5,,,351143.19999980927,,351145.5,2021-11-03T23:07:56.488Z,351240.022,1635980512,full,ni_sequenzen,NI_Sequenzen,,,,,,,,,,,,,,
,Screen_6,canvas.Screen,0_2_7_5,,skipped,8,351146,,,351143.19999980927,,351146,2021-11-03T23:07:56.489Z,351240.022,1635980512,full,ni_sequenzen,NI_Sequenzen,,,,,,,,,,,,,,
,Sequence,flow.Sequence,0_2_7,,completion,8,351142.7999999523,,,351143.19999980927,,351146,2021-11-03T23:07:56.489Z,351240.022,1635980512,full,ni_sequenzen,NI_Sequenzen,,,,,,,,,,,,,,
,Screen_1,canvas.Screen,0_2_8_0,,skipped,9,351146.69999980927,,,351146.69999980927,,351146.69999980927,2021-11-03T23:07:56.490Z,351240.022,1635980512,full,ni_sequenzen,NI_Sequenzen,,,,,,,,,,,,,,
,Screen_2,canvas.Screen,0_2_8_1,,skipped,9,351147.09999990463,,,351146.69999980927,,351147.19999980927,2021-11-03T23:07:56.490Z,351240.022,1635980512,full,ni_sequenzen,NI_Sequenzen,,,,,,,,,,,,,,
,Screen_3,canvas.Screen,0_2_8_2,,skipped,9,351147.5,,,351146.69999980927,,351147.5,2021-11-03T23:07:56.490Z,351240.022,1635980512,full,ni_sequenzen,NI_Sequenzen,,,,,,,,,,,,,,
,Screen_4,canvas.Screen,0_2_8_3,,skipped,9,351148,,,351146.69999980927,,351148,2021-11-03T23:07:56.491Z,351240.022,1635980512,full,ni_sequenzen,NI_Sequenzen,,,,,,,,,,,,,,
,Screen_5,canvas.Screen,0_2_8_4,,skipped,9,351148.39999985695,,,351146.69999980927,,351148.39999985695,2021-11-03T23:07:56.491Z,351240.022,1635980512,full,ni_sequenzen,NI_Sequenzen,,,,,,,,,,,,,,
,Screen_6,canvas.Screen,0_2_8_5,,skipped,9,351148.89999985695,,,351146.69999980927,,351148.89999985695,2021-11-03T23:07:56.492Z,351240.022,1635980512,full,ni_sequenzen,NI_Sequenzen,,,,,,,,,,,,,,
,Sequence,flow.Sequence,0_2_8,,completion,9,351146.2999999523,,,351146.69999980927,,351148.89999985695,2021-11-03T23:07:56.492Z,351240.022,1635980512,full,ni_sequenzen,NI_Sequenzen,,,,,,,,,,,,,,
,Screen_1,canvas.Screen,0_2_9_0,,skipped,10,351149.59999990463,,,351149.59999990463,,351149.59999990463,2021-11-03T23:07:56.492Z,351240.022,1635980512,full,ni_sequenzen,NI_Sequenzen,,,,,,,,,,,,,,
,Screen_2,canvas.Screen,0_2_9_1,,skipped,10,351150,,,351149.59999990463,,351150.09999990463,2021-11-03T23:07:56.493Z,351240.022,1635980512,full,ni_sequenzen,NI_Sequenzen,,,,,,,,,,,,,,
,Screen_3,canvas.Screen,0_2_9_2,,skipped,10,351150.59999990463,,,351149.59999990463,,351150.59999990463,2021-11-03T23:07:56.493Z,351240.022,1635980512,full,ni_sequenzen,NI_Sequenzen,,,,,,,,,,,,,,
,Screen_4,canvas.Screen,0_2_9_3,,skipped,10,351151.09999990463,,,351149.59999990463,,351151.09999990463,2021-11-03T23:07:56.494Z,351240.022,1635980512,full,ni_sequenzen,NI_Sequenzen,,,,,,,,,,,,,,
,Screen_5,canvas.Screen,0_2_9_4,,skipped,10,351151.59999990463,,,351149.59999990463,,351151.59999990463,2021-11-03T23:07:56.494Z,351240.022,1635980512,full,ni_sequenzen,NI_Sequenzen,,,,,,,,,,,,,,
,Screen_6,canvas.Screen,0_2_9_5,,skipped,10,351152.19999980927,,,351149.59999990463,,351152.19999980927,2021-11-03T23:07:56.495Z,351240.022,1635980512,full,ni_sequenzen,NI_Sequenzen,,,,,,,,,,,,,,
,Sequence,flow.Sequence,0_2_9,,completion,10,351149.09999990463,,,351149.59999990463,,351152.2999999523,2021-11-03T23:07:56.495Z,351240.022,1635980512,full,ni_sequenzen,NI_Sequenzen,,,,,,,,,,,,,,
,Screen_1,canvas.Screen,0_2_10_0,,skipped,11,351153.69999980927,,,351153.69999980927,,351153.69999980927,2021-11-03T23:07:56.496Z,351240.022,1635980512,full,ni_sequenzen,NI_Sequenzen,,,,,,,,,,,,,,
,Screen_2,canvas.Screen,0_2_10_1,,skipped,11,351154.19999980927,,,351153.69999980927,,351154.19999980927,2021-11-03T23:07:56.497Z,351240.022,1635980512,full,ni_sequenzen,NI_Sequenzen,,,,,,,,,,,,,,
,Screen_3,canvas.Screen,0_2_10_2,,skipped,11,351154.59999990463,,,351153.69999980927,,351154.59999990463,2021-11-03T23:07:56.497Z,351240.022,1635980512,full,ni_sequenzen,NI_Sequenzen,,,,,,,,,,,,,,
,Screen_4,canvas.Screen,0_2_10_3,,skipped,11,351155.09999990463,,,351153.69999980927,,351155.09999990463,2021-11-03T23:07:56.498Z,351240.022,1635980512,full,ni_sequenzen,NI_Sequenzen,,,,,,,,,,,,,,
,Screen_5,canvas.Screen,0_2_10_4,,skipped,11,351155.59999990463,,,351153.69999980927,,351155.59999990463,2021-11-03T23:07:56.498Z,351240.022,1635980512,full,ni_sequenzen,NI_Sequenzen,,,,,,,,,,,,,,
,Screen_6,canvas.Screen,0_2_10_5,,skipped,11,351156,,,351153.69999980927,,351156,2021-11-03T23:07:56.499Z,351240.022,1635980512,full,ni_sequenzen,NI_Sequenzen,,,,,,,,,,,,,,
,Sequence,flow.Sequence,0_2_10,,completion,11,351152.59999990463,,,351153.69999980927,,351156.19999980927,2021-11-03T23:07:56.499Z,351240.022,1635980512,full,ni_sequenzen,NI_Sequenzen,,,,,,,,,,,,,,
,Screen_1,canvas.Screen,0_2_11_0,,skipped,12,351156.89999985695,,,351156.89999985695,,351157,2021-11-03T23:07:56.500Z,351240.022,1635980512,full,ni_sequenzen,NI_Sequenzen,,,,,,,,,,,,,,
,Screen_2,canvas.Screen,0_2_11_1,,skipped,12,351157.39999985695,,,351156.89999985695,,351157.39999985695,2021-11-03T23:07:56.500Z,351240.022,1635980512,full,ni_sequenzen,NI_Sequenzen,,,,,,,,,,,,,,
,Screen_3,canvas.Screen,0_2_11_2,,skipped,12,351157.89999985695,,,351156.89999985695,,351157.89999985695,2021-11-03T23:07:56.501Z,351240.022,1635980512,full,ni_sequenzen,NI_Sequenzen,,,,,,,,,,,,,,
,Screen_4,canvas.Screen,0_2_11_3,,skipped,12,351158.2999999523,,,351156.89999985695,,351158.39999985695,2021-11-03T23:07:56.501Z,351240.022,1635980512,full,ni_sequenzen,NI_Sequenzen,,,,,,,,,,,,,,
,Screen_5,canvas.Screen,0_2_11_4,,skipped,12,351158.69999980927,,,351156.89999985695,,351158.69999980927,2021-11-03T23:07:56.502Z,351240.022,1635980512,full,ni_sequenzen,NI_Sequenzen,,,,,,,,,,,,,,
,Screen_6,canvas.Screen,0_2_11_5,,skipped,12,351159.09999990463,,,351156.89999985695,,351159.19999980927,2021-11-03T23:07:56.502Z,351240.022,1635980512,full,ni_sequenzen,NI_Sequenzen,,,,,,,,,,,,,,
,Sequence,flow.Sequence,0_2_11,,completion,12,351156.39999985695,,,351156.89999985695,,351159.2999999523,2021-11-03T23:07:56.502Z,351240.022,1635980512,full,ni_sequenzen,NI_Sequenzen,,,,,,,,,,,,,,
,Screen_1,canvas.Screen,0_2_12_0,,skipped,13,351159.7999999523,,,351159.7999999523,,351159.89999985695,2021-11-03T23:07:56.503Z,351240.022,1635980512,full,ni_sequenzen,NI_Sequenzen,,,,,,,,,,,,,,
,Screen_2,canvas.Screen,0_2_12_1,,skipped,13,351160.69999980927,,,351159.7999999523,,351160.7999999523,2021-11-03T23:07:56.504Z,351240.022,1635980512,full,ni_sequenzen,NI_Sequenzen,,,,,,,,,,,,,,
,Screen_3,canvas.Screen,0_2_12_2,,skipped,13,351161.09999990463,,,351159.7999999523,,351161.19999980927,2021-11-03T23:07:56.504Z,351240.022,1635980512,full,ni_sequenzen,NI_Sequenzen,,,,,,,,,,,,,,
,Screen_4,canvas.Screen,0_2_12_3,,skipped,13,351161.59999990463,,,351159.7999999523,,351161.69999980927,2021-11-03T23:07:56.504Z,351240.022,1635980512,full,ni_sequenzen,NI_Sequenzen,,,,,,,,,,,,,,
,Screen_5,canvas.Screen,0_2_12_4,,skipped,13,351162.09999990463,,,351159.7999999523,,351162.09999990463,2021-11-03T23:07:56.505Z,351240.022,1635980512,full,ni_sequenzen,NI_Sequenzen,,,,,,,,,,,,,,
,Screen_6,canvas.Screen,0_2_12_5,,skipped,13,351162.5,,,351159.7999999523,,351162.5,2021-11-03T23:07:56.505Z,351240.022,1635980512,full,ni_sequenzen,NI_Sequenzen,,,,,,,,,,,,,,
,Sequence,flow.Sequence,0_2_12,,completion,13,351159.39999985695,,,351159.7999999523,,351162.5,2021-11-03T23:07:56.505Z,351240.022,1635980512,full,ni_sequenzen,NI_Sequenzen,,,,,,,,,,,,,,
,Screen_1,canvas.Screen,0_2_13_0,,skipped,14,351163.19999980927,,,351163.19999980927,,351163.19999980927,2021-11-03T23:07:56.506Z,351240.022,1635980512,full,ni_sequenzen,NI_Sequenzen,,,,,,,,,,,,,,
,Screen_2,canvas.Screen,0_2_13_1,,skipped,14,351163.69999980927,,,351163.19999980927,,351163.69999980927,2021-11-03T23:07:56.506Z,351240.022,1635980512,full,ni_sequenzen,NI_Sequenzen,,,,,,,,,,,,,,
,Screen_3,canvas.Screen,0_2_13_2,,skipped,14,351164.09999990463,,,351163.19999980927,,351164.09999990463,2021-11-03T23:07:56.507Z,351240.022,1635980512,full,ni_sequenzen,NI_Sequenzen,,,,,,,,,,,,,,
,Screen_4,canvas.Screen,0_2_13_3,,skipped,14,351164.5,,,351163.19999980927,,351164.5,2021-11-03T23:07:56.507Z,351240.022,1635980512,full,ni_sequenzen,NI_Sequenzen,,,,,,,,,,,,,,
,Screen_5,canvas.Screen,0_2_13_4,,skipped,14,351164.89999985695,,,351163.19999980927,,351164.89999985695,2021-11-03T23:07:56.508Z,351240.022,1635980512,full,ni_sequenzen,NI_Sequenzen,,,,,,,,,,,,,,
,Screen_6,canvas.Screen,0_2_13_5,,skipped,14,351165.2999999523,,,351163.19999980927,,351165.39999985695,2021-11-03T23:07:56.508Z,351240.022,1635980512,full,ni_sequenzen,NI_Sequenzen,,,,,,,,,,,,,,
,Sequence,flow.Sequence,0_2_13,,completion,14,351162.7999999523,,,351163.19999980927,,351165.5,2021-11-03T23:07:56.508Z,351240.022,1635980512,full,ni_sequenzen,NI_Sequenzen,,,,,,,,,,,,,,
,Screen_1,canvas.Screen,0_2_14_0,,skipped,15,351166,,,351166,,351166,2021-11-03T23:07:56.509Z,351240.022,1635980512,full,ni_sequenzen,NI_Sequenzen,,,,,,,,,,,,,,
,Screen_2,canvas.Screen,0_2_14_1,,skipped,15,351166.39999985695,,,351166,,351166.5,2021-11-03T23:07:56.509Z,351240.022,1635980512,full,ni_sequenzen,NI_Sequenzen,,,,,,,,,,,,,,
,Screen_3,canvas.Screen,0_2_14_2,,skipped,15,351166.89999985695,,,351166,,351167,2021-11-03T23:07:56.510Z,351240.022,1635980512,full,ni_sequenzen,NI_Sequenzen,,,,,,,,,,,,,,
,Screen_4,canvas.Screen,0_2_14_3,,skipped,15,351167.89999985695,,,351166,,351167.89999985695,2021-11-03T23:07:56.511Z,351240.022,1635980512,full,ni_sequenzen,NI_Sequenzen,,,,,,,,,,,,,,
,Screen_5,canvas.Screen,0_2_14_4,,skipped,15,351168.5,,,351166,,351168.5,2021-11-03T23:07:56.511Z,351240.022,1635980512,full,ni_sequenzen,NI_Sequenzen,,,,,,,,,,,,,,
,Screen_6,canvas.Screen,0_2_14_5,,skipped,15,351168.89999985695,,,351166,,351169,2021-11-03T23:07:56.512Z,351240.022,1635980512,full,ni_sequenzen,NI_Sequenzen,,,,,,,,,,,,,,
,Sequence,flow.Sequence,0_2_14,,completion,15,351165.59999990463,,,351166,,351169,2021-11-03T23:07:56.512Z,351240.022,1635980512,full,ni_sequenzen,NI_Sequenzen,,,,,,,,,,,,,,
,Screen_1,canvas.Screen,0_2_15_0,,skipped,16,351169.69999980927,,,351169.69999980927,,351169.69999980927,2021-11-03T23:07:56.513Z,351240.022,1635980512,full,ni_sequenzen,NI_Sequenzen,,,,,,,,,,,,,,
,Screen_2,canvas.Screen,0_2_15_1,,skipped,16,351170.2999999523,,,351169.69999980927,,351170.2999999523,2021-11-03T23:07:56.513Z,351240.022,1635980512,full,ni_sequenzen,NI_Sequenzen,,,,,,,,,,,,,,
,Screen_3,canvas.Screen,0_2_15_2,,skipped,16,351170.69999980927,,,351169.69999980927,,351170.7999999523,2021-11-03T23:07:56.514Z,351240.022,1635980512,full,ni_sequenzen,NI_Sequenzen,,,,,,,,,,,,,,
,Screen_4,canvas.Screen,0_2_15_3,,skipped,16,351171.09999990463,,,351169.69999980927,,351171.09999990463,2021-11-03T23:07:56.514Z,351240.022,1635980512,full,ni_sequenzen,NI_Sequenzen,,,,,,,,,,,,,,
,Screen_5,canvas.Screen,0_2_15_4,,skipped,16,351171.5,,,351169.69999980927,,351171.59999990463,2021-11-03T23:07:56.514Z,351240.022,1635980512,full,ni_sequenzen,NI_Sequenzen,,,,,,,,,,,,,,
,Screen_6,canvas.Screen,0_2_15_5,,skipped,16,351172,,,351169.69999980927,,351172.09999990463,2021-11-03T23:07:56.515Z,351240.022,1635980512,full,ni_sequenzen,NI_Sequenzen,,,,,,,,,,,,,,
,Sequence,flow.Sequence,0_2_15,,completion,16,351169.39999985695,,,351169.69999980927,,351172.09999990463,2021-11-03T23:07:56.515Z,351240.022,1635980512,full,ni_sequenzen,NI_Sequenzen,,,,,,,,,,,,,,
,Screen_1,canvas.Screen,0_2_16_0,,skipped,17,351172.69999980927,,,351172.69999980927,,351172.69999980927,2021-11-03T23:07:56.516Z,351240.022,1635980512,full,ni_sequenzen,NI_Sequenzen,,,,,,,,,,,,,,
,Screen_2,canvas.Screen,0_2_16_1,,skipped,17,351173.19999980927,,,351172.69999980927,,351173.2999999523,2021-11-03T23:07:56.516Z,351240.022,1635980512,full,ni_sequenzen,NI_Sequenzen,,,,,,,,,,,,,,
,Screen_3,canvas.Screen,0_2_16_2,,skipped,17,351173.7999999523,,,351172.69999980927,,351173.7999999523,2021-11-03T23:07:56.517Z,351240.022,1635980512,full,ni_sequenzen,NI_Sequenzen,,,,,,,,,,,,,,
,Screen_4,canvas.Screen,0_2_16_3,,skipped,17,351174.19999980927,,,351172.69999980927,,351174.2999999523,2021-11-03T23:07:56.517Z,351240.022,1635980512,full,ni_sequenzen,NI_Sequenzen,,,,,,,,,,,,,,
,Screen_5,canvas.Screen,0_2_16_4,,skipped,17,351175.19999980927,,,351172.69999980927,,351175.19999980927,2021-11-03T23:07:56.518Z,351240.022,1635980512,full,ni_sequenzen,NI_Sequenzen,,,,,,,,,,,,,,
,Screen_6,canvas.Screen,0_2_16_5,,skipped,17,351175.59999990463,,,351172.69999980927,,351175.69999980927,2021-11-03T23:07:56.518Z,351240.022,1635980512,full,ni_sequenzen,NI_Sequenzen,,,,,,,,,,,,,,
,Sequence,flow.Sequence,0_2_16,,completion,17,351172.2999999523,,,351172.69999980927,,351175.7999999523,2021-11-03T23:07:56.519Z,351240.022,1635980512,full,ni_sequenzen,NI_Sequenzen,,,,,,,,,,,,,,
,Screen_1,canvas.Screen,0_2_17_0,,skipped,18,351176.39999985695,,,351176.39999985695,,351176.5,2021-11-03T23:07:56.519Z,351240.022,1635980512,full,ni_sequenzen,NI_Sequenzen,,,,,,,,,,,,,,
,Screen_2,canvas.Screen,0_2_17_1,,skipped,18,351176.89999985695,,,351176.39999985695,,351176.89999985695,2021-11-03T23:07:56.520Z,351240.022,1635980512,full,ni_sequenzen,NI_Sequenzen,,,,,,,,,,,,,,
,Screen_3,canvas.Screen,0_2_17_2,,skipped,18,351177.2999999523,,,351176.39999985695,,351177.2999999523,2021-11-03T23:07:56.520Z,351240.022,1635980512,full,ni_sequenzen,NI_Sequenzen,,,,,,,,,,,,,,
,Screen_4,canvas.Screen,0_2_17_3,,skipped,18,351177.69999980927,,,351176.39999985695,,351177.69999980927,2021-11-03T23:07:56.521Z,351240.022,1635980512,full,ni_sequenzen,NI_Sequenzen,,,,,,,,,,,,,,
,Screen_5,canvas.Screen,0_2_17_4,,skipped,18,351178.09999990463,,,351176.39999985695,,351178.19999980927,2021-11-03T23:07:56.521Z,351240.022,1635980512,full,ni_sequenzen,NI_Sequenzen,,,,,,,,,,,,,,
,Screen_6,canvas.Screen,0_2_17_5,,skipped,18,351178.59999990463,,,351176.39999985695,,351178.59999990463,2021-11-03T23:07:56.521Z,351240.022,1635980512,full,ni_sequenzen,NI_Sequenzen,,,,,,,,,,,,,,
,Sequence,flow.Sequence,0_2_17,,completion,18,351176,,,351176.39999985695,,351178.69999980927,2021-11-03T23:07:56.521Z,351240.022,1635980512,full,ni_sequenzen,NI_Sequenzen,,,,,,,,,,,,,,
,Screen_1,canvas.Screen,0_2_18_0,,skipped,19,351179.19999980927,,,351179.19999980927,,351179.2999999523,2021-11-03T23:07:56.522Z,351240.022,1635980512,full,ni_sequenzen,NI_Sequenzen,,,,,,,,,,,,,,
,Screen_2,canvas.Screen,0_2_18_1,,skipped,19,351179.69999980927,,,351179.19999980927,,351179.7999999523,2021-11-03T23:07:56.523Z,351240.022,1635980512,full,ni_sequenzen,NI_Sequenzen,,,,,,,,,,,,,,
,Screen_3,canvas.Screen,0_2_18_2,,skipped,19,351180.09999990463,,,351179.19999980927,,351180.19999980927,2021-11-03T23:07:56.523Z,351240.022,1635980512,full,ni_sequenzen,NI_Sequenzen,,,,,,,,,,,,,,
,Screen_4,canvas.Screen,0_2_18_3,,skipped,19,351180.5,,,351179.19999980927,,351180.59999990463,2021-11-03T23:07:56.523Z,351240.022,1635980512,full,ni_sequenzen,NI_Sequenzen,,,,,,,,,,,,,,
,Screen_5,canvas.Screen,0_2_18_4,,skipped,19,351181,,,351179.19999980927,,351181,2021-11-03T23:07:56.524Z,351240.022,1635980512,full,ni_sequenzen,NI_Sequenzen,,,,,,,,,,,,,,
,Screen_6,canvas.Screen,0_2_18_5,,skipped,19,351181.7999999523,,,351179.19999980927,,351181.7999999523,2021-11-03T23:07:56.525Z,351240.022,1635980512,full,ni_sequenzen,NI_Sequenzen,,,,,,,,,,,,,,
,Sequence,flow.Sequence,0_2_18,,completion,19,351178.7999999523,,,351179.19999980927,,351181.89999985695,2021-11-03T23:07:56.525Z,351240.022,1635980512,full,ni_sequenzen,NI_Sequenzen,,,,,,,,,,,,,,
,Screen_1,canvas.Screen,0_2_19_0,,skipped,20,351182.5,,,351182.5,,351182.5,2021-11-03T23:07:56.525Z,351240.022,1635980512,full,ni_sequenzen,NI_Sequenzen,,,,,,,,,,,,,,
,Screen_2,canvas.Screen,0_2_19_1,,skipped,20,351183,,,351182.5,,351183,2021-11-03T23:07:56.526Z,351240.022,1635980512,full,ni_sequenzen,NI_Sequenzen,,,,,,,,,,,,,,
,Screen_3,canvas.Screen,0_2_19_2,,skipped,20,351183.39999985695,,,351182.5,,351183.5,2021-11-03T23:07:56.526Z,351240.022,1635980512,full,ni_sequenzen,NI_Sequenzen,,,,,,,,,,,,,,
,Screen_4,canvas.Screen,0_2_19_3,,skipped,20,351183.7999999523,,,351182.5,,351183.89999985695,2021-11-03T23:07:56.527Z,351240.022,1635980512,full,ni_sequenzen,NI_Sequenzen,,,,,,,,,,,,,,
,Screen_5,canvas.Screen,0_2_19_4,,skipped,20,351184.2999999523,,,351182.5,,351184.39999985695,2021-11-03T23:07:56.527Z,351240.022,1635980512,full,ni_sequenzen,NI_Sequenzen,,,,,,,,,,,,,,
,Screen_6,canvas.Screen,0_2_19_5,,skipped,20,351184.89999985695,,,351182.5,,351185,2021-11-03T23:07:56.528Z,351240.022,1635980512,full,ni_sequenzen,NI_Sequenzen,,,,,,,,,,,,,,
,Sequence,flow.Sequence,0_2_19,,completion,20,351182.09999990463,,,351182.5,,351185,2021-11-03T23:07:56.528Z,351240.022,1635980512,full,ni_sequenzen,NI_Sequenzen,,,,,,,,,,,,,,
,Screen_1,canvas.Screen,0_2_20_0,,skipped,21,351185.69999980927,,,351185.69999980927,,351185.7999999523,2021-11-03T23:07:56.529Z,351240.022,1635980512,full,ni_sequenzen,NI_Sequenzen,,,,,,,,,,,,,,
,Screen_2,canvas.Screen,0_2_20_1,,skipped,21,351186.2999999523,,,351185.69999980927,,351186.39999985695,2021-11-03T23:07:56.529Z,351240.022,1635980512,full,ni_sequenzen,NI_Sequenzen,,,,,,,,,,,,,,
,Screen_3,canvas.Screen,0_2_20_2,,skipped,21,351186.7999999523,,,351185.69999980927,,351186.7999999523,2021-11-03T23:07:56.530Z,351240.022,1635980512,full,ni_sequenzen,NI_Sequenzen,,,,,,,,,,,,,,
,Screen_4,canvas.Screen,0_2_20_3,,skipped,21,351187.19999980927,,,351185.69999980927,,351187.2999999523,2021-11-03T23:07:56.530Z,351240.022,1635980512,full,ni_sequenzen,NI_Sequenzen,,,,,,,,,,,,,,
,Screen_5,canvas.Screen,0_2_20_4,,skipped,21,351187.59999990463,,,351185.69999980927,,351187.69999980927,2021-11-03T23:07:56.530Z,351240.022,1635980512,full,ni_sequenzen,NI_Sequenzen,,,,,,,,,,,,,,
,Screen_6,canvas.Screen,0_2_20_5,,skipped,21,351188,,,351185.69999980927,,351188.09999990463,2021-11-03T23:07:56.531Z,351240.022,1635980512,full,ni_sequenzen,NI_Sequenzen,,,,,,,,,,,,,,
,Sequence,flow.Sequence,0_2_20,,completion,21,351185.39999985695,,,351185.69999980927,,351188.19999980927,2021-11-03T23:07:56.531Z,351240.022,1635980512,full,ni_sequenzen,NI_Sequenzen,,,,,,,,,,,,,,
,Screen_1,canvas.Screen,0_2_21_0,,skipped,22,351189.2999999523,,,351189.2999999523,,351189.2999999523,2021-11-03T23:07:56.532Z,351240.022,1635980512,full,ni_sequenzen,NI_Sequenzen,,,,,,,,,,,,,,
,Screen_2,canvas.Screen,0_2_21_1,,skipped,22,351189.69999980927,,,351189.2999999523,,351189.69999980927,2021-11-03T23:07:56.533Z,351240.022,1635980512,full,ni_sequenzen,NI_Sequenzen,,,,,,,,,,,,,,
,Screen_3,canvas.Screen,0_2_21_2,,skipped,22,351190.19999980927,,,351189.2999999523,,351190.2999999523,2021-11-03T23:07:56.533Z,351240.022,1635980512,full,ni_sequenzen,NI_Sequenzen,,,,,,,,,,,,,,
,Screen_4,canvas.Screen,0_2_21_3,,skipped,22,351190.69999980927,,,351189.2999999523,,351190.69999980927,2021-11-03T23:07:56.534Z,351240.022,1635980512,full,ni_sequenzen,NI_Sequenzen,,,,,,,,,,,,,,
,Screen_5,canvas.Screen,0_2_21_4,,skipped,22,351191.09999990463,,,351189.2999999523,,351191.19999980927,2021-11-03T23:07:56.534Z,351240.022,1635980512,full,ni_sequenzen,NI_Sequenzen,,,,,,,,,,,,,,
,Screen_6,canvas.Screen,0_2_21_5,,skipped,22,351192,,,351189.2999999523,,351192,2021-11-03T23:07:56.535Z,351240.022,1635980512,full,ni_sequenzen,NI_Sequenzen,,,,,,,,,,,,,,
,Sequence,flow.Sequence,0_2_21,,completion,22,351188.2999999523,,,351189.2999999523,,351192,2021-11-03T23:07:56.535Z,351240.022,1635980512,full,ni_sequenzen,NI_Sequenzen,,,,,,,,,,,,,,
,Screen_1,canvas.Screen,0_2_22_0,,skipped,23,351192.59999990463,,,351192.59999990463,,351192.7999999523,2021-11-03T23:07:56.536Z,351240.022,1635980512,full,ni_sequenzen,NI_Sequenzen,,,,,,,,,,,,,,
,Screen_2,canvas.Screen,0_2_22_1,,skipped,23,351193.19999980927,,,351192.59999990463,,351193.19999980927,2021-11-03T23:07:56.536Z,351240.022,1635980512,full,ni_sequenzen,NI_Sequenzen,,,,,,,,,,,,,,
,Screen_3,canvas.Screen,0_2_22_2,,skipped,23,351193.5,,,351192.59999990463,,351193.5,2021-11-03T23:07:56.536Z,351240.022,1635980512,full,ni_sequenzen,NI_Sequenzen,,,,,,,,,,,,,,
,Screen_4,canvas.Screen,0_2_22_3,,skipped,23,351194,,,351192.59999990463,,351194,2021-11-03T23:07:56.537Z,351240.022,1635980512,full,ni_sequenzen,NI_Sequenzen,,,,,,,,,,,,,,
,Screen_5,canvas.Screen,0_2_22_4,,skipped,23,351194.39999985695,,,351192.59999990463,,351194.39999985695,2021-11-03T23:07:56.537Z,351240.022,1635980512,full,ni_sequenzen,NI_Sequenzen,,,,,,,,,,,,,,
,Screen_6,canvas.Screen,0_2_22_5,,skipped,23,351194.89999985695,,,351192.59999990463,,351195,2021-11-03T23:07:56.538Z,351240.022,1635980512,full,ni_sequenzen,NI_Sequenzen,,,,,,,,,,,,,,
,Sequence,flow.Sequence,0_2_22,,completion,23,351192.2999999523,,,351192.59999990463,,351195,2021-11-03T23:07:56.538Z,351240.022,1635980512,full,ni_sequenzen,NI_Sequenzen,,,,,,,,,,,,,,
,Screen_1,canvas.Screen,0_2_23_0,,skipped,24,351195.7999999523,,,351195.7999999523,,351195.7999999523,2021-11-03T23:07:56.539Z,351240.022,1635980512,full,ni_sequenzen,NI_Sequenzen,,,,,,,,,,,,,,
,Screen_2,canvas.Screen,0_2_23_1,,skipped,24,351196.19999980927,,,351195.7999999523,,351196.19999980927,2021-11-03T23:07:56.539Z,351240.022,1635980512,full,ni_sequenzen,NI_Sequenzen,,,,,,,,,,,,,,
,Screen_3,canvas.Screen,0_2_23_2,,skipped,24,351196.59999990463,,,351195.7999999523,,351196.59999990463,2021-11-03T23:07:56.539Z,351240.022,1635980512,full,ni_sequenzen,NI_Sequenzen,,,,,,,,,,,,,,
,Screen_4,canvas.Screen,0_2_23_3,,skipped,24,351197.09999990463,,,351195.7999999523,,351197.09999990463,2021-11-03T23:07:56.540Z,351240.022,1635980512,full,ni_sequenzen,NI_Sequenzen,,,,,,,,,,,,,,
,Screen_5,canvas.Screen,0_2_23_4,,skipped,24,351198,,,351195.7999999523,,351198.09999990463,2021-11-03T23:07:56.541Z,351240.022,1635980512,full,ni_sequenzen,NI_Sequenzen,,,,,,,,,,,,,,
,Screen_6,canvas.Screen,0_2_23_5,,skipped,24,351198.39999985695,,,351195.7999999523,,351198.5,2021-11-03T23:07:56.541Z,351240.022,1635980512,full,ni_sequenzen,NI_Sequenzen,,,,,,,,,,,,,,
,Sequence,flow.Sequence,0_2_23,,completion,24,351195.2999999523,,,351195.7999999523,,351198.5,2021-11-03T23:07:56.541Z,351240.022,1635980512,full,ni_sequenzen,NI_Sequenzen,,,,,,,,,,,,,,
,Screen_1,canvas.Screen,0_2_24_0,,skipped,25,351199.19999980927,,,351199.19999980927,,351199.19999980927,2021-11-03T23:07:56.542Z,351240.022,1635980512,full,ni_sequenzen,NI_Sequenzen,,,,,,,,,,,,,,
,Screen_2,canvas.Screen,0_2_24_1,,skipped,25,351199.59999990463,,,351199.19999980927,,351199.59999990463,2021-11-03T23:07:56.542Z,351240.022,1635980512,full,ni_sequenzen,NI_Sequenzen,,,,,,,,,,,,,,
,Screen_3,canvas.Screen,0_2_24_2,,skipped,25,351200.09999990463,,,351199.19999980927,,351200.09999990463,2021-11-03T23:07:56.543Z,351240.022,1635980512,full,ni_sequenzen,NI_Sequenzen,,,,,,,,,,,,,,
,Screen_4,canvas.Screen,0_2_24_3,,skipped,25,351200.5,,,351199.19999980927,,351200.5,2021-11-03T23:07:56.543Z,351240.022,1635980512,full,ni_sequenzen,NI_Sequenzen,,,,,,,,,,,,,,
,Screen_5,canvas.Screen,0_2_24_4,,skipped,25,351200.89999985695,,,351199.19999980927,,351200.89999985695,2021-11-03T23:07:56.544Z,351240.022,1635980512,full,ni_sequenzen,NI_Sequenzen,,,,,,,,,,,,,,
,Screen_6,canvas.Screen,0_2_24_5,,skipped,25,351201.39999985695,,,351199.19999980927,,351201.5,2021-11-03T23:07:56.544Z,351240.022,1635980512,full,ni_sequenzen,NI_Sequenzen,,,,,,,,,,,,,,
,Sequence,flow.Sequence,0_2_24,,completion,25,351198.69999980927,,,351199.19999980927,,351201.5,2021-11-03T23:07:56.544Z,351240.022,1635980512,full,ni_sequenzen,NI_Sequenzen,,,,,,,,,,,,,,
,Screen_1,canvas.Screen,0_2_25_0,,skipped,26,351202.2999999523,,,351202.2999999523,,351202.2999999523,2021-11-03T23:07:56.545Z,351240.022,1635980512,full,ni_sequenzen,NI_Sequenzen,,,,,,,,,,,,,,
,Screen_2,canvas.Screen,0_2_25_1,,skipped,26,351203,,,351202.2999999523,,351203.19999980927,2021-11-03T23:07:56.546Z,351240.022,1635980512,full,ni_sequenzen,NI_Sequenzen,,,,,,,,,,,,,,
,Screen_3,canvas.Screen,0_2_25_2,,skipped,26,351204,,,351202.2999999523,,351204,2021-11-03T23:07:56.547Z,351240.022,1635980512,full,ni_sequenzen,NI_Sequenzen,,,,,,,,,,,,,,
,Screen_4,canvas.Screen,0_2_25_3,,skipped,26,351204.59999990463,,,351202.2999999523,,351204.59999990463,2021-11-03T23:07:56.547Z,351240.022,1635980512,full,ni_sequenzen,NI_Sequenzen,,,,,,,,,,,,,,
,Screen_5,canvas.Screen,0_2_25_4,,skipped,26,351205.19999980927,,,351202.2999999523,,351205.39999985695,2021-11-03T23:07:56.548Z,351240.022,1635980512,full,ni_sequenzen,NI_Sequenzen,,,,,,,,,,,,,,
,Screen_6,canvas.Screen,0_2_25_5,,skipped,26,351206.2999999523,,,351202.2999999523,,351206.39999985695,2021-11-03T23:07:56.549Z,351240.022,1635980512,full,ni_sequenzen,NI_Sequenzen,,,,,,,,,,,,,,
,Sequence,flow.Sequence,0_2_25,,completion,26,351201.7999999523,,,351202.2999999523,,351206.39999985695,2021-11-03T23:07:56.549Z,351240.022,1635980512,full,ni_sequenzen,NI_Sequenzen,,,,,,,,,,,,,,
,Screen_1,canvas.Screen,0_2_26_0,,skipped,27,351207.19999980927,,,351207.19999980927,,351207.19999980927,2021-11-03T23:07:56.550Z,351240.022,1635980512,full,ni_sequenzen,NI_Sequenzen,,,,,,,,,,,,,,
,Screen_2,canvas.Screen,0_2_26_1,,skipped,27,351207.69999980927,,,351207.19999980927,,351207.7999999523,2021-11-03T23:07:56.551Z,351240.022,1635980512,full,ni_sequenzen,NI_Sequenzen,,,,,,,,,,,,,,
,Screen_3,canvas.Screen,0_2_26_2,,skipped,27,351208.19999980927,,,351207.19999980927,,351208.19999980927,2021-11-03T23:07:56.551Z,351240.022,1635980512,full,ni_sequenzen,NI_Sequenzen,,,,,,,,,,,,,,
,Screen_4,canvas.Screen,0_2_26_3,,skipped,27,351208.7999999523,,,351207.19999980927,,351208.7999999523,2021-11-03T23:07:56.552Z,351240.022,1635980512,full,ni_sequenzen,NI_Sequenzen,,,,,,,,,,,,,,
,Screen_5,canvas.Screen,0_2_26_4,,skipped,27,351209.2999999523,,,351207.19999980927,,351209.39999985695,2021-11-03T23:07:56.552Z,351240.022,1635980512,full,ni_sequenzen,NI_Sequenzen,,,,,,,,,,,,,,
,Screen_6,canvas.Screen,0_2_26_5,,skipped,27,351209.7999999523,,,351207.19999980927,,351209.7999999523,2021-11-03T23:07:56.553Z,351240.022,1635980512,full,ni_sequenzen,NI_Sequenzen,,,,,,,,,,,,,,
,Sequence,flow.Sequence,0_2_26,,completion,27,351206.69999980927,,,351207.19999980927,,351209.89999985695,2021-11-03T23:07:56.553Z,351240.022,1635980512,full,ni_sequenzen,NI_Sequenzen,,,,,,,,,,,,,,
,Screen_1,canvas.Screen,0_2_27_0,,skipped,28,351210.59999990463,,,351210.59999990463,,351210.59999990463,2021-11-03T23:07:56.553Z,351240.022,1635980512,full,ni_sequenzen,NI_Sequenzen,,,,,,,,,,,,,,
,Screen_2,canvas.Screen,0_2_27_1,,skipped,28,351211.09999990463,,,351210.59999990463,,351211.09999990463,2021-11-03T23:07:56.554Z,351240.022,1635980512,full,ni_sequenzen,NI_Sequenzen,,,,,,,,,,,,,,
,Screen_3,canvas.Screen,0_2_27_2,,skipped,28,351211.5,,,351210.59999990463,,351211.59999990463,2021-11-03T23:07:56.554Z,351240.022,1635980512,full,ni_sequenzen,NI_Sequenzen,,,,,,,,,,,,,,
,Screen_4,canvas.Screen,0_2_27_3,,skipped,28,351212,,,351210.59999990463,,351212,2021-11-03T23:07:56.555Z,351240.022,1635980512,full,ni_sequenzen,NI_Sequenzen,,,,,,,,,,,,,,
,Screen_5,canvas.Screen,0_2_27_4,,skipped,28,351212.5,,,351210.59999990463,,351212.5,2021-11-03T23:07:56.555Z,351240.022,1635980512,full,ni_sequenzen,NI_Sequenzen,,,,,,,,,,,,,,
,Screen_6,canvas.Screen,0_2_27_5,,skipped,28,351212.89999985695,,,351210.59999990463,,351212.89999985695,2021-11-03T23:07:56.556Z,351240.022,1635980512,full,ni_sequenzen,NI_Sequenzen,,,,,,,,,,,,,,
,Sequence,flow.Sequence,0_2_27,,completion,28,351210.19999980927,,,351210.59999990463,,351213,2021-11-03T23:07:56.556Z,351240.022,1635980512,full,ni_sequenzen,NI_Sequenzen,,,,,,,,,,,,,,
,Screen_1,canvas.Screen,0_2_28_0,,skipped,29,351213.59999990463,,,351213.59999990463,,351213.59999990463,2021-11-03T23:07:56.556Z,351240.022,1635980512,full,ni_sequenzen,NI_Sequenzen,,,,,,,,,,,,,,
,Screen_2,canvas.Screen,0_2_28_1,,skipped,29,351214.2999999523,,,351213.59999990463,,351214.39999985695,2021-11-03T23:07:56.557Z,351240.022,1635980512,full,ni_sequenzen,NI_Sequenzen,,,,,,,,,,,,,,
,Screen_3,canvas.Screen,0_2_28_2,,skipped,29,351214.7999999523,,,351213.59999990463,,351214.89999985695,2021-11-03T23:07:56.558Z,351240.022,1635980512,full,ni_sequenzen,NI_Sequenzen,,,,,,,,,,,,,,
,Screen_4,canvas.Screen,0_2_28_3,,skipped,29,351215.2999999523,,,351213.59999990463,,351215.2999999523,2021-11-03T23:07:56.558Z,351240.022,1635980512,full,ni_sequenzen,NI_Sequenzen,,,,,,,,,,,,,,
,Screen_5,canvas.Screen,0_2_28_4,,skipped,29,351215.69999980927,,,351213.59999990463,,351215.7999999523,2021-11-03T23:07:56.559Z,351240.022,1635980512,full,ni_sequenzen,NI_Sequenzen,,,,,,,,,,,,,,
,Screen_6,canvas.Screen,0_2_28_5,,skipped,29,351216.19999980927,,,351213.59999990463,,351216.2999999523,2021-11-03T23:07:56.559Z,351240.022,1635980512,full,ni_sequenzen,NI_Sequenzen,,,,,,,,,,,,,,
,Sequence,flow.Sequence,0_2_28,,completion,29,351213.19999980927,,,351213.59999990463,,351216.2999999523,2021-11-03T23:07:56.559Z,351240.022,1635980512,full,ni_sequenzen,NI_Sequenzen,,,,,,,,,,,,,,
,Screen_1,canvas.Screen,0_2_29_0,,skipped,30,351216.7999999523,,,351216.7999999523,,351216.89999985695,2021-11-03T23:07:56.560Z,351240.022,1635980512,full,ni_sequenzen,NI_Sequenzen,,,,,,,,,,,,,,
,Screen_2,canvas.Screen,0_2_29_1,,skipped,30,351217.2999999523,,,351216.7999999523,,351217.2999999523,2021-11-03T23:07:56.560Z,351240.022,1635980512,full,ni_sequenzen,NI_Sequenzen,,,,,,,,,,,,,,
,Screen_3,canvas.Screen,0_2_29_2,,skipped,30,351217.7999999523,,,351216.7999999523,,351217.7999999523,2021-11-03T23:07:56.561Z,351240.022,1635980512,full,ni_sequenzen,NI_Sequenzen,,,,,,,,,,,,,,
,Screen_4,canvas.Screen,0_2_29_3,,skipped,30,351218.19999980927,,,351216.7999999523,,351218.19999980927,2021-11-03T23:07:56.561Z,351240.022,1635980512,full,ni_sequenzen,NI_Sequenzen,,,,,,,,,,,,,,
,Screen_5,canvas.Screen,0_2_29_4,,skipped,30,351218.69999980927,,,351216.7999999523,,351218.69999980927,2021-11-03T23:07:56.562Z,351240.022,1635980512,full,ni_sequenzen,NI_Sequenzen,,,,,,,,,,,,,,
,Screen_6,canvas.Screen,0_2_29_5,,skipped,30,351219.19999980927,,,351216.7999999523,,351219.19999980927,2021-11-03T23:07:56.562Z,351240.022,1635980512,full,ni_sequenzen,NI_Sequenzen,,,,,,,,,,,,,,
,Sequence,flow.Sequence,0_2_29,,completion,30,351216.5,,,351216.7999999523,,351219.2999999523,2021-11-03T23:07:56.562Z,351240.022,1635980512,full,ni_sequenzen,NI_Sequenzen,,,,,,,,,,,,,,
,Instructions_II,flow.Loop,0_2,,completion,,288302.69999980927,288290.009,288306.519,351216.7999999523,62910.280999952345,351219.2999999523,2021-11-03T23:07:56.562Z,351240.022,1635980512,full,ni_sequenzen,NI_Sequenzen,,,,,,,,,,,,,,
,Move,canvas.Screen,0_3_0_0_0_0,right,response,,351236.89999985695,351223.463,351240.022,356661.39999985695,5421.377999856952,356662.2999999523,2021-11-03T23:08:02.005Z,356690.089,1635980512,full,ni_sequenzen,NI_Sequenzen,1,0,,,,,,,,,,,,
,Move,canvas.Screen,0_3_0_0_0_1,down,response,,356675.59999990463,356673.302,356690.089,357672.5,982.4110000000219,357673.09999990463,2021-11-03T23:08:03.016Z,357690.074,1635980512,full,ni_sequenzen,NI_Sequenzen,2,0,,,,,,,,,,,,
,Move,canvas.Screen,0_3_0_0_0_2,left,response,,357676.89999985695,357673.451,357690.074,361201.09999990463,3511.02599990461,361201.7999999523,2021-11-03T23:08:06.545Z,361206.689,1635980512,full,ni_sequenzen,NI_Sequenzen,3,0,,,,,,,,,,,,
,Move,canvas.Screen,0_3_0_0_0_3,down,response,,361203.59999990463,361190.144,361206.689,365639.7999999523,4433.110999952303,365640.2999999523,2021-11-03T23:08:10.983Z,365656.749,1635980512,full,ni_sequenzen,NI_Sequenzen,4,0,,,,,,,,,,,,
,Move,canvas.Screen,0_3_0_0_0_4,right,response,,365642.09999990463,365640.231,365656.749,366923.69999980927,1266.9509998092544,366924.59999990463,2021-11-03T23:08:12.268Z,366956.774,1635980512,full,ni_sequenzen,NI_Sequenzen,5,0,,,,,,,,,,,,
,Move,canvas.Screen,0_3_0_0_0_5,-999,skipped,,366929.39999985695,,,366923.69999980927,,366929.69999980927,2021-11-03T23:08:12.273Z,366956.774,1635980512,full,ni_sequenzen,NI_Sequenzen,6,0,,,,,,,,,,,,
,Move,canvas.Screen,0_3_0_0_0_6,-999,skipped,,366933.59999990463,,,366923.69999980927,,366933.69999980927,2021-11-03T23:08:12.277Z,366956.774,1635980512,full,ni_sequenzen,NI_Sequenzen,7,0,,,,,,,,,,,,
,Move,canvas.Screen,0_3_0_0_0_7,-999,skipped,,366936.89999985695,,,366923.69999980927,,366937.09999990463,2021-11-03T23:08:12.280Z,366956.774,1635980512,full,ni_sequenzen,NI_Sequenzen,8,0,,,,,,,,,,,,
,Move,canvas.Screen,0_3_0_0_0_8,-999,skipped,,366939.59999990463,,,366923.69999980927,,366939.69999980927,2021-11-03T23:08:12.283Z,366956.774,1635980512,full,ni_sequenzen,NI_Sequenzen,9,0,,,,,,,,,,,,
,Move,canvas.Screen,0_3_0_0_0_9,-999,skipped,,366942.19999980927,,,366923.69999980927,,366942.2999999523,2021-11-03T23:08:12.285Z,366956.774,1635980512,full,ni_sequenzen,NI_Sequenzen,10,0,,,,,,,,,,,,
,Move,canvas.Screen,0_3_0_0_0_10,-999,skipped,,366944.19999980927,,,366923.69999980927,,366944.2999999523,2021-11-03T23:08:12.287Z,366956.774,1635980512,full,ni_sequenzen,NI_Sequenzen,11,0,,,,,,,,,,,,
,Move,canvas.Screen,0_3_0_0_0_11,-999,skipped,,366946.59999990463,,,366923.69999980927,,366946.7999999523,2021-11-03T23:08:12.290Z,366956.774,1635980512,full,ni_sequenzen,NI_Sequenzen,12,0,,,,,,,,,,,,
,Move,canvas.Screen,0_3_0_0_0_12,-999,skipped,,366949.2999999523,,,366923.69999980927,,366949.2999999523,2021-11-03T23:08:12.292Z,366956.774,1635980512,full,ni_sequenzen,NI_Sequenzen,13,0,,,,,,,,,,,,
,Move,canvas.Screen,0_3_0_0_0_13,-999,skipped,,366950.89999985695,,,366923.69999980927,,366951,2021-11-03T23:08:12.294Z,366956.774,1635980512,full,ni_sequenzen,NI_Sequenzen,14,0,,,,,,,,,,,,
,Move,canvas.Screen,0_3_0_0_0_14,-999,skipped,,366952.69999980927,,,366923.69999980927,,366952.89999985695,2021-11-03T23:08:12.296Z,366956.774,1635980512,full,ni_sequenzen,NI_Sequenzen,15,0,,,,,,,,,,,,
,Loop,flow.Loop,0_3_0_0_0,-999,completion,,351234.09999990463,351223.463,351240.022,366923.69999980927,15683.677999809268,366953,2021-11-03T23:08:12.296Z,366956.774,1635980512,full,ni_sequenzen,NI_Sequenzen,,0,,,,,,,,,,,,
,Feedback,canvas.Screen,0_3_0_0_1,,timeout,,366955.2999999523,366940.286,366956.774,370940.236,4000.0010000000475,370941.89999985695,2021-11-03T23:08:16.285Z,370956.775,1635980512,full,ni_sequenzen,NI_Sequenzen,,0,,,,,,,,,,,,
,Trial,flow.Sequence,0_3_0_0,,completion,,351228.19999980927,351223.463,351240.022,370940.236,19700.213999999978,370942.19999980927,2021-11-03T23:08:16.285Z,370973.545,1635980512,full,ni_sequenzen,NI_Sequenzen,,0,,,,,,,,,,,,
,Move,canvas.Screen,0_3_0_1_0_0,down,response,,370960,370956.775,370973.545,373300.09999990463,2326.554999904649,373301,2021-11-03T23:08:18.644Z,373326.636,1635980512,full,ni_sequenzen,NI_Sequenzen,1,1,,,,,,,,,,,,
,Move,canvas.Screen,0_3_0_1_0_1,left,response,,373306,373290.14,373326.636,385158,11831.364000000001,385158.7999999523,2021-11-03T23:08:30.502Z,385173.535,1635980512,full,ni_sequenzen,NI_Sequenzen,2,1,,,,,,,,,,,,
,Move,canvas.Screen,0_3_0_1_0_2,right,response,,385164.39999985695,385156.59,385173.535,393292.2999999523,8118.764999952342,393293.19999980927,2021-11-03T23:08:38.636Z,393306.831,1635980512,full,ni_sequenzen,NI_Sequenzen,3,1,,,,,,,,,,,,
,Move,canvas.Screen,0_3_0_1_0_3,right,response,,393298.59999990463,393289.793,393306.831,393863.69999980927,556.8689998092595,393864.69999980927,2021-11-03T23:08:39.208Z,393906.877,1635980512,full,ni_sequenzen,NI_Sequenzen,4,1,,,,,,,,,,,,
,Move,canvas.Screen,0_3_0_1_0_4,-999,skipped,,393870.5,,,393863.69999980927,,393870.69999980927,2021-11-03T23:08:39.214Z,393906.877,1635980512,full,ni_sequenzen,NI_Sequenzen,5,1,,,,,,,,,,,,
,Move,canvas.Screen,0_3_0_1_0_5,-999,skipped,,393874.19999980927,,,393863.69999980927,,393874.39999985695,2021-11-03T23:08:39.217Z,393906.877,1635980512,full,ni_sequenzen,NI_Sequenzen,6,1,,,,,,,,,,,,
,Move,canvas.Screen,0_3_0_1_0_6,-999,skipped,,393877.09999990463,,,393863.69999980927,,393877.2999999523,2021-11-03T23:08:39.220Z,393906.877,1635980512,full,ni_sequenzen,NI_Sequenzen,7,1,,,,,,,,,,,,
,Move,canvas.Screen,0_3_0_1_0_7,-999,skipped,,393880.69999980927,,,393863.69999980927,,393880.7999999523,2021-11-03T23:08:39.224Z,393906.877,1635980512,full,ni_sequenzen,NI_Sequenzen,8,1,,,,,,,,,,,,
,Move,canvas.Screen,0_3_0_1_0_8,-999,skipped,,393883,,,393863.69999980927,,393883,2021-11-03T23:08:39.226Z,393906.877,1635980512,full,ni_sequenzen,NI_Sequenzen,9,1,,,,,,,,,,,,
,Move,canvas.Screen,0_3_0_1_0_9,-999,skipped,,393885.09999990463,,,393863.69999980927,,393885.19999980927,2021-11-03T23:08:39.228Z,393906.877,1635980512,full,ni_sequenzen,NI_Sequenzen,10,1,,,,,,,,,,,,
,Move,canvas.Screen,0_3_0_1_0_10,-999,skipped,,393887.89999985695,,,393863.69999980927,,393888.09999990463,2021-11-03T23:08:39.231Z,393906.877,1635980512,full,ni_sequenzen,NI_Sequenzen,11,1,,,,,,,,,,,,
,Move,canvas.Screen,0_3_0_1_0_11,-999,skipped,,393889.69999980927,,,393863.69999980927,,393889.7999999523,2021-11-03T23:08:39.233Z,393906.877,1635980512,full,ni_sequenzen,NI_Sequenzen,12,1,,,,,,,,,,,,
,Move,canvas.Screen,0_3_0_1_0_12,-999,skipped,,393891.19999980927,,,393863.69999980927,,393891.2999999523,2021-11-03T23:08:39.234Z,393906.877,1635980512,full,ni_sequenzen,NI_Sequenzen,13,1,,,,,,,,,,,,
,Move,canvas.Screen,0_3_0_1_0_13,-999,skipped,,393892.69999980927,,,393863.69999980927,,393892.69999980927,2021-11-03T23:08:39.236Z,393906.877,1635980512,full,ni_sequenzen,NI_Sequenzen,14,1,,,,,,,,,,,,
,Move,canvas.Screen,0_3_0_1_0_14,-999,skipped,,393894.59999990463,,,393863.69999980927,,393894.69999980927,2021-11-03T23:08:39.238Z,393906.877,1635980512,full,ni_sequenzen,NI_Sequenzen,15,1,,,,,,,,,,,,
,Loop,flow.Loop,0_3_0_1_0,-999,completion,,370957.69999980927,370956.775,370973.545,393863.69999980927,22890.15499980928,393894.7999999523,2021-11-03T23:08:39.238Z,393906.877,1635980512,full,ni_sequenzen,NI_Sequenzen,,1,,,,,,,,,,,,
,Feedback,canvas.Screen,0_3_0_1_1,,timeout,,393896.09999990463,393890.417,393906.877,397890.542,3999.9679999999935,397891.59999990463,2021-11-03T23:08:43.235Z,397906.845,1635980512,full,ni_sequenzen,NI_Sequenzen,,1,,,,,,,,,,,,
,Trial,flow.Sequence,0_3_0_1,,completion,,370942.69999980927,370956.775,370973.545,397890.542,26916.997000000032,397891.89999985695,2021-11-03T23:08:43.235Z,397923.671,1635980512,full,ni_sequenzen,NI_Sequenzen,,1,,,,,,,,,,,,
,Move,canvas.Screen,0_3_0_2_0_0,down,response,,397909.39999985695,397906.845,397923.671,404673,6749.329000000027,404673.89999985695,2021-11-03T23:08:50.017Z,404690.199,1635980512,full,ni_sequenzen,NI_Sequenzen,1,2,,,,,,,,,,,,
,Move,canvas.Screen,0_3_0_2_0_1,right,response,,404679.69999980927,404673.487,404690.199,405369.09999990463,678.9009999046102,405369.69999980927,2021-11-03T23:08:50.713Z,405390.484,1635980512,full,ni_sequenzen,NI_Sequenzen,2,2,,,,,,,,,,,,
,Move,canvas.Screen,0_3_0_2_0_2,right,response,,405373.39999985695,405373.809,405390.484,405823.39999985695,432.9159998569521,405824.39999985695,2021-11-03T23:08:51.168Z,405840.207,1635980512,full,ni_sequenzen,NI_Sequenzen,3,2,,,,,,,,,,,,
,Move,canvas.Screen,0_3_0_2_0_3,down,response,,405830.19999980927,405823.88,405840.207,406366.89999985695,526.692999856954,406367.7999999523,2021-11-03T23:08:51.711Z,406390.161,1635980512,full,ni_sequenzen,NI_Sequenzen,4,2,,,,,,,,,,,,
,Move,canvas.Screen,0_3_0_2_0_4,-999,skipped,,406372.2999999523,,,406366.89999985695,,406372.39999985695,2021-11-03T23:08:51.715Z,406390.161,1635980512,full,ni_sequenzen,NI_Sequenzen,5,2,,,,,,,,,,,,
,Move,canvas.Screen,0_3_0_2_0_5,-999,skipped,,406374,,,406366.89999985695,,406374,2021-11-03T23:08:51.717Z,406390.161,1635980512,full,ni_sequenzen,NI_Sequenzen,6,2,,,,,,,,,,,,
,Move,canvas.Screen,0_3_0_2_0_6,-999,skipped,,406375.2999999523,,,406366.89999985695,,406375.39999985695,2021-11-03T23:08:51.718Z,406390.161,1635980512,full,ni_sequenzen,NI_Sequenzen,7,2,,,,,,,,,,,,
,Move,canvas.Screen,0_3_0_2_0_7,-999,skipped,,406376.59999990463,,,406366.89999985695,,406376.59999990463,2021-11-03T23:08:51.720Z,406390.161,1635980512,full,ni_sequenzen,NI_Sequenzen,8,2,,,,,,,,,,,,
,Move,canvas.Screen,0_3_0_2_0_8,-999,skipped,,406377.89999985695,,,406366.89999985695,,406378,2021-11-03T23:08:51.721Z,406390.161,1635980512,full,ni_sequenzen,NI_Sequenzen,9,2,,,,,,,,,,,,
,Move,canvas.Screen,0_3_0_2_0_9,-999,skipped,,406379.59999990463,,,406366.89999985695,,406379.59999990463,2021-11-03T23:08:51.723Z,406390.161,1635980512,full,ni_sequenzen,NI_Sequenzen,10,2,,,,,,,,,,,,
,Move,canvas.Screen,0_3_0_2_0_10,-999,skipped,,406380.69999980927,,,406366.89999985695,,406380.7999999523,2021-11-03T23:08:51.724Z,406390.161,1635980512,full,ni_sequenzen,NI_Sequenzen,11,2,,,,,,,,,,,,
,Move,canvas.Screen,0_3_0_2_0_11,-999,skipped,,406382,,,406366.89999985695,,406382.09999990463,2021-11-03T23:08:51.725Z,406390.161,1635980512,full,ni_sequenzen,NI_Sequenzen,12,2,,,,,,,,,,,,
,Move,canvas.Screen,0_3_0_2_0_12,-999,skipped,,406383.69999980927,,,406366.89999985695,,406383.7999999523,2021-11-03T23:08:51.727Z,406390.161,1635980512,full,ni_sequenzen,NI_Sequenzen,13,2,,,,,,,,,,,,
,Move,canvas.Screen,0_3_0_2_0_13,-999,skipped,,406385,,,406366.89999985695,,406385.09999990463,2021-11-03T23:08:51.728Z,406390.161,1635980512,full,ni_sequenzen,NI_Sequenzen,14,2,,,,,,,,,,,,
,Move,canvas.Screen,0_3_0_2_0_14,-999,skipped,,406386.19999980927,,,406366.89999985695,,406386.2999999523,2021-11-03T23:08:51.729Z,406390.161,1635980512,full,ni_sequenzen,NI_Sequenzen,15,2,,,,,,,,,,,,
,Loop,flow.Loop,0_3_0_2_0,-999,completion,,397907.09999990463,397906.845,397923.671,406366.89999985695,8443.228999856976,406386.39999985695,2021-11-03T23:08:51.729Z,406390.161,1635980512,full,ni_sequenzen,NI_Sequenzen,,2,,,,,,,,,,,,
,Feedback,canvas.Screen,0_3_0_2_1,,timeout,,406387.39999985695,406373.761,406390.161,410373.835,4000.0259999999544,410374.7999999523,2021-11-03T23:08:55.718Z,410390.187,1635980512,full,ni_sequenzen,NI_Sequenzen,,2,,,,,,,,,,,,
,Trial,flow.Sequence,0_3_0_2,,completion,,397892.19999980927,397906.845,397923.671,410373.835,12450.164000000048,410374.89999985695,2021-11-03T23:08:55.718Z,410407.066,1635980512,full,ni_sequenzen,NI_Sequenzen,,2,,,,,,,,,,,,
,Move,canvas.Screen,0_3_0_3_0_0,down,response,,410391.5,410390.187,410407.066,413802.19999980927,3395.1339998092735,413802.59999990463,2021-11-03T23:08:59.146Z,413806.886,1635980512,full,ni_sequenzen,NI_Sequenzen,1,3,,,,,,,,,,,,
,Move,canvas.Screen,0_3_0_3_0_1,left,response,,413804.09999990463,413790.335,413806.886,414413.09999990463,606.213999904634,414414,2021-11-03T23:08:59.757Z,414423.517,1635980512,full,ni_sequenzen,NI_Sequenzen,2,3,,,,,,,,,,,,
,Move,canvas.Screen,0_3_0_3_0_2,right,response,,414419.39999985695,414406.818,414423.517,415353.09999990463,929.58299990464,415353.89999985695,2021-11-03T23:09:00.697Z,415373.815,1635980512,full,ni_sequenzen,NI_Sequenzen,3,3,,,,,,,,,,,,
,Move,canvas.Screen,0_3_0_3_0_3,down,response,,415358.69999980927,415357.129,415373.815,416039.19999980927,665.3849998092628,416039.89999985695,2021-11-03T23:09:01.383Z,416056.999,1635980512,full,ni_sequenzen,NI_Sequenzen,4,3,,,,,,,,,,,,
,Move,canvas.Screen,0_3_0_3_0_4,right,response,,416045,416040.361,416056.999,417367.89999985695,1310.9009998569381,417368.7999999523,2021-11-03T23:09:02.712Z,417390.296,1635980512,full,ni_sequenzen,NI_Sequenzen,5,3,,,,,,,,,,,,
,Move,canvas.Screen,0_3_0_3_0_5,-999,skipped,,417373.5,,,417367.89999985695,,417373.59999990463,2021-11-03T23:09:02.717Z,417390.296,1635980512,full,ni_sequenzen,NI_Sequenzen,6,3,,,,,,,,,,,,
,Move,canvas.Screen,0_3_0_3_0_6,-999,skipped,,417374.89999985695,,,417367.89999985695,,417374.89999985695,2021-11-03T23:09:02.718Z,417390.296,1635980512,full,ni_sequenzen,NI_Sequenzen,7,3,,,,,,,,,,,,
,Move,canvas.Screen,0_3_0_3_0_7,-999,skipped,,417376.39999985695,,,417367.89999985695,,417376.39999985695,2021-11-03T23:09:02.719Z,417390.296,1635980512,full,ni_sequenzen,NI_Sequenzen,8,3,,,,,,,,,,,,
,Move,canvas.Screen,0_3_0_3_0_8,-999,skipped,,417377.89999985695,,,417367.89999985695,,417377.89999985695,2021-11-03T23:09:02.721Z,417390.296,1635980512,full,ni_sequenzen,NI_Sequenzen,9,3,,,,,,,,,,,,
,Move,canvas.Screen,0_3_0_3_0_9,-999,skipped,,417379,,,417367.89999985695,,417379,2021-11-03T23:09:02.722Z,417390.296,1635980512,full,ni_sequenzen,NI_Sequenzen,10,3,,,,,,,,,,,,
,Move,canvas.Screen,0_3_0_3_0_10,-999,skipped,,417380.09999990463,,,417367.89999985695,,417380.09999990463,2021-11-03T23:09:02.723Z,417390.296,1635980512,full,ni_sequenzen,NI_Sequenzen,11,3,,,,,,,,,,,,
,Move,canvas.Screen,0_3_0_3_0_11,-999,skipped,,417381.5,,,417367.89999985695,,417381.5,2021-11-03T23:09:02.725Z,417390.296,1635980512,full,ni_sequenzen,NI_Sequenzen,12,3,,,,,,,,,,,,
,Move,canvas.Screen,0_3_0_3_0_12,-999,skipped,,417382.59999990463,,,417367.89999985695,,417382.59999990463,2021-11-03T23:09:02.726Z,417390.296,1635980512,full,ni_sequenzen,NI_Sequenzen,13,3,,,,,,,,,,,,
,Move,canvas.Screen,0_3_0_3_0_13,-999,skipped,,417383.89999985695,,,417367.89999985695,,417383.89999985695,2021-11-03T23:09:02.727Z,417390.296,1635980512,full,ni_sequenzen,NI_Sequenzen,14,3,,,,,,,,,,,,
,Move,canvas.Screen,0_3_0_3_0_14,-999,skipped,,417385.09999990463,,,417367.89999985695,,417385.09999990463,2021-11-03T23:09:02.728Z,417390.296,1635980512,full,ni_sequenzen,NI_Sequenzen,15,3,,,,,,,,,,,,
,Loop,flow.Loop,0_3_0_3_0,-999,completion,,410389.5,410390.187,410407.066,417367.89999985695,6960.833999856957,417385.19999980927,2021-11-03T23:09:02.728Z,417390.296,1635980512,full,ni_sequenzen,NI_Sequenzen,,3,,,,,,,,,,,,
,Feedback,canvas.Screen,0_3_0_3_1,,timeout,,417386.39999985695,417373.871,417390.296,421373.832,4000.0109999999986,421375.5,2021-11-03T23:09:06.719Z,421390.307,1635980512,full,ni_sequenzen,NI_Sequenzen,,3,,,,,,,,,,,,
,Trial,flow.Sequence,0_3_0_3,,completion,,410375.2999999523,410390.187,410407.066,421373.832,10966.766000000003,421375.89999985695,2021-11-03T23:09:06.719Z,421407.016,1635980512,full,ni_sequenzen,NI_Sequenzen,,3,,,,,,,,,,,,
,Move,canvas.Screen,0_3_0_4_0_0,down,response,,421398.2999999523,421390.307,421407.016,426241.5,4834.483999999997,426241.89999985695,2021-11-03T23:09:11.585Z,426256.987,1635980512,full,ni_sequenzen,NI_Sequenzen,1,4,,,,,,,,,,,,
,Move,canvas.Screen,0_3_0_4_0_1,right,response,,426243.59999990463,426240.33,426256.987,427109.09999990463,852.1129999046098,427109.39999985695,2021-11-03T23:09:12.452Z,427123.658,1635980512,full,ni_sequenzen,NI_Sequenzen,2,4,,,,,,,,,,,,
,Move,canvas.Screen,0_3_0_4_0_2,right,response,,427110.69999980927,427107.076,427123.658,427407.2999999523,283.6419999523205,427408,2021-11-03T23:09:12.751Z,427423.621,1635980512,full,ni_sequenzen,NI_Sequenzen,3,4,,,,,,,,,,,,
,Move,canvas.Screen,0_3_0_4_0_3,down,response,,427411.89999985695,427406.859,427423.621,427894.19999980927,470.5789998092805,427894.89999985695,2021-11-03T23:09:13.238Z,427923.87,1635980512,full,ni_sequenzen,NI_Sequenzen,4,4,,,,,,,,,,,,
,Move,canvas.Screen,0_3_0_4_0_4,-999,skipped,,427898.69999980927,,,427894.19999980927,,427899,2021-11-03T23:09:13.242Z,427923.87,1635980512,full,ni_sequenzen,NI_Sequenzen,5,4,,,,,,,,,,,,
,Move,canvas.Screen,0_3_0_4_0_5,-999,skipped,,427901.5,,,427894.19999980927,,427901.5,2021-11-03T23:09:13.244Z,427923.87,1635980512,full,ni_sequenzen,NI_Sequenzen,6,4,,,,,,,,,,,,
,Move,canvas.Screen,0_3_0_4_0_6,-999,skipped,,427902.69999980927,,,427894.19999980927,,427902.89999985695,2021-11-03T23:09:13.246Z,427923.87,1635980512,full,ni_sequenzen,NI_Sequenzen,7,4,,,,,,,,,,,,
,Move,canvas.Screen,0_3_0_4_0_7,-999,skipped,,427904,,,427894.19999980927,,427904,2021-11-03T23:09:13.247Z,427923.87,1635980512,full,ni_sequenzen,NI_Sequenzen,8,4,,,,,,,,,,,,
,Move,canvas.Screen,0_3_0_4_0_8,-999,skipped,,427905.5,,,427894.19999980927,,427905.5,2021-11-03T23:09:13.249Z,427923.87,1635980512,full,ni_sequenzen,NI_Sequenzen,9,4,,,,,,,,,,,,
,Move,canvas.Screen,0_3_0_4_0_9,-999,skipped,,427906.59999990463,,,427894.19999980927,,427906.69999980927,2021-11-03T23:09:13.250Z,427923.87,1635980512,full,ni_sequenzen,NI_Sequenzen,10,4,,,,,,,,,,,,
,Move,canvas.Screen,0_3_0_4_0_10,-999,skipped,,427907.89999985695,,,427894.19999980927,,427907.89999985695,2021-11-03T23:09:13.251Z,427923.87,1635980512,full,ni_sequenzen,NI_Sequenzen,11,4,,,,,,,,,,,,
,Move,canvas.Screen,0_3_0_4_0_11,-999,skipped,,427909.09999990463,,,427894.19999980927,,427909.09999990463,2021-11-03T23:09:13.252Z,427923.87,1635980512,full,ni_sequenzen,NI_Sequenzen,12,4,,,,,,,,,,,,
,Move,canvas.Screen,0_3_0_4_0_12,-999,skipped,,427910.69999980927,,,427894.19999980927,,427910.69999980927,2021-11-03T23:09:13.254Z,427923.87,1635980512,full,ni_sequenzen,NI_Sequenzen,13,4,,,,,,,,,,,,
,Move,canvas.Screen,0_3_0_4_0_13,-999,skipped,,427911.89999985695,,,427894.19999980927,,427911.89999985695,2021-11-03T23:09:13.255Z,427923.87,1635980512,full,ni_sequenzen,NI_Sequenzen,14,4,,,,,,,,,,,,
,Move,canvas.Screen,0_3_0_4_0_14,-999,skipped,,427913,,,427894.19999980927,,427913,2021-11-03T23:09:13.256Z,427923.87,1635980512,full,ni_sequenzen,NI_Sequenzen,15,4,,,,,,,,,,,,
,Loop,flow.Loop,0_3_0_4_0,-999,completion,,421396.39999985695,421390.307,421407.016,427894.19999980927,6487.183999809262,427913.09999990463,2021-11-03T23:09:13.256Z,427923.87,1635980512,full,ni_sequenzen,NI_Sequenzen,,4,,,,,,,,,,,,
,Feedback,canvas.Screen,0_3_0_4_1,,timeout,,427914.39999985695,427907.205,427923.87,431907.28,3999.7490000000107,431908.5,2021-11-03T23:09:17.252Z,431923.619,1635980512,full,ni_sequenzen,NI_Sequenzen,,4,,,,,,,,,,,,
,Trial,flow.Sequence,0_3_0_4,,completion,,421376.59999990463,421390.307,421407.016,431907.28,10500.264000000025,431908.7999999523,2021-11-03T23:09:17.252Z,431940.448,1635980512,full,ni_sequenzen,NI_Sequenzen,,4,,,,,,,,,,,,
,Move,canvas.Screen,0_3_0_5_0_0,down,response,,431925.69999980927,431923.619,431940.448,433784.2999999523,1843.8519999523414,433784.89999985695,2021-11-03T23:09:19.128Z,433790.309,1635980512,full,ni_sequenzen,NI_Sequenzen,1,5,,,,,,,,,,,,
,Move,canvas.Screen,0_3_0_5_0_1,down,response,,433788.19999980927,433773.797,433790.309,434767.5,977.1909999999916,434768.39999985695,2021-11-03T23:09:20.111Z,434797.352,1635980512,full,ni_sequenzen,NI_Sequenzen,2,5,,,,,,,,,,,,
,Move,canvas.Screen,0_3_0_5_0_2,right,response,,434773.19999980927,434757.245,434797.352,435086.5,289.1479999999865,435087.2999999523,2021-11-03T23:09:20.430Z,435107.012,1635980512,full,ni_sequenzen,NI_Sequenzen,3,5,,,,,,,,,,,,
,Move,canvas.Screen,0_3_0_5_0_3,right,response,,435092,435090.558,435107.012,435495.5,388.4880000000121,435496,2021-11-03T23:09:20.839Z,435523.748,1635980512,full,ni_sequenzen,NI_Sequenzen,4,5,,,,,,,,,,,,
,Move,canvas.Screen,0_3_0_5_0_4,-999,skipped,,435500.5,,,435495.5,,435500.7999999523,2021-11-03T23:09:20.844Z,435523.748,1635980512,full,ni_sequenzen,NI_Sequenzen,5,5,,,,,,,,,,,,
,Move,canvas.Screen,0_3_0_5_0_5,-999,skipped,,435501.89999985695,,,435495.5,,435501.89999985695,2021-11-03T23:09:20.845Z,435523.748,1635980512,full,ni_sequenzen,NI_Sequenzen,6,5,,,,,,,,,,,,
,Move,canvas.Screen,0_3_0_5_0_6,-999,skipped,,435503,,,435495.5,,435503,2021-11-03T23:09:20.846Z,435523.748,1635980512,full,ni_sequenzen,NI_Sequenzen,7,5,,,,,,,,,,,,
,Move,canvas.Screen,0_3_0_5_0_7,-999,skipped,,435504.5,,,435495.5,,435504.5,2021-11-03T23:09:20.848Z,435523.748,1635980512,full,ni_sequenzen,NI_Sequenzen,8,5,,,,,,,,,,,,
,Move,canvas.Screen,0_3_0_5_0_8,-999,skipped,,435505.7999999523,,,435495.5,,435505.89999985695,2021-11-03T23:09:20.849Z,435523.748,1635980512,full,ni_sequenzen,NI_Sequenzen,9,5,,,,,,,,,,,,
,Move,canvas.Screen,0_3_0_5_0_9,-999,skipped,,435507.09999990463,,,435495.5,,435507.09999990463,2021-11-03T23:09:20.850Z,435523.748,1635980512,full,ni_sequenzen,NI_Sequenzen,10,5,,,,,,,,,,,,
,Move,canvas.Screen,0_3_0_5_0_10,-999,skipped,,435508.5,,,435495.5,,435508.5,2021-11-03T23:09:20.851Z,435523.748,1635980512,full,ni_sequenzen,NI_Sequenzen,11,5,,,,,,,,,,,,
,Move,canvas.Screen,0_3_0_5_0_11,-999,skipped,,435509.5,,,435495.5,,435509.59999990463,2021-11-03T23:09:20.853Z,435523.748,1635980512,full,ni_sequenzen,NI_Sequenzen,12,5,,,,,,,,,,,,
,Move,canvas.Screen,0_3_0_5_0_12,-999,skipped,,435510.59999990463,,,435495.5,,435510.69999980927,2021-11-03T23:09:20.854Z,435523.748,1635980512,full,ni_sequenzen,NI_Sequenzen,13,5,,,,,,,,,,,,
,Move,canvas.Screen,0_3_0_5_0_13,-999,skipped,,435511.69999980927,,,435495.5,,435511.89999985695,2021-11-03T23:09:20.855Z,435523.748,1635980512,full,ni_sequenzen,NI_Sequenzen,14,5,,,,,,,,,,,,
,Move,canvas.Screen,0_3_0_5_0_14,-999,skipped,,435513.2999999523,,,435495.5,,435513.2999999523,2021-11-03T23:09:20.856Z,435523.748,1635980512,full,ni_sequenzen,NI_Sequenzen,15,5,,,,,,,,,,,,
,Loop,flow.Loop,0_3_0_5_0,-999,completion,,431924.2999999523,431923.619,431940.448,435495.5,3555.052000000025,435513.39999985695,2021-11-03T23:09:20.856Z,435523.748,1635980512,full,ni_sequenzen,NI_Sequenzen,,5,,,,,,,,,,,,
,Feedback,canvas.Screen,0_3_0_5_1,,timeout,,435514.5,435506.998,435523.748,439507.133,3999.880999999994,439507.89999985695,2021-11-03T23:09:24.851Z,439523.629,1635980512,full,ni_sequenzen,NI_Sequenzen,,5,,,,,,,,,,,,
,Trial,flow.Sequence,0_3_0_5,,completion,,431909.2999999523,431923.619,431940.448,439507.133,7566.684999999998,439508.19999980927,2021-11-03T23:09:24.851Z,439540.482,1635980512,full,ni_sequenzen,NI_Sequenzen,,5,,,,,,,,,,,,
,Move,canvas.Screen,0_3_0_6_0_0,left,response,,439524.59999990463,439523.629,439540.482,445794.59999990463,6254.117999904614,445795.39999985695,2021-11-03T23:09:31.138Z,445806.982,1635980512,full,ni_sequenzen,NI_Sequenzen,1,6,,,,,,,,,,,,
,Move,canvas.Screen,0_3_0_6_0_1,down,response,,445799.39999985695,445790.249,445806.982,446389.69999980927,582.717999809247,446390.5,2021-11-03T23:09:31.733Z,446407.173,1635980512,full,ni_sequenzen,NI_Sequenzen,2,6,,,,,,,,,,,,
,Move,canvas.Screen,0_3_0_6_0_2,down,response,,446396,446390.517,446407.173,452089.5,5682.32699999999,452089.89999985695,2021-11-03T23:09:37.433Z,452106.93,1635980512,full,ni_sequenzen,NI_Sequenzen,3,6,,,,,,,,,,,,
,Move,canvas.Screen,0_3_0_6_0_3,left,response,,452091.2999999523,452090.388,452106.93,452498.09999990463,391.16999990463955,452498.5,2021-11-03T23:09:37.841Z,452523.595,1635980512,full,ni_sequenzen,NI_Sequenzen,4,6,,,,,,,,,,,,
,Move,canvas.Screen,0_3_0_6_0_4,-999,skipped,,452500.09999990463,,,452498.09999990463,,452500.19999980927,2021-11-03T23:09:37.843Z,452523.595,1635980512,full,ni_sequenzen,NI_Sequenzen,5,6,,,,,,,,,,,,
,Move,canvas.Screen,0_3_0_6_0_5,-999,skipped,,452501.5,,,452498.09999990463,,452501.59999990463,2021-11-03T23:09:37.845Z,452523.595,1635980512,full,ni_sequenzen,NI_Sequenzen,6,6,,,,,,,,,,,,
,Move,canvas.Screen,0_3_0_6_0_6,-999,skipped,,452502.69999980927,,,452498.09999990463,,452502.7999999523,2021-11-03T23:09:37.846Z,452523.595,1635980512,full,ni_sequenzen,NI_Sequenzen,7,6,,,,,,,,,,,,
,Move,canvas.Screen,0_3_0_6_0_7,-999,skipped,,452504.19999980927,,,452498.09999990463,,452504.2999999523,2021-11-03T23:09:37.847Z,452523.595,1635980512,full,ni_sequenzen,NI_Sequenzen,8,6,,,,,,,,,,,,
,Move,canvas.Screen,0_3_0_6_0_8,-999,skipped,,452505.5,,,452498.09999990463,,452505.59999990463,2021-11-03T23:09:37.849Z,452523.595,1635980512,full,ni_sequenzen,NI_Sequenzen,9,6,,,,,,,,,,,,
,Move,canvas.Screen,0_3_0_6_0_9,-999,skipped,,452506.7999999523,,,452498.09999990463,,452506.7999999523,2021-11-03T23:09:37.850Z,452523.595,1635980512,full,ni_sequenzen,NI_Sequenzen,10,6,,,,,,,,,,,,
,Move,canvas.Screen,0_3_0_6_0_10,-999,skipped,,452508.19999980927,,,452498.09999990463,,452508.19999980927,2021-11-03T23:09:37.851Z,452523.595,1635980512,full,ni_sequenzen,NI_Sequenzen,11,6,,,,,,,,,,,,
,Move,canvas.Screen,0_3_0_6_0_11,-999,skipped,,452509.2999999523,,,452498.09999990463,,452509.39999985695,2021-11-03T23:09:37.852Z,452523.595,1635980512,full,ni_sequenzen,NI_Sequenzen,12,6,,,,,,,,,,,,
,Move,canvas.Screen,0_3_0_6_0_12,-999,skipped,,452510.5,,,452498.09999990463,,452510.5,2021-11-03T23:09:37.853Z,452523.595,1635980512,full,ni_sequenzen,NI_Sequenzen,13,6,,,,,,,,,,,,
,Move,canvas.Screen,0_3_0_6_0_13,-999,skipped,,452511.5,,,452498.09999990463,,452511.59999990463,2021-11-03T23:09:37.855Z,452523.595,1635980512,full,ni_sequenzen,NI_Sequenzen,14,6,,,,,,,,,,,,
,Move,canvas.Screen,0_3_0_6_0_14,-999,skipped,,452512.89999985695,,,452498.09999990463,,452512.89999985695,2021-11-03T23:09:37.856Z,452523.595,1635980512,full,ni_sequenzen,NI_Sequenzen,15,6,,,,,,,,,,,,
,Loop,flow.Loop,0_3_0_6_0,-999,completion,,439522.89999985695,439523.629,439540.482,452498.09999990463,12957.617999904614,452513.09999990463,2021-11-03T23:09:37.856Z,452523.595,1635980512,full,ni_sequenzen,NI_Sequenzen,,6,,,,,,,,,,,,
,Feedback,canvas.Screen,0_3_0_6_1,,timeout,,452514,452506.912,452523.595,456507.236,4000.3550000000396,456508,2021-11-03T23:09:41.851Z,456523.95,1635980512,full,ni_sequenzen,NI_Sequenzen,,6,,,,,,,,,,,,
,Trial,flow.Sequence,0_3_0_6,,completion,,439508.59999990463,439523.629,439540.482,456507.236,16966.753999999957,456508.09999990463,2021-11-03T23:09:41.851Z,456540.641,1635980512,full,ni_sequenzen,NI_Sequenzen,,6,,,,,,,,,,,,
,Move,canvas.Screen,0_3_0_7_0_0,right,response,,456521.7999999523,456523.95,456540.641,469824.2999999523,13283.658999952313,469825,2021-11-03T23:09:55.168Z,469840.42,1635980512,full,ni_sequenzen,NI_Sequenzen,1,7,,,,,,,,,,,,
,Move,canvas.Screen,0_3_0_7_0_1,down,response,,469828.2999999523,469823.255,469840.42,471486.59999990463,1646.1799999046489,471487.2999999523,2021-11-03T23:09:56.830Z,471507.042,1635980512,full,ni_sequenzen,NI_Sequenzen,2,7,,,,,,,,,,,,
,Move,canvas.Screen,0_3_0_7_0_2,right,response,,471490.39999985695,471490.336,471507.042,471862.2999999523,355.25799995230045,471862.7999999523,2021-11-03T23:09:57.206Z,471873.677,1635980512,full,ni_sequenzen,NI_Sequenzen,3,7,,,,,,,,,,,,
,Move,canvas.Screen,0_3_0_7_0_3,down,response,,471865.59999990463,471857.276,471873.677,472282.39999985695,408.7229998569237,472283.2999999523,2021-11-03T23:09:57.626Z,472323.859,1635980512,full,ni_sequenzen,NI_Sequenzen,4,7,,,,,,,,,,,,
,Move,canvas.Screen,0_3_0_7_0_4,-999,skipped,,472288.69999980927,,,472282.39999985695,,472288.89999985695,2021-11-03T23:09:57.632Z,472323.859,1635980512,full,ni_sequenzen,NI_Sequenzen,5,7,,,,,,,,,,,,
,Move,canvas.Screen,0_3_0_7_0_5,-999,skipped,,472294.09999990463,,,472282.39999985695,,472294.2999999523,2021-11-03T23:09:57.637Z,472323.859,1635980512,full,ni_sequenzen,NI_Sequenzen,6,7,,,,,,,,,,,,
,Move,canvas.Screen,0_3_0_7_0_6,-999,skipped,,472298.59999990463,,,472282.39999985695,,472298.69999980927,2021-11-03T23:09:57.642Z,472323.859,1635980512,full,ni_sequenzen,NI_Sequenzen,7,7,,,,,,,,,,,,
,Move,canvas.Screen,0_3_0_7_0_7,-999,skipped,,472301.39999985695,,,472282.39999985695,,472301.39999985695,2021-11-03T23:09:57.644Z,472323.859,1635980512,full,ni_sequenzen,NI_Sequenzen,8,7,,,,,,,,,,,,
,Move,canvas.Screen,0_3_0_7_0_8,-999,skipped,,472303.89999985695,,,472282.39999985695,,472304,2021-11-03T23:09:57.647Z,472323.859,1635980512,full,ni_sequenzen,NI_Sequenzen,9,7,,,,,,,,,,,,
,Move,canvas.Screen,0_3_0_7_0_9,-999,skipped,,472306.59999990463,,,472282.39999985695,,472306.69999980927,2021-11-03T23:09:57.650Z,472323.859,1635980512,full,ni_sequenzen,NI_Sequenzen,10,7,,,,,,,,,,,,
,Move,canvas.Screen,0_3_0_7_0_10,-999,skipped,,472309.09999990463,,,472282.39999985695,,472309.09999990463,2021-11-03T23:09:57.652Z,472323.859,1635980512,full,ni_sequenzen,NI_Sequenzen,11,7,,,,,,,,,,,,
,Move,canvas.Screen,0_3_0_7_0_11,-999,skipped,,472311,,,472282.39999985695,,472311,2021-11-03T23:09:57.654Z,472323.859,1635980512,full,ni_sequenzen,NI_Sequenzen,12,7,,,,,,,,,,,,
,Move,canvas.Screen,0_3_0_7_0_12,-999,skipped,,472312.59999990463,,,472282.39999985695,,472312.59999990463,2021-11-03T23:09:57.656Z,472323.859,1635980512,full,ni_sequenzen,NI_Sequenzen,13,7,,,,,,,,,,,,
,Move,canvas.Screen,0_3_0_7_0_13,-999,skipped,,472314.7999999523,,,472282.39999985695,,472314.89999985695,2021-11-03T23:09:57.658Z,472323.859,1635980512,full,ni_sequenzen,NI_Sequenzen,14,7,,,,,,,,,,,,
,Move,canvas.Screen,0_3_0_7_0_14,-999,skipped,,472316.39999985695,,,472282.39999985695,,472316.39999985695,2021-11-03T23:09:57.659Z,472323.859,1635980512,full,ni_sequenzen,NI_Sequenzen,15,7,,,,,,,,,,,,
,Loop,flow.Loop,0_3_0_7_0,-999,completion,,456520.39999985695,456523.95,456540.641,472282.39999985695,15741.758999856946,472316.5,2021-11-03T23:09:57.659Z,472323.859,1635980512,full,ni_sequenzen,NI_Sequenzen,,7,,,,,,,,,,,,
,Feedback,canvas.Screen,0_3_0_7_1,,timeout,,472317.89999985695,472307.234,472323.859,476307.349,3999.8580000000075,476308.19999980927,2021-11-03T23:10:01.651Z,476323.717,1635980512,full,ni_sequenzen,NI_Sequenzen,,7,,,,,,,,,,,,
,Trial,flow.Sequence,0_3_0_7,,completion,,456508.39999985695,456523.95,456540.641,476307.349,19766.707999999984,476308.2999999523,2021-11-03T23:10:01.651Z,476340.667,1635980512,full,ni_sequenzen,NI_Sequenzen,,7,,,,,,,,,,,,
,Move,canvas.Screen,0_3_0_8_0_0,right,response,,476323.2999999523,476323.717,476340.667,487616.7999999523,11276.1329999523,487617.2999999523,2021-11-03T23:10:12.960Z,487623.727,1635980512,full,ni_sequenzen,NI_Sequenzen,1,8,,,,,,,,,,,,
,Move,canvas.Screen,0_3_0_8_0_1,down,response,,487620.09999990463,487606.94,487623.727,488489.5,865.7729999999865,488490.09999990463,2021-11-03T23:10:13.832Z,488507.34,1635980512,full,ni_sequenzen,NI_Sequenzen,2,8,,,,,,,,,,,,
,Move,canvas.Screen,0_3_0_8_0_2,right,response,,488493.5,488490.67,488507.34,488828.2999999523,320.9599999522907,488829.19999980927,2021-11-03T23:10:14.172Z,488840.578,1635980512,full,ni_sequenzen,NI_Sequenzen,3,8,,,,,,,,,,,,
,Move,canvas.Screen,0_3_0_8_0_3,down,response,,488833.89999985695,488823.787,488840.578,489218.2999999523,377.7219999523368,489218.59999990463,2021-11-03T23:10:14.561Z,489240.447,1635980512,full,ni_sequenzen,NI_Sequenzen,4,8,,,,,,,,,,,,
,Move,canvas.Screen,0_3_0_8_0_4,-999,skipped,,489219.69999980927,,,489218.2999999523,,489219.7999999523,2021-11-03T23:10:14.562Z,489240.447,1635980512,full,ni_sequenzen,NI_Sequenzen,5,8,,,,,,,,,,,,
,Move,canvas.Screen,0_3_0_8_0_5,-999,skipped,,489221.39999985695,,,489218.2999999523,,489221.5,2021-11-03T23:10:14.564Z,489240.447,1635980512,full,ni_sequenzen,NI_Sequenzen,6,8,,,,,,,,,,,,
,Move,canvas.Screen,0_3_0_8_0_6,-999,skipped,,489222.59999990463,,,489218.2999999523,,489222.59999990463,2021-11-03T23:10:14.565Z,489240.447,1635980512,full,ni_sequenzen,NI_Sequenzen,7,8,,,,,,,,,,,,
,Move,canvas.Screen,0_3_0_8_0_7,-999,skipped,,489223.59999990463,,,489218.2999999523,,489223.69999980927,2021-11-03T23:10:14.566Z,489240.447,1635980512,full,ni_sequenzen,NI_Sequenzen,8,8,,,,,,,,,,,,
,Move,canvas.Screen,0_3_0_8_0_8,-999,skipped,,489225.19999980927,,,489218.2999999523,,489225.19999980927,2021-11-03T23:10:14.567Z,489240.447,1635980512,full,ni_sequenzen,NI_Sequenzen,9,8,,,,,,,,,,,,
,Move,canvas.Screen,0_3_0_8_0_9,-999,skipped,,489226.69999980927,,,489218.2999999523,,489226.7999999523,2021-11-03T23:10:14.569Z,489240.447,1635980512,full,ni_sequenzen,NI_Sequenzen,10,8,,,,,,,,,,,,
