meta,sender,sender_type,sender_id,response,ended_on,instrCount,time_run,time_render,time_show,time_end,duration,time_commit,timestamp,time_switch,openLabId,type,task,project,move,trialN,blockN_Train,blockN,moveCount,currPP,points,movesTrial,visitedFields,diff,reward,Strategie,Zweck,Probleme
[object Object],Screen_1,canvas.Screen,0_0_0_0,cont,response,1,1364.300000011921,1355.277,1471.83,12046.300000011921,10574.470000011921,12053.699999988079,2021-10-24T09:04:24.407Z,12226.858,1635066246,full,ni_sequenzen,NI_Sequenzen,,,,,,,,,,,,,,
,Screen_2,canvas.Screen,0_0_0_1,cont,response,1,12199.400000035763,12183.668,12226.858,25527.19999998808,13300.341999988079,25528.69999998808,2021-10-24T09:04:37.881Z,25660.765,1635066246,full,ni_sequenzen,NI_Sequenzen,,,,,,,,,,,,,,
,Screen_3,canvas.Screen,0_0_0_2,cont,response,1,25624.400000035763,25610.944,25660.765,48076.69999998808,22415.93499998808,48078.40000003576,2021-10-24T09:05:00.431Z,48100.673,1635066246,full,ni_sequenzen,NI_Sequenzen,,,,,,,,,,,,,,
,Screen_4,canvas.Screen,0_0_0_3,cont,response,1,48089.5,48084.27,48100.673,53926.90000003576,5826.22700003576,53928.30000001192,2021-10-24T09:05:06.281Z,54214.497,1635066246,full,ni_sequenzen,NI_Sequenzen,,,,,,,,,,,,,,
,Sequence,flow.Sequence,0_0_0,,completion,1,1280.199999988079,1355.277,1471.83,53926.90000003576,52455.07000003576,53937,2021-10-24T09:05:06.290Z,54214.497,1635066246,full,ni_sequenzen,NI_Sequenzen,,,,,,,,,,,,,,
,Screen_1,canvas.Screen,0_0_1_0,,skipped,2,53941.80000001192,,,53941.80000001192,,53942.30000001192,2021-10-24T09:05:06.295Z,54214.497,1635066246,full,ni_sequenzen,NI_Sequenzen,,,,,,,,,,,,,,
,Screen_2,canvas.Screen,0_0_1_1,,skipped,2,53945.19999998808,,,53941.80000001192,,53945.40000003576,2021-10-24T09:05:06.299Z,54214.497,1635066246,full,ni_sequenzen,NI_Sequenzen,,,,,,,,,,,,,,
,Screen_3,canvas.Screen,0_0_1_2,,skipped,2,53949.30000001192,,,53941.80000001192,,53949.60000002384,2021-10-24T09:05:06.303Z,54214.497,1635066246,full,ni_sequenzen,NI_Sequenzen,,,,,,,,,,,,,,
,Screen_4,canvas.Screen,0_0_1_3,,skipped,2,53952.60000002384,,,53941.80000001192,,53953.10000002384,2021-10-24T09:05:06.306Z,54214.497,1635066246,full,ni_sequenzen,NI_Sequenzen,,,,,,,,,,,,,,
,Sequence,flow.Sequence,0_0_1,,completion,2,53938.69999998808,,,53941.80000001192,,53953.5,2021-10-24T09:05:06.307Z,54214.497,1635066246,full,ni_sequenzen,NI_Sequenzen,,,,,,,,,,,,,,
,Screen_1,canvas.Screen,0_0_2_0,,skipped,3,53956.60000002384,,,53956.60000002384,,53956.80000001192,2021-10-24T09:05:06.310Z,54214.497,1635066246,full,ni_sequenzen,NI_Sequenzen,,,,,,,,,,,,,,
,Screen_2,canvas.Screen,0_0_2_1,,skipped,3,53959.19999998808,,,53956.60000002384,,53959.40000003576,2021-10-24T09:05:06.312Z,54214.497,1635066246,full,ni_sequenzen,NI_Sequenzen,,,,,,,,,,,,,,
,Screen_3,canvas.Screen,0_0_2_2,,skipped,3,53962,,,53956.60000002384,,53962.19999998808,2021-10-24T09:05:06.315Z,54214.497,1635066246,full,ni_sequenzen,NI_Sequenzen,,,,,,,,,,,,,,
,Screen_4,canvas.Screen,0_0_2_3,,skipped,3,53964.5,,,53956.60000002384,,53964.80000001192,2021-10-24T09:05:06.318Z,54214.497,1635066246,full,ni_sequenzen,NI_Sequenzen,,,,,,,,,,,,,,
,Sequence,flow.Sequence,0_0_2,,completion,3,53954.5,,,53956.60000002384,,53965.40000003576,2021-10-24T09:05:06.318Z,54214.497,1635066246,full,ni_sequenzen,NI_Sequenzen,,,,,,,,,,,,,,
,Screen_1,canvas.Screen,0_0_3_0,,skipped,4,53968.60000002384,,,53968.60000002384,,53968.90000003576,2021-10-24T09:05:06.322Z,54214.497,1635066246,full,ni_sequenzen,NI_Sequenzen,,,,,,,,,,,,,,
,Screen_2,canvas.Screen,0_0_3_1,,skipped,4,53971.10000002384,,,53968.60000002384,,53973.19999998808,2021-10-24T09:05:06.326Z,54214.497,1635066246,full,ni_sequenzen,NI_Sequenzen,,,,,,,,,,,,,,
,Screen_3,canvas.Screen,0_0_3_2,,skipped,4,53976,,,53968.60000002384,,53976.10000002384,2021-10-24T09:05:06.329Z,54214.497,1635066246,full,ni_sequenzen,NI_Sequenzen,,,,,,,,,,,,,,
,Screen_4,canvas.Screen,0_0_3_3,,skipped,4,53978.30000001192,,,53968.60000002384,,53978.5,2021-10-24T09:05:06.332Z,54214.497,1635066246,full,ni_sequenzen,NI_Sequenzen,,,,,,,,,,,,,,
,Sequence,flow.Sequence,0_0_3,,completion,4,53966.5,,,53968.60000002384,,53978.90000003576,2021-10-24T09:05:06.332Z,54214.497,1635066246,full,ni_sequenzen,NI_Sequenzen,,,,,,,,,,,,,,
,Screen_1,canvas.Screen,0_0_4_0,,skipped,5,53982.10000002384,,,53982.10000002384,,53982.40000003576,2021-10-24T09:05:06.335Z,54214.497,1635066246,full,ni_sequenzen,NI_Sequenzen,,,,,,,,,,,,,,
,Screen_2,canvas.Screen,0_0_4_1,,skipped,5,53984.80000001192,,,53982.10000002384,,53985,2021-10-24T09:05:06.338Z,54214.497,1635066246,full,ni_sequenzen,NI_Sequenzen,,,,,,,,,,,,,,
,Screen_3,canvas.Screen,0_0_4_2,,skipped,5,53987.30000001192,,,53982.10000002384,,53987.40000003576,2021-10-24T09:05:06.341Z,54214.497,1635066246,full,ni_sequenzen,NI_Sequenzen,,,,,,,,,,,,,,
,Screen_4,canvas.Screen,0_0_4_3,,skipped,5,53990.10000002384,,,53982.10000002384,,53990.40000003576,2021-10-24T09:05:06.343Z,54214.497,1635066246,full,ni_sequenzen,NI_Sequenzen,,,,,,,,,,,,,,
,Sequence,flow.Sequence,0_0_4,,completion,5,53979.80000001192,,,53982.10000002384,,53990.69999998808,2021-10-24T09:05:06.344Z,54214.497,1635066246,full,ni_sequenzen,NI_Sequenzen,,,,,,,,,,,,,,
,Screen_1,canvas.Screen,0_0_5_0,,skipped,6,53994.10000002384,,,53994.10000002384,,53994.30000001192,2021-10-24T09:05:06.347Z,54214.497,1635066246,full,ni_sequenzen,NI_Sequenzen,,,,,,,,,,,,,,
,Screen_2,canvas.Screen,0_0_5_1,,skipped,6,53996.40000003576,,,53994.10000002384,,53996.60000002384,2021-10-24T09:05:06.350Z,54214.497,1635066246,full,ni_sequenzen,NI_Sequenzen,,,,,,,,,,,,,,
,Screen_3,canvas.Screen,0_0_5_2,,skipped,6,53999.60000002384,,,53994.10000002384,,53999.90000003576,2021-10-24T09:05:06.353Z,54214.497,1635066246,full,ni_sequenzen,NI_Sequenzen,,,,,,,,,,,,,,
,Screen_4,canvas.Screen,0_0_5_3,,skipped,6,54002.19999998808,,,53994.10000002384,,54002.40000003576,2021-10-24T09:05:06.355Z,54214.497,1635066246,full,ni_sequenzen,NI_Sequenzen,,,,,,,,,,,,,,
,Sequence,flow.Sequence,0_0_5,,completion,6,53991.60000002384,,,53994.10000002384,,54002.69999998808,2021-10-24T09:05:06.356Z,54214.497,1635066246,full,ni_sequenzen,NI_Sequenzen,,,,,,,,,,,,,,
,Screen_1,canvas.Screen,0_0_6_0,,skipped,7,54005.60000002384,,,54005.60000002384,,54005.80000001192,2021-10-24T09:05:06.359Z,54214.497,1635066246,full,ni_sequenzen,NI_Sequenzen,,,,,,,,,,,,,,
,Screen_2,canvas.Screen,0_0_6_1,,skipped,7,54007.90000003576,,,54005.60000002384,,54008.10000002384,2021-10-24T09:05:06.361Z,54214.497,1635066246,full,ni_sequenzen,NI_Sequenzen,,,,,,,,,,,,,,
,Screen_3,canvas.Screen,0_0_6_2,,skipped,7,54029.90000003576,,,54005.60000002384,,54030.30000001192,2021-10-24T09:05:06.383Z,54214.497,1635066246,full,ni_sequenzen,NI_Sequenzen,,,,,,,,,,,,,,
,Screen_4,canvas.Screen,0_0_6_3,,skipped,7,54034.90000003576,,,54005.60000002384,,54035.19999998808,2021-10-24T09:05:06.388Z,54214.497,1635066246,full,ni_sequenzen,NI_Sequenzen,,,,,,,,,,,,,,
,Sequence,flow.Sequence,0_0_6,,completion,7,54003.5,,,54005.60000002384,,54035.5,2021-10-24T09:05:06.389Z,54214.497,1635066246,full,ni_sequenzen,NI_Sequenzen,,,,,,,,,,,,,,
,Screen_1,canvas.Screen,0_0_7_0,,skipped,8,54039,,,54039,,54039.19999998808,2021-10-24T09:05:06.392Z,54214.497,1635066246,full,ni_sequenzen,NI_Sequenzen,,,,,,,,,,,,,,
,Screen_2,canvas.Screen,0_0_7_1,,skipped,8,54041.40000003576,,,54039,,54041.60000002384,2021-10-24T09:05:06.395Z,54214.497,1635066246,full,ni_sequenzen,NI_Sequenzen,,,,,,,,,,,,,,
,Screen_3,canvas.Screen,0_0_7_2,,skipped,8,54043.80000001192,,,54039,,54044,2021-10-24T09:05:06.397Z,54214.497,1635066246,full,ni_sequenzen,NI_Sequenzen,,,,,,,,,,,,,,
,Screen_4,canvas.Screen,0_0_7_3,,skipped,8,54047.5,,,54039,,54047.80000001192,2021-10-24T09:05:06.401Z,54214.497,1635066246,full,ni_sequenzen,NI_Sequenzen,,,,,,,,,,,,,,
,Sequence,flow.Sequence,0_0_7,,completion,8,54036.5,,,54039,,54048.40000003576,2021-10-24T09:05:06.401Z,54214.497,1635066246,full,ni_sequenzen,NI_Sequenzen,,,,,,,,,,,,,,
,Screen_1,canvas.Screen,0_0_8_0,,skipped,9,54052.5,,,54052.5,,54052.69999998808,2021-10-24T09:05:06.406Z,54214.497,1635066246,full,ni_sequenzen,NI_Sequenzen,,,,,,,,,,,,,,
,Screen_2,canvas.Screen,0_0_8_1,,skipped,9,54055,,,54052.5,,54055.19999998808,2021-10-24T09:05:06.408Z,54214.497,1635066246,full,ni_sequenzen,NI_Sequenzen,,,,,,,,,,,,,,
,Screen_3,canvas.Screen,0_0_8_2,,skipped,9,54057.40000003576,,,54052.5,,54057.60000002384,2021-10-24T09:05:06.411Z,54214.497,1635066246,full,ni_sequenzen,NI_Sequenzen,,,,,,,,,,,,,,
,Screen_4,canvas.Screen,0_0_8_3,,skipped,9,54059.80000001192,,,54052.5,,54060,2021-10-24T09:05:06.413Z,54214.497,1635066246,full,ni_sequenzen,NI_Sequenzen,,,,,,,,,,,,,,
,Sequence,flow.Sequence,0_0_8,,completion,9,54050.10000002384,,,54052.5,,54060.30000001192,2021-10-24T09:05:06.413Z,54214.497,1635066246,full,ni_sequenzen,NI_Sequenzen,,,,,,,,,,,,,,
,Screen_1,canvas.Screen,0_0_9_0,,skipped,10,54063.69999998808,,,54063.69999998808,,54063.90000003576,2021-10-24T09:05:06.417Z,54214.497,1635066246,full,ni_sequenzen,NI_Sequenzen,,,,,,,,,,,,,,
,Screen_2,canvas.Screen,0_0_9_1,,skipped,10,54067.30000001192,,,54063.69999998808,,54067.60000002384,2021-10-24T09:05:06.421Z,54214.497,1635066246,full,ni_sequenzen,NI_Sequenzen,,,,,,,,,,,,,,
,Screen_3,canvas.Screen,0_0_9_2,,skipped,10,54071.10000002384,,,54063.69999998808,,54071.30000001192,2021-10-24T09:05:06.424Z,54214.497,1635066246,full,ni_sequenzen,NI_Sequenzen,,,,,,,,,,,,,,
,Screen_4,canvas.Screen,0_0_9_3,,skipped,10,54073.69999998808,,,54063.69999998808,,54073.90000003576,2021-10-24T09:05:06.427Z,54214.497,1635066246,full,ni_sequenzen,NI_Sequenzen,,,,,,,,,,,,,,
,Sequence,flow.Sequence,0_0_9,,completion,10,54061.19999998808,,,54063.69999998808,,54074.19999998808,2021-10-24T09:05:06.427Z,54214.497,1635066246,full,ni_sequenzen,NI_Sequenzen,,,,,,,,,,,,,,
,Screen_1,canvas.Screen,0_0_10_0,,skipped,11,54079.60000002384,,,54079.60000002384,,54080,2021-10-24T09:05:06.433Z,54214.497,1635066246,full,ni_sequenzen,NI_Sequenzen,,,,,,,,,,,,,,
,Screen_2,canvas.Screen,0_0_10_1,,skipped,11,54082.5,,,54079.60000002384,,54082.80000001192,2021-10-24T09:05:06.436Z,54214.497,1635066246,full,ni_sequenzen,NI_Sequenzen,,,,,,,,,,,,,,
,Screen_3,canvas.Screen,0_0_10_2,,skipped,11,54085.19999998808,,,54079.60000002384,,54085.40000003576,2021-10-24T09:05:06.438Z,54214.497,1635066246,full,ni_sequenzen,NI_Sequenzen,,,,,,,,,,,,,,
,Screen_4,canvas.Screen,0_0_10_3,,skipped,11,54087.60000002384,,,54079.60000002384,,54087.69999998808,2021-10-24T09:05:06.441Z,54214.497,1635066246,full,ni_sequenzen,NI_Sequenzen,,,,,,,,,,,,,,
,Sequence,flow.Sequence,0_0_10,,completion,11,54075.19999998808,,,54079.60000002384,,54088,2021-10-24T09:05:06.441Z,54214.497,1635066246,full,ni_sequenzen,NI_Sequenzen,,,,,,,,,,,,,,
,Screen_1,canvas.Screen,0_0_11_0,,skipped,12,54096.19999998808,,,54096.30000001192,,54096.5,2021-10-24T09:05:06.450Z,54214.497,1635066246,full,ni_sequenzen,NI_Sequenzen,,,,,,,,,,,,,,
,Screen_2,canvas.Screen,0_0_11_1,,skipped,12,54100.80000001192,,,54096.30000001192,,54101.10000002384,2021-10-24T09:05:06.454Z,54214.497,1635066246,full,ni_sequenzen,NI_Sequenzen,,,,,,,,,,,,,,
,Screen_3,canvas.Screen,0_0_11_2,,skipped,12,54104.80000001192,,,54096.30000001192,,54105,2021-10-24T09:05:06.458Z,54214.497,1635066246,full,ni_sequenzen,NI_Sequenzen,,,,,,,,,,,,,,
,Screen_4,canvas.Screen,0_0_11_3,,skipped,12,54108.5,,,54096.30000001192,,54108.90000003576,2021-10-24T09:05:06.462Z,54214.497,1635066246,full,ni_sequenzen,NI_Sequenzen,,,,,,,,,,,,,,
,Sequence,flow.Sequence,0_0_11,,completion,12,54090.30000001192,,,54096.30000001192,,54109.5,2021-10-24T09:05:06.463Z,54214.497,1635066246,full,ni_sequenzen,NI_Sequenzen,,,,,,,,,,,,,,
,Screen_1,canvas.Screen,0_0_12_0,,skipped,13,54114.10000002384,,,54114.10000002384,,54114.40000003576,2021-10-24T09:05:06.468Z,54214.497,1635066246,full,ni_sequenzen,NI_Sequenzen,,,,,,,,,,,,,,
,Screen_2,canvas.Screen,0_0_12_1,,skipped,13,54118.80000001192,,,54114.10000002384,,54119.10000002384,2021-10-24T09:05:06.472Z,54214.497,1635066246,full,ni_sequenzen,NI_Sequenzen,,,,,,,,,,,,,,
,Screen_3,canvas.Screen,0_0_12_2,,skipped,13,54121.60000002384,,,54114.10000002384,,54121.80000001192,2021-10-24T09:05:06.475Z,54214.497,1635066246,full,ni_sequenzen,NI_Sequenzen,,,,,,,,,,,,,,
,Screen_4,canvas.Screen,0_0_12_3,,skipped,13,54123.90000003576,,,54114.10000002384,,54124.10000002384,2021-10-24T09:05:06.477Z,54214.497,1635066246,full,ni_sequenzen,NI_Sequenzen,,,,,,,,,,,,,,
,Sequence,flow.Sequence,0_0_12,,completion,13,54111,,,54114.10000002384,,54124.40000003576,2021-10-24T09:05:06.477Z,54214.497,1635066246,full,ni_sequenzen,NI_Sequenzen,,,,,,,,,,,,,,
,Screen_1,canvas.Screen,0_0_13_0,,skipped,14,54127.69999998808,,,54127.69999998808,,54127.90000003576,2021-10-24T09:05:06.481Z,54214.497,1635066246,full,ni_sequenzen,NI_Sequenzen,,,,,,,,,,,,,,
,Screen_2,canvas.Screen,0_0_13_1,,skipped,14,54130,,,54127.69999998808,,54130.19999998808,2021-10-24T09:05:06.483Z,54214.497,1635066246,full,ni_sequenzen,NI_Sequenzen,,,,,,,,,,,,,,
,Screen_3,canvas.Screen,0_0_13_2,,skipped,14,54135.60000002384,,,54127.69999998808,,54135.80000001192,2021-10-24T09:05:06.489Z,54214.497,1635066246,full,ni_sequenzen,NI_Sequenzen,,,,,,,,,,,,,,
,Screen_4,canvas.Screen,0_0_13_3,,skipped,14,54138,,,54127.69999998808,,54138.19999998808,2021-10-24T09:05:06.491Z,54214.497,1635066246,full,ni_sequenzen,NI_Sequenzen,,,,,,,,,,,,,,
,Sequence,flow.Sequence,0_0_13,,completion,14,54125.30000001192,,,54127.69999998808,,54138.5,2021-10-24T09:05:06.491Z,54214.497,1635066246,full,ni_sequenzen,NI_Sequenzen,,,,,,,,,,,,,,
,Screen_1,canvas.Screen,0_0_14_0,,skipped,15,54141.30000001192,,,54141.30000001192,,54141.60000002384,2021-10-24T09:05:06.495Z,54214.497,1635066246,full,ni_sequenzen,NI_Sequenzen,,,,,,,,,,,,,,
,Screen_2,canvas.Screen,0_0_14_1,,skipped,15,54143.5,,,54141.30000001192,,54143.69999998808,2021-10-24T09:05:06.497Z,54214.497,1635066246,full,ni_sequenzen,NI_Sequenzen,,,,,,,,,,,,,,
,Screen_3,canvas.Screen,0_0_14_2,,skipped,15,54145.80000001192,,,54141.30000001192,,54146,2021-10-24T09:05:06.499Z,54214.497,1635066246,full,ni_sequenzen,NI_Sequenzen,,,,,,,,,,,,,,
,Screen_4,canvas.Screen,0_0_14_3,,skipped,15,54148.80000001192,,,54141.30000001192,,54149.40000003576,2021-10-24T09:05:06.502Z,54214.497,1635066246,full,ni_sequenzen,NI_Sequenzen,,,,,,,,,,,,,,
,Sequence,flow.Sequence,0_0_14,,completion,15,54139.30000001192,,,54141.30000001192,,54149.90000003576,2021-10-24T09:05:06.503Z,54214.497,1635066246,full,ni_sequenzen,NI_Sequenzen,,,,,,,,,,,,,,
,Screen_1,canvas.Screen,0_0_15_0,,skipped,16,54155.19999998808,,,54155.19999998808,,54155.5,2021-10-24T09:05:06.509Z,54214.497,1635066246,full,ni_sequenzen,NI_Sequenzen,,,,,,,,,,,,,,
,Screen_2,canvas.Screen,0_0_15_1,,skipped,16,54160.5,,,54155.19999998808,,54160.60000002384,2021-10-24T09:05:06.514Z,54214.497,1635066246,full,ni_sequenzen,NI_Sequenzen,,,,,,,,,,,,,,
,Screen_3,canvas.Screen,0_0_15_2,,skipped,16,54164,,,54155.19999998808,,54164.30000001192,2021-10-24T09:05:06.517Z,54214.497,1635066246,full,ni_sequenzen,NI_Sequenzen,,,,,,,,,,,,,,
,Screen_4,canvas.Screen,0_0_15_3,,skipped,16,54167.90000003576,,,54155.19999998808,,54168,2021-10-24T09:05:06.521Z,54214.497,1635066246,full,ni_sequenzen,NI_Sequenzen,,,,,,,,,,,,,,
,Sequence,flow.Sequence,0_0_15,,completion,16,54151.90000003576,,,54155.19999998808,,54168.30000001192,2021-10-24T09:05:06.521Z,54214.497,1635066246,full,ni_sequenzen,NI_Sequenzen,,,,,,,,,,,,,,
,Screen_1,canvas.Screen,0_0_16_0,,skipped,17,54170.69999998808,,,54170.80000001192,,54171,2021-10-24T09:05:06.524Z,54214.497,1635066246,full,ni_sequenzen,NI_Sequenzen,,,,,,,,,,,,,,
,Screen_2,canvas.Screen,0_0_16_1,,skipped,17,54172.80000001192,,,54170.80000001192,,54173,2021-10-24T09:05:06.526Z,54214.497,1635066246,full,ni_sequenzen,NI_Sequenzen,,,,,,,,,,,,,,
,Screen_3,canvas.Screen,0_0_16_2,,skipped,17,54174.90000003576,,,54170.80000001192,,54175.10000002384,2021-10-24T09:05:06.528Z,54214.497,1635066246,full,ni_sequenzen,NI_Sequenzen,,,,,,,,,,,,,,
,Screen_4,canvas.Screen,0_0_16_3,,skipped,17,54178.80000001192,,,54170.80000001192,,54179,2021-10-24T09:05:06.532Z,54214.497,1635066246,full,ni_sequenzen,NI_Sequenzen,,,,,,,,,,,,,,
,Sequence,flow.Sequence,0_0_16,,completion,17,54169.10000002384,,,54170.80000001192,,54179.30000001192,2021-10-24T09:05:06.532Z,54214.497,1635066246,full,ni_sequenzen,NI_Sequenzen,,,,,,,,,,,,,,
,Screen_1,canvas.Screen,0_0_17_0,,skipped,18,54182.60000002384,,,54182.60000002384,,54182.80000001192,2021-10-24T09:05:06.536Z,54214.497,1635066246,full,ni_sequenzen,NI_Sequenzen,,,,,,,,,,,,,,
,Screen_2,canvas.Screen,0_0_17_1,,skipped,18,54184.80000001192,,,54182.60000002384,,54185.10000002384,2021-10-24T09:05:06.538Z,54214.497,1635066246,full,ni_sequenzen,NI_Sequenzen,,,,,,,,,,,,,,
,Screen_3,canvas.Screen,0_0_17_2,,skipped,18,54186.5,,,54182.60000002384,,54186.60000002384,2021-10-24T09:05:06.540Z,54214.497,1635066246,full,ni_sequenzen,NI_Sequenzen,,,,,,,,,,,,,,
,Screen_4,canvas.Screen,0_0_17_3,,skipped,18,54187.40000003576,,,54182.60000002384,,54187.40000003576,2021-10-24T09:05:06.540Z,54214.497,1635066246,full,ni_sequenzen,NI_Sequenzen,,,,,,,,,,,,,,
,Sequence,flow.Sequence,0_0_17,,completion,18,54180.19999998808,,,54182.60000002384,,54187.5,2021-10-24T09:05:06.541Z,54214.497,1635066246,full,ni_sequenzen,NI_Sequenzen,,,,,,,,,,,,,,
,Screen_1,canvas.Screen,0_0_18_0,,skipped,19,54188.5,,,54188.5,,54188.5,2021-10-24T09:05:06.542Z,54214.497,1635066246,full,ni_sequenzen,NI_Sequenzen,,,,,,,,,,,,,,
,Screen_2,canvas.Screen,0_0_18_1,,skipped,19,54189.19999998808,,,54188.5,,54189.30000001192,2021-10-24T09:05:06.542Z,54214.497,1635066246,full,ni_sequenzen,NI_Sequenzen,,,,,,,,,,,,,,
,Screen_3,canvas.Screen,0_0_18_2,,skipped,19,54190,,,54188.5,,54190.10000002384,2021-10-24T09:05:06.543Z,54214.497,1635066246,full,ni_sequenzen,NI_Sequenzen,,,,,,,,,,,,,,
,Screen_4,canvas.Screen,0_0_18_3,,skipped,19,54190.80000001192,,,54188.5,,54190.90000003576,2021-10-24T09:05:06.544Z,54214.497,1635066246,full,ni_sequenzen,NI_Sequenzen,,,,,,,,,,,,,,
,Sequence,flow.Sequence,0_0_18,,completion,19,54187.90000003576,,,54188.5,,54191,2021-10-24T09:05:06.544Z,54214.497,1635066246,full,ni_sequenzen,NI_Sequenzen,,,,,,,,,,,,,,
,Screen_1,canvas.Screen,0_0_19_0,,skipped,20,54191.90000003576,,,54191.90000003576,,54192,2021-10-24T09:05:06.545Z,54214.497,1635066246,full,ni_sequenzen,NI_Sequenzen,,,,,,,,,,,,,,
,Screen_2,canvas.Screen,0_0_19_1,,skipped,20,54192.60000002384,,,54191.90000003576,,54192.69999998808,2021-10-24T09:05:06.546Z,54214.497,1635066246,full,ni_sequenzen,NI_Sequenzen,,,,,,,,,,,,,,
,Screen_3,canvas.Screen,0_0_19_2,,skipped,20,54193.40000003576,,,54191.90000003576,,54193.5,2021-10-24T09:05:06.546Z,54214.497,1635066246,full,ni_sequenzen,NI_Sequenzen,,,,,,,,,,,,,,
,Screen_4,canvas.Screen,0_0_19_3,,skipped,20,54194.19999998808,,,54191.90000003576,,54194.19999998808,2021-10-24T09:05:06.547Z,54214.497,1635066246,full,ni_sequenzen,NI_Sequenzen,,,,,,,,,,,,,,
,Sequence,flow.Sequence,0_0_19,,completion,20,54191.30000001192,,,54191.90000003576,,54194.40000003576,2021-10-24T09:05:06.547Z,54214.497,1635066246,full,ni_sequenzen,NI_Sequenzen,,,,,,,,,,,,,,
,Instructions_I,flow.Loop,0_0,,completion,,1277.699999988079,1355.277,1471.83,54191.90000003576,52720.07000003576,54194.5,2021-10-24T09:05:06.548Z,54214.497,1635066246,full,ni_sequenzen,NI_Sequenzen,,,,,,,,,,,,,,
,Move,canvas.Screen,0_1_0_0,left,response,,54207.80000001192,54198.307,54214.497,55817.80000001192,1603.303000011918,55818.80000001192,2021-10-24T09:05:08.172Z,55830.573,1635066246,full,ni_sequenzen,NI_Sequenzen,1,,,,,,,,,,,,,
,Move,canvas.Screen,0_1_0_1,right,response,,55824.30000001192,55813.951,55830.573,56219.40000003576,388.8270000357661,56220.80000001192,2021-10-24T09:05:08.574Z,56246.962,1635066246,full,ni_sequenzen,NI_Sequenzen,2,,,,,,,,,,,,,
,Move,canvas.Screen,0_1_0_2,down,response,,56226.80000001192,56213.778,56246.962,57107.30000001192,860.3380000119214,57108.60000002384,2021-10-24T09:05:09.462Z,57129.884,1635066246,full,ni_sequenzen,NI_Sequenzen,3,,,,,,,,,,,,,
,Move,canvas.Screen,0_1_0_3,right,response,,57115.40000003576,57113.336,57129.884,58236.5,1106.6160000000018,58237.60000002384,2021-10-24T09:05:10.591Z,58246.061,1635066246,full,ni_sequenzen,NI_Sequenzen,4,,,,,,,,,,,,,
,Move,canvas.Screen,0_1_0_4,left,response,,58241.30000001192,58229.502,58246.061,58551,304.9389999999985,58552,2021-10-24T09:05:10.905Z,58579.228,1635066246,full,ni_sequenzen,NI_Sequenzen,5,,,,,,,,,,,,,
,Move,canvas.Screen,0_1_0_5,down,response,,58555.5,58546.043,58579.228,61294.19999998808,2714.9719999880763,61296.10000002384,2021-10-24T09:05:13.649Z,61311.433,1635066246,full,ni_sequenzen,NI_Sequenzen,6,,,,,,,,,,,,,
,Move,canvas.Screen,0_1_0_6,down,response,,61300.30000001192,61294.931,61311.433,61510.30000001192,198.86700001192366,61511.5,2021-10-24T09:05:13.865Z,61527.929,1635066246,full,ni_sequenzen,NI_Sequenzen,7,,,,,,,,,,,,,
,Move,canvas.Screen,0_1_0_7,down,response,,61515.60000002384,61511.3,61527.929,61714.80000001192,186.87100001192448,61716.19999998808,2021-10-24T09:05:14.069Z,61727.805,1635066246,full,ni_sequenzen,NI_Sequenzen,8,,,,,,,,,,,,,
,Move,canvas.Screen,0_1_0_8,left,response,,61719.80000001192,61711.274,61727.805,62524.90000003576,797.0950000357625,62526.19999998808,2021-10-24T09:05:14.879Z,62544.083,1635066246,full,ni_sequenzen,NI_Sequenzen,9,,,,,,,,,,,,,
,Move,canvas.Screen,0_1_0_9,right,response,,62531,62527.571,62544.083,62899.30000001192,355.2170000119222,62900.40000003576,2021-10-24T09:05:15.253Z,62910.607,1635066246,full,ni_sequenzen,NI_Sequenzen,10,,,,,,,,,,,,,
,Move,canvas.Screen,0_1_0_10,down,response,,62904,62894.014,62910.607,64473.19999998808,1562.5929999880755,64474.5,2021-10-24T09:05:16.828Z,64493.258,1635066246,full,ni_sequenzen,NI_Sequenzen,11,,,,,,,,,,,,,
,Move,canvas.Screen,0_1_0_11,down,response,,64480.60000002384,64476.711,64493.258,64723.60000002384,230.34200002384023,64724.40000003576,2021-10-24T09:05:17.077Z,64743.151,1635066246,full,ni_sequenzen,NI_Sequenzen,12,,,,,,,,,,,,,
,Move,canvas.Screen,0_1_0_12,left,response,,64727.40000003576,64726.515,64743.151,65040.30000001192,297.1490000119229,65041.60000002384,2021-10-24T09:05:17.395Z,65059.642,1635066246,full,ni_sequenzen,NI_Sequenzen,13,,,,,,,,,,,,,
,Move,canvas.Screen,0_1_0_13,right,response,,65047.5,65043.025,65059.642,65626.5,566.8580000000002,65627.80000001192,2021-10-24T09:05:17.981Z,65642.693,1635066246,full,ni_sequenzen,NI_Sequenzen,14,,,,,,,,,,,,,
,Move,canvas.Screen,0_1_0_14,down,response,,65631.60000002384,65626.174,65642.693,65908,265.3070000000007,65909.10000002384,2021-10-24T09:05:18.262Z,65925.88,1635066246,full,ni_sequenzen,NI_Sequenzen,15,,,,,,,,,,,,,
,Move,canvas.Screen,0_1_0_15,down,response,,65915.69999998808,65909.33,65925.88,66163.80000001192,237.92000001191627,66164.90000003576,2021-10-24T09:05:18.518Z,66175.82,1635066246,full,ni_sequenzen,NI_Sequenzen,16,,,,,,,,,,,,,
,Move,canvas.Screen,0_1_0_16,left,response,,66169,66159.216,66175.82,66980.19999998808,804.3799999880721,66981.10000002384,2021-10-24T09:05:19.334Z,66992.089,1635066246,full,ni_sequenzen,NI_Sequenzen,17,,,,,,,,,,,,,
,Move,canvas.Screen,0_1_0_17,down,response,,66984.69999998808,66975.573,66992.089,67210.90000003576,218.81100003575557,67212,2021-10-24T09:05:19.565Z,67225.321,1635066246,full,ni_sequenzen,NI_Sequenzen,18,,,,,,,,,,,,,
,Move,canvas.Screen,0_1_0_18,left,response,,67216.19999998808,67208.754,67225.321,68053.30000001192,827.9790000119247,68054.69999998808,2021-10-24T09:05:20.408Z,68074.913,1635066246,full,ni_sequenzen,NI_Sequenzen,19,,,,,,,,,,,,,
,Move,canvas.Screen,0_1_0_19,down,response,,68059.80000001192,68058.399,68074.913,68351.5,276.58699999999953,68352.5,2021-10-24T09:05:20.706Z,68389.099,1635066246,full,ni_sequenzen,NI_Sequenzen,20,,,,,,,,,,,,,
,Move,canvas.Screen,0_1_0_20,right,response,,68356.69999998808,68341.502,68389.099,69021.80000001192,632.701000011919,69022.90000003576,2021-10-24T09:05:21.376Z,69041.188,1635066246,full,ni_sequenzen,NI_Sequenzen,21,,,,,,,,,,,,,
,Move,canvas.Screen,0_1_0_21,down,response,,69028.10000002384,69024.647,69041.188,69267.69999998808,226.51199998808443,69268.69999998808,2021-10-24T09:05:21.622Z,69291.059,1635066246,full,ni_sequenzen,NI_Sequenzen,22,,,,,,,,,,,,,
,Move,canvas.Screen,0_1_0_22,left,response,,69272.40000003576,69257.854,69291.059,70184.90000003576,893.841000035769,70185.80000001192,2021-10-24T09:05:22.539Z,70217.282,1635066246,full,ni_sequenzen,NI_Sequenzen,23,,,,,,,,,,,,,
,Move,canvas.Screen,0_1_0_23,down,response,,70189.90000003576,70174.128,70217.282,70531.30000001192,314.0180000119144,70532.5,2021-10-24T09:05:22.886Z,70540.484,1635066246,full,ni_sequenzen,NI_Sequenzen,24,,,,,,,,,,,,,
,Move,canvas.Screen,0_1_0_24,left,response,,70536,70523.964,70540.484,70933.19999998808,392.71599998808233,70934.10000002384,2021-10-24T09:05:23.287Z,70956.937,1635066246,full,ni_sequenzen,NI_Sequenzen,25,,,,,,,,,,,,,
,Move,canvas.Screen,0_1_0_25,down,response,,70937.90000003576,70923.706,70956.937,71289.30000001192,332.3630000119156,71290.90000003576,2021-10-24T09:05:23.644Z,71307.13,1635066246,full,ni_sequenzen,NI_Sequenzen,26,,,,,,,,,,,,,
,Move,canvas.Screen,0_1_0_26,right,response,,71295.5,71290.213,71307.13,71641.80000001192,334.6700000119163,71642.69999998808,2021-10-24T09:05:23.996Z,71656.657,1635066246,full,ni_sequenzen,NI_Sequenzen,27,,,,,,,,,,,,,
,Move,canvas.Screen,0_1_0_27,down,response,,71647.10000002384,71640.11,71656.657,71953.80000001192,297.1430000119144,71954.80000001192,2021-10-24T09:05:24.308Z,71973.156,1635066246,full,ni_sequenzen,NI_Sequenzen,28,,,,,,,,,,,,,
,Move,canvas.Screen,0_1_0_28,right,response,,71960.30000001192,71956.624,71973.156,72198.90000003576,225.7440000357601,72199.90000003576,2021-10-24T09:05:24.553Z,72206.382,1635066246,full,ni_sequenzen,NI_Sequenzen,29,,,,,,,,,,,,,
,Move,canvas.Screen,0_1_0_29,down,response,,72204.40000003576,72189.781,72206.382,72433.10000002384,226.71800002384407,72434.19999998808,2021-10-24T09:05:24.787Z,72539.548,1635066246,full,ni_sequenzen,NI_Sequenzen,30,,,,,,,,,,,,,
,Loop,flow.Loop,0_1_0,-999,completion,,54205,54198.307,54214.497,72433.10000002384,18218.60300002384,72434.69999998808,2021-10-24T09:05:24.788Z,72539.548,1635066246,full,ni_sequenzen,NI_Sequenzen,,,,,,,,,,,,,,
,Training_I,flow.Sequence,0_1,,completion,,54194.90000003576,54198.307,54214.497,72433.10000002384,18218.60300002384,72434.90000003576,2021-10-24T09:05:24.788Z,72539.548,1635066246,full,ni_sequenzen,NI_Sequenzen,,,,,,,,,,,,,,
,Screen_1,canvas.Screen,0_2_0_0,cont,response,1,72534.5,72523.045,72539.548,72591.30000001192,51.7520000119257,72592.19999998808,2021-10-24T09:05:24.945Z,72806.154,1635066246,full,ni_sequenzen,NI_Sequenzen,,,,,,,,,,,,,,
,Screen_2,canvas.Screen,0_2_0_1,back,response,1,72779.30000001192,72772.795,72806.154,74046.40000003576,1240.2460000357678,74047.60000002384,2021-10-24T09:05:26.401Z,74255.529,1635066246,full,ni_sequenzen,NI_Sequenzen,,,,,,,,,,,,,,
,Screen_3,canvas.Screen,0_2_0_2,,skipped,1,74051.30000001192,,,74046.40000003576,,74051.60000002384,2021-10-24T09:05:26.405Z,74255.529,1635066246,full,ni_sequenzen,NI_Sequenzen,,,,,,,,,,,,,,
,Screen_4,canvas.Screen,0_2_0_3,,skipped,1,74161.10000002384,,,74046.40000003576,,74161.40000003576,2021-10-24T09:05:26.514Z,74255.529,1635066246,full,ni_sequenzen,NI_Sequenzen,,,,,,,,,,,,,,
,Screen_5,canvas.Screen,0_2_0_4,,skipped,1,74164.19999998808,,,74046.40000003576,,74164.5,2021-10-24T09:05:26.518Z,74255.529,1635066246,full,ni_sequenzen,NI_Sequenzen,,,,,,,,,,,,,,
,Screen_6,canvas.Screen,0_2_0_5,,skipped,1,74236.90000003576,,,74046.40000003576,,74237.30000001192,2021-10-24T09:05:26.590Z,74255.529,1635066246,full,ni_sequenzen,NI_Sequenzen,,,,,,,,,,,,,,
,Sequence,flow.Sequence,0_2_0,,completion,1,72532.60000002384,72523.045,72539.548,74046.40000003576,1506.8520000357676,74238.19999998808,2021-10-24T09:05:26.591Z,74255.529,1635066246,full,ni_sequenzen,NI_Sequenzen,,,,,,,,,,,,,,
,Screen_1,canvas.Screen,0_2_1_0,cont,response,2,74244.5,74238.917,74255.529,86287.30000001192,12031.771000011926,86288.5,2021-10-24T09:05:38.642Z,86300.024,1635066246,full,ni_sequenzen,NI_Sequenzen,,,,,,,,,,,,,,
,Screen_2,canvas.Screen,0_2_1_1,cont,response,2,86292,86284.066,86300.024,92963.5,6663.475999999995,92965.10000002384,2021-10-24T09:05:45.318Z,92997.006,1635066246,full,ni_sequenzen,NI_Sequenzen,,,,,,,,,,,,,,
,Screen_3,canvas.Screen,0_2_1_2,cont,response,2,92968.30000001192,92964.056,92997.006,97715.30000001192,4718.294000011927,97716.69999998808,2021-10-24T09:05:50.070Z,97728.16,1635066246,full,ni_sequenzen,NI_Sequenzen,,,,,,,,,,,,,,
,Screen_4,canvas.Screen,0_2_1_3,cont,response,2,97720.10000002384,97711.841,97728.16,108582.69999998808,10854.539999988076,108583.80000001192,2021-10-24T09:06:00.937Z,108589.871,1635066246,full,ni_sequenzen,NI_Sequenzen,,,,,,,,,,,,,,
,Screen_5,canvas.Screen,0_2_1_4,cont,response,2,108586.80000001192,108573.931,108589.871,116677.40000003576,8087.529000035764,116678.69999998808,2021-10-24T09:06:09.032Z,116702.876,1635066246,full,ni_sequenzen,NI_Sequenzen,,,,,,,,,,,,,,
,Screen_6,canvas.Screen,0_2_1_5,cont,response,2,116681.90000003576,116670.113,116702.876,126855.90000003576,10153.024000035759,126857.10000002384,2021-10-24T09:06:19.210Z,127148.071,1635066246,full,ni_sequenzen,NI_Sequenzen,,,,,,,,,,,,,,
,Sequence,flow.Sequence,0_2_1,,completion,2,74240.60000002384,74238.917,74255.529,126855.90000003576,52600.37100003577,126857.80000001192,2021-10-24T09:06:19.211Z,127148.071,1635066246,full,ni_sequenzen,NI_Sequenzen,,,,,,,,,,,,,,
,Screen_1,canvas.Screen,0_2_2_0,,skipped,3,126865,,,126865.10000002384,,126865.30000001192,2021-10-24T09:06:19.218Z,127148.071,1635066246,full,ni_sequenzen,NI_Sequenzen,,,,,,,,,,,,,,
,Screen_2,canvas.Screen,0_2_2_1,,skipped,3,126867.69999998808,,,126865.10000002384,,126867.90000003576,2021-10-24T09:06:19.221Z,127148.071,1635066246,full,ni_sequenzen,NI_Sequenzen,,,,,,,,,,,,,,
,Screen_3,canvas.Screen,0_2_2_2,,skipped,3,126870.19999998808,,,126865.10000002384,,126870.5,2021-10-24T09:06:19.223Z,127148.071,1635066246,full,ni_sequenzen,NI_Sequenzen,,,,,,,,,,,,,,
,Screen_4,canvas.Screen,0_2_2_3,,skipped,3,126872.5,,,126865.10000002384,,126872.69999998808,2021-10-24T09:06:19.226Z,127148.071,1635066246,full,ni_sequenzen,NI_Sequenzen,,,,,,,,,,,,,,
,Screen_5,canvas.Screen,0_2_2_4,,skipped,3,126874.5,,,126865.10000002384,,126874.80000001192,2021-10-24T09:06:19.228Z,127148.071,1635066246,full,ni_sequenzen,NI_Sequenzen,,,,,,,,,,,,,,
,Screen_6,canvas.Screen,0_2_2_5,,skipped,3,126877.10000002384,,,126865.10000002384,,126877.19999998808,2021-10-24T09:06:19.230Z,127148.071,1635066246,full,ni_sequenzen,NI_Sequenzen,,,,,,,,,,,,,,
,Sequence,flow.Sequence,0_2_2,,completion,3,126862.10000002384,,,126865.10000002384,,126877.5,2021-10-24T09:06:19.230Z,127148.071,1635066246,full,ni_sequenzen,NI_Sequenzen,,,,,,,,,,,,,,
,Screen_1,canvas.Screen,0_2_3_0,,skipped,4,126880.69999998808,,,126880.69999998808,,126880.90000003576,2021-10-24T09:06:19.234Z,127148.071,1635066246,full,ni_sequenzen,NI_Sequenzen,,,,,,,,,,,,,,
,Screen_2,canvas.Screen,0_2_3_1,,skipped,4,126883.10000002384,,,126880.69999998808,,126883.40000003576,2021-10-24T09:06:19.236Z,127148.071,1635066246,full,ni_sequenzen,NI_Sequenzen,,,,,,,,,,,,,,
,Screen_3,canvas.Screen,0_2_3_2,,skipped,4,126885.5,,,126880.69999998808,,126885.69999998808,2021-10-24T09:06:19.239Z,127148.071,1635066246,full,ni_sequenzen,NI_Sequenzen,,,,,,,,,,,,,,
,Screen_4,canvas.Screen,0_2_3_3,,skipped,4,126887.69999998808,,,126880.69999998808,,126887.90000003576,2021-10-24T09:06:19.241Z,127148.071,1635066246,full,ni_sequenzen,NI_Sequenzen,,,,,,,,,,,,,,
,Screen_5,canvas.Screen,0_2_3_4,,skipped,4,126890.30000001192,,,126880.69999998808,,126890.5,2021-10-24T09:06:19.243Z,127148.071,1635066246,full,ni_sequenzen,NI_Sequenzen,,,,,,,,,,,,,,
,Screen_6,canvas.Screen,0_2_3_5,,skipped,4,126892.5,,,126880.69999998808,,126892.69999998808,2021-10-24T09:06:19.246Z,127148.071,1635066246,full,ni_sequenzen,NI_Sequenzen,,,,,,,,,,,,,,
,Sequence,flow.Sequence,0_2_3,,completion,4,126878.69999998808,,,126880.69999998808,,126893,2021-10-24T09:06:19.246Z,127148.071,1635066246,full,ni_sequenzen,NI_Sequenzen,,,,,,,,,,,,,,
,Screen_1,canvas.Screen,0_2_4_0,,skipped,5,126895.5,,,126897.10000002384,,126897.5,2021-10-24T09:06:19.250Z,127148.071,1635066246,full,ni_sequenzen,NI_Sequenzen,,,,,,,,,,,,,,
,Screen_2,canvas.Screen,0_2_4_1,,skipped,5,126900.40000003576,,,126897.10000002384,,126900.60000002384,2021-10-24T09:06:19.254Z,127148.071,1635066246,full,ni_sequenzen,NI_Sequenzen,,,,,,,,,,,,,,
,Screen_3,canvas.Screen,0_2_4_2,,skipped,5,126902.60000002384,,,126897.10000002384,,126902.90000003576,2021-10-24T09:06:19.256Z,127148.071,1635066246,full,ni_sequenzen,NI_Sequenzen,,,,,,,,,,,,,,
,Screen_4,canvas.Screen,0_2_4_3,,skipped,5,126904.80000001192,,,126897.10000002384,,126905,2021-10-24T09:06:19.258Z,127148.071,1635066246,full,ni_sequenzen,NI_Sequenzen,,,,,,,,,,,,,,
,Screen_5,canvas.Screen,0_2_4_4,,skipped,5,126907,,,126897.10000002384,,126907.19999998808,2021-10-24T09:06:19.260Z,127148.071,1635066246,full,ni_sequenzen,NI_Sequenzen,,,,,,,,,,,,,,
,Screen_6,canvas.Screen,0_2_4_5,,skipped,5,126909.30000001192,,,126897.10000002384,,126909.5,2021-10-24T09:06:19.262Z,127148.071,1635066246,full,ni_sequenzen,NI_Sequenzen,,,,,,,,,,,,,,
,Sequence,flow.Sequence,0_2_4,,completion,5,126893.80000001192,,,126897.10000002384,,126909.69999998808,2021-10-24T09:06:19.263Z,127148.071,1635066246,full,ni_sequenzen,NI_Sequenzen,,,,,,,,,,,,,,
,Screen_1,canvas.Screen,0_2_5_0,,skipped,6,126912.5,,,126912.60000002384,,126912.80000001192,2021-10-24T09:06:19.266Z,127148.071,1635066246,full,ni_sequenzen,NI_Sequenzen,,,,,,,,,,,,,,
,Screen_2,canvas.Screen,0_2_5_1,,skipped,6,126914.60000002384,,,126912.60000002384,,126914.80000001192,2021-10-24T09:06:19.268Z,127148.071,1635066246,full,ni_sequenzen,NI_Sequenzen,,,,,,,,,,,,,,
,Screen_3,canvas.Screen,0_2_5_2,,skipped,6,126917.19999998808,,,126912.60000002384,,126917.30000001192,2021-10-24T09:06:19.270Z,127148.071,1635066246,full,ni_sequenzen,NI_Sequenzen,,,,,,,,,,,,,,
,Screen_4,canvas.Screen,0_2_5_3,,skipped,6,126919.5,,,126912.60000002384,,126919.69999998808,2021-10-24T09:06:19.273Z,127148.071,1635066246,full,ni_sequenzen,NI_Sequenzen,,,,,,,,,,,,,,
,Screen_5,canvas.Screen,0_2_5_4,,skipped,6,126921.60000002384,,,126912.60000002384,,126921.80000001192,2021-10-24T09:06:19.275Z,127148.071,1635066246,full,ni_sequenzen,NI_Sequenzen,,,,,,,,,,,,,,
,Screen_6,canvas.Screen,0_2_5_5,,skipped,6,126923.80000001192,,,126912.60000002384,,126924,2021-10-24T09:06:19.277Z,127148.071,1635066246,full,ni_sequenzen,NI_Sequenzen,,,,,,,,,,,,,,
,Sequence,flow.Sequence,0_2_5,,completion,6,126910.60000002384,,,126912.60000002384,,126924.40000003576,2021-10-24T09:06:19.277Z,127148.071,1635066246,full,ni_sequenzen,NI_Sequenzen,,,,,,,,,,,,,,
,Screen_1,canvas.Screen,0_2_6_0,,skipped,7,126927.19999998808,,,126927.19999998808,,126927.30000001192,2021-10-24T09:06:19.280Z,127148.071,1635066246,full,ni_sequenzen,NI_Sequenzen,,,,,,,,,,,,,,
,Screen_2,canvas.Screen,0_2_6_1,,skipped,7,126929.30000001192,,,126927.19999998808,,126929.40000003576,2021-10-24T09:06:19.282Z,127148.071,1635066246,full,ni_sequenzen,NI_Sequenzen,,,,,,,,,,,,,,
,Screen_3,canvas.Screen,0_2_6_2,,skipped,7,126931.40000003576,,,126927.19999998808,,126931.5,2021-10-24T09:06:19.284Z,127148.071,1635066246,full,ni_sequenzen,NI_Sequenzen,,,,,,,,,,,,,,
,Screen_4,canvas.Screen,0_2_6_3,,skipped,7,126934.10000002384,,,126927.19999998808,,126934.19999998808,2021-10-24T09:06:19.287Z,127148.071,1635066246,full,ni_sequenzen,NI_Sequenzen,,,,,,,,,,,,,,
,Screen_5,canvas.Screen,0_2_6_4,,skipped,7,126938.5,,,126927.19999998808,,126938.60000002384,2021-10-24T09:06:19.292Z,127148.071,1635066246,full,ni_sequenzen,NI_Sequenzen,,,,,,,,,,,,,,
,Screen_6,canvas.Screen,0_2_6_5,,skipped,7,126939.90000003576,,,126927.19999998808,,126940,2021-10-24T09:06:19.293Z,127148.071,1635066246,full,ni_sequenzen,NI_Sequenzen,,,,,,,,,,,,,,
,Sequence,flow.Sequence,0_2_6,,completion,7,126925.10000002384,,,126927.19999998808,,126940.30000001192,2021-10-24T09:06:19.293Z,127148.071,1635066246,full,ni_sequenzen,NI_Sequenzen,,,,,,,,,,,,,,
,Screen_1,canvas.Screen,0_2_7_0,,skipped,8,126941.90000003576,,,126941.90000003576,,126942,2021-10-24T09:06:19.295Z,127148.071,1635066246,full,ni_sequenzen,NI_Sequenzen,,,,,,,,,,,,,,
,Screen_2,canvas.Screen,0_2_7_1,,skipped,8,126943.30000001192,,,126941.90000003576,,126943.40000003576,2021-10-24T09:06:19.296Z,127148.071,1635066246,full,ni_sequenzen,NI_Sequenzen,,,,,,,,,,,,,,
,Screen_3,canvas.Screen,0_2_7_2,,skipped,8,126944.5,,,126941.90000003576,,126944.60000002384,2021-10-24T09:06:19.298Z,127148.071,1635066246,full,ni_sequenzen,NI_Sequenzen,,,,,,,,,,,,,,
,Screen_4,canvas.Screen,0_2_7_3,,skipped,8,126945.80000001192,,,126941.90000003576,,126945.90000003576,2021-10-24T09:06:19.299Z,127148.071,1635066246,full,ni_sequenzen,NI_Sequenzen,,,,,,,,,,,,,,
,Screen_5,canvas.Screen,0_2_7_4,,skipped,8,126947,,,126941.90000003576,,126947,2021-10-24T09:06:19.300Z,127148.071,1635066246,full,ni_sequenzen,NI_Sequenzen,,,,,,,,,,,,,,
,Screen_6,canvas.Screen,0_2_7_5,,skipped,8,126948.19999998808,,,126941.90000003576,,126948.30000001192,2021-10-24T09:06:19.301Z,127148.071,1635066246,full,ni_sequenzen,NI_Sequenzen,,,,,,,,,,,,,,
,Sequence,flow.Sequence,0_2_7,,completion,8,126940.80000001192,,,126941.90000003576,,126948.40000003576,2021-10-24T09:06:19.301Z,127148.071,1635066246,full,ni_sequenzen,NI_Sequenzen,,,,,,,,,,,,,,
,Screen_1,canvas.Screen,0_2_8_0,,skipped,9,126950.5,,,126950.5,,126950.60000002384,2021-10-24T09:06:19.304Z,127148.071,1635066246,full,ni_sequenzen,NI_Sequenzen,,,,,,,,,,,,,,
,Screen_2,canvas.Screen,0_2_8_1,,skipped,9,126951.80000001192,,,126950.5,,126951.90000003576,2021-10-24T09:06:19.305Z,127148.071,1635066246,full,ni_sequenzen,NI_Sequenzen,,,,,,,,,,,,,,
,Screen_3,canvas.Screen,0_2_8_2,,skipped,9,126953.10000002384,,,126950.5,,126953.19999998808,2021-10-24T09:06:19.306Z,127148.071,1635066246,full,ni_sequenzen,NI_Sequenzen,,,,,,,,,,,,,,
,Screen_4,canvas.Screen,0_2_8_3,,skipped,9,126954.5,,,126950.5,,126954.60000002384,2021-10-24T09:06:19.307Z,127148.071,1635066246,full,ni_sequenzen,NI_Sequenzen,,,,,,,,,,,,,,
,Screen_5,canvas.Screen,0_2_8_4,,skipped,9,126955.69999998808,,,126950.5,,126955.80000001192,2021-10-24T09:06:19.309Z,127148.071,1635066246,full,ni_sequenzen,NI_Sequenzen,,,,,,,,,,,,,,
,Screen_6,canvas.Screen,0_2_8_5,,skipped,9,126956.80000001192,,,126950.5,,126957,2021-10-24T09:06:19.310Z,127148.071,1635066246,full,ni_sequenzen,NI_Sequenzen,,,,,,,,,,,,,,
,Sequence,flow.Sequence,0_2_8,,completion,9,126949.19999998808,,,126950.5,,126957.10000002384,2021-10-24T09:06:19.310Z,127148.071,1635066246,full,ni_sequenzen,NI_Sequenzen,,,,,,,,,,,,,,
,Screen_1,canvas.Screen,0_2_9_0,,skipped,10,126958.90000003576,,,126958.90000003576,,126959,2021-10-24T09:06:19.312Z,127148.071,1635066246,full,ni_sequenzen,NI_Sequenzen,,,,,,,,,,,,,,
,Screen_2,canvas.Screen,0_2_9_1,,skipped,10,126961.40000003576,,,126958.90000003576,,126961.60000002384,2021-10-24T09:06:19.314Z,127148.071,1635066246,full,ni_sequenzen,NI_Sequenzen,,,,,,,,,,,,,,
,Screen_3,canvas.Screen,0_2_9_2,,skipped,10,126962.80000001192,,,126958.90000003576,,126962.90000003576,2021-10-24T09:06:19.316Z,127148.071,1635066246,full,ni_sequenzen,NI_Sequenzen,,,,,,,,,,,,,,
,Screen_4,canvas.Screen,0_2_9_3,,skipped,10,126964,,,126958.90000003576,,126964.10000002384,2021-10-24T09:06:19.317Z,127148.071,1635066246,full,ni_sequenzen,NI_Sequenzen,,,,,,,,,,,,,,
,Screen_5,canvas.Screen,0_2_9_4,,skipped,10,126965.80000001192,,,126958.90000003576,,126966.10000002384,2021-10-24T09:06:19.319Z,127148.071,1635066246,full,ni_sequenzen,NI_Sequenzen,,,,,,,,,,,,,,
,Screen_6,canvas.Screen,0_2_9_5,,skipped,10,126968,,,126958.90000003576,,126968.19999998808,2021-10-24T09:06:19.321Z,127148.071,1635066246,full,ni_sequenzen,NI_Sequenzen,,,,,,,,,,,,,,
,Sequence,flow.Sequence,0_2_9,,completion,10,126957.60000002384,,,126958.90000003576,,126968.40000003576,2021-10-24T09:06:19.321Z,127148.071,1635066246,full,ni_sequenzen,NI_Sequenzen,,,,,,,,,,,,,,
,Screen_1,canvas.Screen,0_2_10_0,,skipped,11,126970.5,,,126970.5,,126970.5,2021-10-24T09:06:19.323Z,127148.071,1635066246,full,ni_sequenzen,NI_Sequenzen,,,,,,,,,,,,,,
,Screen_2,canvas.Screen,0_2_10_1,,skipped,11,126972.10000002384,,,126970.5,,126972.19999998808,2021-10-24T09:06:19.325Z,127148.071,1635066246,full,ni_sequenzen,NI_Sequenzen,,,,,,,,,,,,,,
,Screen_3,canvas.Screen,0_2_10_2,,skipped,11,126973.60000002384,,,126970.5,,126973.69999998808,2021-10-24T09:06:19.327Z,127148.071,1635066246,full,ni_sequenzen,NI_Sequenzen,,,,,,,,,,,,,,
,Screen_4,canvas.Screen,0_2_10_3,,skipped,11,126974.90000003576,,,126970.5,,126975,2021-10-24T09:06:19.328Z,127148.071,1635066246,full,ni_sequenzen,NI_Sequenzen,,,,,,,,,,,,,,
,Screen_5,canvas.Screen,0_2_10_4,,skipped,11,126976.19999998808,,,126970.5,,126976.30000001192,2021-10-24T09:06:19.329Z,127148.071,1635066246,full,ni_sequenzen,NI_Sequenzen,,,,,,,,,,,,,,
,Screen_6,canvas.Screen,0_2_10_5,,skipped,11,126977.60000002384,,,126970.5,,126977.80000001192,2021-10-24T09:06:19.331Z,127148.071,1635066246,full,ni_sequenzen,NI_Sequenzen,,,,,,,,,,,,,,
,Sequence,flow.Sequence,0_2_10,,completion,11,126969.19999998808,,,126970.5,,126977.90000003576,2021-10-24T09:06:19.331Z,127148.071,1635066246,full,ni_sequenzen,NI_Sequenzen,,,,,,,,,,,,,,
,Screen_1,canvas.Screen,0_2_11_0,,skipped,12,126979.69999998808,,,126979.69999998808,,126979.80000001192,2021-10-24T09:06:19.333Z,127148.071,1635066246,full,ni_sequenzen,NI_Sequenzen,,,,,,,,,,,,,,
,Screen_2,canvas.Screen,0_2_11_1,,skipped,12,126981,,,126979.69999998808,,126981.10000002384,2021-10-24T09:06:19.334Z,127148.071,1635066246,full,ni_sequenzen,NI_Sequenzen,,,,,,,,,,,,,,
,Screen_3,canvas.Screen,0_2_11_2,,skipped,12,126982.40000003576,,,126979.69999998808,,126982.5,2021-10-24T09:06:19.335Z,127148.071,1635066246,full,ni_sequenzen,NI_Sequenzen,,,,,,,,,,,,,,
,Screen_4,canvas.Screen,0_2_11_3,,skipped,12,126983.69999998808,,,126979.69999998808,,126983.69999998808,2021-10-24T09:06:19.337Z,127148.071,1635066246,full,ni_sequenzen,NI_Sequenzen,,,,,,,,,,,,,,
,Screen_5,canvas.Screen,0_2_11_4,,skipped,12,126984.90000003576,,,126979.69999998808,,126985,2021-10-24T09:06:19.338Z,127148.071,1635066246,full,ni_sequenzen,NI_Sequenzen,,,,,,,,,,,,,,
,Screen_6,canvas.Screen,0_2_11_5,,skipped,12,126987.69999998808,,,126979.69999998808,,126987.80000001192,2021-10-24T09:06:19.341Z,127148.071,1635066246,full,ni_sequenzen,NI_Sequenzen,,,,,,,,,,,,,,
,Sequence,flow.Sequence,0_2_11,,completion,12,126978.5,,,126979.69999998808,,126987.90000003576,2021-10-24T09:06:19.341Z,127148.071,1635066246,full,ni_sequenzen,NI_Sequenzen,,,,,,,,,,,,,,
,Screen_1,canvas.Screen,0_2_12_0,,skipped,13,126990,,,126990,,126990.10000002384,2021-10-24T09:06:19.343Z,127148.071,1635066246,full,ni_sequenzen,NI_Sequenzen,,,,,,,,,,,,,,
,Screen_2,canvas.Screen,0_2_12_1,,skipped,13,126991.40000003576,,,126990,,126991.5,2021-10-24T09:06:19.344Z,127148.071,1635066246,full,ni_sequenzen,NI_Sequenzen,,,,,,,,,,,,,,
,Screen_3,canvas.Screen,0_2_12_2,,skipped,13,126992.69999998808,,,126990,,126992.80000001192,2021-10-24T09:06:19.346Z,127148.071,1635066246,full,ni_sequenzen,NI_Sequenzen,,,,,,,,,,,,,,
,Screen_4,canvas.Screen,0_2_12_3,,skipped,13,126993.90000003576,,,126990,,126994,2021-10-24T09:06:19.347Z,127148.071,1635066246,full,ni_sequenzen,NI_Sequenzen,,,,,,,,,,,,,,
,Screen_5,canvas.Screen,0_2_12_4,,skipped,13,126996.10000002384,,,126990,,126996.30000001192,2021-10-24T09:06:19.349Z,127148.071,1635066246,full,ni_sequenzen,NI_Sequenzen,,,,,,,,,,,,,,
,Screen_6,canvas.Screen,0_2_12_5,,skipped,13,126997.69999998808,,,126990,,126997.90000003576,2021-10-24T09:06:19.351Z,127148.071,1635066246,full,ni_sequenzen,NI_Sequenzen,,,,,,,,,,,,,,
,Sequence,flow.Sequence,0_2_12,,completion,13,126988.69999998808,,,126990,,126998.10000002384,2021-10-24T09:06:19.351Z,127148.071,1635066246,full,ni_sequenzen,NI_Sequenzen,,,,,,,,,,,,,,
,Screen_1,canvas.Screen,0_2_13_0,,skipped,14,127000,,,127000,,127000,2021-10-24T09:06:19.353Z,127148.071,1635066246,full,ni_sequenzen,NI_Sequenzen,,,,,,,,,,,,,,
,Screen_2,canvas.Screen,0_2_13_1,,skipped,14,127001.19999998808,,,127000,,127001.30000001192,2021-10-24T09:06:19.354Z,127148.071,1635066246,full,ni_sequenzen,NI_Sequenzen,,,,,,,,,,,,,,
,Screen_3,canvas.Screen,0_2_13_2,,skipped,14,127002.40000003576,,,127000,,127002.5,2021-10-24T09:06:19.355Z,127148.071,1635066246,full,ni_sequenzen,NI_Sequenzen,,,,,,,,,,,,,,
,Screen_4,canvas.Screen,0_2_13_3,,skipped,14,127003.60000002384,,,127000,,127003.80000001192,2021-10-24T09:06:19.357Z,127148.071,1635066246,full,ni_sequenzen,NI_Sequenzen,,,,,,,,,,,,,,
,Screen_5,canvas.Screen,0_2_13_4,,skipped,14,127004.80000001192,,,127000,,127004.90000003576,2021-10-24T09:06:19.358Z,127148.071,1635066246,full,ni_sequenzen,NI_Sequenzen,,,,,,,,,,,,,,
,Screen_6,canvas.Screen,0_2_13_5,,skipped,14,127006,,,127000,,127006.10000002384,2021-10-24T09:06:19.359Z,127148.071,1635066246,full,ni_sequenzen,NI_Sequenzen,,,,,,,,,,,,,,
,Sequence,flow.Sequence,0_2_13,,completion,14,126998.69999998808,,,127000,,127006.30000001192,2021-10-24T09:06:19.359Z,127148.071,1635066246,full,ni_sequenzen,NI_Sequenzen,,,,,,,,,,,,,,
,Screen_1,canvas.Screen,0_2_14_0,,skipped,15,127008.30000001192,,,127008.40000003576,,127008.40000003576,2021-10-24T09:06:19.361Z,127148.071,1635066246,full,ni_sequenzen,NI_Sequenzen,,,,,,,,,,,,,,
,Screen_2,canvas.Screen,0_2_14_1,,skipped,15,127011,,,127008.40000003576,,127011.10000002384,2021-10-24T09:06:19.364Z,127148.071,1635066246,full,ni_sequenzen,NI_Sequenzen,,,,,,,,,,,,,,
,Screen_3,canvas.Screen,0_2_14_2,,skipped,15,127012.90000003576,,,127008.40000003576,,127013,2021-10-24T09:06:19.366Z,127148.071,1635066246,full,ni_sequenzen,NI_Sequenzen,,,,,,,,,,,,,,
,Screen_4,canvas.Screen,0_2_14_3,,skipped,15,127014.30000001192,,,127008.40000003576,,127014.5,2021-10-24T09:06:19.367Z,127148.071,1635066246,full,ni_sequenzen,NI_Sequenzen,,,,,,,,,,,,,,
,Screen_5,canvas.Screen,0_2_14_4,,skipped,15,127016.10000002384,,,127008.40000003576,,127016.30000001192,2021-10-24T09:06:19.369Z,127148.071,1635066246,full,ni_sequenzen,NI_Sequenzen,,,,,,,,,,,,,,
,Screen_6,canvas.Screen,0_2_14_5,,skipped,15,127018.10000002384,,,127008.40000003576,,127018.19999998808,2021-10-24T09:06:19.371Z,127148.071,1635066246,full,ni_sequenzen,NI_Sequenzen,,,,,,,,,,,,,,
,Sequence,flow.Sequence,0_2_14,,completion,15,127006.80000001192,,,127008.40000003576,,127018.30000001192,2021-10-24T09:06:19.371Z,127148.071,1635066246,full,ni_sequenzen,NI_Sequenzen,,,,,,,,,,,,,,
,Screen_1,canvas.Screen,0_2_15_0,,skipped,16,127020.30000001192,,,127020.30000001192,,127020.40000003576,2021-10-24T09:06:19.373Z,127148.071,1635066246,full,ni_sequenzen,NI_Sequenzen,,,,,,,,,,,,,,
,Screen_2,canvas.Screen,0_2_15_1,,skipped,16,127021.60000002384,,,127020.30000001192,,127021.69999998808,2021-10-24T09:06:19.375Z,127148.071,1635066246,full,ni_sequenzen,NI_Sequenzen,,,,,,,,,,,,,,
,Screen_3,canvas.Screen,0_2_15_2,,skipped,16,127022.80000001192,,,127020.30000001192,,127022.90000003576,2021-10-24T09:06:19.376Z,127148.071,1635066246,full,ni_sequenzen,NI_Sequenzen,,,,,,,,,,,,,,
,Screen_4,canvas.Screen,0_2_15_3,,skipped,16,127024,,,127020.30000001192,,127024.10000002384,2021-10-24T09:06:19.377Z,127148.071,1635066246,full,ni_sequenzen,NI_Sequenzen,,,,,,,,,,,,,,
,Screen_5,canvas.Screen,0_2_15_4,,skipped,16,127025.19999998808,,,127020.30000001192,,127025.40000003576,2021-10-24T09:06:19.378Z,127148.071,1635066246,full,ni_sequenzen,NI_Sequenzen,,,,,,,,,,,,,,
,Screen_6,canvas.Screen,0_2_15_5,,skipped,16,127026.5,,,127020.30000001192,,127026.5,2021-10-24T09:06:19.379Z,127148.071,1635066246,full,ni_sequenzen,NI_Sequenzen,,,,,,,,,,,,,,
,Sequence,flow.Sequence,0_2_15,,completion,16,127018.90000003576,,,127020.30000001192,,127026.69999998808,2021-10-24T09:06:19.380Z,127148.071,1635066246,full,ni_sequenzen,NI_Sequenzen,,,,,,,,,,,,,,
,Screen_1,canvas.Screen,0_2_16_0,,skipped,17,127028.40000003576,,,127028.40000003576,,127028.5,2021-10-24T09:06:19.381Z,127148.071,1635066246,full,ni_sequenzen,NI_Sequenzen,,,,,,,,,,,,,,
,Screen_2,canvas.Screen,0_2_16_1,,skipped,17,127029.90000003576,,,127028.40000003576,,127030,2021-10-24T09:06:19.383Z,127148.071,1635066246,full,ni_sequenzen,NI_Sequenzen,,,,,,,,,,,,,,
,Screen_3,canvas.Screen,0_2_16_2,,skipped,17,127032.5,,,127028.40000003576,,127032.69999998808,2021-10-24T09:06:19.386Z,127148.071,1635066246,full,ni_sequenzen,NI_Sequenzen,,,,,,,,,,,,,,
,Screen_4,canvas.Screen,0_2_16_3,,skipped,17,127034.40000003576,,,127028.40000003576,,127034.60000002384,2021-10-24T09:06:19.387Z,127148.071,1635066246,full,ni_sequenzen,NI_Sequenzen,,,,,,,,,,,,,,
,Screen_5,canvas.Screen,0_2_16_4,,skipped,17,127035.80000001192,,,127028.40000003576,,127035.90000003576,2021-10-24T09:06:19.389Z,127148.071,1635066246,full,ni_sequenzen,NI_Sequenzen,,,,,,,,,,,,,,
,Screen_6,canvas.Screen,0_2_16_5,,skipped,17,127037,,,127028.40000003576,,127037.10000002384,2021-10-24T09:06:19.390Z,127148.071,1635066246,full,ni_sequenzen,NI_Sequenzen,,,,,,,,,,,,,,
,Sequence,flow.Sequence,0_2_16,,completion,17,127027.19999998808,,,127028.40000003576,,127037.19999998808,2021-10-24T09:06:19.390Z,127148.071,1635066246,full,ni_sequenzen,NI_Sequenzen,,,,,,,,,,,,,,
,Screen_1,canvas.Screen,0_2_17_0,,skipped,18,127039.10000002384,,,127039.10000002384,,127039.30000001192,2021-10-24T09:06:19.392Z,127148.071,1635066246,full,ni_sequenzen,NI_Sequenzen,,,,,,,,,,,,,,
,Screen_2,canvas.Screen,0_2_17_1,,skipped,18,127040.40000003576,,,127039.10000002384,,127040.5,2021-10-24T09:06:19.393Z,127148.071,1635066246,full,ni_sequenzen,NI_Sequenzen,,,,,,,,,,,,,,
,Screen_3,canvas.Screen,0_2_17_2,,skipped,18,127041.60000002384,,,127039.10000002384,,127041.69999998808,2021-10-24T09:06:19.395Z,127148.071,1635066246,full,ni_sequenzen,NI_Sequenzen,,,,,,,,,,,,,,
,Screen_4,canvas.Screen,0_2_17_3,,skipped,18,127042.80000001192,,,127039.10000002384,,127043,2021-10-24T09:06:19.396Z,127148.071,1635066246,full,ni_sequenzen,NI_Sequenzen,,,,,,,,,,,,,,
,Screen_5,canvas.Screen,0_2_17_4,,skipped,18,127044,,,127039.10000002384,,127044.10000002384,2021-10-24T09:06:19.397Z,127148.071,1635066246,full,ni_sequenzen,NI_Sequenzen,,,,,,,,,,,,,,
,Screen_6,canvas.Screen,0_2_17_5,,skipped,18,127045.10000002384,,,127039.10000002384,,127045.30000001192,2021-10-24T09:06:19.398Z,127148.071,1635066246,full,ni_sequenzen,NI_Sequenzen,,,,,,,,,,,,,,
,Sequence,flow.Sequence,0_2_17,,completion,18,127037.69999998808,,,127039.10000002384,,127045.5,2021-10-24T09:06:19.398Z,127148.071,1635066246,full,ni_sequenzen,NI_Sequenzen,,,,,,,,,,,,,,
,Screen_1,canvas.Screen,0_2_18_0,,skipped,19,127047.40000003576,,,127047.40000003576,,127047.5,2021-10-24T09:06:19.400Z,127148.071,1635066246,full,ni_sequenzen,NI_Sequenzen,,,,,,,,,,,,,,
,Screen_2,canvas.Screen,0_2_18_1,,skipped,19,127049,,,127047.40000003576,,127049.10000002384,2021-10-24T09:06:19.402Z,127148.071,1635066246,full,ni_sequenzen,NI_Sequenzen,,,,,,,,,,,,,,
,Screen_3,canvas.Screen,0_2_18_2,,skipped,19,127050.40000003576,,,127047.40000003576,,127050.40000003576,2021-10-24T09:06:19.403Z,127148.071,1635066246,full,ni_sequenzen,NI_Sequenzen,,,,,,,,,,,,,,
,Screen_4,canvas.Screen,0_2_18_3,,skipped,19,127051.69999998808,,,127047.40000003576,,127051.90000003576,2021-10-24T09:06:19.405Z,127148.071,1635066246,full,ni_sequenzen,NI_Sequenzen,,,,,,,,,,,,,,
,Screen_5,canvas.Screen,0_2_18_4,,skipped,19,127054,,,127047.40000003576,,127054.19999998808,2021-10-24T09:06:19.407Z,127148.071,1635066246,full,ni_sequenzen,NI_Sequenzen,,,,,,,,,,,,,,
,Screen_6,canvas.Screen,0_2_18_5,,skipped,19,127055.40000003576,,,127047.40000003576,,127055.40000003576,2021-10-24T09:06:19.408Z,127148.071,1635066246,full,ni_sequenzen,NI_Sequenzen,,,,,,,,,,,,,,
,Sequence,flow.Sequence,0_2_18,,completion,19,127046,,,127047.40000003576,,127055.5,2021-10-24T09:06:19.408Z,127148.071,1635066246,full,ni_sequenzen,NI_Sequenzen,,,,,,,,,,,,,,
,Screen_1,canvas.Screen,0_2_19_0,,skipped,20,127056.60000002384,,,127056.60000002384,,127056.60000002384,2021-10-24T09:06:19.410Z,127148.071,1635066246,full,ni_sequenzen,NI_Sequenzen,,,,,,,,,,,,,,
,Screen_2,canvas.Screen,0_2_19_1,,skipped,20,127057.30000001192,,,127056.60000002384,,127057.40000003576,2021-10-24T09:06:19.410Z,127148.071,1635066246,full,ni_sequenzen,NI_Sequenzen,,,,,,,,,,,,,,
,Screen_3,canvas.Screen,0_2_19_2,,skipped,20,127058.10000002384,,,127056.60000002384,,127058.19999998808,2021-10-24T09:06:19.411Z,127148.071,1635066246,full,ni_sequenzen,NI_Sequenzen,,,,,,,,,,,,,,
,Screen_4,canvas.Screen,0_2_19_3,,skipped,20,127058.80000001192,,,127056.60000002384,,127058.80000001192,2021-10-24T09:06:19.412Z,127148.071,1635066246,full,ni_sequenzen,NI_Sequenzen,,,,,,,,,,,,,,
,Screen_5,canvas.Screen,0_2_19_4,,skipped,20,127059.30000001192,,,127056.60000002384,,127059.40000003576,2021-10-24T09:06:19.412Z,127148.071,1635066246,full,ni_sequenzen,NI_Sequenzen,,,,,,,,,,,,,,
,Screen_6,canvas.Screen,0_2_19_5,,skipped,20,127060,,,127056.60000002384,,127060,2021-10-24T09:06:19.413Z,127148.071,1635066246,full,ni_sequenzen,NI_Sequenzen,,,,,,,,,,,,,,
,Sequence,flow.Sequence,0_2_19,,completion,20,127055.90000003576,,,127056.60000002384,,127060.19999998808,2021-10-24T09:06:19.413Z,127148.071,1635066246,full,ni_sequenzen,NI_Sequenzen,,,,,,,,,,,,,,
,Screen_1,canvas.Screen,0_2_20_0,,skipped,21,127061,,,127061.10000002384,,127061.10000002384,2021-10-24T09:06:19.414Z,127148.071,1635066246,full,ni_sequenzen,NI_Sequenzen,,,,,,,,,,,,,,
,Screen_2,canvas.Screen,0_2_20_1,,skipped,21,127061.60000002384,,,127061.10000002384,,127061.80000001192,2021-10-24T09:06:19.415Z,127148.071,1635066246,full,ni_sequenzen,NI_Sequenzen,,,,,,,,,,,,,,
,Screen_3,canvas.Screen,0_2_20_2,,skipped,21,127062.40000003576,,,127061.10000002384,,127062.40000003576,2021-10-24T09:06:19.415Z,127148.071,1635066246,full,ni_sequenzen,NI_Sequenzen,,,,,,,,,,,,,,
,Screen_4,canvas.Screen,0_2_20_3,,skipped,21,127063,,,127061.10000002384,,127063.10000002384,2021-10-24T09:06:19.416Z,127148.071,1635066246,full,ni_sequenzen,NI_Sequenzen,,,,,,,,,,,,,,
,Screen_5,canvas.Screen,0_2_20_4,,skipped,21,127063.5,,,127061.10000002384,,127063.60000002384,2021-10-24T09:06:19.417Z,127148.071,1635066246,full,ni_sequenzen,NI_Sequenzen,,,,,,,,,,,,,,
,Screen_6,canvas.Screen,0_2_20_5,,skipped,21,127064.80000001192,,,127061.10000002384,,127065,2021-10-24T09:06:19.418Z,127148.071,1635066246,full,ni_sequenzen,NI_Sequenzen,,,,,,,,,,,,,,
,Sequence,flow.Sequence,0_2_20,,completion,21,127060.30000001192,,,127061.10000002384,,127065.10000002384,2021-10-24T09:06:19.418Z,127148.071,1635066246,full,ni_sequenzen,NI_Sequenzen,,,,,,,,,,,,,,
,Screen_1,canvas.Screen,0_2_21_0,,skipped,22,127066,,,127066,,127066.10000002384,2021-10-24T09:06:19.419Z,127148.071,1635066246,full,ni_sequenzen,NI_Sequenzen,,,,,,,,,,,,,,
,Screen_2,canvas.Screen,0_2_21_1,,skipped,22,127066.69999998808,,,127066,,127066.80000001192,2021-10-24T09:06:19.420Z,127148.071,1635066246,full,ni_sequenzen,NI_Sequenzen,,,,,,,,,,,,,,
,Screen_3,canvas.Screen,0_2_21_2,,skipped,22,127067.30000001192,,,127066,,127067.90000003576,2021-10-24T09:06:19.421Z,127148.071,1635066246,full,ni_sequenzen,NI_Sequenzen,,,,,,,,,,,,,,
,Screen_4,canvas.Screen,0_2_21_3,,skipped,22,127068.5,,,127066,,127068.69999998808,2021-10-24T09:06:19.422Z,127148.071,1635066246,full,ni_sequenzen,NI_Sequenzen,,,,,,,,,,,,,,
,Screen_5,canvas.Screen,0_2_21_4,,skipped,22,127069.19999998808,,,127066,,127069.19999998808,2021-10-24T09:06:19.422Z,127148.071,1635066246,full,ni_sequenzen,NI_Sequenzen,,,,,,,,,,,,,,
,Screen_6,canvas.Screen,0_2_21_5,,skipped,22,127069.80000001192,,,127066,,127069.80000001192,2021-10-24T09:06:19.423Z,127148.071,1635066246,full,ni_sequenzen,NI_Sequenzen,,,,,,,,,,,,,,
,Sequence,flow.Sequence,0_2_21,,completion,22,127065.40000003576,,,127066,,127069.90000003576,2021-10-24T09:06:19.423Z,127148.071,1635066246,full,ni_sequenzen,NI_Sequenzen,,,,,,,,,,,,,,
,Screen_1,canvas.Screen,0_2_22_0,,skipped,23,127071.30000001192,,,127071.30000001192,,127071.5,2021-10-24T09:06:19.424Z,127148.071,1635066246,full,ni_sequenzen,NI_Sequenzen,,,,,,,,,,,,,,
,Screen_2,canvas.Screen,0_2_22_1,,skipped,23,127072.60000002384,,,127071.30000001192,,127072.60000002384,2021-10-24T09:06:19.426Z,127148.071,1635066246,full,ni_sequenzen,NI_Sequenzen,,,,,,,,,,,,,,
,Screen_3,canvas.Screen,0_2_22_2,,skipped,23,127074.30000001192,,,127071.30000001192,,127074.40000003576,2021-10-24T09:06:19.427Z,127148.071,1635066246,full,ni_sequenzen,NI_Sequenzen,,,,,,,,,,,,,,
,Screen_4,canvas.Screen,0_2_22_3,,skipped,23,127075.19999998808,,,127071.30000001192,,127075.30000001192,2021-10-24T09:06:19.428Z,127148.071,1635066246,full,ni_sequenzen,NI_Sequenzen,,,,,,,,,,,,,,
,Screen_5,canvas.Screen,0_2_22_4,,skipped,23,127075.90000003576,,,127071.30000001192,,127075.90000003576,2021-10-24T09:06:19.429Z,127148.071,1635066246,full,ni_sequenzen,NI_Sequenzen,,,,,,,,,,,,,,
,Screen_6,canvas.Screen,0_2_22_5,,skipped,23,127076.40000003576,,,127071.30000001192,,127076.5,2021-10-24T09:06:19.429Z,127148.071,1635066246,full,ni_sequenzen,NI_Sequenzen,,,,,,,,,,,,,,
,Sequence,flow.Sequence,0_2_22,,completion,23,127070.30000001192,,,127071.30000001192,,127076.60000002384,2021-10-24T09:06:19.429Z,127148.071,1635066246,full,ni_sequenzen,NI_Sequenzen,,,,,,,,,,,,,,
,Screen_1,canvas.Screen,0_2_23_0,,skipped,24,127077.40000003576,,,127077.40000003576,,127077.5,2021-10-24T09:06:19.430Z,127148.071,1635066246,full,ni_sequenzen,NI_Sequenzen,,,,,,,,,,,,,,
,Screen_2,canvas.Screen,0_2_23_1,,skipped,24,127078,,,127077.40000003576,,127078.10000002384,2021-10-24T09:06:19.431Z,127148.071,1635066246,full,ni_sequenzen,NI_Sequenzen,,,,,,,,,,,,,,
,Screen_3,canvas.Screen,0_2_23_2,,skipped,24,127078.60000002384,,,127077.40000003576,,127078.69999998808,2021-10-24T09:06:19.432Z,127148.071,1635066246,full,ni_sequenzen,NI_Sequenzen,,,,,,,,,,,,,,
,Screen_4,canvas.Screen,0_2_23_3,,skipped,24,127080.10000002384,,,127077.40000003576,,127080.10000002384,2021-10-24T09:06:19.433Z,127148.071,1635066246,full,ni_sequenzen,NI_Sequenzen,,,,,,,,,,,,,,
,Screen_5,canvas.Screen,0_2_23_4,,skipped,24,127080.69999998808,,,127077.40000003576,,127080.69999998808,2021-10-24T09:06:19.434Z,127148.071,1635066246,full,ni_sequenzen,NI_Sequenzen,,,,,,,,,,,,,,
,Screen_6,canvas.Screen,0_2_23_5,,skipped,24,127081.30000001192,,,127077.40000003576,,127081.40000003576,2021-10-24T09:06:19.434Z,127148.071,1635066246,full,ni_sequenzen,NI_Sequenzen,,,,,,,,,,,,,,
,Sequence,flow.Sequence,0_2_23,,completion,24,127076.80000001192,,,127077.40000003576,,127081.5,2021-10-24T09:06:19.434Z,127148.071,1635066246,full,ni_sequenzen,NI_Sequenzen,,,,,,,,,,,,,,
,Screen_1,canvas.Screen,0_2_24_0,,skipped,25,127082.40000003576,,,127082.40000003576,,127082.5,2021-10-24T09:06:19.435Z,127148.071,1635066246,full,ni_sequenzen,NI_Sequenzen,,,,,,,,,,,,,,
,Screen_2,canvas.Screen,0_2_24_1,,skipped,25,127083,,,127082.40000003576,,127083.10000002384,2021-10-24T09:06:19.436Z,127148.071,1635066246,full,ni_sequenzen,NI_Sequenzen,,,,,,,,,,,,,,
,Screen_3,canvas.Screen,0_2_24_2,,skipped,25,127083.69999998808,,,127082.40000003576,,127083.69999998808,2021-10-24T09:06:19.437Z,127148.071,1635066246,full,ni_sequenzen,NI_Sequenzen,,,,,,,,,,,,,,
,Screen_4,canvas.Screen,0_2_24_3,,skipped,25,127084.19999998808,,,127082.40000003576,,127084.30000001192,2021-10-24T09:06:19.437Z,127148.071,1635066246,full,ni_sequenzen,NI_Sequenzen,,,,,,,,,,,,,,
,Screen_5,canvas.Screen,0_2_24_4,,skipped,25,127084.80000001192,,,127082.40000003576,,127084.80000001192,2021-10-24T09:06:19.438Z,127148.071,1635066246,full,ni_sequenzen,NI_Sequenzen,,,,,,,,,,,,,,
,Screen_6,canvas.Screen,0_2_24_5,,skipped,25,127085.40000003576,,,127082.40000003576,,127085.40000003576,2021-10-24T09:06:19.438Z,127148.071,1635066246,full,ni_sequenzen,NI_Sequenzen,,,,,,,,,,,,,,
,Sequence,flow.Sequence,0_2_24,,completion,25,127081.80000001192,,,127082.40000003576,,127085.5,2021-10-24T09:06:19.438Z,127148.071,1635066246,full,ni_sequenzen,NI_Sequenzen,,,,,,,,,,,,,,
,Screen_1,canvas.Screen,0_2_25_0,,skipped,26,127086.69999998808,,,127086.69999998808,,127086.69999998808,2021-10-24T09:06:19.440Z,127148.071,1635066246,full,ni_sequenzen,NI_Sequenzen,,,,,,,,,,,,,,
,Screen_2,canvas.Screen,0_2_25_1,,skipped,26,127087.5,,,127086.69999998808,,127087.5,2021-10-24T09:06:19.440Z,127148.071,1635066246,full,ni_sequenzen,NI_Sequenzen,,,,,,,,,,,,,,
,Screen_3,canvas.Screen,0_2_25_2,,skipped,26,127088.10000002384,,,127086.69999998808,,127088.19999998808,2021-10-24T09:06:19.441Z,127148.071,1635066246,full,ni_sequenzen,NI_Sequenzen,,,,,,,,,,,,,,
,Screen_4,canvas.Screen,0_2_25_3,,skipped,26,127088.80000001192,,,127086.69999998808,,127088.90000003576,2021-10-24T09:06:19.442Z,127148.071,1635066246,full,ni_sequenzen,NI_Sequenzen,,,,,,,,,,,,,,
,Screen_5,canvas.Screen,0_2_25_4,,skipped,26,127090.10000002384,,,127086.69999998808,,127090.19999998808,2021-10-24T09:06:19.443Z,127148.071,1635066246,full,ni_sequenzen,NI_Sequenzen,,,,,,,,,,,,,,
,Screen_6,canvas.Screen,0_2_25_5,,skipped,26,127090.90000003576,,,127086.69999998808,,127090.90000003576,2021-10-24T09:06:19.444Z,127148.071,1635066246,full,ni_sequenzen,NI_Sequenzen,,,,,,,,,,,,,,
,Sequence,flow.Sequence,0_2_25,,completion,26,127085.69999998808,,,127086.69999998808,,127091,2021-10-24T09:06:19.444Z,127148.071,1635066246,full,ni_sequenzen,NI_Sequenzen,,,,,,,,,,,,,,
,Screen_1,canvas.Screen,0_2_26_0,,skipped,27,127092.19999998808,,,127092.19999998808,,127092.30000001192,2021-10-24T09:06:19.445Z,127148.071,1635066246,full,ni_sequenzen,NI_Sequenzen,,,,,,,,,,,,,,
,Screen_2,canvas.Screen,0_2_26_1,,skipped,27,127092.90000003576,,,127092.19999998808,,127092.90000003576,2021-10-24T09:06:19.446Z,127148.071,1635066246,full,ni_sequenzen,NI_Sequenzen,,,,,,,,,,,,,,
,Screen_3,canvas.Screen,0_2_26_2,,skipped,27,127093.5,,,127092.19999998808,,127093.60000002384,2021-10-24T09:06:19.446Z,127148.071,1635066246,full,ni_sequenzen,NI_Sequenzen,,,,,,,,,,,,,,
,Screen_4,canvas.Screen,0_2_26_3,,skipped,27,127094.10000002384,,,127092.19999998808,,127094.10000002384,2021-10-24T09:06:19.447Z,127148.071,1635066246,full,ni_sequenzen,NI_Sequenzen,,,,,,,,,,,,,,
,Screen_5,canvas.Screen,0_2_26_4,,skipped,27,127094.69999998808,,,127092.19999998808,,127094.69999998808,2021-10-24T09:06:19.448Z,127148.071,1635066246,full,ni_sequenzen,NI_Sequenzen,,,,,,,,,,,,,,
,Screen_6,canvas.Screen,0_2_26_5,,skipped,27,127095.19999998808,,,127092.19999998808,,127095.30000001192,2021-10-24T09:06:19.448Z,127148.071,1635066246,full,ni_sequenzen,NI_Sequenzen,,,,,,,,,,,,,,
,Sequence,flow.Sequence,0_2_26,,completion,27,127091.30000001192,,,127092.19999998808,,127095.40000003576,2021-10-24T09:06:19.448Z,127148.071,1635066246,full,ni_sequenzen,NI_Sequenzen,,,,,,,,,,,,,,
,Screen_1,canvas.Screen,0_2_27_0,,skipped,28,127096.5,,,127096.5,,127096.5,2021-10-24T09:06:19.449Z,127148.071,1635066246,full,ni_sequenzen,NI_Sequenzen,,,,,,,,,,,,,,
,Screen_2,canvas.Screen,0_2_27_1,,skipped,28,127097.40000003576,,,127096.5,,127097.5,2021-10-24T09:06:19.450Z,127148.071,1635066246,full,ni_sequenzen,NI_Sequenzen,,,,,,,,,,,,,,
,Screen_3,canvas.Screen,0_2_27_2,,skipped,28,127098.60000002384,,,127096.5,,127098.60000002384,2021-10-24T09:06:19.452Z,127148.071,1635066246,full,ni_sequenzen,NI_Sequenzen,,,,,,,,,,,,,,
,Screen_4,canvas.Screen,0_2_27_3,,skipped,28,127099.40000003576,,,127096.5,,127099.40000003576,2021-10-24T09:06:19.452Z,127148.071,1635066246,full,ni_sequenzen,NI_Sequenzen,,,,,,,,,,,,,,
,Screen_5,canvas.Screen,0_2_27_4,,skipped,28,127100.10000002384,,,127096.5,,127100.10000002384,2021-10-24T09:06:19.453Z,127148.071,1635066246,full,ni_sequenzen,NI_Sequenzen,,,,,,,,,,,,,,
,Screen_6,canvas.Screen,0_2_27_5,,skipped,28,127100.60000002384,,,127096.5,,127100.69999998808,2021-10-24T09:06:19.454Z,127148.071,1635066246,full,ni_sequenzen,NI_Sequenzen,,,,,,,,,,,,,,
,Sequence,flow.Sequence,0_2_27,,completion,28,127095.60000002384,,,127096.5,,127100.80000001192,2021-10-24T09:06:19.454Z,127148.071,1635066246,full,ni_sequenzen,NI_Sequenzen,,,,,,,,,,,,,,
,Screen_1,canvas.Screen,0_2_28_0,,skipped,29,127101.60000002384,,,127101.60000002384,,127101.60000002384,2021-10-24T09:06:19.455Z,127148.071,1635066246,full,ni_sequenzen,NI_Sequenzen,,,,,,,,,,,,,,
,Screen_2,canvas.Screen,0_2_28_1,,skipped,29,127102.69999998808,,,127101.60000002384,,127102.80000001192,2021-10-24T09:06:19.456Z,127148.071,1635066246,full,ni_sequenzen,NI_Sequenzen,,,,,,,,,,,,,,
,Screen_3,canvas.Screen,0_2_28_2,,skipped,29,127103.40000003576,,,127101.60000002384,,127103.40000003576,2021-10-24T09:06:19.456Z,127148.071,1635066246,full,ni_sequenzen,NI_Sequenzen,,,,,,,,,,,,,,
,Screen_4,canvas.Screen,0_2_28_3,,skipped,29,127104.10000002384,,,127101.60000002384,,127104.10000002384,2021-10-24T09:06:19.457Z,127148.071,1635066246,full,ni_sequenzen,NI_Sequenzen,,,,,,,,,,,,,,
,Screen_5,canvas.Screen,0_2_28_4,,skipped,29,127104.60000002384,,,127101.60000002384,,127104.69999998808,2021-10-24T09:06:19.458Z,127148.071,1635066246,full,ni_sequenzen,NI_Sequenzen,,,,,,,,,,,,,,
,Screen_6,canvas.Screen,0_2_28_5,,skipped,29,127105.19999998808,,,127101.60000002384,,127105.19999998808,2021-10-24T09:06:19.458Z,127148.071,1635066246,full,ni_sequenzen,NI_Sequenzen,,,,,,,,,,,,,,
,Sequence,flow.Sequence,0_2_28,,completion,29,127101,,,127101.60000002384,,127105.30000001192,2021-10-24T09:06:19.458Z,127148.071,1635066246,full,ni_sequenzen,NI_Sequenzen,,,,,,,,,,,,,,
,Screen_1,canvas.Screen,0_2_29_0,,skipped,30,127106.19999998808,,,127106.19999998808,,127106.30000001192,2021-10-24T09:06:19.459Z,127148.071,1635066246,full,ni_sequenzen,NI_Sequenzen,,,,,,,,,,,,,,
,Screen_2,canvas.Screen,0_2_29_1,,skipped,30,127106.80000001192,,,127106.19999998808,,127106.90000003576,2021-10-24T09:06:19.460Z,127148.071,1635066246,full,ni_sequenzen,NI_Sequenzen,,,,,,,,,,,,,,
,Screen_3,canvas.Screen,0_2_29_2,,skipped,30,127107.40000003576,,,127106.19999998808,,127107.40000003576,2021-10-24T09:06:19.460Z,127148.071,1635066246,full,ni_sequenzen,NI_Sequenzen,,,,,,,,,,,,,,
,Screen_4,canvas.Screen,0_2_29_3,,skipped,30,127108,,,127106.19999998808,,127108,2021-10-24T09:06:19.461Z,127148.071,1635066246,full,ni_sequenzen,NI_Sequenzen,,,,,,,,,,,,,,
,Screen_5,canvas.Screen,0_2_29_4,,skipped,30,127108.60000002384,,,127106.19999998808,,127108.60000002384,2021-10-24T09:06:19.462Z,127148.071,1635066246,full,ni_sequenzen,NI_Sequenzen,,,,,,,,,,,,,,
,Screen_6,canvas.Screen,0_2_29_5,,skipped,30,127109.10000002384,,,127106.19999998808,,127109.19999998808,2021-10-24T09:06:19.462Z,127148.071,1635066246,full,ni_sequenzen,NI_Sequenzen,,,,,,,,,,,,,,
,Sequence,flow.Sequence,0_2_29,,completion,30,127105.60000002384,,,127106.19999998808,,127109.30000001192,2021-10-24T09:06:19.462Z,127148.071,1635066246,full,ni_sequenzen,NI_Sequenzen,,,,,,,,,,,,,,
,Instructions_II,flow.Loop,0_2,,completion,,72531.60000002384,72523.045,72539.548,127106.19999998808,54566.651999988084,127109.30000001192,2021-10-24T09:06:19.462Z,127148.071,1635066246,full,ni_sequenzen,NI_Sequenzen,,,,,,,,,,,,,,
,Move,canvas.Screen,0_3_0_0_0_0,right,response,,127138.90000003576,127132.051,127148.071,130002.5,2854.4290000000037,130003.60000002384,2021-10-24T09:06:22.357Z,130030.157,1635066246,full,ni_sequenzen,NI_Sequenzen,1,0,,,,,,,,,,,,
,Move,canvas.Screen,0_3_0_0_0_1,down,response,,130016.69999998808,130013.661,130030.157,130373.60000002384,343.44300002383534,130374.69999998808,2021-10-24T09:06:22.728Z,130413.324,1635066246,full,ni_sequenzen,NI_Sequenzen,2,0,,,,,,,,,,,,
,Move,canvas.Screen,0_3_0_0_0_2,right,response,,130380.60000002384,130380.137,130413.324,130733.80000001192,320.4760000119277,130734.60000002384,2021-10-24T09:06:23.087Z,130746.522,1635066246,full,ni_sequenzen,NI_Sequenzen,3,0,,,,,,,,,,,,
,Move,canvas.Screen,0_3_0_0_0_3,down,response,,130738,130729.929,130746.522,130988.10000002384,241.57800002384465,130989.10000002384,2021-10-24T09:06:23.342Z,131079.636,1635066246,full,ni_sequenzen,NI_Sequenzen,4,0,,,,,,,,,,,,
,Move,canvas.Screen,0_3_0_0_0_4,-999,skipped,,130994,,,130988.10000002384,,130994.19999998808,2021-10-24T09:06:23.347Z,131079.636,1635066246,full,ni_sequenzen,NI_Sequenzen,5,0,,,,,,,,,,,,
,Move,canvas.Screen,0_3_0_0_0_5,-999,skipped,,131000.10000002384,,,130988.10000002384,,131000.30000001192,2021-10-24T09:06:23.353Z,131079.636,1635066246,full,ni_sequenzen,NI_Sequenzen,6,0,,,,,,,,,,,,
,Move,canvas.Screen,0_3_0_0_0_6,-999,skipped,,131005.90000003576,,,130988.10000002384,,131006.10000002384,2021-10-24T09:06:23.359Z,131079.636,1635066246,full,ni_sequenzen,NI_Sequenzen,7,0,,,,,,,,,,,,
,Move,canvas.Screen,0_3_0_0_0_7,-999,skipped,,131011.40000003576,,,130988.10000002384,,131011.60000002384,2021-10-24T09:06:23.365Z,131079.636,1635066246,full,ni_sequenzen,NI_Sequenzen,8,0,,,,,,,,,,,,
,Move,canvas.Screen,0_3_0_0_0_8,-999,skipped,,131017.60000002384,,,130988.10000002384,,131017.90000003576,2021-10-24T09:06:23.371Z,131079.636,1635066246,full,ni_sequenzen,NI_Sequenzen,9,0,,,,,,,,,,,,
,Move,canvas.Screen,0_3_0_0_0_9,-999,skipped,,131026.10000002384,,,130988.10000002384,,131026.30000001192,2021-10-24T09:06:23.379Z,131079.636,1635066246,full,ni_sequenzen,NI_Sequenzen,10,0,,,,,,,,,,,,
,Move,canvas.Screen,0_3_0_0_0_10,-999,skipped,,131031,,,130988.10000002384,,131031.19999998808,2021-10-24T09:06:23.384Z,131079.636,1635066246,full,ni_sequenzen,NI_Sequenzen,11,0,,,,,,,,,,,,
,Move,canvas.Screen,0_3_0_0_0_11,-999,skipped,,131037.40000003576,,,130988.10000002384,,131037.60000002384,2021-10-24T09:06:23.391Z,131079.636,1635066246,full,ni_sequenzen,NI_Sequenzen,12,0,,,,,,,,,,,,
,Move,canvas.Screen,0_3_0_0_0_12,-999,skipped,,131044.40000003576,,,130988.10000002384,,131044.60000002384,2021-10-24T09:06:23.397Z,131079.636,1635066246,full,ni_sequenzen,NI_Sequenzen,13,0,,,,,,,,,,,,
,Move,canvas.Screen,0_3_0_0_0_13,-999,skipped,,131050,,,130988.10000002384,,131050.19999998808,2021-10-24T09:06:23.403Z,131079.636,1635066246,full,ni_sequenzen,NI_Sequenzen,14,0,,,,,,,,,,,,
,Move,canvas.Screen,0_3_0_0_0_14,-999,skipped,,131059.5,,,130988.10000002384,,131059.80000001192,2021-10-24T09:06:23.413Z,131079.636,1635066246,full,ni_sequenzen,NI_Sequenzen,15,0,,,,,,,,,,,,
,Loop,flow.Loop,0_3_0_0_0,-999,completion,,127135.80000001192,127132.051,127148.071,130988.10000002384,3840.0290000238456,131060.69999998808,2021-10-24T09:06:23.414Z,131079.636,1635066246,full,ni_sequenzen,NI_Sequenzen,,0,,,,,,,,,,,,
,Feedback,canvas.Screen,0_3_0_0_1,,timeout,,131069.40000003576,131063.102,131079.636,135061.295,4014.837999999989,135062.80000001192,2021-10-24T09:06:27.416Z,135094.474,1635066246,full,ni_sequenzen,NI_Sequenzen,,0,,,,,,,,,,,,
,Trial,flow.Sequence,0_3_0_0,,completion,,127124.69999998808,127132.051,127148.071,135061.295,7913.2240000000165,135063.10000002384,2021-10-24T09:06:27.416Z,135111.143,1635066246,full,ni_sequenzen,NI_Sequenzen,,0,,,,,,,,,,,,
,Move,canvas.Screen,0_3_0_1_0_0,left,response,,135099.19999998808,135094.474,135111.143,135218.19999998808,107.05699998806813,135219.30000001192,2021-10-24T09:06:27.572Z,135227.784,1635066246,full,ni_sequenzen,NI_Sequenzen,1,1,,,,,,,,,,,,
,Move,canvas.Screen,0_3_0_1_0_1,down,response,,135225.5,135211.234,135227.784,138036.5,2808.715999999986,138037.5,2021-10-24T09:06:30.390Z,138076.489,1635066246,full,ni_sequenzen,NI_Sequenzen,2,1,,,,,,,,,,,,
,Move,canvas.Screen,0_3_0_1_0_2,down,response,,138043,138043.402,138076.489,142480.90000003576,4404.411000035761,142481.60000002384,2021-10-24T09:06:34.834Z,142491.403,1635066246,full,ni_sequenzen,NI_Sequenzen,3,1,,,,,,,,,,,,
,Move,canvas.Screen,0_3_0_1_0_3,left,response,,142483.90000003576,142474.922,142491.403,142799.10000002384,307.6970000238507,142799.60000002384,2021-10-24T09:06:35.152Z,142840.975,1635066246,full,ni_sequenzen,NI_Sequenzen,4,1,,,,,,,,,,,,
,Move,canvas.Screen,0_3_0_1_0_4,-999,skipped,,142803.19999998808,,,142799.10000002384,,142803.30000001192,2021-10-24T09:06:35.156Z,142840.975,1635066246,full,ni_sequenzen,NI_Sequenzen,5,1,,,,,,,,,,,,
,Move,canvas.Screen,0_3_0_1_0_5,-999,skipped,,142806.19999998808,,,142799.10000002384,,142806.30000001192,2021-10-24T09:06:35.159Z,142840.975,1635066246,full,ni_sequenzen,NI_Sequenzen,6,1,,,,,,,,,,,,
,Move,canvas.Screen,0_3_0_1_0_6,-999,skipped,,142808.69999998808,,,142799.10000002384,,142808.90000003576,2021-10-24T09:06:35.162Z,142840.975,1635066246,full,ni_sequenzen,NI_Sequenzen,7,1,,,,,,,,,,,,
,Move,canvas.Screen,0_3_0_1_0_7,-999,skipped,,142812.30000001192,,,142799.10000002384,,142812.40000003576,2021-10-24T09:06:35.165Z,142840.975,1635066246,full,ni_sequenzen,NI_Sequenzen,8,1,,,,,,,,,,,,
,Move,canvas.Screen,0_3_0_1_0_8,-999,skipped,,142814,,,142799.10000002384,,142814.10000002384,2021-10-24T09:06:35.167Z,142840.975,1635066246,full,ni_sequenzen,NI_Sequenzen,9,1,,,,,,,,,,,,
,Move,canvas.Screen,0_3_0_1_0_9,-999,skipped,,142816.40000003576,,,142799.10000002384,,142816.5,2021-10-24T09:06:35.169Z,142840.975,1635066246,full,ni_sequenzen,NI_Sequenzen,10,1,,,,,,,,,,,,
,Move,canvas.Screen,0_3_0_1_0_10,-999,skipped,,142819.30000001192,,,142799.10000002384,,142819.30000001192,2021-10-24T09:06:35.172Z,142840.975,1635066246,full,ni_sequenzen,NI_Sequenzen,11,1,,,,,,,,,,,,
,Move,canvas.Screen,0_3_0_1_0_11,-999,skipped,,142821,,,142799.10000002384,,142821.19999998808,2021-10-24T09:06:35.174Z,142840.975,1635066246,full,ni_sequenzen,NI_Sequenzen,12,1,,,,,,,,,,,,
,Move,canvas.Screen,0_3_0_1_0_12,-999,skipped,,142822.69999998808,,,142799.10000002384,,142822.90000003576,2021-10-24T09:06:35.176Z,142840.975,1635066246,full,ni_sequenzen,NI_Sequenzen,13,1,,,,,,,,,,,,
,Move,canvas.Screen,0_3_0_1_0_13,-999,skipped,,142824.60000002384,,,142799.10000002384,,142824.69999998808,2021-10-24T09:06:35.178Z,142840.975,1635066246,full,ni_sequenzen,NI_Sequenzen,14,1,,,,,,,,,,,,
,Move,canvas.Screen,0_3_0_1_0_14,-999,skipped,,142827.90000003576,,,142799.10000002384,,142828,2021-10-24T09:06:35.181Z,142840.975,1635066246,full,ni_sequenzen,NI_Sequenzen,15,1,,,,,,,,,,,,
,Loop,flow.Loop,0_3_0_1_0,-999,completion,,135092.80000001192,135094.474,135111.143,142799.10000002384,7687.957000023831,142828.19999998808,2021-10-24T09:06:35.181Z,142840.975,1635066246,full,ni_sequenzen,NI_Sequenzen,,1,,,,,,,,,,,,
,Feedback,canvas.Screen,0_3_0_1_1,,timeout,,142829.90000003576,142824.397,142840.975,146822.638,4014.88499999998,146823.80000001192,2021-10-24T09:06:39.177Z,146855.86,1635066246,full,ni_sequenzen,NI_Sequenzen,,1,,,,,,,,,,,,
,Trial,flow.Sequence,0_3_0_1,,completion,,135063.5,135094.474,135111.143,146822.638,11711.494999999995,146824.10000002384,2021-10-24T09:06:39.177Z,146872.57,1635066246,full,ni_sequenzen,NI_Sequenzen,,1,,,,,,,,,,,,
,Move,canvas.Screen,0_3_0_2_0_0,right,response,,146864.10000002384,146855.86,146872.57,150650.60000002384,3778.030000023835,150651.30000001192,2021-10-24T09:06:43.004Z,150670.792,1635066246,full,ni_sequenzen,NI_Sequenzen,1,2,,,,,,,,,,,,
,Move,canvas.Screen,0_3_0_2_0_1,down,response,,150657.10000002384,150654.174,150670.792,151161.30000001192,490.5080000119342,151162.30000001192,2021-10-24T09:06:43.515Z,151198.495,1635066246,full,ni_sequenzen,NI_Sequenzen,2,2,,,,,,,,,,,,
,Move,canvas.Screen,0_3_0_2_0_2,right,response,,151169.30000001192,151153.922,151198.495,151407.19999998808,208.70499998808373,151408.30000001192,2021-10-24T09:06:43.761Z,151420.445,1635066246,full,ni_sequenzen,NI_Sequenzen,3,2,,,,,,,,,,,,
,Move,canvas.Screen,0_3_0_2_0_3,down,response,,151415,151403.813,151420.445,151682.80000001192,262.35500001191394,151683.80000001192,2021-10-24T09:06:44.037Z,151753.584,1635066246,full,ni_sequenzen,NI_Sequenzen,4,2,,,,,,,,,,,,
,Move,canvas.Screen,0_3_0_2_0_4,-999,skipped,,151690,,,151682.80000001192,,151690.40000003576,2021-10-24T09:06:44.043Z,151753.584,1635066246,full,ni_sequenzen,NI_Sequenzen,5,2,,,,,,,,,,,,
,Move,canvas.Screen,0_3_0_2_0_5,-999,skipped,,151695.40000003576,,,151682.80000001192,,151695.60000002384,2021-10-24T09:06:44.049Z,151753.584,1635066246,full,ni_sequenzen,NI_Sequenzen,6,2,,,,,,,,,,,,
,Move,canvas.Screen,0_3_0_2_0_6,-999,skipped,,151702,,,151682.80000001192,,151702.19999998808,2021-10-24T09:06:44.055Z,151753.584,1635066246,full,ni_sequenzen,NI_Sequenzen,7,2,,,,,,,,,,,,
,Move,canvas.Screen,0_3_0_2_0_7,-999,skipped,,151707.30000001192,,,151682.80000001192,,151707.40000003576,2021-10-24T09:06:44.060Z,151753.584,1635066246,full,ni_sequenzen,NI_Sequenzen,8,2,,,,,,,,,,,,
,Move,canvas.Screen,0_3_0_2_0_8,-999,skipped,,151713.10000002384,,,151682.80000001192,,151713.19999998808,2021-10-24T09:06:44.066Z,151753.584,1635066246,full,ni_sequenzen,NI_Sequenzen,9,2,,,,,,,,,,,,
,Move,canvas.Screen,0_3_0_2_0_9,-999,skipped,,151718.30000001192,,,151682.80000001192,,151718.40000003576,2021-10-24T09:06:44.071Z,151753.584,1635066246,full,ni_sequenzen,NI_Sequenzen,10,2,,,,,,,,,,,,
,Move,canvas.Screen,0_3_0_2_0_10,-999,skipped,,151721.5,,,151682.80000001192,,151721.60000002384,2021-10-24T09:06:44.075Z,151753.584,1635066246,full,ni_sequenzen,NI_Sequenzen,11,2,,,,,,,,,,,,
,Move,canvas.Screen,0_3_0_2_0_11,-999,skipped,,151724.40000003576,,,151682.80000001192,,151724.5,2021-10-24T09:06:44.077Z,151753.584,1635066246,full,ni_sequenzen,NI_Sequenzen,12,2,,,,,,,,,,,,
,Move,canvas.Screen,0_3_0_2_0_12,-999,skipped,,151728.19999998808,,,151682.80000001192,,151728.40000003576,2021-10-24T09:06:44.081Z,151753.584,1635066246,full,ni_sequenzen,NI_Sequenzen,13,2,,,,,,,,,,,,
,Move,canvas.Screen,0_3_0_2_0_13,-999,skipped,,151732.30000001192,,,151682.80000001192,,151732.5,2021-10-24T09:06:44.085Z,151753.584,1635066246,full,ni_sequenzen,NI_Sequenzen,14,2,,,,,,,,,,,,
,Move,canvas.Screen,0_3_0_2_0_14,-999,skipped,,151735.30000001192,,,151682.80000001192,,151735.40000003576,2021-10-24T09:06:44.088Z,151753.584,1635066246,full,ni_sequenzen,NI_Sequenzen,15,2,,,,,,,,,,,,
,Loop,flow.Loop,0_3_0_2_0,-999,completion,,146857.30000001192,146855.86,146872.57,151682.80000001192,4810.230000011914,151735.60000002384,2021-10-24T09:06:44.089Z,151753.584,1635066246,full,ni_sequenzen,NI_Sequenzen,,2,,,,,,,,,,,,
,Feedback,canvas.Screen,0_3_0_2_1,,timeout,,151738.30000001192,151737.13,151753.584,155735.249,4014.8850000000093,155736.5,2021-10-24T09:06:48.089Z,155768.469,1635066246,full,ni_sequenzen,NI_Sequenzen,,2,,,,,,,,,,,,
,Trial,flow.Sequence,0_3_0_2,,completion,,146824.90000003576,146855.86,146872.57,155735.249,8862.679000000004,155736.80000001192,2021-10-24T09:06:48.090Z,155785.135,1635066246,full,ni_sequenzen,NI_Sequenzen,,2,,,,,,,,,,,,
,Move,canvas.Screen,0_3_0_3_0_0,right,response,,155782.40000003576,155768.469,155785.135,159646.60000002384,3861.4650000238325,159647.60000002384,2021-10-24T09:06:52.001Z,159667.012,1635066246,full,ni_sequenzen,NI_Sequenzen,1,3,,,,,,,,,,,,
,Move,canvas.Screen,0_3_0_3_0_1,down,response,,159653.60000002384,159650.327,159667.012,159952.69999998808,285.6879999880912,159954,2021-10-24T09:06:52.307Z,159983.239,1635066246,full,ni_sequenzen,NI_Sequenzen,2,3,,,,,,,,,,,,
,Move,canvas.Screen,0_3_0_3_0_2,right,response,,159964,159950.052,159983.239,160261.40000003576,278.1610000357614,160262.5,2021-10-24T09:06:52.615Z,160283.129,1635066246,full,ni_sequenzen,NI_Sequenzen,3,3,,,,,,,,,,,,
,Move,canvas.Screen,0_3_0_3_0_3,down,response,,160269,160266.548,160283.129,160580.5,297.37100000001374,160581.40000003576,2021-10-24T09:06:52.934Z,160666.949,1635066246,full,ni_sequenzen,NI_Sequenzen,4,3,,,,,,,,,,,,
,Move,canvas.Screen,0_3_0_3_0_4,-999,skipped,,160587.30000001192,,,160580.5,,160587.60000002384,2021-10-24T09:06:52.940Z,160666.949,1635066246,full,ni_sequenzen,NI_Sequenzen,5,3,,,,,,,,,,,,
,Move,canvas.Screen,0_3_0_3_0_5,-999,skipped,,160592.69999998808,,,160580.5,,160592.90000003576,2021-10-24T09:06:52.946Z,160666.949,1635066246,full,ni_sequenzen,NI_Sequenzen,6,3,,,,,,,,,,,,
,Move,canvas.Screen,0_3_0_3_0_6,-999,skipped,,160599.69999998808,,,160580.5,,160599.90000003576,2021-10-24T09:06:52.953Z,160666.949,1635066246,full,ni_sequenzen,NI_Sequenzen,7,3,,,,,,,,,,,,
,Move,canvas.Screen,0_3_0_3_0_7,-999,skipped,,160604.90000003576,,,160580.5,,160605,2021-10-24T09:06:52.958Z,160666.949,1635066246,full,ni_sequenzen,NI_Sequenzen,8,3,,,,,,,,,,,,
,Move,canvas.Screen,0_3_0_3_0_8,-999,skipped,,160610.19999998808,,,160580.5,,160610.40000003576,2021-10-24T09:06:52.963Z,160666.949,1635066246,full,ni_sequenzen,NI_Sequenzen,9,3,,,,,,,,,,,,
,Move,canvas.Screen,0_3_0_3_0_9,-999,skipped,,160618,,,160580.5,,160618.40000003576,2021-10-24T09:06:52.971Z,160666.949,1635066246,full,ni_sequenzen,NI_Sequenzen,10,3,,,,,,,,,,,,
,Move,canvas.Screen,0_3_0_3_0_10,-999,skipped,,160626.90000003576,,,160580.5,,160627.10000002384,2021-10-24T09:06:52.980Z,160666.949,1635066246,full,ni_sequenzen,NI_Sequenzen,11,3,,,,,,,,,,,,
,Move,canvas.Screen,0_3_0_3_0_11,-999,skipped,,160632,,,160580.5,,160632.10000002384,2021-10-24T09:06:52.985Z,160666.949,1635066246,full,ni_sequenzen,NI_Sequenzen,12,3,,,,,,,,,,,,
,Move,canvas.Screen,0_3_0_3_0_12,-999,skipped,,160637.80000001192,,,160580.5,,160638,2021-10-24T09:06:52.991Z,160666.949,1635066246,full,ni_sequenzen,NI_Sequenzen,13,3,,,,,,,,,,,,
,Move,canvas.Screen,0_3_0_3_0_13,-999,skipped,,160644.69999998808,,,160580.5,,160644.90000003576,2021-10-24T09:06:52.998Z,160666.949,1635066246,full,ni_sequenzen,NI_Sequenzen,14,3,,,,,,,,,,,,
,Move,canvas.Screen,0_3_0_3_0_14,-999,skipped,,160650.10000002384,,,160580.5,,160650.60000002384,2021-10-24T09:06:53.004Z,160666.949,1635066246,full,ni_sequenzen,NI_Sequenzen,15,3,,,,,,,,,,,,
,Loop,flow.Loop,0_3_0_3_0,-999,completion,,155773.80000001192,155768.469,155785.135,160580.5,4795.364999999991,160651.19999998808,2021-10-24T09:06:53.004Z,160666.949,1635066246,full,ni_sequenzen,NI_Sequenzen,,3,,,,,,,,,,,,
,Feedback,canvas.Screen,0_3_0_3_1,,timeout,,160658.5,160649.757,160666.949,164647.875,4014.159000000014,164649.19999998808,2021-10-24T09:06:57.002Z,164681.108,1635066246,full,ni_sequenzen,NI_Sequenzen,,3,,,,,,,,,,,,
,Trial,flow.Sequence,0_3_0_3,,completion,,155737.40000003576,155768.469,155785.135,164647.875,8862.73999999999,164649.5,2021-10-24T09:06:57.002Z,164697.768,1635066246,full,ni_sequenzen,NI_Sequenzen,,3,,,,,,,,,,,,
,Move,canvas.Screen,0_3_0_4_0_0,right,response,,164694.30000001192,164681.108,164697.768,170352.5,5654.731999999989,170353.69999998808,2021-10-24T09:07:02.707Z,170361.901,1635066246,full,ni_sequenzen,NI_Sequenzen,1,4,,,,,,,,,,,,
,Move,canvas.Screen,0_3_0_4_0_1,down,response,,170358.69999998808,170345.277,170361.901,170594.60000002384,232.69900002382929,170596,2021-10-24T09:07:02.949Z,170628.368,1635066246,full,ni_sequenzen,NI_Sequenzen,2,4,,,,,,,,,,,,
,Move,canvas.Screen,0_3_0_4_0_2,right,response,,170602.30000001192,170595.218,170628.368,170834.10000002384,205.7320000238542,170835.40000003576,2021-10-24T09:07:03.188Z,170845.054,1635066246,full,ni_sequenzen,NI_Sequenzen,3,4,,,,,,,,,,,,
,Move,canvas.Screen,0_3_0_4_0_3,down,response,,170842.60000002384,170828.408,170845.054,171091.40000003576,246.34600003575906,171092.5,2021-10-24T09:07:03.445Z,171211.574,1635066246,full,ni_sequenzen,NI_Sequenzen,4,4,,,,,,,,,,,,
,Move,canvas.Screen,0_3_0_4_0_4,-999,skipped,,171100.69999998808,,,171091.40000003576,,171101.10000002384,2021-10-24T09:07:03.454Z,171211.574,1635066246,full,ni_sequenzen,NI_Sequenzen,5,4,,,,,,,,,,,,
,Move,canvas.Screen,0_3_0_4_0_5,-999,skipped,,171108.69999998808,,,171091.40000003576,,171109.10000002384,2021-10-24T09:07:03.462Z,171211.574,1635066246,full,ni_sequenzen,NI_Sequenzen,6,4,,,,,,,,,,,,
,Move,canvas.Screen,0_3_0_4_0_6,-999,skipped,,171122.19999998808,,,171091.40000003576,,171122.5,2021-10-24T09:07:03.475Z,171211.574,1635066246,full,ni_sequenzen,NI_Sequenzen,7,4,,,,,,,,,,,,
,Move,canvas.Screen,0_3_0_4_0_7,-999,skipped,,171127.60000002384,,,171091.40000003576,,171127.80000001192,2021-10-24T09:07:03.481Z,171211.574,1635066246,full,ni_sequenzen,NI_Sequenzen,8,4,,,,,,,,,,,,
,Move,canvas.Screen,0_3_0_4_0_8,-999,skipped,,171137.10000002384,,,171091.40000003576,,171137.69999998808,2021-10-24T09:07:03.491Z,171211.574,1635066246,full,ni_sequenzen,NI_Sequenzen,9,4,,,,,,,,,,,,
,Move,canvas.Screen,0_3_0_4_0_9,-999,skipped,,171148,,,171091.40000003576,,171148.30000001192,2021-10-24T09:07:03.501Z,171211.574,1635066246,full,ni_sequenzen,NI_Sequenzen,10,4,,,,,,,,,,,,
,Move,canvas.Screen,0_3_0_4_0_10,-999,skipped,,171155.80000001192,,,171091.40000003576,,171156.19999998808,2021-10-24T09:07:03.509Z,171211.574,1635066246,full,ni_sequenzen,NI_Sequenzen,11,4,,,,,,,,,,,,
,Move,canvas.Screen,0_3_0_4_0_11,-999,skipped,,171162.5,,,171091.40000003576,,171162.90000003576,2021-10-24T09:07:03.516Z,171211.574,1635066246,full,ni_sequenzen,NI_Sequenzen,12,4,,,,,,,,,,,,
,Move,canvas.Screen,0_3_0_4_0_12,-999,skipped,,171171.90000003576,,,171091.40000003576,,171172.19999998808,2021-10-24T09:07:03.525Z,171211.574,1635066246,full,ni_sequenzen,NI_Sequenzen,13,4,,,,,,,,,,,,
,Move,canvas.Screen,0_3_0_4_0_13,-999,skipped,,171180.69999998808,,,171091.40000003576,,171181,2021-10-24T09:07:03.534Z,171211.574,1635066246,full,ni_sequenzen,NI_Sequenzen,14,4,,,,,,,,,,,,
,Move,canvas.Screen,0_3_0_4_0_14,-999,skipped,,171190.30000001192,,,171091.40000003576,,171190.5,2021-10-24T09:07:03.543Z,171211.574,1635066246,full,ni_sequenzen,NI_Sequenzen,15,4,,,,,,,,,,,,
,Loop,flow.Loop,0_3_0_4_0,-999,completion,,164684.5,164681.108,164697.768,171091.40000003576,6393.632000035752,171190.90000003576,2021-10-24T09:07:03.544Z,171211.574,1635066246,full,ni_sequenzen,NI_Sequenzen,,4,,,,,,,,,,,,
,Feedback,canvas.Screen,0_3_0_4_1,,timeout,,171195.90000003576,171194.823,171211.574,175193.031,4014.765000000014,175194.10000002384,2021-10-24T09:07:07.547Z,175226.339,1635066246,full,ni_sequenzen,NI_Sequenzen,,4,,,,,,,,,,,,
,Trial,flow.Sequence,0_3_0_4,,completion,,164650.40000003576,164681.108,164697.768,175193.031,10495.262999999977,175194.5,2021-10-24T09:07:07.547Z,175242.941,1635066246,full,ni_sequenzen,NI_Sequenzen,,4,,,,,,,,,,,,
,Move,canvas.Screen,0_3_0_5_0_0,right,response,,175237.69999998808,175226.339,175242.941,177809.5,2566.5590000000084,177810.40000003576,2021-10-24T09:07:10.163Z,177825.099,1635066246,full,ni_sequenzen,NI_Sequenzen,1,5,,,,,,,,,,,,
,Move,canvas.Screen,0_3_0_5_0_1,down,response,,177813.60000002384,177808.557,177825.099,178055.40000003576,230.30100003577536,178056.60000002384,2021-10-24T09:07:10.409Z,178075.261,1635066246,full,ni_sequenzen,NI_Sequenzen,2,5,,,,,,,,,,,,
,Move,canvas.Screen,0_3_0_5_0_2,right,response,,178062.60000002384,178058.416,178075.261,178295.90000003576,220.63900003576418,178297.10000002384,2021-10-24T09:07:10.650Z,178324.916,1635066246,full,ni_sequenzen,NI_Sequenzen,3,5,,,,,,,,,,,,
,Move,canvas.Screen,0_3_0_5_0_3,down,response,,178304.90000003576,178291.739,178324.916,178592.60000002384,267.6840000238444,178593.60000002384,2021-10-24T09:07:10.947Z,178658.128,1635066246,full,ni_sequenzen,NI_Sequenzen,4,5,,,,,,,,,,,,
,Move,canvas.Screen,0_3_0_5_0_4,-999,skipped,,178599.5,,,178592.60000002384,,178599.90000003576,2021-10-24T09:07:10.953Z,178658.128,1635066246,full,ni_sequenzen,NI_Sequenzen,5,5,,,,,,,,,,,,
,Move,canvas.Screen,0_3_0_5_0_5,-999,skipped,,178605.10000002384,,,178592.60000002384,,178605.30000001192,2021-10-24T09:07:10.958Z,178658.128,1635066246,full,ni_sequenzen,NI_Sequenzen,6,5,,,,,,,,,,,,
,Move,canvas.Screen,0_3_0_5_0_6,-999,skipped,,178610.80000001192,,,178592.60000002384,,178611,2021-10-24T09:07:10.964Z,178658.128,1635066246,full,ni_sequenzen,NI_Sequenzen,7,5,,,,,,,,,,,,
,Move,canvas.Screen,0_3_0_5_0_7,-999,skipped,,178617.69999998808,,,178592.60000002384,,178617.90000003576,2021-10-24T09:07:10.971Z,178658.128,1635066246,full,ni_sequenzen,NI_Sequenzen,8,5,,,,,,,,,,,,
,Move,canvas.Screen,0_3_0_5_0_8,-999,skipped,,178622.60000002384,,,178592.60000002384,,178622.80000001192,2021-10-24T09:07:10.976Z,178658.128,1635066246,full,ni_sequenzen,NI_Sequenzen,9,5,,,,,,,,,,,,
,Move,canvas.Screen,0_3_0_5_0_9,-999,skipped,,178627.10000002384,,,178592.60000002384,,178627.30000001192,2021-10-24T09:07:10.980Z,178658.128,1635066246,full,ni_sequenzen,NI_Sequenzen,10,5,,,,,,,,,,,,
,Move,canvas.Screen,0_3_0_5_0_10,-999,skipped,,178630.90000003576,,,178592.60000002384,,178631.10000002384,2021-10-24T09:07:10.984Z,178658.128,1635066246,full,ni_sequenzen,NI_Sequenzen,11,5,,,,,,,,,,,,
,Move,canvas.Screen,0_3_0_5_0_11,-999,skipped,,178633.90000003576,,,178592.60000002384,,178634,2021-10-24T09:07:10.987Z,178658.128,1635066246,full,ni_sequenzen,NI_Sequenzen,12,5,,,,,,,,,,,,
,Move,canvas.Screen,0_3_0_5_0_12,-999,skipped,,178636.90000003576,,,178592.60000002384,,178637,2021-10-24T09:07:10.990Z,178658.128,1635066246,full,ni_sequenzen,NI_Sequenzen,13,5,,,,,,,,,,,,
,Move,canvas.Screen,0_3_0_5_0_13,-999,skipped,,178640.10000002384,,,178592.60000002384,,178640.19999998808,2021-10-24T09:07:10.993Z,178658.128,1635066246,full,ni_sequenzen,NI_Sequenzen,14,5,,,,,,,,,,,,
,Move,canvas.Screen,0_3_0_5_0_14,-999,skipped,,178644.19999998808,,,178592.60000002384,,178644.40000003576,2021-10-24T09:07:10.997Z,178658.128,1635066246,full,ni_sequenzen,NI_Sequenzen,15,5,,,,,,,,,,,,
,Loop,flow.Loop,0_3_0_5_0,-999,completion,,175228.90000003576,175226.339,175242.941,178592.60000002384,3349.6590000238502,178644.60000002384,2021-10-24T09:07:10.998Z,178658.128,1635066246,full,ni_sequenzen,NI_Sequenzen,,5,,,,,,,,,,,,
,Feedback,canvas.Screen,0_3_0_5_1,,timeout,,178647.19999998808,178641.522,178658.128,182639.726,4014.828999999998,182640.80000001192,2021-10-24T09:07:14.994Z,182672.957,1635066246,full,ni_sequenzen,NI_Sequenzen,,5,,,,,,,,,,,,
,Trial,flow.Sequence,0_3_0_5,,completion,,175195.10000002384,175226.339,175242.941,182639.726,7396.7850000000035,182641.19999998808,2021-10-24T09:07:14.994Z,182689.562,1635066246,full,ni_sequenzen,NI_Sequenzen,,5,,,,,,,,,,,,
,Move,canvas.Screen,0_3_0_6_0_0,down,response,,182684.19999998808,182672.957,182689.562,186261.40000003576,3571.8380000357574,186262.5,2021-10-24T09:07:18.615Z,186288.053,1635066246,full,ni_sequenzen,NI_Sequenzen,1,6,,,,,,,,,,,,
,Move,canvas.Screen,0_3_0_6_0_1,left,response,,186270.69999998808,186254.911,186288.053,186745.19999998808,457.14699998806464,186746.30000001192,2021-10-24T09:07:19.099Z,186771.171,1635066246,full,ni_sequenzen,NI_Sequenzen,2,6,,,,,,,,,,,,
,Move,canvas.Screen,0_3_0_6_0_2,down,response,,186755.69999998808,186754.573,186771.171,187166.60000002384,395.42900002383976,187167.60000002384,2021-10-24T09:07:19.521Z,187204.23,1635066246,full,ni_sequenzen,NI_Sequenzen,3,6,,,,,,,,,,,,
,Move,canvas.Screen,0_3_0_6_0_3,left,response,,187173.19999998808,187171.054,187204.23,187583,378.7699999999895,187584.19999998808,2021-10-24T09:07:19.937Z,187654.076,1635066246,full,ni_sequenzen,NI_Sequenzen,4,6,,,,,,,,,,,,
,Move,canvas.Screen,0_3_0_6_0_4,-999,skipped,,187592.30000001192,,,187583,,187592.69999998808,2021-10-24T09:07:19.946Z,187654.076,1635066246,full,ni_sequenzen,NI_Sequenzen,5,6,,,,,,,,,,,,
,Move,canvas.Screen,0_3_0_6_0_5,-999,skipped,,187598.90000003576,,,187583,,187599,2021-10-24T09:07:19.952Z,187654.076,1635066246,full,ni_sequenzen,NI_Sequenzen,6,6,,,,,,,,,,,,
,Move,canvas.Screen,0_3_0_6_0_6,-999,skipped,,187606,,,187583,,187606.19999998808,2021-10-24T09:07:19.959Z,187654.076,1635066246,full,ni_sequenzen,NI_Sequenzen,7,6,,,,,,,,,,,,
,Move,canvas.Screen,0_3_0_6_0_7,-999,skipped,,187614.80000001192,,,187583,,187615.10000002384,2021-10-24T09:07:19.968Z,187654.076,1635066246,full,ni_sequenzen,NI_Sequenzen,8,6,,,,,,,,,,,,
,Move,canvas.Screen,0_3_0_6_0_8,-999,skipped,,187620.69999998808,,,187583,,187620.80000001192,2021-10-24T09:07:19.974Z,187654.076,1635066246,full,ni_sequenzen,NI_Sequenzen,9,6,,,,,,,,,,,,
,Move,canvas.Screen,0_3_0_6_0_9,-999,skipped,,187625.69999998808,,,187583,,187626,2021-10-24T09:07:19.979Z,187654.076,1635066246,full,ni_sequenzen,NI_Sequenzen,10,6,,,,,,,,,,,,
,Move,canvas.Screen,0_3_0_6_0_10,-999,skipped,,187630.40000003576,,,187583,,187630.5,2021-10-24T09:07:19.983Z,187654.076,1635066246,full,ni_sequenzen,NI_Sequenzen,11,6,,,,,,,,,,,,
,Move,canvas.Screen,0_3_0_6_0_11,-999,skipped,,187633.5,,,187583,,187633.60000002384,2021-10-24T09:07:19.987Z,187654.076,1635066246,full,ni_sequenzen,NI_Sequenzen,12,6,,,,,,,,,,,,
,Move,canvas.Screen,0_3_0_6_0_12,-999,skipped,,187636.40000003576,,,187583,,187636.60000002384,2021-10-24T09:07:19.989Z,187654.076,1635066246,full,ni_sequenzen,NI_Sequenzen,13,6,,,,,,,,,,,,
,Move,canvas.Screen,0_3_0_6_0_13,-999,skipped,,187640.40000003576,,,187583,,187640.5,2021-10-24T09:07:19.993Z,187654.076,1635066246,full,ni_sequenzen,NI_Sequenzen,14,6,,,,,,,,,,,,
,Move,canvas.Screen,0_3_0_6_0_14,-999,skipped,,187643.5,,,187583,,187643.69999998808,2021-10-24T09:07:19.997Z,187654.076,1635066246,full,ni_sequenzen,NI_Sequenzen,15,6,,,,,,,,,,,,
,Loop,flow.Loop,0_3_0_6_0,-999,completion,,182680.40000003576,182672.957,182689.562,187583,4893.437999999995,187643.90000003576,2021-10-24T09:07:19.997Z,187654.076,1635066246,full,ni_sequenzen,NI_Sequenzen,,6,,,,,,,,,,,,
,Feedback,canvas.Screen,0_3_0_6_1,,timeout,,187646.40000003576,187637.429,187654.076,191635.643,4014.8129999999946,191637.10000002384,2021-10-24T09:07:23.990Z,191668.889,1635066246,full,ni_sequenzen,NI_Sequenzen,,6,,,,,,,,,,,,
,Trial,flow.Sequence,0_3_0_6,,completion,,182641.60000002384,182672.957,182689.562,191635.643,8946.081000000006,191637.5,2021-10-24T09:07:23.990Z,191685.486,1635066246,full,ni_sequenzen,NI_Sequenzen,,6,,,,,,,,,,,,
,Move,canvas.Screen,0_3_0_7_0_0,down,response,,191683.19999998808,191668.889,191685.486,193333.19999998808,1647.7139999880746,193334.30000001192,2021-10-24T09:07:25.687Z,193368.053,1635066246,full,ni_sequenzen,NI_Sequenzen,1,7,,,,,,,,,,,,
,Move,canvas.Screen,0_3_0_7_0_1,right,response,,193342.19999998808,193334.925,193368.053,193814.19999998808,446.14699998806464,193815.5,2021-10-24T09:07:26.168Z,193834.542,1635066246,full,ni_sequenzen,NI_Sequenzen,2,7,,,,,,,,,,,,
,Move,canvas.Screen,0_3_0_7_0_2,right,response,,193825.60000002384,193817.921,193834.542,195861.40000003576,2026.858000035776,195862.60000002384,2021-10-24T09:07:28.215Z,195883.865,1635066246,full,ni_sequenzen,NI_Sequenzen,3,7,,,,,,,,,,,,
,Move,canvas.Screen,0_3_0_7_0_3,down,response,,195868.5,195867.206,195883.865,196132,248.1350000000093,196133.19999998808,2021-10-24T09:07:28.486Z,196250.126,1635066246,full,ni_sequenzen,NI_Sequenzen,4,7,,,,,,,,,,,,
,Move,canvas.Screen,0_3_0_7_0_4,-999,skipped,,196139.40000003576,,,196132,,196139.90000003576,2021-10-24T09:07:28.493Z,196250.126,1635066246,full,ni_sequenzen,NI_Sequenzen,5,7,,,,,,,,,,,,
,Move,canvas.Screen,0_3_0_7_0_5,-999,skipped,,196147.80000001192,,,196132,,196148,2021-10-24T09:07:28.501Z,196250.126,1635066246,full,ni_sequenzen,NI_Sequenzen,6,7,,,,,,,,,,,,
,Move,canvas.Screen,0_3_0_7_0_6,-999,skipped,,196152.90000003576,,,196132,,196153.10000002384,2021-10-24T09:07:28.506Z,196250.126,1635066246,full,ni_sequenzen,NI_Sequenzen,7,7,,,,,,,,,,,,
,Move,canvas.Screen,0_3_0_7_0_7,-999,skipped,,196158.60000002384,,,196132,,196158.80000001192,2021-10-24T09:07:28.512Z,196250.126,1635066246,full,ni_sequenzen,NI_Sequenzen,8,7,,,,,,,,,,,,
,Move,canvas.Screen,0_3_0_7_0_8,-999,skipped,,196165.40000003576,,,196132,,196165.69999998808,2021-10-24T09:07:28.519Z,196250.126,1635066246,full,ni_sequenzen,NI_Sequenzen,9,7,,,,,,,,,,,,
,Move,canvas.Screen,0_3_0_7_0_9,-999,skipped,,196171.69999998808,,,196132,,196171.80000001192,2021-10-24T09:07:28.525Z,196250.126,1635066246,full,ni_sequenzen,NI_Sequenzen,10,7,,,,,,,,,,,,
,Move,canvas.Screen,0_3_0_7_0_10,-999,skipped,,196181.19999998808,,,196132,,196181.60000002384,2021-10-24T09:07:28.534Z,196250.126,1635066246,full,ni_sequenzen,NI_Sequenzen,11,7,,,,,,,,,,,,
,Move,canvas.Screen,0_3_0_7_0_11,-999,skipped,,196188.19999998808,,,196132,,196188.5,2021-10-24T09:07:28.541Z,196250.126,1635066246,full,ni_sequenzen,NI_Sequenzen,12,7,,,,,,,,,,,,
,Move,canvas.Screen,0_3_0_7_0_12,-999,skipped,,196193.5,,,196132,,196193.60000002384,2021-10-24T09:07:28.547Z,196250.126,1635066246,full,ni_sequenzen,NI_Sequenzen,13,7,,,,,,,,,,,,
,Move,canvas.Screen,0_3_0_7_0_13,-999,skipped,,196198.5,,,196132,,196198.60000002384,2021-10-24T09:07:28.552Z,196250.126,1635066246,full,ni_sequenzen,NI_Sequenzen,14,7,,,,,,,,,,,,
,Move,canvas.Screen,0_3_0_7_0_14,-999,skipped,,196203.5,,,196132,,196203.69999998808,2021-10-24T09:07:28.557Z,196250.126,1635066246,full,ni_sequenzen,NI_Sequenzen,15,7,,,,,,,,,,,,
,Loop,flow.Loop,0_3_0_7_0,-999,completion,,191678.40000003576,191668.889,191685.486,196132,4446.513999999996,196204,2021-10-24T09:07:28.557Z,196250.126,1635066246,full,ni_sequenzen,NI_Sequenzen,,7,,,,,,,,,,,,
,Feedback,canvas.Screen,0_3_0_7_1,,timeout,,196241.10000002384,196233.607,196250.126,200231.74,4014.8580000000075,200232.80000001192,2021-10-24T09:07:32.586Z,200264.984,1635066246,full,ni_sequenzen,NI_Sequenzen,,7,,,,,,,,,,,,
,Trial,flow.Sequence,0_3_0_7,,completion,,191638.40000003576,191668.889,191685.486,200231.74,8546.253999999986,200233.10000002384,2021-10-24T09:07:32.586Z,200281.629,1635066246,full,ni_sequenzen,NI_Sequenzen,,7,,,,,,,,,,,,
,Move,canvas.Screen,0_3_0_8_0_0,right,response,,200281.40000003576,200264.984,200281.629,201583.10000002384,1301.4710000238556,201584.10000002384,2021-10-24T09:07:33.937Z,201614.351,1635066246,full,ni_sequenzen,NI_Sequenzen,1,8,,,,,,,,,,,,
,Move,canvas.Screen,0_3_0_8_0_1,down,response,,201589.69999998808,201581.178,201614.351,202433.19999998808,818.848999988084,202434.19999998808,2021-10-24T09:07:34.787Z,202447.384,1635066246,full,ni_sequenzen,NI_Sequenzen,2,8,,,,,,,,,,,,
,Move,canvas.Screen,0_3_0_8_0_2,right,response,,202440.10000002384,202430.706,202447.384,202664.5,217.11600000000908,202666.30000001192,2021-10-24T09:07:35.019Z,202680.51,1635066246,full,ni_sequenzen,NI_Sequenzen,3,8,,,,,,,,,,,,
,Move,canvas.Screen,0_3_0_8_0_3,down,response,,202675.10000002384,202663.974,202680.51,202945.60000002384,265.09000002383254,202946.69999998808,2021-10-24T09:07:35.300Z,203030.374,1635066246,full,ni_sequenzen,NI_Sequenzen,4,8,,,,,,,,,,,,
,Move,canvas.Screen,0_3_0_8_0_4,-999,skipped,,202952.30000001192,,,202945.60000002384,,202952.5,2021-10-24T09:07:35.305Z,203030.374,1635066246,full,ni_sequenzen,NI_Sequenzen,5,8,,,,,,,,,,,,
,Move,canvas.Screen,0_3_0_8_0_5,-999,skipped,,202959.69999998808,,,202945.60000002384,,202959.90000003576,2021-10-24T09:07:35.313Z,203030.374,1635066246,full,ni_sequenzen,NI_Sequenzen,6,8,,,,,,,,,,,,
,Move,canvas.Screen,0_3_0_8_0_6,-999,skipped,,202965.19999998808,,,202945.60000002384,,202965.40000003576,2021-10-24T09:07:35.318Z,203030.374,1635066246,full,ni_sequenzen,NI_Sequenzen,7,8,,,,,,,,,,,,
,Move,canvas.Screen,0_3_0_8_0_7,-999,skipped,,202974.30000001192,,,202945.60000002384,,202974.60000002384,2021-10-24T09:07:35.327Z,203030.374,1635066246,full,ni_sequenzen,NI_Sequenzen,8,8,,,,,,,,,,,,
,Move,canvas.Screen,0_3_0_8_0_8,-999,skipped,,202981.60000002384,,,202945.60000002384,,202981.80000001192,2021-10-24T09:07:35.335Z,203030.374,1635066246,full,ni_sequenzen,NI_Sequenzen,9,8,,,,,,,,,,,,
,Move,canvas.Screen,0_3_0_8_0_9,-999,skipped,,202987.60000002384,,,202945.60000002384,,202987.80000001192,2021-10-24T09:07:35.341Z,203030.374,1635066246,full,ni_sequenzen,NI_Sequenzen,10,8,,,,,,,,,,,,
,Move,canvas.Screen,0_3_0_8_0_10,-999,skipped,,202993.30000001192,,,202945.60000002384,,202993.60000002384,2021-10-24T09:07:35.346Z,203030.374,1635066246,full,ni_sequenzen,NI_Sequenzen,11,8,,,,,,,,,,,,
,Move,canvas.Screen,0_3_0_8_0_11,-999,skipped,,202999.60000002384,,,202945.60000002384,,202999.80000001192,2021-10-24T09:07:35.353Z,203030.374,1635066246,full,ni_sequenzen,NI_Sequenzen,12,8,,,,,,,,,,,,
,Move,canvas.Screen,0_3_0_8_0_12,-999,skipped,,203002.90000003576,,,202945.60000002384,,203003,2021-10-24T09:07:35.356Z,203030.374,1635066246,full,ni_sequenzen,NI_Sequenzen,13,8,,,,,,,,,,,,
,Move,canvas.Screen,0_3_0_8_0_13,-999,skipped,,203006,,,202945.60000002384,,203006,2021-10-24T09:07:35.359Z,203030.374,1635066246,full,ni_sequenzen,NI_Sequenzen,14,8,,,,,,,,,,,,
,Move,canvas.Screen,0_3_0_8_0_14,-999,skipped,,203009.19999998808,,,202945.60000002384,,203009.40000003576,2021-10-24T09:07:35.362Z,203030.374,1635066246,full,ni_sequenzen,NI_Sequenzen,15,8,,,,,,,,,,,,
