meta,sender,sender_type,sender_id,response,ended_on,instrCount,time_run,time_render,time_show,time_end,duration,time_commit,timestamp,time_switch,openLabId,type,task,project,move,trialN,blockN_Train,blockN,moveCount,currPP,points,movesTrial,visitedFields,diff,reward,Strategie,Zweck,Probleme
[object Object],Screen_1,canvas.Screen,0_0_0_0,cont,response,1,1025,1016.499,1049.871,14681.600000023842,13631.729000023843,14683.899999976158,2021-10-29T05:52:20.953Z,14801.246,1635486710,full,ni_sequenzen,NI_Sequenzen,,,,,,,,,,,,,,
,Screen_2,canvas.Screen,0_0_0_1,cont,response,1,14794.100000023842,14784.672,14801.246,29536.200000047684,14734.954000047685,29536.799999952316,2021-10-29T05:52:35.794Z,29651.56,1635486710,full,ni_sequenzen,NI_Sequenzen,,,,,,,,,,,,,,
,Screen_3,canvas.Screen,0_0_0_2,cont,response,1,29618.799999952316,29602.513,29651.56,40285.799999952316,10634.239999952315,40286.299999952316,2021-10-29T05:52:46.543Z,40303.945,1635486710,full,ni_sequenzen,NI_Sequenzen,,,,,,,,,,,,,,
,Screen_4,canvas.Screen,0_0_0_3,cont,response,1,40288.89999997616,40287.047,40303.945,47365.5,7061.555,47366.200000047684,2021-10-29T05:52:53.623Z,47488.092,1635486710,full,ni_sequenzen,NI_Sequenzen,,,,,,,,,,,,,,
,Sequence,flow.Sequence,0_0_0,,completion,1,944.5,1016.499,1049.871,47365.5,46315.629,47368.5,2021-10-29T05:52:53.626Z,47488.092,1635486710,full,ni_sequenzen,NI_Sequenzen,,,,,,,,,,,,,,
,Screen_1,canvas.Screen,0_0_1_0,,skipped,2,47370.10000002384,,,47370.10000002384,,47370.200000047684,2021-10-29T05:52:53.627Z,47488.092,1635486710,full,ni_sequenzen,NI_Sequenzen,,,,,,,,,,,,,,
,Screen_2,canvas.Screen,0_0_1_1,,skipped,2,47371,,,47370.10000002384,,47371.200000047684,2021-10-29T05:52:53.628Z,47488.092,1635486710,full,ni_sequenzen,NI_Sequenzen,,,,,,,,,,,,,,
,Screen_3,canvas.Screen,0_0_1_2,,skipped,2,47372.39999997616,,,47370.10000002384,,47372.5,2021-10-29T05:52:53.629Z,47488.092,1635486710,full,ni_sequenzen,NI_Sequenzen,,,,,,,,,,,,,,
,Screen_4,canvas.Screen,0_0_1_3,,skipped,2,47373.39999997616,,,47370.10000002384,,47373.60000002384,2021-10-29T05:52:53.631Z,47488.092,1635486710,full,ni_sequenzen,NI_Sequenzen,,,,,,,,,,,,,,
,Sequence,flow.Sequence,0_0_1,,completion,2,47369,,,47370.10000002384,,47373.700000047684,2021-10-29T05:52:53.631Z,47488.092,1635486710,full,ni_sequenzen,NI_Sequenzen,,,,,,,,,,,,,,
,Screen_1,canvas.Screen,0_0_2_0,,skipped,3,47374.799999952316,,,47374.799999952316,,47374.89999997616,2021-10-29T05:52:53.632Z,47488.092,1635486710,full,ni_sequenzen,NI_Sequenzen,,,,,,,,,,,,,,
,Screen_2,canvas.Screen,0_0_2_1,,skipped,3,47375.60000002384,,,47374.799999952316,,47375.700000047684,2021-10-29T05:52:53.633Z,47488.092,1635486710,full,ni_sequenzen,NI_Sequenzen,,,,,,,,,,,,,,
,Screen_3,canvas.Screen,0_0_2_2,,skipped,3,47376.5,,,47374.799999952316,,47376.700000047684,2021-10-29T05:52:53.634Z,47488.092,1635486710,full,ni_sequenzen,NI_Sequenzen,,,,,,,,,,,,,,
,Screen_4,canvas.Screen,0_0_2_3,,skipped,3,47377.5,,,47374.799999952316,,47377.5,2021-10-29T05:52:53.635Z,47488.092,1635486710,full,ni_sequenzen,NI_Sequenzen,,,,,,,,,,,,,,
,Sequence,flow.Sequence,0_0_2,,completion,3,47374.10000002384,,,47374.799999952316,,47377.700000047684,2021-10-29T05:52:53.635Z,47488.092,1635486710,full,ni_sequenzen,NI_Sequenzen,,,,,,,,,,,,,,
,Screen_1,canvas.Screen,0_0_3_0,,skipped,4,47378.700000047684,,,47378.700000047684,,47378.799999952316,2021-10-29T05:52:53.636Z,47488.092,1635486710,full,ni_sequenzen,NI_Sequenzen,,,,,,,,,,,,,,
,Screen_2,canvas.Screen,0_0_3_1,,skipped,4,47379.39999997616,,,47378.700000047684,,47380.10000002384,2021-10-29T05:52:53.637Z,47488.092,1635486710,full,ni_sequenzen,NI_Sequenzen,,,,,,,,,,,,,,
,Screen_3,canvas.Screen,0_0_3_2,,skipped,4,47381,,,47378.700000047684,,47381.10000002384,2021-10-29T05:52:53.638Z,47488.092,1635486710,full,ni_sequenzen,NI_Sequenzen,,,,,,,,,,,,,,
,Screen_4,canvas.Screen,0_0_3_3,,skipped,4,47381.799999952316,,,47378.700000047684,,47381.799999952316,2021-10-29T05:52:53.639Z,47488.092,1635486710,full,ni_sequenzen,NI_Sequenzen,,,,,,,,,,,,,,
,Sequence,flow.Sequence,0_0_3,,completion,4,47378.10000002384,,,47378.700000047684,,47382,2021-10-29T05:52:53.639Z,47488.092,1635486710,full,ni_sequenzen,NI_Sequenzen,,,,,,,,,,,,,,
,Screen_1,canvas.Screen,0_0_4_0,,skipped,5,47382.89999997616,,,47382.89999997616,,47382.89999997616,2021-10-29T05:52:53.640Z,47488.092,1635486710,full,ni_sequenzen,NI_Sequenzen,,,,,,,,,,,,,,
,Screen_2,canvas.Screen,0_0_4_1,,skipped,5,47383.60000002384,,,47382.89999997616,,47383.60000002384,2021-10-29T05:52:53.641Z,47488.092,1635486710,full,ni_sequenzen,NI_Sequenzen,,,,,,,,,,,,,,
,Screen_3,canvas.Screen,0_0_4_2,,skipped,5,47384.39999997616,,,47382.89999997616,,47384.5,2021-10-29T05:52:53.642Z,47488.092,1635486710,full,ni_sequenzen,NI_Sequenzen,,,,,,,,,,,,,,
,Screen_4,canvas.Screen,0_0_4_3,,skipped,5,47385.299999952316,,,47382.89999997616,,47385.299999952316,2021-10-29T05:52:53.642Z,47488.092,1635486710,full,ni_sequenzen,NI_Sequenzen,,,,,,,,,,,,,,
,Sequence,flow.Sequence,0_0_4,,completion,5,47382.299999952316,,,47382.89999997616,,47385.39999997616,2021-10-29T05:52:53.642Z,47488.092,1635486710,full,ni_sequenzen,NI_Sequenzen,,,,,,,,,,,,,,
,Screen_1,canvas.Screen,0_0_5_0,,skipped,6,47386.39999997616,,,47386.39999997616,,47386.39999997616,2021-10-29T05:52:53.643Z,47488.092,1635486710,full,ni_sequenzen,NI_Sequenzen,,,,,,,,,,,,,,
,Screen_2,canvas.Screen,0_0_5_1,,skipped,6,47387.10000002384,,,47386.39999997616,,47387.10000002384,2021-10-29T05:52:53.644Z,47488.092,1635486710,full,ni_sequenzen,NI_Sequenzen,,,,,,,,,,,,,,
,Screen_3,canvas.Screen,0_0_5_2,,skipped,6,47388,,,47386.39999997616,,47388.10000002384,2021-10-29T05:52:53.645Z,47488.092,1635486710,full,ni_sequenzen,NI_Sequenzen,,,,,,,,,,,,,,
,Screen_4,canvas.Screen,0_0_5_3,,skipped,6,47388.700000047684,,,47386.39999997616,,47388.799999952316,2021-10-29T05:52:53.646Z,47488.092,1635486710,full,ni_sequenzen,NI_Sequenzen,,,,,,,,,,,,,,
,Sequence,flow.Sequence,0_0_5,,completion,6,47385.700000047684,,,47386.39999997616,,47388.89999997616,2021-10-29T05:52:53.646Z,47488.092,1635486710,full,ni_sequenzen,NI_Sequenzen,,,,,,,,,,,,,,
,Screen_1,canvas.Screen,0_0_6_0,,skipped,7,47389.89999997616,,,47389.89999997616,,47389.89999997616,2021-10-29T05:52:53.647Z,47488.092,1635486710,full,ni_sequenzen,NI_Sequenzen,,,,,,,,,,,,,,
,Screen_2,canvas.Screen,0_0_6_1,,skipped,7,47390.60000002384,,,47389.89999997616,,47390.60000002384,2021-10-29T05:52:53.648Z,47488.092,1635486710,full,ni_sequenzen,NI_Sequenzen,,,,,,,,,,,,,,
,Screen_3,canvas.Screen,0_0_6_2,,skipped,7,47391.39999997616,,,47389.89999997616,,47391.39999997616,2021-10-29T05:52:53.648Z,47488.092,1635486710,full,ni_sequenzen,NI_Sequenzen,,,,,,,,,,,,,,
,Screen_4,canvas.Screen,0_0_6_3,,skipped,7,47392.799999952316,,,47389.89999997616,,47392.89999997616,2021-10-29T05:52:53.650Z,47488.092,1635486710,full,ni_sequenzen,NI_Sequenzen,,,,,,,,,,,,,,
,Sequence,flow.Sequence,0_0_6,,completion,7,47389.200000047684,,,47389.89999997616,,47393,2021-10-29T05:52:53.650Z,47488.092,1635486710,full,ni_sequenzen,NI_Sequenzen,,,,,,,,,,,,,,
,Screen_1,canvas.Screen,0_0_7_0,,skipped,8,47394.200000047684,,,47394.200000047684,,47394.200000047684,2021-10-29T05:52:53.651Z,47488.092,1635486710,full,ni_sequenzen,NI_Sequenzen,,,,,,,,,,,,,,
,Screen_2,canvas.Screen,0_0_7_1,,skipped,8,47394.89999997616,,,47394.200000047684,,47394.89999997616,2021-10-29T05:52:53.652Z,47488.092,1635486710,full,ni_sequenzen,NI_Sequenzen,,,,,,,,,,,,,,
,Screen_3,canvas.Screen,0_0_7_2,,skipped,8,47395.700000047684,,,47394.200000047684,,47395.700000047684,2021-10-29T05:52:53.653Z,47488.092,1635486710,full,ni_sequenzen,NI_Sequenzen,,,,,,,,,,,,,,
,Screen_4,canvas.Screen,0_0_7_3,,skipped,8,47396.39999997616,,,47394.200000047684,,47396.5,2021-10-29T05:52:53.654Z,47488.092,1635486710,full,ni_sequenzen,NI_Sequenzen,,,,,,,,,,,,,,
,Sequence,flow.Sequence,0_0_7,,completion,8,47393.5,,,47394.200000047684,,47396.60000002384,2021-10-29T05:52:53.654Z,47488.092,1635486710,full,ni_sequenzen,NI_Sequenzen,,,,,,,,,,,,,,
,Screen_1,canvas.Screen,0_0_8_0,,skipped,9,47397.5,,,47397.5,,47397.60000002384,2021-10-29T05:52:53.655Z,47488.092,1635486710,full,ni_sequenzen,NI_Sequenzen,,,,,,,,,,,,,,
,Screen_2,canvas.Screen,0_0_8_1,,skipped,9,47398.200000047684,,,47397.5,,47398.39999997616,2021-10-29T05:52:53.655Z,47488.092,1635486710,full,ni_sequenzen,NI_Sequenzen,,,,,,,,,,,,,,
,Screen_3,canvas.Screen,0_0_8_2,,skipped,9,47399,,,47397.5,,47399,2021-10-29T05:52:53.656Z,47488.092,1635486710,full,ni_sequenzen,NI_Sequenzen,,,,,,,,,,,,,,
,Screen_4,canvas.Screen,0_0_8_3,,skipped,9,47399.799999952316,,,47397.5,,47399.799999952316,2021-10-29T05:52:53.657Z,47488.092,1635486710,full,ni_sequenzen,NI_Sequenzen,,,,,,,,,,,,,,
,Sequence,flow.Sequence,0_0_8,,completion,9,47396.89999997616,,,47397.5,,47400,2021-10-29T05:52:53.657Z,47488.092,1635486710,full,ni_sequenzen,NI_Sequenzen,,,,,,,,,,,,,,
,Screen_1,canvas.Screen,0_0_9_0,,skipped,10,47401,,,47401,,47401.10000002384,2021-10-29T05:52:53.658Z,47488.092,1635486710,full,ni_sequenzen,NI_Sequenzen,,,,,,,,,,,,,,
,Screen_2,canvas.Screen,0_0_9_1,,skipped,10,47401.89999997616,,,47401,,47401.89999997616,2021-10-29T05:52:53.659Z,47488.092,1635486710,full,ni_sequenzen,NI_Sequenzen,,,,,,,,,,,,,,
,Screen_3,canvas.Screen,0_0_9_2,,skipped,10,47402.60000002384,,,47401,,47402.700000047684,2021-10-29T05:52:53.660Z,47488.092,1635486710,full,ni_sequenzen,NI_Sequenzen,,,,,,,,,,,,,,
,Screen_4,canvas.Screen,0_0_9_3,,skipped,10,47403.39999997616,,,47401,,47403.5,2021-10-29T05:52:53.661Z,47488.092,1635486710,full,ni_sequenzen,NI_Sequenzen,,,,,,,,,,,,,,
,Sequence,flow.Sequence,0_0_9,,completion,10,47400.299999952316,,,47401,,47403.700000047684,2021-10-29T05:52:53.661Z,47488.092,1635486710,full,ni_sequenzen,NI_Sequenzen,,,,,,,,,,,,,,
,Screen_1,canvas.Screen,0_0_10_0,,skipped,11,47405.5,,,47405.5,,47405.60000002384,2021-10-29T05:52:53.663Z,47488.092,1635486710,full,ni_sequenzen,NI_Sequenzen,,,,,,,,,,,,,,
,Screen_2,canvas.Screen,0_0_10_1,,skipped,11,47406.299999952316,,,47405.5,,47406.299999952316,2021-10-29T05:52:53.663Z,47488.092,1635486710,full,ni_sequenzen,NI_Sequenzen,,,,,,,,,,,,,,
,Screen_3,canvas.Screen,0_0_10_2,,skipped,11,47407,,,47405.5,,47407.10000002384,2021-10-29T05:52:53.664Z,47488.092,1635486710,full,ni_sequenzen,NI_Sequenzen,,,,,,,,,,,,,,
,Screen_4,canvas.Screen,0_0_10_3,,skipped,11,47407.799999952316,,,47405.5,,47407.89999997616,2021-10-29T05:52:53.665Z,47488.092,1635486710,full,ni_sequenzen,NI_Sequenzen,,,,,,,,,,,,,,
,Sequence,flow.Sequence,0_0_10,,completion,11,47403.89999997616,,,47405.5,,47408,2021-10-29T05:52:53.665Z,47488.092,1635486710,full,ni_sequenzen,NI_Sequenzen,,,,,,,,,,,,,,
,Screen_1,canvas.Screen,0_0_11_0,,skipped,12,47410.60000002384,,,47410.60000002384,,47410.700000047684,2021-10-29T05:52:53.668Z,47488.092,1635486710,full,ni_sequenzen,NI_Sequenzen,,,,,,,,,,,,,,
,Screen_2,canvas.Screen,0_0_11_1,,skipped,12,47411.700000047684,,,47410.60000002384,,47411.89999997616,2021-10-29T05:52:53.669Z,47488.092,1635486710,full,ni_sequenzen,NI_Sequenzen,,,,,,,,,,,,,,
,Screen_3,canvas.Screen,0_0_11_2,,skipped,12,47412.700000047684,,,47410.60000002384,,47412.700000047684,2021-10-29T05:52:53.670Z,47488.092,1635486710,full,ni_sequenzen,NI_Sequenzen,,,,,,,,,,,,,,
,Screen_4,canvas.Screen,0_0_11_3,,skipped,12,47413.5,,,47410.60000002384,,47413.60000002384,2021-10-29T05:52:53.671Z,47488.092,1635486710,full,ni_sequenzen,NI_Sequenzen,,,,,,,,,,,,,,
,Sequence,flow.Sequence,0_0_11,,completion,12,47409,,,47410.60000002384,,47413.700000047684,2021-10-29T05:52:53.671Z,47488.092,1635486710,full,ni_sequenzen,NI_Sequenzen,,,,,,,,,,,,,,
,Screen_1,canvas.Screen,0_0_12_0,,skipped,13,47414.89999997616,,,47414.89999997616,,47414.89999997616,2021-10-29T05:52:53.672Z,47488.092,1635486710,full,ni_sequenzen,NI_Sequenzen,,,,,,,,,,,,,,
,Screen_2,canvas.Screen,0_0_12_1,,skipped,13,47415.700000047684,,,47414.89999997616,,47415.799999952316,2021-10-29T05:52:53.673Z,47488.092,1635486710,full,ni_sequenzen,NI_Sequenzen,,,,,,,,,,,,,,
,Screen_3,canvas.Screen,0_0_12_2,,skipped,13,47416.60000002384,,,47414.89999997616,,47426,2021-10-29T05:52:53.683Z,47488.092,1635486710,full,ni_sequenzen,NI_Sequenzen,,,,,,,,,,,,,,
,Screen_4,canvas.Screen,0_0_12_3,,skipped,13,47427.39999997616,,,47414.89999997616,,47427.39999997616,2021-10-29T05:52:53.685Z,47488.092,1635486710,full,ni_sequenzen,NI_Sequenzen,,,,,,,,,,,,,,
,Sequence,flow.Sequence,0_0_12,,completion,13,47414.10000002384,,,47414.89999997616,,47427.60000002384,2021-10-29T05:52:53.685Z,47488.092,1635486710,full,ni_sequenzen,NI_Sequenzen,,,,,,,,,,,,,,
,Screen_1,canvas.Screen,0_0_13_0,,skipped,14,47428.5,,,47428.60000002384,,47428.60000002384,2021-10-29T05:52:53.686Z,47488.092,1635486710,full,ni_sequenzen,NI_Sequenzen,,,,,,,,,,,,,,
,Screen_2,canvas.Screen,0_0_13_1,,skipped,14,47429.299999952316,,,47428.60000002384,,47429.299999952316,2021-10-29T05:52:53.686Z,47488.092,1635486710,full,ni_sequenzen,NI_Sequenzen,,,,,,,,,,,,,,
,Screen_3,canvas.Screen,0_0_13_2,,skipped,14,47430,,,47428.60000002384,,47430.10000002384,2021-10-29T05:52:53.687Z,47488.092,1635486710,full,ni_sequenzen,NI_Sequenzen,,,,,,,,,,,,,,
,Screen_4,canvas.Screen,0_0_13_3,,skipped,14,47430.799999952316,,,47428.60000002384,,47430.799999952316,2021-10-29T05:52:53.688Z,47488.092,1635486710,full,ni_sequenzen,NI_Sequenzen,,,,,,,,,,,,,,
,Sequence,flow.Sequence,0_0_13,,completion,14,47427.89999997616,,,47428.60000002384,,47430.89999997616,2021-10-29T05:52:53.688Z,47488.092,1635486710,full,ni_sequenzen,NI_Sequenzen,,,,,,,,,,,,,,
,Screen_1,canvas.Screen,0_0_14_0,,skipped,15,47431.799999952316,,,47431.799999952316,,47431.89999997616,2021-10-29T05:52:53.689Z,47488.092,1635486710,full,ni_sequenzen,NI_Sequenzen,,,,,,,,,,,,,,
,Screen_2,canvas.Screen,0_0_14_1,,skipped,15,47432.5,,,47431.799999952316,,47432.60000002384,2021-10-29T05:52:53.690Z,47488.092,1635486710,full,ni_sequenzen,NI_Sequenzen,,,,,,,,,,,,,,
,Screen_3,canvas.Screen,0_0_14_2,,skipped,15,47433.299999952316,,,47431.799999952316,,47433.299999952316,2021-10-29T05:52:53.690Z,47488.092,1635486710,full,ni_sequenzen,NI_Sequenzen,,,,,,,,,,,,,,
,Screen_4,canvas.Screen,0_0_14_3,,skipped,15,47434,,,47431.799999952316,,47434.10000002384,2021-10-29T05:52:53.691Z,47488.092,1635486710,full,ni_sequenzen,NI_Sequenzen,,,,,,,,,,,,,,
,Sequence,flow.Sequence,0_0_14,,completion,15,47431.200000047684,,,47431.799999952316,,47434.200000047684,2021-10-29T05:52:53.691Z,47488.092,1635486710,full,ni_sequenzen,NI_Sequenzen,,,,,,,,,,,,,,
,Screen_1,canvas.Screen,0_0_15_0,,skipped,16,47435.10000002384,,,47435.10000002384,,47435.200000047684,2021-10-29T05:52:53.692Z,47488.092,1635486710,full,ni_sequenzen,NI_Sequenzen,,,,,,,,,,,,,,
,Screen_2,canvas.Screen,0_0_15_1,,skipped,16,47436.200000047684,,,47435.10000002384,,47436.299999952316,2021-10-29T05:52:53.693Z,47488.092,1635486710,full,ni_sequenzen,NI_Sequenzen,,,,,,,,,,,,,,
,Screen_3,canvas.Screen,0_0_15_2,,skipped,16,47438.200000047684,,,47435.10000002384,,47438.39999997616,2021-10-29T05:52:53.695Z,47488.092,1635486710,full,ni_sequenzen,NI_Sequenzen,,,,,,,,,,,,,,
,Screen_4,canvas.Screen,0_0_15_3,,skipped,16,47439.89999997616,,,47435.10000002384,,47440,2021-10-29T05:52:53.697Z,47488.092,1635486710,full,ni_sequenzen,NI_Sequenzen,,,,,,,,,,,,,,
,Sequence,flow.Sequence,0_0_15,,completion,16,47434.5,,,47435.10000002384,,47440.10000002384,2021-10-29T05:52:53.697Z,47488.092,1635486710,full,ni_sequenzen,NI_Sequenzen,,,,,,,,,,,,,,
,Screen_1,canvas.Screen,0_0_16_0,,skipped,17,47441.299999952316,,,47441.299999952316,,47441.299999952316,2021-10-29T05:52:53.698Z,47488.092,1635486710,full,ni_sequenzen,NI_Sequenzen,,,,,,,,,,,,,,
,Screen_2,canvas.Screen,0_0_16_1,,skipped,17,47443,,,47441.299999952316,,47443.10000002384,2021-10-29T05:52:53.700Z,47488.092,1635486710,full,ni_sequenzen,NI_Sequenzen,,,,,,,,,,,,,,
,Screen_3,canvas.Screen,0_0_16_2,,skipped,17,47444.200000047684,,,47441.299999952316,,47444.299999952316,2021-10-29T05:52:53.701Z,47488.092,1635486710,full,ni_sequenzen,NI_Sequenzen,,,,,,,,,,,,,,
,Screen_4,canvas.Screen,0_0_16_3,,skipped,17,47445.39999997616,,,47441.299999952316,,47445.60000002384,2021-10-29T05:52:53.703Z,47488.092,1635486710,full,ni_sequenzen,NI_Sequenzen,,,,,,,,,,,,,,
,Sequence,flow.Sequence,0_0_16,,completion,17,47440.5,,,47441.299999952316,,47445.700000047684,2021-10-29T05:52:53.703Z,47488.092,1635486710,full,ni_sequenzen,NI_Sequenzen,,,,,,,,,,,,,,
,Screen_1,canvas.Screen,0_0_17_0,,skipped,18,47447.200000047684,,,47447.200000047684,,47447.200000047684,2021-10-29T05:52:53.704Z,47488.092,1635486710,full,ni_sequenzen,NI_Sequenzen,,,,,,,,,,,,,,
,Screen_2,canvas.Screen,0_0_17_1,,skipped,18,47448.200000047684,,,47447.200000047684,,47448.39999997616,2021-10-29T05:52:53.705Z,47488.092,1635486710,full,ni_sequenzen,NI_Sequenzen,,,,,,,,,,,,,,
,Screen_3,canvas.Screen,0_0_17_2,,skipped,18,47449.5,,,47447.200000047684,,47449.60000002384,2021-10-29T05:52:53.707Z,47488.092,1635486710,full,ni_sequenzen,NI_Sequenzen,,,,,,,,,,,,,,
,Screen_4,canvas.Screen,0_0_17_3,,skipped,18,47450.39999997616,,,47447.200000047684,,47450.5,2021-10-29T05:52:53.708Z,47488.092,1635486710,full,ni_sequenzen,NI_Sequenzen,,,,,,,,,,,,,,
,Sequence,flow.Sequence,0_0_17,,completion,18,47446.10000002384,,,47447.200000047684,,47450.60000002384,2021-10-29T05:52:53.708Z,47488.092,1635486710,full,ni_sequenzen,NI_Sequenzen,,,,,,,,,,,,,,
,Screen_1,canvas.Screen,0_0_18_0,,skipped,19,47451.5,,,47451.5,,47451.5,2021-10-29T05:52:53.709Z,47488.092,1635486710,full,ni_sequenzen,NI_Sequenzen,,,,,,,,,,,,,,
,Screen_2,canvas.Screen,0_0_18_1,,skipped,19,47452.200000047684,,,47451.5,,47452.200000047684,2021-10-29T05:52:53.709Z,47488.092,1635486710,full,ni_sequenzen,NI_Sequenzen,,,,,,,,,,,,,,
,Screen_3,canvas.Screen,0_0_18_2,,skipped,19,47452.89999997616,,,47451.5,,47452.89999997616,2021-10-29T05:52:53.710Z,47488.092,1635486710,full,ni_sequenzen,NI_Sequenzen,,,,,,,,,,,,,,
,Screen_4,canvas.Screen,0_0_18_3,,skipped,19,47453.60000002384,,,47451.5,,47453.60000002384,2021-10-29T05:52:53.711Z,47488.092,1635486710,full,ni_sequenzen,NI_Sequenzen,,,,,,,,,,,,,,
,Sequence,flow.Sequence,0_0_18,,completion,19,47450.89999997616,,,47451.5,,47453.799999952316,2021-10-29T05:52:53.711Z,47488.092,1635486710,full,ni_sequenzen,NI_Sequenzen,,,,,,,,,,,,,,
,Screen_1,canvas.Screen,0_0_19_0,,skipped,20,47454.700000047684,,,47454.700000047684,,47454.700000047684,2021-10-29T05:52:53.712Z,47488.092,1635486710,full,ni_sequenzen,NI_Sequenzen,,,,,,,,,,,,,,
,Screen_2,canvas.Screen,0_0_19_1,,skipped,20,47455.60000002384,,,47454.700000047684,,47455.60000002384,2021-10-29T05:52:53.713Z,47488.092,1635486710,full,ni_sequenzen,NI_Sequenzen,,,,,,,,,,,,,,
,Screen_3,canvas.Screen,0_0_19_2,,skipped,20,47456.299999952316,,,47454.700000047684,,47456.299999952316,2021-10-29T05:52:53.713Z,47488.092,1635486710,full,ni_sequenzen,NI_Sequenzen,,,,,,,,,,,,,,
,Screen_4,canvas.Screen,0_0_19_3,,skipped,20,47457.89999997616,,,47454.700000047684,,47458,2021-10-29T05:52:53.715Z,47488.092,1635486710,full,ni_sequenzen,NI_Sequenzen,,,,,,,,,,,,,,
,Sequence,flow.Sequence,0_0_19,,completion,20,47454.10000002384,,,47454.700000047684,,47458.10000002384,2021-10-29T05:52:53.715Z,47488.092,1635486710,full,ni_sequenzen,NI_Sequenzen,,,,,,,,,,,,,,
,Instructions_I,flow.Loop,0_0,,completion,,943.7000000476837,1016.499,1049.871,47454.700000047684,46404.829000047685,47458.39999997616,2021-10-29T05:52:53.715Z,47488.092,1635486710,full,ni_sequenzen,NI_Sequenzen,,,,,,,,,,,,,,
,Move,canvas.Screen,0_1_0_0,right,response,,47473.39999997616,47471.209,47488.092,48531.799999952316,1043.7079999523194,48532.60000002384,2021-10-29T05:52:54.790Z,48538.078,1635486710,full,ni_sequenzen,NI_Sequenzen,1,,,,,,,,,,,,,
,Move,canvas.Screen,0_1_0_1,left,response,,48534.700000047684,48521.468,48538.078,49554.39999997616,1016.3219999761568,49554.89999997616,2021-10-29T05:52:55.812Z,49571.541,1635486710,full,ni_sequenzen,NI_Sequenzen,2,,,,,,,,,,,,,
,Move,canvas.Screen,0_1_0_2,down,response,,49557.799999952316,49554.934,49571.541,51426.799999952316,1855.2589999523188,51427.299999952316,2021-10-29T05:52:57.684Z,51438.421,1635486710,full,ni_sequenzen,NI_Sequenzen,3,,,,,,,,,,,,,
,Move,canvas.Screen,0_1_0_3,down,response,,51429,51421.736,51438.421,51785.700000047684,347.2790000476816,51786.200000047684,2021-10-29T05:52:58.043Z,51820.537,1635486710,full,ni_sequenzen,NI_Sequenzen,4,,,,,,,,,,,,,
,Move,canvas.Screen,0_1_0_4,down,response,,51787.799999952316,51771.799,51820.537,52019.700000047684,199.1630000476871,52020.200000047684,2021-10-29T05:52:58.277Z,52038.479,1635486710,full,ni_sequenzen,NI_Sequenzen,5,,,,,,,,,,,,,
,Move,canvas.Screen,0_1_0_5,down,response,,52021.799999952316,52021.839,52038.479,52244.299999952316,205.82099995231692,52244.700000047684,2021-10-29T05:52:58.502Z,52255.185,1635486710,full,ni_sequenzen,NI_Sequenzen,6,,,,,,,,,,,,,
,Move,canvas.Screen,0_1_0_6,right,response,,52246.200000047684,52238.556,52255.185,52480.700000047684,225.51500004768604,52481.299999952316,2021-10-29T05:52:58.738Z,52488.632,1635486710,full,ni_sequenzen,NI_Sequenzen,7,,,,,,,,,,,,,
,Move,canvas.Screen,0_1_0_7,left,response,,52482.5,52471.898,52488.632,52950.700000047684,462.0680000476859,52951.299999952316,2021-10-29T05:52:59.208Z,52955.153,1635486710,full,ni_sequenzen,NI_Sequenzen,8,,,,,,,,,,,,,
,Move,canvas.Screen,0_1_0_8,left,response,,52952.700000047684,52938.587,52955.153,53276.700000047684,321.5470000476853,53277.39999997616,2021-10-29T05:52:59.534Z,53288.532,1635486710,full,ni_sequenzen,NI_Sequenzen,9,,,,,,,,,,,,,
,Move,canvas.Screen,0_1_0_9,down,response,,53279.200000047684,53271.966,53288.532,53963.200000047684,674.6680000476845,53963.89999997616,2021-10-29T05:53:00.221Z,53971.948,1635486710,full,ni_sequenzen,NI_Sequenzen,10,,,,,,,,,,,,,
,Move,canvas.Screen,0_1_0_10,down,response,,53965.799999952316,53955.289,53971.948,54218.10000002384,246.15200002384518,54218.60000002384,2021-10-29T05:53:00.476Z,54221.974,1635486710,full,ni_sequenzen,NI_Sequenzen,11,,,,,,,,,,,,,
,Move,canvas.Screen,0_1_0_11,left,response,,54220.10000002384,54205.288,54221.974,54730,508.025999999998,54730.5,2021-10-29T05:53:00.988Z,54738.845,1635486710,full,ni_sequenzen,NI_Sequenzen,12,,,,,,,,,,,,,
,Move,canvas.Screen,0_1_0_12,right,response,,54731.89999997616,54722.045,54738.845,55148.89999997616,410.054999976157,55149.39999997616,2021-10-29T05:53:01.406Z,55155.376,1635486710,full,ni_sequenzen,NI_Sequenzen,13,,,,,,,,,,,,,
,Move,canvas.Screen,0_1_0_13,down,response,,55151.10000002384,55138.758,55155.376,55650.799999952316,495.4239999523197,55651.39999997616,2021-10-29T05:53:01.908Z,55655.454,1635486710,full,ni_sequenzen,NI_Sequenzen,14,,,,,,,,,,,,,
,Move,canvas.Screen,0_1_0_14,down,response,,55652.799999952316,55638.76,55655.454,56100.5,445.0460000000021,56101,2021-10-29T05:53:02.358Z,56105.491,1635486710,full,ni_sequenzen,NI_Sequenzen,15,,,,,,,,,,,,,
,Move,canvas.Screen,0_1_0_15,down,response,,56102.5,56088.915,56105.491,56335.10000002384,229.60900002384005,56335.60000002384,2021-10-29T05:53:02.593Z,56338.864,1635486710,full,ni_sequenzen,NI_Sequenzen,16,,,,,,,,,,,,,
,Move,canvas.Screen,0_1_0_16,down,response,,56337.10000002384,56322.286,56338.864,56602.299999952316,263.4359999523149,56602.799999952316,2021-10-29T05:53:02.860Z,56637.207,1635486710,full,ni_sequenzen,NI_Sequenzen,17,,,,,,,,,,,,,
,Move,canvas.Screen,0_1_0_17,right,response,,56604.39999997616,56588.992,56637.207,56847,209.79299999999785,56847.5,2021-10-29T05:53:03.105Z,56855.724,1635486710,full,ni_sequenzen,NI_Sequenzen,18,,,,,,,,,,,,,
,Move,canvas.Screen,0_1_0_18,right,response,,56849.10000002384,56838.897,56855.724,57103,247.27599999999802,57103.5,2021-10-29T05:53:03.361Z,57137.417,1635486710,full,ni_sequenzen,NI_Sequenzen,19,,,,,,,,,,,,,
,Move,canvas.Screen,0_1_0_19,right,response,,57104.799999952316,57089.03,57137.417,57347.700000047684,210.28300004768244,57348.299999952316,2021-10-29T05:53:03.605Z,57355.779,1635486710,full,ni_sequenzen,NI_Sequenzen,20,,,,,,,,,,,,,
,Move,canvas.Screen,0_1_0_20,right,response,,57349.799999952316,57339.05,57355.779,57921.799999952316,566.020999952314,57922.299999952316,2021-10-29T05:53:04.179Z,57939.167,1635486710,full,ni_sequenzen,NI_Sequenzen,21,,,,,,,,,,,,,
,Move,canvas.Screen,0_1_0_21,left,response,,57923.799999952316,57922.452,57939.167,58729.5,790.3329999999987,58730.10000002384,2021-10-29T05:53:04.987Z,58739.217,1635486710,full,ni_sequenzen,NI_Sequenzen,22,,,,,,,,,,,,,
,Move,canvas.Screen,0_1_0_22,left,response,,58731.799999952316,58722.518,58739.217,59250.60000002384,511.38300002384494,59251.10000002384,2021-10-29T05:53:05.508Z,59255.858,1635486710,full,ni_sequenzen,NI_Sequenzen,23,,,,,,,,,,,,,
,Move,canvas.Screen,0_1_0_23,down,response,,59252.60000002384,59239.245,59255.858,59629.799999952316,373.9419999523161,59630.39999997616,2021-10-29T05:53:05.887Z,59639.269,1635486710,full,ni_sequenzen,NI_Sequenzen,24,,,,,,,,,,,,,
,Move,canvas.Screen,0_1_0_24,down,response,,59631.799999952316,59622.585,59639.269,59854.200000047684,214.93100004768348,59854.700000047684,2021-10-29T05:53:06.112Z,59872.627,1635486710,full,ni_sequenzen,NI_Sequenzen,25,,,,,,,,,,,,,
,Move,canvas.Screen,0_1_0_25,down,response,,59856.200000047684,59855.982,59872.627,60018.299999952316,145.67299995231588,60019,2021-10-29T05:53:06.276Z,60022.566,1635486710,full,ni_sequenzen,NI_Sequenzen,26,,,,,,,,,,,,,
,Move,canvas.Screen,0_1_0_26,down,response,,60020.39999997616,60005.916,60022.566,60232.5,209.9340000000011,60233,2021-10-29T05:53:06.490Z,60239.278,1635486710,full,ni_sequenzen,NI_Sequenzen,27,,,,,,,,,,,,,
,Move,canvas.Screen,0_1_0_27,left,response,,60234.39999997616,60222.689,60239.278,60448,208.72200000000157,60448.5,2021-10-29T05:53:06.706Z,60456.11,1635486710,full,ni_sequenzen,NI_Sequenzen,28,,,,,,,,,,,,,
,Move,canvas.Screen,0_1_0_28,left,response,,60450.10000002384,60439.378,60456.11,60662.700000047684,206.59000004768313,60663.299999952316,2021-10-29T05:53:06.920Z,60672.687,1635486710,full,ni_sequenzen,NI_Sequenzen,29,,,,,,,,,,,,,
,Move,canvas.Screen,0_1_0_29,down,response,,60664.799999952316,60656.066,60672.687,61155.299999952316,482.6129999523182,61155.799999952316,2021-10-29T05:53:07.413Z,61206.223,1635486710,full,ni_sequenzen,NI_Sequenzen,30,,,,,,,,,,,,,
,Loop,flow.Loop,0_1_0,-999,completion,,47470.200000047684,47471.209,47488.092,61155.299999952316,13667.20799995232,61156,2021-10-29T05:53:07.413Z,61206.223,1635486710,full,ni_sequenzen,NI_Sequenzen,,,,,,,,,,,,,,
,Training_I,flow.Sequence,0_1,,completion,,47458.799999952316,47471.209,47488.092,61155.299999952316,13667.20799995232,61156.10000002384,2021-10-29T05:53:07.413Z,61206.223,1635486710,full,ni_sequenzen,NI_Sequenzen,,,,,,,,,,,,,,
,Screen_1,canvas.Screen,0_2_0_0,cont,response,1,61200.700000047684,61189.451,61206.223,72110.79999995232,10904.576999952318,72111.29999995232,2021-10-29T05:53:18.368Z,72357.256,1635486710,full,ni_sequenzen,NI_Sequenzen,,,,,,,,,,,,,,
,Screen_2,canvas.Screen,0_2_0_1,cont,response,1,72346.70000004768,72340.323,72357.256,80018.20000004768,7660.94400004769,80018.79999995232,2021-10-29T05:53:26.276Z,80024.657,1635486710,full,ni_sequenzen,NI_Sequenzen,,,,,,,,,,,,,,
,Screen_3,canvas.Screen,0_2_0_2,cont,response,1,80021.20000004768,80007.911,80024.657,95200.70000004768,15176.043000047677,95201.20000004768,2021-10-29T05:53:41.469Z,95360.031,1635486710,full,ni_sequenzen,NI_Sequenzen,,,,,,,,,,,,,,
,Screen_4,canvas.Screen,0_2_0_3,cont,response,1,95342,95325.965,95360.031,110477.70000004768,15117.669000047681,110478.20000004768,2021-10-29T05:53:56.746Z,110494.551,1635486710,full,ni_sequenzen,NI_Sequenzen,,,,,,,,,,,,,,
,Screen_5,canvas.Screen,0_2_0_4,cont,response,1,110480.60000002384,110477.541,110494.551,119299.29999995232,8804.74899995231,119299.79999995232,2021-10-29T05:54:05.567Z,119395.513,1635486710,full,ni_sequenzen,NI_Sequenzen,,,,,,,,,,,,,,
,Screen_6,canvas.Screen,0_2_0_5,cont,response,1,119386.70000004768,119378.605,119395.513,132956.29999995232,13560.78699995231,132956.79999995232,2021-10-29T05:54:19.225Z,133146.797,1635486710,full,ni_sequenzen,NI_Sequenzen,,,,,,,,,,,,,,
,Sequence,flow.Sequence,0_2_0,,completion,1,61199.799999952316,61189.451,61206.223,132956.29999995232,71750.07699995232,132958.29999995232,2021-10-29T05:54:19.226Z,133146.797,1635486710,full,ni_sequenzen,NI_Sequenzen,,,,,,,,,,,,,,
,Screen_1,canvas.Screen,0_2_1_0,,skipped,2,132960.79999995232,,,132960.79999995232,,132960.89999997616,2021-10-29T05:54:19.229Z,133146.797,1635486710,full,ni_sequenzen,NI_Sequenzen,,,,,,,,,,,,,,
,Screen_2,canvas.Screen,0_2_1_1,,skipped,2,132961.60000002384,,,132960.79999995232,,132961.70000004768,2021-10-29T05:54:19.230Z,133146.797,1635486710,full,ni_sequenzen,NI_Sequenzen,,,,,,,,,,,,,,
,Screen_3,canvas.Screen,0_2_1_2,,skipped,2,132963,,,132960.79999995232,,132963.10000002384,2021-10-29T05:54:19.231Z,133146.797,1635486710,full,ni_sequenzen,NI_Sequenzen,,,,,,,,,,,,,,
,Screen_4,canvas.Screen,0_2_1_3,,skipped,2,132964,,,132960.79999995232,,132964,2021-10-29T05:54:19.232Z,133146.797,1635486710,full,ni_sequenzen,NI_Sequenzen,,,,,,,,,,,,,,
,Screen_5,canvas.Screen,0_2_1_4,,skipped,2,132964.79999995232,,,132960.79999995232,,132964.79999995232,2021-10-29T05:54:19.233Z,133146.797,1635486710,full,ni_sequenzen,NI_Sequenzen,,,,,,,,,,,,,,
,Screen_6,canvas.Screen,0_2_1_5,,skipped,2,132965.60000002384,,,132960.79999995232,,132965.70000004768,2021-10-29T05:54:19.233Z,133146.797,1635486710,full,ni_sequenzen,NI_Sequenzen,,,,,,,,,,,,,,
,Sequence,flow.Sequence,0_2_1,,completion,2,132959.60000002384,,,132960.79999995232,,132965.79999995232,2021-10-29T05:54:19.234Z,133146.797,1635486710,full,ni_sequenzen,NI_Sequenzen,,,,,,,,,,,,,,
,Screen_1,canvas.Screen,0_2_2_0,,skipped,3,132966.70000004768,,,132966.70000004768,,132966.79999995232,2021-10-29T05:54:19.235Z,133146.797,1635486710,full,ni_sequenzen,NI_Sequenzen,,,,,,,,,,,,,,
,Screen_2,canvas.Screen,0_2_2_1,,skipped,3,132967.39999997616,,,132966.70000004768,,132967.39999997616,2021-10-29T05:54:19.235Z,133146.797,1635486710,full,ni_sequenzen,NI_Sequenzen,,,,,,,,,,,,,,
,Screen_3,canvas.Screen,0_2_2_2,,skipped,3,132968.10000002384,,,132966.70000004768,,132968.20000004768,2021-10-29T05:54:19.236Z,133146.797,1635486710,full,ni_sequenzen,NI_Sequenzen,,,,,,,,,,,,,,
,Screen_4,canvas.Screen,0_2_2_3,,skipped,3,132968.79999995232,,,132966.70000004768,,132968.89999997616,2021-10-29T05:54:19.237Z,133146.797,1635486710,full,ni_sequenzen,NI_Sequenzen,,,,,,,,,,,,,,
,Screen_5,canvas.Screen,0_2_2_4,,skipped,3,132969.5,,,132966.70000004768,,132969.5,2021-10-29T05:54:19.237Z,133146.797,1635486710,full,ni_sequenzen,NI_Sequenzen,,,,,,,,,,,,,,
,Screen_6,canvas.Screen,0_2_2_5,,skipped,3,132970.20000004768,,,132966.70000004768,,132970.20000004768,2021-10-29T05:54:19.238Z,133146.797,1635486710,full,ni_sequenzen,NI_Sequenzen,,,,,,,,,,,,,,
,Sequence,flow.Sequence,0_2_2,,completion,3,132966.10000002384,,,132966.70000004768,,132970.39999997616,2021-10-29T05:54:19.238Z,133146.797,1635486710,full,ni_sequenzen,NI_Sequenzen,,,,,,,,,,,,,,
,Screen_1,canvas.Screen,0_2_3_0,,skipped,4,132971.10000002384,,,132971.20000004768,,132971.29999995232,2021-10-29T05:54:19.239Z,133146.797,1635486710,full,ni_sequenzen,NI_Sequenzen,,,,,,,,,,,,,,
,Screen_2,canvas.Screen,0_2_3_1,,skipped,4,132971.89999997616,,,132971.20000004768,,132971.89999997616,2021-10-29T05:54:19.240Z,133146.797,1635486710,full,ni_sequenzen,NI_Sequenzen,,,,,,,,,,,,,,
,Screen_3,canvas.Screen,0_2_3_2,,skipped,4,132972.5,,,132971.20000004768,,132972.5,2021-10-29T05:54:19.240Z,133146.797,1635486710,full,ni_sequenzen,NI_Sequenzen,,,,,,,,,,,,,,
,Screen_4,canvas.Screen,0_2_3_3,,skipped,4,132973.20000004768,,,132971.20000004768,,132973.29999995232,2021-10-29T05:54:19.241Z,133146.797,1635486710,full,ni_sequenzen,NI_Sequenzen,,,,,,,,,,,,,,
,Screen_5,canvas.Screen,0_2_3_4,,skipped,4,132974.5,,,132971.20000004768,,132974.60000002384,2021-10-29T05:54:19.242Z,133146.797,1635486710,full,ni_sequenzen,NI_Sequenzen,,,,,,,,,,,,,,
,Screen_6,canvas.Screen,0_2_3_5,,skipped,4,132975.29999995232,,,132971.20000004768,,132975.39999997616,2021-10-29T05:54:19.243Z,133146.797,1635486710,full,ni_sequenzen,NI_Sequenzen,,,,,,,,,,,,,,
,Sequence,flow.Sequence,0_2_3,,completion,4,132970.60000002384,,,132971.20000004768,,132975.39999997616,2021-10-29T05:54:19.243Z,133146.797,1635486710,full,ni_sequenzen,NI_Sequenzen,,,,,,,,,,,,,,
,Screen_1,canvas.Screen,0_2_4_0,,skipped,5,132976.5,,,132976.60000002384,,132976.60000002384,2021-10-29T05:54:19.244Z,133146.797,1635486710,full,ni_sequenzen,NI_Sequenzen,,,,,,,,,,,,,,
,Screen_2,canvas.Screen,0_2_4_1,,skipped,5,132977.29999995232,,,132976.60000002384,,132977.29999995232,2021-10-29T05:54:19.245Z,133146.797,1635486710,full,ni_sequenzen,NI_Sequenzen,,,,,,,,,,,,,,
,Screen_3,canvas.Screen,0_2_4_2,,skipped,5,132977.89999997616,,,132976.60000002384,,132978,2021-10-29T05:54:19.246Z,133146.797,1635486710,full,ni_sequenzen,NI_Sequenzen,,,,,,,,,,,,,,
,Screen_4,canvas.Screen,0_2_4_3,,skipped,5,132978.70000004768,,,132976.60000002384,,132978.70000004768,2021-10-29T05:54:19.246Z,133146.797,1635486710,full,ni_sequenzen,NI_Sequenzen,,,,,,,,,,,,,,
,Screen_5,canvas.Screen,0_2_4_4,,skipped,5,132979.29999995232,,,132976.60000002384,,132979.29999995232,2021-10-29T05:54:19.247Z,133146.797,1635486710,full,ni_sequenzen,NI_Sequenzen,,,,,,,,,,,,,,
,Screen_6,canvas.Screen,0_2_4_5,,skipped,5,132980,,,132976.60000002384,,132980,2021-10-29T05:54:19.248Z,133146.797,1635486710,full,ni_sequenzen,NI_Sequenzen,,,,,,,,,,,,,,
,Sequence,flow.Sequence,0_2_4,,completion,5,132975.89999997616,,,132976.60000002384,,132980.10000002384,2021-10-29T05:54:19.248Z,133146.797,1635486710,full,ni_sequenzen,NI_Sequenzen,,,,,,,,,,,,,,
,Screen_1,canvas.Screen,0_2_5_0,,skipped,6,132981,,,132981,,132981.10000002384,2021-10-29T05:54:19.249Z,133146.797,1635486710,full,ni_sequenzen,NI_Sequenzen,,,,,,,,,,,,,,
,Screen_2,canvas.Screen,0_2_5_1,,skipped,6,132981.70000004768,,,132981,,132981.70000004768,2021-10-29T05:54:19.249Z,133146.797,1635486710,full,ni_sequenzen,NI_Sequenzen,,,,,,,,,,,,,,
,Screen_3,canvas.Screen,0_2_5_2,,skipped,6,132982.29999995232,,,132981,,132982.39999997616,2021-10-29T05:54:19.250Z,133146.797,1635486710,full,ni_sequenzen,NI_Sequenzen,,,,,,,,,,,,,,
,Screen_4,canvas.Screen,0_2_5_3,,skipped,6,132983.10000002384,,,132981,,132983.20000004768,2021-10-29T05:54:19.251Z,133146.797,1635486710,full,ni_sequenzen,NI_Sequenzen,,,,,,,,,,,,,,
,Screen_5,canvas.Screen,0_2_5_4,,skipped,6,132983.79999995232,,,132981,,132983.79999995232,2021-10-29T05:54:19.252Z,133146.797,1635486710,full,ni_sequenzen,NI_Sequenzen,,,,,,,,,,,,,,
,Screen_6,canvas.Screen,0_2_5_5,,skipped,6,132985.20000004768,,,132981,,132985.29999995232,2021-10-29T05:54:19.253Z,133146.797,1635486710,full,ni_sequenzen,NI_Sequenzen,,,,,,,,,,,,,,
,Sequence,flow.Sequence,0_2_5,,completion,6,132980.5,,,132981,,132985.39999997616,2021-10-29T05:54:19.253Z,133146.797,1635486710,full,ni_sequenzen,NI_Sequenzen,,,,,,,,,,,,,,
,Screen_1,canvas.Screen,0_2_6_0,,skipped,7,132986.5,,,132986.5,,132986.5,2021-10-29T05:54:19.254Z,133146.797,1635486710,full,ni_sequenzen,NI_Sequenzen,,,,,,,,,,,,,,
,Screen_2,canvas.Screen,0_2_6_1,,skipped,7,132987.20000004768,,,132986.5,,132987.29999995232,2021-10-29T05:54:19.255Z,133146.797,1635486710,full,ni_sequenzen,NI_Sequenzen,,,,,,,,,,,,,,
,Screen_3,canvas.Screen,0_2_6_2,,skipped,7,132987.89999997616,,,132986.5,,132988,2021-10-29T05:54:19.256Z,133146.797,1635486710,full,ni_sequenzen,NI_Sequenzen,,,,,,,,,,,,,,
,Screen_4,canvas.Screen,0_2_6_3,,skipped,7,132988.5,,,132986.5,,132988.60000002384,2021-10-29T05:54:19.256Z,133146.797,1635486710,full,ni_sequenzen,NI_Sequenzen,,,,,,,,,,,,,,
,Screen_5,canvas.Screen,0_2_6_4,,skipped,7,132989.20000004768,,,132986.5,,132989.29999995232,2021-10-29T05:54:19.257Z,133146.797,1635486710,full,ni_sequenzen,NI_Sequenzen,,,,,,,,,,,,,,
,Screen_6,canvas.Screen,0_2_6_5,,skipped,7,132989.89999997616,,,132986.5,,132990,2021-10-29T05:54:19.258Z,133146.797,1635486710,full,ni_sequenzen,NI_Sequenzen,,,,,,,,,,,,,,
,Sequence,flow.Sequence,0_2_6,,completion,7,132985.70000004768,,,132986.5,,132990,2021-10-29T05:54:19.258Z,133146.797,1635486710,full,ni_sequenzen,NI_Sequenzen,,,,,,,,,,,,,,
,Screen_1,canvas.Screen,0_2_7_0,,skipped,8,132990.89999997616,,,132990.89999997616,,132990.89999997616,2021-10-29T05:54:19.259Z,133146.797,1635486710,full,ni_sequenzen,NI_Sequenzen,,,,,,,,,,,,,,
,Screen_2,canvas.Screen,0_2_7_1,,skipped,8,132991.70000004768,,,132990.89999997616,,132991.79999995232,2021-10-29T05:54:19.260Z,133146.797,1635486710,full,ni_sequenzen,NI_Sequenzen,,,,,,,,,,,,,,
,Screen_3,canvas.Screen,0_2_7_2,,skipped,8,132992.70000004768,,,132990.89999997616,,132992.89999997616,2021-10-29T05:54:19.261Z,133146.797,1635486710,full,ni_sequenzen,NI_Sequenzen,,,,,,,,,,,,,,
,Screen_4,canvas.Screen,0_2_7_3,,skipped,8,132993.60000002384,,,132990.89999997616,,132993.70000004768,2021-10-29T05:54:19.261Z,133146.797,1635486710,full,ni_sequenzen,NI_Sequenzen,,,,,,,,,,,,,,
,Screen_5,canvas.Screen,0_2_7_4,,skipped,8,132994.29999995232,,,132990.89999997616,,132994.29999995232,2021-10-29T05:54:19.262Z,133146.797,1635486710,full,ni_sequenzen,NI_Sequenzen,,,,,,,,,,,,,,
,Screen_6,canvas.Screen,0_2_7_5,,skipped,8,132995,,,132990.89999997616,,132995.10000002384,2021-10-29T05:54:19.263Z,133146.797,1635486710,full,ni_sequenzen,NI_Sequenzen,,,,,,,,,,,,,,
,Sequence,flow.Sequence,0_2_7,,completion,8,132990.29999995232,,,132990.89999997616,,132995.20000004768,2021-10-29T05:54:19.263Z,133146.797,1635486710,full,ni_sequenzen,NI_Sequenzen,,,,,,,,,,,,,,
,Screen_1,canvas.Screen,0_2_8_0,,skipped,9,132996.70000004768,,,132996.70000004768,,132996.79999995232,2021-10-29T05:54:19.265Z,133146.797,1635486710,full,ni_sequenzen,NI_Sequenzen,,,,,,,,,,,,,,
,Screen_2,canvas.Screen,0_2_8_1,,skipped,9,132997.5,,,132996.70000004768,,132997.5,2021-10-29T05:54:19.265Z,133146.797,1635486710,full,ni_sequenzen,NI_Sequenzen,,,,,,,,,,,,,,
,Screen_3,canvas.Screen,0_2_8_2,,skipped,9,132998.20000004768,,,132996.70000004768,,132998.20000004768,2021-10-29T05:54:19.266Z,133146.797,1635486710,full,ni_sequenzen,NI_Sequenzen,,,,,,,,,,,,,,
,Screen_4,canvas.Screen,0_2_8_3,,skipped,9,132998.79999995232,,,132996.70000004768,,132998.89999997616,2021-10-29T05:54:19.267Z,133146.797,1635486710,full,ni_sequenzen,NI_Sequenzen,,,,,,,,,,,,,,
,Screen_5,canvas.Screen,0_2_8_4,,skipped,9,132999.5,,,132996.70000004768,,132999.60000002384,2021-10-29T05:54:19.267Z,133146.797,1635486710,full,ni_sequenzen,NI_Sequenzen,,,,,,,,,,,,,,
,Screen_6,canvas.Screen,0_2_8_5,,skipped,9,133000.20000004768,,,132996.70000004768,,133000.20000004768,2021-10-29T05:54:19.268Z,133146.797,1635486710,full,ni_sequenzen,NI_Sequenzen,,,,,,,,,,,,,,
,Sequence,flow.Sequence,0_2_8,,completion,9,132995.5,,,132996.70000004768,,133000.29999995232,2021-10-29T05:54:19.268Z,133146.797,1635486710,full,ni_sequenzen,NI_Sequenzen,,,,,,,,,,,,,,
,Screen_1,canvas.Screen,0_2_9_0,,skipped,10,133001.39999997616,,,133001.39999997616,,133001.39999997616,2021-10-29T05:54:19.269Z,133146.797,1635486710,full,ni_sequenzen,NI_Sequenzen,,,,,,,,,,,,,,
,Screen_2,canvas.Screen,0_2_9_1,,skipped,10,133002,,,133001.39999997616,,133002.10000002384,2021-10-29T05:54:19.270Z,133146.797,1635486710,full,ni_sequenzen,NI_Sequenzen,,,,,,,,,,,,,,
,Screen_3,canvas.Screen,0_2_9_2,,skipped,10,133002.79999995232,,,133001.39999997616,,133002.89999997616,2021-10-29T05:54:19.271Z,133146.797,1635486710,full,ni_sequenzen,NI_Sequenzen,,,,,,,,,,,,,,
,Screen_4,canvas.Screen,0_2_9_3,,skipped,10,133003.5,,,133001.39999997616,,133003.60000002384,2021-10-29T05:54:19.271Z,133146.797,1635486710,full,ni_sequenzen,NI_Sequenzen,,,,,,,,,,,,,,
,Screen_5,canvas.Screen,0_2_9_4,,skipped,10,133004.5,,,133001.39999997616,,133004.5,2021-10-29T05:54:19.272Z,133146.797,1635486710,full,ni_sequenzen,NI_Sequenzen,,,,,,,,,,,,,,
,Screen_6,canvas.Screen,0_2_9_5,,skipped,10,133005.5,,,133001.39999997616,,133005.5,2021-10-29T05:54:19.273Z,133146.797,1635486710,full,ni_sequenzen,NI_Sequenzen,,,,,,,,,,,,,,
,Sequence,flow.Sequence,0_2_9,,completion,10,133000.60000002384,,,133001.39999997616,,133005.60000002384,2021-10-29T05:54:19.273Z,133146.797,1635486710,full,ni_sequenzen,NI_Sequenzen,,,,,,,,,,,,,,
,Screen_1,canvas.Screen,0_2_10_0,,skipped,11,133006.70000004768,,,133006.70000004768,,133006.70000004768,2021-10-29T05:54:19.274Z,133146.797,1635486710,full,ni_sequenzen,NI_Sequenzen,,,,,,,,,,,,,,
,Screen_2,canvas.Screen,0_2_10_1,,skipped,11,133007.5,,,133006.70000004768,,133007.60000002384,2021-10-29T05:54:19.275Z,133146.797,1635486710,full,ni_sequenzen,NI_Sequenzen,,,,,,,,,,,,,,
,Screen_3,canvas.Screen,0_2_10_2,,skipped,11,133008.20000004768,,,133006.70000004768,,133008.20000004768,2021-10-29T05:54:19.276Z,133146.797,1635486710,full,ni_sequenzen,NI_Sequenzen,,,,,,,,,,,,,,
,Screen_4,canvas.Screen,0_2_10_3,,skipped,11,133008.89999997616,,,133006.70000004768,,133009,2021-10-29T05:54:19.277Z,133146.797,1635486710,full,ni_sequenzen,NI_Sequenzen,,,,,,,,,,,,,,
,Screen_5,canvas.Screen,0_2_10_4,,skipped,11,133010.5,,,133006.70000004768,,133010.60000002384,2021-10-29T05:54:19.278Z,133146.797,1635486710,full,ni_sequenzen,NI_Sequenzen,,,,,,,,,,,,,,
,Screen_6,canvas.Screen,0_2_10_5,,skipped,11,133011.20000004768,,,133006.70000004768,,133011.29999995232,2021-10-29T05:54:19.279Z,133146.797,1635486710,full,ni_sequenzen,NI_Sequenzen,,,,,,,,,,,,,,
,Sequence,flow.Sequence,0_2_10,,completion,11,133006,,,133006.70000004768,,133011.29999995232,2021-10-29T05:54:19.279Z,133146.797,1635486710,full,ni_sequenzen,NI_Sequenzen,,,,,,,,,,,,,,
,Screen_1,canvas.Screen,0_2_11_0,,skipped,12,133012.20000004768,,,133012.20000004768,,133012.29999995232,2021-10-29T05:54:19.280Z,133146.797,1635486710,full,ni_sequenzen,NI_Sequenzen,,,,,,,,,,,,,,
,Screen_2,canvas.Screen,0_2_11_1,,skipped,12,133012.89999997616,,,133012.20000004768,,133013,2021-10-29T05:54:19.281Z,133146.797,1635486710,full,ni_sequenzen,NI_Sequenzen,,,,,,,,,,,,,,
,Screen_3,canvas.Screen,0_2_11_2,,skipped,12,133013.5,,,133012.20000004768,,133013.60000002384,2021-10-29T05:54:19.281Z,133146.797,1635486710,full,ni_sequenzen,NI_Sequenzen,,,,,,,,,,,,,,
,Screen_4,canvas.Screen,0_2_11_3,,skipped,12,133014.20000004768,,,133012.20000004768,,133014.29999995232,2021-10-29T05:54:19.282Z,133146.797,1635486710,full,ni_sequenzen,NI_Sequenzen,,,,,,,,,,,,,,
,Screen_5,canvas.Screen,0_2_11_4,,skipped,12,133014.89999997616,,,133012.20000004768,,133015,2021-10-29T05:54:19.283Z,133146.797,1635486710,full,ni_sequenzen,NI_Sequenzen,,,,,,,,,,,,,,
,Screen_6,canvas.Screen,0_2_11_5,,skipped,12,133015.60000002384,,,133012.20000004768,,133015.60000002384,2021-10-29T05:54:19.283Z,133146.797,1635486710,full,ni_sequenzen,NI_Sequenzen,,,,,,,,,,,,,,
,Sequence,flow.Sequence,0_2_11,,completion,12,133011.60000002384,,,133012.20000004768,,133015.79999995232,2021-10-29T05:54:19.283Z,133146.797,1635486710,full,ni_sequenzen,NI_Sequenzen,,,,,,,,,,,,,,
,Screen_1,canvas.Screen,0_2_12_0,,skipped,13,133016.60000002384,,,133016.60000002384,,133016.60000002384,2021-10-29T05:54:19.284Z,133146.797,1635486710,full,ni_sequenzen,NI_Sequenzen,,,,,,,,,,,,,,
,Screen_2,canvas.Screen,0_2_12_1,,skipped,13,133017.20000004768,,,133016.60000002384,,133017.29999995232,2021-10-29T05:54:19.285Z,133146.797,1635486710,full,ni_sequenzen,NI_Sequenzen,,,,,,,,,,,,,,
,Screen_3,canvas.Screen,0_2_12_2,,skipped,13,133017.89999997616,,,133016.60000002384,,133017.89999997616,2021-10-29T05:54:19.286Z,133146.797,1635486710,full,ni_sequenzen,NI_Sequenzen,,,,,,,,,,,,,,
,Screen_4,canvas.Screen,0_2_12_3,,skipped,13,133018.5,,,133016.60000002384,,133018.60000002384,2021-10-29T05:54:19.286Z,133146.797,1635486710,full,ni_sequenzen,NI_Sequenzen,,,,,,,,,,,,,,
,Screen_5,canvas.Screen,0_2_12_4,,skipped,13,133019.20000004768,,,133016.60000002384,,133019.29999995232,2021-10-29T05:54:19.287Z,133146.797,1635486710,full,ni_sequenzen,NI_Sequenzen,,,,,,,,,,,,,,
,Screen_6,canvas.Screen,0_2_12_5,,skipped,13,133019.79999995232,,,133016.60000002384,,133019.89999997616,2021-10-29T05:54:19.288Z,133146.797,1635486710,full,ni_sequenzen,NI_Sequenzen,,,,,,,,,,,,,,
,Sequence,flow.Sequence,0_2_12,,completion,13,133016,,,133016.60000002384,,133020,2021-10-29T05:54:19.288Z,133146.797,1635486710,full,ni_sequenzen,NI_Sequenzen,,,,,,,,,,,,,,
,Screen_1,canvas.Screen,0_2_13_0,,skipped,14,133021.5,,,133021.5,,133021.70000004768,2021-10-29T05:54:19.289Z,133146.797,1635486710,full,ni_sequenzen,NI_Sequenzen,,,,,,,,,,,,,,
,Screen_2,canvas.Screen,0_2_13_1,,skipped,14,133022.29999995232,,,133021.5,,133022.39999997616,2021-10-29T05:54:19.290Z,133146.797,1635486710,full,ni_sequenzen,NI_Sequenzen,,,,,,,,,,,,,,
,Screen_3,canvas.Screen,0_2_13_2,,skipped,14,133023.20000004768,,,133021.5,,133023.29999995232,2021-10-29T05:54:19.291Z,133146.797,1635486710,full,ni_sequenzen,NI_Sequenzen,,,,,,,,,,,,,,
,Screen_4,canvas.Screen,0_2_13_3,,skipped,14,133023.89999997616,,,133021.5,,133024,2021-10-29T05:54:19.292Z,133146.797,1635486710,full,ni_sequenzen,NI_Sequenzen,,,,,,,,,,,,,,
,Screen_5,canvas.Screen,0_2_13_4,,skipped,14,133024.60000002384,,,133021.5,,133024.60000002384,2021-10-29T05:54:19.292Z,133146.797,1635486710,full,ni_sequenzen,NI_Sequenzen,,,,,,,,,,,,,,
,Screen_6,canvas.Screen,0_2_13_5,,skipped,14,133025.20000004768,,,133021.5,,133025.29999995232,2021-10-29T05:54:19.293Z,133146.797,1635486710,full,ni_sequenzen,NI_Sequenzen,,,,,,,,,,,,,,
,Sequence,flow.Sequence,0_2_13,,completion,14,133020.29999995232,,,133021.5,,133025.39999997616,2021-10-29T05:54:19.293Z,133146.797,1635486710,full,ni_sequenzen,NI_Sequenzen,,,,,,,,,,,,,,
,Screen_1,canvas.Screen,0_2_14_0,,skipped,15,133026.20000004768,,,133026.20000004768,,133026.29999995232,2021-10-29T05:54:19.294Z,133146.797,1635486710,full,ni_sequenzen,NI_Sequenzen,,,,,,,,,,,,,,
,Screen_2,canvas.Screen,0_2_14_1,,skipped,15,133026.89999997616,,,133026.20000004768,,133027,2021-10-29T05:54:19.295Z,133146.797,1635486710,full,ni_sequenzen,NI_Sequenzen,,,,,,,,,,,,,,
,Screen_3,canvas.Screen,0_2_14_2,,skipped,15,133027.60000002384,,,133026.20000004768,,133027.60000002384,2021-10-29T05:54:19.295Z,133146.797,1635486710,full,ni_sequenzen,NI_Sequenzen,,,,,,,,,,,,,,
,Screen_4,canvas.Screen,0_2_14_3,,skipped,15,133028.29999995232,,,133026.20000004768,,133028.29999995232,2021-10-29T05:54:19.296Z,133146.797,1635486710,full,ni_sequenzen,NI_Sequenzen,,,,,,,,,,,,,,
,Screen_5,canvas.Screen,0_2_14_4,,skipped,15,133029,,,133026.20000004768,,133029.10000002384,2021-10-29T05:54:19.297Z,133146.797,1635486710,full,ni_sequenzen,NI_Sequenzen,,,,,,,,,,,,,,
,Screen_6,canvas.Screen,0_2_14_5,,skipped,15,133029.70000004768,,,133026.20000004768,,133029.70000004768,2021-10-29T05:54:19.297Z,133146.797,1635486710,full,ni_sequenzen,NI_Sequenzen,,,,,,,,,,,,,,
,Sequence,flow.Sequence,0_2_14,,completion,15,133025.70000004768,,,133026.20000004768,,133029.89999997616,2021-10-29T05:54:19.298Z,133146.797,1635486710,full,ni_sequenzen,NI_Sequenzen,,,,,,,,,,,,,,
,Screen_1,canvas.Screen,0_2_15_0,,skipped,16,133030.70000004768,,,133030.70000004768,,133030.70000004768,2021-10-29T05:54:19.299Z,133146.797,1635486710,full,ni_sequenzen,NI_Sequenzen,,,,,,,,,,,,,,
,Screen_2,canvas.Screen,0_2_15_1,,skipped,16,133032,,,133030.70000004768,,133032.10000002384,2021-10-29T05:54:19.300Z,133146.797,1635486710,full,ni_sequenzen,NI_Sequenzen,,,,,,,,,,,,,,
,Screen_3,canvas.Screen,0_2_15_2,,skipped,16,133032.79999995232,,,133030.70000004768,,133032.79999995232,2021-10-29T05:54:19.301Z,133146.797,1635486710,full,ni_sequenzen,NI_Sequenzen,,,,,,,,,,,,,,
,Screen_4,canvas.Screen,0_2_15_3,,skipped,16,133033.39999997616,,,133030.70000004768,,133033.39999997616,2021-10-29T05:54:19.301Z,133146.797,1635486710,full,ni_sequenzen,NI_Sequenzen,,,,,,,,,,,,,,
,Screen_5,canvas.Screen,0_2_15_4,,skipped,16,133034.10000002384,,,133030.70000004768,,133034.20000004768,2021-10-29T05:54:19.302Z,133146.797,1635486710,full,ni_sequenzen,NI_Sequenzen,,,,,,,,,,,,,,
,Screen_6,canvas.Screen,0_2_15_5,,skipped,16,133034.79999995232,,,133030.70000004768,,133034.79999995232,2021-10-29T05:54:19.303Z,133146.797,1635486710,full,ni_sequenzen,NI_Sequenzen,,,,,,,,,,,,,,
,Sequence,flow.Sequence,0_2_15,,completion,16,133030.20000004768,,,133030.70000004768,,133034.89999997616,2021-10-29T05:54:19.303Z,133146.797,1635486710,full,ni_sequenzen,NI_Sequenzen,,,,,,,,,,,,,,
,Screen_1,canvas.Screen,0_2_16_0,,skipped,17,133035.79999995232,,,133035.79999995232,,133035.79999995232,2021-10-29T05:54:19.304Z,133146.797,1635486710,full,ni_sequenzen,NI_Sequenzen,,,,,,,,,,,,,,
,Screen_2,canvas.Screen,0_2_16_1,,skipped,17,133036.39999997616,,,133035.79999995232,,133036.5,2021-10-29T05:54:19.304Z,133146.797,1635486710,full,ni_sequenzen,NI_Sequenzen,,,,,,,,,,,,,,
,Screen_3,canvas.Screen,0_2_16_2,,skipped,17,133037.10000002384,,,133035.79999995232,,133037.20000004768,2021-10-29T05:54:19.305Z,133146.797,1635486710,full,ni_sequenzen,NI_Sequenzen,,,,,,,,,,,,,,
,Screen_4,canvas.Screen,0_2_16_3,,skipped,17,133037.70000004768,,,133035.79999995232,,133037.79999995232,2021-10-29T05:54:19.306Z,133146.797,1635486710,full,ni_sequenzen,NI_Sequenzen,,,,,,,,,,,,,,
,Screen_5,canvas.Screen,0_2_16_4,,skipped,17,133038.70000004768,,,133035.79999995232,,133038.79999995232,2021-10-29T05:54:19.306Z,133146.797,1635486710,full,ni_sequenzen,NI_Sequenzen,,,,,,,,,,,,,,
,Screen_6,canvas.Screen,0_2_16_5,,skipped,17,133039.39999997616,,,133035.79999995232,,133039.39999997616,2021-10-29T05:54:19.307Z,133146.797,1635486710,full,ni_sequenzen,NI_Sequenzen,,,,,,,,,,,,,,
,Sequence,flow.Sequence,0_2_16,,completion,17,133035.20000004768,,,133035.79999995232,,133039.60000002384,2021-10-29T05:54:19.307Z,133146.797,1635486710,full,ni_sequenzen,NI_Sequenzen,,,,,,,,,,,,,,
,Screen_1,canvas.Screen,0_2_17_0,,skipped,18,133040.39999997616,,,133040.39999997616,,133040.5,2021-10-29T05:54:19.308Z,133146.797,1635486710,full,ni_sequenzen,NI_Sequenzen,,,,,,,,,,,,,,
,Screen_2,canvas.Screen,0_2_17_1,,skipped,18,133041.10000002384,,,133040.39999997616,,133041.20000004768,2021-10-29T05:54:19.309Z,133146.797,1635486710,full,ni_sequenzen,NI_Sequenzen,,,,,,,,,,,,,,
,Screen_3,canvas.Screen,0_2_17_2,,skipped,18,133042.60000002384,,,133040.39999997616,,133042.70000004768,2021-10-29T05:54:19.310Z,133146.797,1635486710,full,ni_sequenzen,NI_Sequenzen,,,,,,,,,,,,,,
,Screen_4,canvas.Screen,0_2_17_3,,skipped,18,133043.29999995232,,,133040.39999997616,,133043.39999997616,2021-10-29T05:54:19.311Z,133146.797,1635486710,full,ni_sequenzen,NI_Sequenzen,,,,,,,,,,,,,,
,Screen_5,canvas.Screen,0_2_17_4,,skipped,18,133044,,,133040.39999997616,,133044.10000002384,2021-10-29T05:54:19.312Z,133146.797,1635486710,full,ni_sequenzen,NI_Sequenzen,,,,,,,,,,,,,,
,Screen_6,canvas.Screen,0_2_17_5,,skipped,18,133044.70000004768,,,133040.39999997616,,133044.70000004768,2021-10-29T05:54:19.312Z,133146.797,1635486710,full,ni_sequenzen,NI_Sequenzen,,,,,,,,,,,,,,
,Sequence,flow.Sequence,0_2_17,,completion,18,133039.79999995232,,,133040.39999997616,,133044.79999995232,2021-10-29T05:54:19.313Z,133146.797,1635486710,full,ni_sequenzen,NI_Sequenzen,,,,,,,,,,,,,,
,Screen_1,canvas.Screen,0_2_18_0,,skipped,19,133045.70000004768,,,133045.70000004768,,133045.79999995232,2021-10-29T05:54:19.313Z,133146.797,1635486710,full,ni_sequenzen,NI_Sequenzen,,,,,,,,,,,,,,
,Screen_2,canvas.Screen,0_2_18_1,,skipped,19,133046.29999995232,,,133045.70000004768,,133046.39999997616,2021-10-29T05:54:19.314Z,133146.797,1635486710,full,ni_sequenzen,NI_Sequenzen,,,,,,,,,,,,,,
,Screen_3,canvas.Screen,0_2_18_2,,skipped,19,133047,,,133045.70000004768,,133047.10000002384,2021-10-29T05:54:19.315Z,133146.797,1635486710,full,ni_sequenzen,NI_Sequenzen,,,,,,,,,,,,,,
,Screen_4,canvas.Screen,0_2_18_3,,skipped,19,133047.70000004768,,,133045.70000004768,,133047.70000004768,2021-10-29T05:54:19.315Z,133146.797,1635486710,full,ni_sequenzen,NI_Sequenzen,,,,,,,,,,,,,,
,Screen_5,canvas.Screen,0_2_18_4,,skipped,19,133048.29999995232,,,133045.70000004768,,133048.39999997616,2021-10-29T05:54:19.316Z,133146.797,1635486710,full,ni_sequenzen,NI_Sequenzen,,,,,,,,,,,,,,
,Screen_6,canvas.Screen,0_2_18_5,,skipped,19,133048.89999997616,,,133045.70000004768,,133049,2021-10-29T05:54:19.317Z,133146.797,1635486710,full,ni_sequenzen,NI_Sequenzen,,,,,,,,,,,,,,
,Sequence,flow.Sequence,0_2_18,,completion,19,133045.10000002384,,,133045.70000004768,,133049.10000002384,2021-10-29T05:54:19.317Z,133146.797,1635486710,full,ni_sequenzen,NI_Sequenzen,,,,,,,,,,,,,,
,Screen_1,canvas.Screen,0_2_19_0,,skipped,20,133050,,,133050,,133050.10000002384,2021-10-29T05:54:19.318Z,133146.797,1635486710,full,ni_sequenzen,NI_Sequenzen,,,,,,,,,,,,,,
,Screen_2,canvas.Screen,0_2_19_1,,skipped,20,133050.60000002384,,,133050,,133050.70000004768,2021-10-29T05:54:19.318Z,133146.797,1635486710,full,ni_sequenzen,NI_Sequenzen,,,,,,,,,,,,,,
,Screen_3,canvas.Screen,0_2_19_2,,skipped,20,133051.29999995232,,,133050,,133051.29999995232,2021-10-29T05:54:19.319Z,133146.797,1635486710,full,ni_sequenzen,NI_Sequenzen,,,,,,,,,,,,,,
,Screen_4,canvas.Screen,0_2_19_3,,skipped,20,133052,,,133050,,133052,2021-10-29T05:54:19.320Z,133146.797,1635486710,full,ni_sequenzen,NI_Sequenzen,,,,,,,,,,,,,,
,Screen_5,canvas.Screen,0_2_19_4,,skipped,20,133053.29999995232,,,133050,,133053.29999995232,2021-10-29T05:54:19.321Z,133146.797,1635486710,full,ni_sequenzen,NI_Sequenzen,,,,,,,,,,,,,,
,Screen_6,canvas.Screen,0_2_19_5,,skipped,20,133054.20000004768,,,133050,,133054.20000004768,2021-10-29T05:54:19.322Z,133146.797,1635486710,full,ni_sequenzen,NI_Sequenzen,,,,,,,,,,,,,,
,Sequence,flow.Sequence,0_2_19,,completion,20,133049.39999997616,,,133050,,133054.29999995232,2021-10-29T05:54:19.322Z,133146.797,1635486710,full,ni_sequenzen,NI_Sequenzen,,,,,,,,,,,,,,
,Screen_1,canvas.Screen,0_2_20_0,,skipped,21,133055.29999995232,,,133055.29999995232,,133055.29999995232,2021-10-29T05:54:19.323Z,133146.797,1635486710,full,ni_sequenzen,NI_Sequenzen,,,,,,,,,,,,,,
,Screen_2,canvas.Screen,0_2_20_1,,skipped,21,133056,,,133055.29999995232,,133056,2021-10-29T05:54:19.324Z,133146.797,1635486710,full,ni_sequenzen,NI_Sequenzen,,,,,,,,,,,,,,
,Screen_3,canvas.Screen,0_2_20_2,,skipped,21,133056.60000002384,,,133055.29999995232,,133056.70000004768,2021-10-29T05:54:19.324Z,133146.797,1635486710,full,ni_sequenzen,NI_Sequenzen,,,,,,,,,,,,,,
,Screen_4,canvas.Screen,0_2_20_3,,skipped,21,133057.20000004768,,,133055.29999995232,,133057.39999997616,2021-10-29T05:54:19.325Z,133146.797,1635486710,full,ni_sequenzen,NI_Sequenzen,,,,,,,,,,,,,,
,Screen_5,canvas.Screen,0_2_20_4,,skipped,21,133058,,,133055.29999995232,,133058,2021-10-29T05:54:19.326Z,133146.797,1635486710,full,ni_sequenzen,NI_Sequenzen,,,,,,,,,,,,,,
,Screen_6,canvas.Screen,0_2_20_5,,skipped,21,133058.70000004768,,,133055.29999995232,,133058.70000004768,2021-10-29T05:54:19.326Z,133146.797,1635486710,full,ni_sequenzen,NI_Sequenzen,,,,,,,,,,,,,,
,Sequence,flow.Sequence,0_2_20,,completion,21,133054.70000004768,,,133055.29999995232,,133058.79999995232,2021-10-29T05:54:19.327Z,133146.797,1635486710,full,ni_sequenzen,NI_Sequenzen,,,,,,,,,,,,,,
,Screen_1,canvas.Screen,0_2_21_0,,skipped,22,133059.70000004768,,,133059.70000004768,,133059.79999995232,2021-10-29T05:54:19.327Z,133146.797,1635486710,full,ni_sequenzen,NI_Sequenzen,,,,,,,,,,,,,,
,Screen_2,canvas.Screen,0_2_21_1,,skipped,22,133060.39999997616,,,133059.70000004768,,133060.39999997616,2021-10-29T05:54:19.328Z,133146.797,1635486710,full,ni_sequenzen,NI_Sequenzen,,,,,,,,,,,,,,
,Screen_3,canvas.Screen,0_2_21_2,,skipped,22,133061,,,133059.70000004768,,133061.10000002384,2021-10-29T05:54:19.329Z,133146.797,1635486710,full,ni_sequenzen,NI_Sequenzen,,,,,,,,,,,,,,
,Screen_4,canvas.Screen,0_2_21_3,,skipped,22,133061.60000002384,,,133059.70000004768,,133061.70000004768,2021-10-29T05:54:19.329Z,133146.797,1635486710,full,ni_sequenzen,NI_Sequenzen,,,,,,,,,,,,,,
,Screen_5,canvas.Screen,0_2_21_4,,skipped,22,133062.79999995232,,,133059.70000004768,,133062.89999997616,2021-10-29T05:54:19.331Z,133146.797,1635486710,full,ni_sequenzen,NI_Sequenzen,,,,,,,,,,,,,,
,Screen_6,canvas.Screen,0_2_21_5,,skipped,22,133063.60000002384,,,133059.70000004768,,133063.60000002384,2021-10-29T05:54:19.331Z,133146.797,1635486710,full,ni_sequenzen,NI_Sequenzen,,,,,,,,,,,,,,
,Sequence,flow.Sequence,0_2_21,,completion,22,133059.10000002384,,,133059.70000004768,,133063.79999995232,2021-10-29T05:54:19.332Z,133146.797,1635486710,full,ni_sequenzen,NI_Sequenzen,,,,,,,,,,,,,,
,Screen_1,canvas.Screen,0_2_22_0,,skipped,23,133065.5,,,133065.5,,133065.60000002384,2021-10-29T05:54:19.333Z,133146.797,1635486710,full,ni_sequenzen,NI_Sequenzen,,,,,,,,,,,,,,
,Screen_2,canvas.Screen,0_2_22_1,,skipped,23,133066.39999997616,,,133065.5,,133066.5,2021-10-29T05:54:19.334Z,133146.797,1635486710,full,ni_sequenzen,NI_Sequenzen,,,,,,,,,,,,,,
,Screen_3,canvas.Screen,0_2_22_2,,skipped,23,133067.89999997616,,,133065.5,,133067.89999997616,2021-10-29T05:54:19.336Z,133146.797,1635486710,full,ni_sequenzen,NI_Sequenzen,,,,,,,,,,,,,,
,Screen_4,canvas.Screen,0_2_22_3,,skipped,23,133068.60000002384,,,133065.5,,133068.60000002384,2021-10-29T05:54:19.336Z,133146.797,1635486710,full,ni_sequenzen,NI_Sequenzen,,,,,,,,,,,,,,
,Screen_5,canvas.Screen,0_2_22_4,,skipped,23,133069.39999997616,,,133065.5,,133069.5,2021-10-29T05:54:19.337Z,133146.797,1635486710,full,ni_sequenzen,NI_Sequenzen,,,,,,,,,,,,,,
,Screen_6,canvas.Screen,0_2_22_5,,skipped,23,133070.10000002384,,,133065.5,,133070.20000004768,2021-10-29T05:54:19.338Z,133146.797,1635486710,full,ni_sequenzen,NI_Sequenzen,,,,,,,,,,,,,,
,Sequence,flow.Sequence,0_2_22,,completion,23,133064.10000002384,,,133065.5,,133070.29999995232,2021-10-29T05:54:19.338Z,133146.797,1635486710,full,ni_sequenzen,NI_Sequenzen,,,,,,,,,,,,,,
,Screen_1,canvas.Screen,0_2_23_0,,skipped,24,133071.20000004768,,,133071.20000004768,,133071.20000004768,2021-10-29T05:54:19.339Z,133146.797,1635486710,full,ni_sequenzen,NI_Sequenzen,,,,,,,,,,,,,,
,Screen_2,canvas.Screen,0_2_23_1,,skipped,24,133071.89999997616,,,133071.20000004768,,133071.89999997616,2021-10-29T05:54:19.340Z,133146.797,1635486710,full,ni_sequenzen,NI_Sequenzen,,,,,,,,,,,,,,
,Screen_3,canvas.Screen,0_2_23_2,,skipped,24,133072.5,,,133071.20000004768,,133072.5,2021-10-29T05:54:19.340Z,133146.797,1635486710,full,ni_sequenzen,NI_Sequenzen,,,,,,,,,,,,,,
,Screen_4,canvas.Screen,0_2_23_3,,skipped,24,133073.20000004768,,,133071.20000004768,,133073.20000004768,2021-10-29T05:54:19.341Z,133146.797,1635486710,full,ni_sequenzen,NI_Sequenzen,,,,,,,,,,,,,,
,Screen_5,canvas.Screen,0_2_23_4,,skipped,24,133073.79999995232,,,133071.20000004768,,133073.79999995232,2021-10-29T05:54:19.342Z,133146.797,1635486710,full,ni_sequenzen,NI_Sequenzen,,,,,,,,,,,,,,
,Screen_6,canvas.Screen,0_2_23_5,,skipped,24,133074.39999997616,,,133071.20000004768,,133074.5,2021-10-29T05:54:19.342Z,133146.797,1635486710,full,ni_sequenzen,NI_Sequenzen,,,,,,,,,,,,,,
,Sequence,flow.Sequence,0_2_23,,completion,24,133070.60000002384,,,133071.20000004768,,133074.60000002384,2021-10-29T05:54:19.342Z,133146.797,1635486710,full,ni_sequenzen,NI_Sequenzen,,,,,,,,,,,,,,
,Screen_1,canvas.Screen,0_2_24_0,,skipped,25,133075.5,,,133075.5,,133075.5,2021-10-29T05:54:19.343Z,133146.797,1635486710,full,ni_sequenzen,NI_Sequenzen,,,,,,,,,,,,,,
,Screen_2,canvas.Screen,0_2_24_1,,skipped,25,133076.10000002384,,,133075.5,,133076.20000004768,2021-10-29T05:54:19.344Z,133146.797,1635486710,full,ni_sequenzen,NI_Sequenzen,,,,,,,,,,,,,,
,Screen_3,canvas.Screen,0_2_24_2,,skipped,25,133076.79999995232,,,133075.5,,133076.79999995232,2021-10-29T05:54:19.345Z,133146.797,1635486710,full,ni_sequenzen,NI_Sequenzen,,,,,,,,,,,,,,
,Screen_4,canvas.Screen,0_2_24_3,,skipped,25,133078.20000004768,,,133075.5,,133078.29999995232,2021-10-29T05:54:19.346Z,133146.797,1635486710,full,ni_sequenzen,NI_Sequenzen,,,,,,,,,,,,,,
,Screen_5,canvas.Screen,0_2_24_4,,skipped,25,133078.89999997616,,,133075.5,,133078.89999997616,2021-10-29T05:54:19.347Z,133146.797,1635486710,full,ni_sequenzen,NI_Sequenzen,,,,,,,,,,,,,,
,Screen_6,canvas.Screen,0_2_24_5,,skipped,25,133079.5,,,133075.5,,133079.60000002384,2021-10-29T05:54:19.347Z,133146.797,1635486710,full,ni_sequenzen,NI_Sequenzen,,,,,,,,,,,,,,
,Sequence,flow.Sequence,0_2_24,,completion,25,133074.89999997616,,,133075.5,,133079.70000004768,2021-10-29T05:54:19.347Z,133146.797,1635486710,full,ni_sequenzen,NI_Sequenzen,,,,,,,,,,,,,,
,Screen_1,canvas.Screen,0_2_25_0,,skipped,26,133080.60000002384,,,133080.60000002384,,133080.60000002384,2021-10-29T05:54:19.348Z,133146.797,1635486710,full,ni_sequenzen,NI_Sequenzen,,,,,,,,,,,,,,
,Screen_2,canvas.Screen,0_2_25_1,,skipped,26,133081.29999995232,,,133080.60000002384,,133081.29999995232,2021-10-29T05:54:19.349Z,133146.797,1635486710,full,ni_sequenzen,NI_Sequenzen,,,,,,,,,,,,,,
,Screen_3,canvas.Screen,0_2_25_2,,skipped,26,133081.89999997616,,,133080.60000002384,,133082,2021-10-29T05:54:19.350Z,133146.797,1635486710,full,ni_sequenzen,NI_Sequenzen,,,,,,,,,,,,,,
,Screen_4,canvas.Screen,0_2_25_3,,skipped,26,133082.5,,,133080.60000002384,,133082.60000002384,2021-10-29T05:54:19.350Z,133146.797,1635486710,full,ni_sequenzen,NI_Sequenzen,,,,,,,,,,,,,,
,Screen_5,canvas.Screen,0_2_25_4,,skipped,26,133083.20000004768,,,133080.60000002384,,133083.20000004768,2021-10-29T05:54:19.351Z,133146.797,1635486710,full,ni_sequenzen,NI_Sequenzen,,,,,,,,,,,,,,
,Screen_6,canvas.Screen,0_2_25_5,,skipped,26,133083.79999995232,,,133080.60000002384,,133083.89999997616,2021-10-29T05:54:19.352Z,133146.797,1635486710,full,ni_sequenzen,NI_Sequenzen,,,,,,,,,,,,,,
,Sequence,flow.Sequence,0_2_25,,completion,26,133080,,,133080.60000002384,,133084,2021-10-29T05:54:19.352Z,133146.797,1635486710,full,ni_sequenzen,NI_Sequenzen,,,,,,,,,,,,,,
,Screen_1,canvas.Screen,0_2_26_0,,skipped,27,133084.79999995232,,,133084.79999995232,,133085,2021-10-29T05:54:19.353Z,133146.797,1635486710,full,ni_sequenzen,NI_Sequenzen,,,,,,,,,,,,,,
,Screen_2,canvas.Screen,0_2_26_1,,skipped,27,133085.79999995232,,,133084.79999995232,,133086,2021-10-29T05:54:19.354Z,133146.797,1635486710,full,ni_sequenzen,NI_Sequenzen,,,,,,,,,,,,,,
,Screen_3,canvas.Screen,0_2_26_2,,skipped,27,133086.79999995232,,,133084.79999995232,,133086.79999995232,2021-10-29T05:54:19.355Z,133146.797,1635486710,full,ni_sequenzen,NI_Sequenzen,,,,,,,,,,,,,,
,Screen_4,canvas.Screen,0_2_26_3,,skipped,27,133087.5,,,133084.79999995232,,133087.60000002384,2021-10-29T05:54:19.355Z,133146.797,1635486710,full,ni_sequenzen,NI_Sequenzen,,,,,,,,,,,,,,
,Screen_5,canvas.Screen,0_2_26_4,,skipped,27,133088.20000004768,,,133084.79999995232,,133088.29999995232,2021-10-29T05:54:19.356Z,133146.797,1635486710,full,ni_sequenzen,NI_Sequenzen,,,,,,,,,,,,,,
,Screen_6,canvas.Screen,0_2_26_5,,skipped,27,133088.89999997616,,,133084.79999995232,,133088.89999997616,2021-10-29T05:54:19.357Z,133146.797,1635486710,full,ni_sequenzen,NI_Sequenzen,,,,,,,,,,,,,,
,Sequence,flow.Sequence,0_2_26,,completion,27,133084.20000004768,,,133084.79999995232,,133089.10000002384,2021-10-29T05:54:19.357Z,133146.797,1635486710,full,ni_sequenzen,NI_Sequenzen,,,,,,,,,,,,,,
,Screen_1,canvas.Screen,0_2_27_0,,skipped,28,133089.89999997616,,,133089.89999997616,,133089.89999997616,2021-10-29T05:54:19.358Z,133146.797,1635486710,full,ni_sequenzen,NI_Sequenzen,,,,,,,,,,,,,,
,Screen_2,canvas.Screen,0_2_27_1,,skipped,28,133091.20000004768,,,133089.89999997616,,133091.20000004768,2021-10-29T05:54:19.359Z,133146.797,1635486710,full,ni_sequenzen,NI_Sequenzen,,,,,,,,,,,,,,
,Screen_3,canvas.Screen,0_2_27_2,,skipped,28,133091.89999997616,,,133089.89999997616,,133092,2021-10-29T05:54:19.360Z,133146.797,1635486710,full,ni_sequenzen,NI_Sequenzen,,,,,,,,,,,,,,
,Screen_4,canvas.Screen,0_2_27_3,,skipped,28,133092.60000002384,,,133089.89999997616,,133092.60000002384,2021-10-29T05:54:19.360Z,133146.797,1635486710,full,ni_sequenzen,NI_Sequenzen,,,,,,,,,,,,,,
,Screen_5,canvas.Screen,0_2_27_4,,skipped,28,133093.20000004768,,,133089.89999997616,,133093.29999995232,2021-10-29T05:54:19.361Z,133146.797,1635486710,full,ni_sequenzen,NI_Sequenzen,,,,,,,,,,,,,,
,Screen_6,canvas.Screen,0_2_27_5,,skipped,28,133093.79999995232,,,133089.89999997616,,133093.89999997616,2021-10-29T05:54:19.362Z,133146.797,1635486710,full,ni_sequenzen,NI_Sequenzen,,,,,,,,,,,,,,
,Sequence,flow.Sequence,0_2_27,,completion,28,133089.29999995232,,,133089.89999997616,,133094,2021-10-29T05:54:19.362Z,133146.797,1635486710,full,ni_sequenzen,NI_Sequenzen,,,,,,,,,,,,,,
,Screen_1,canvas.Screen,0_2_28_0,,skipped,29,133094.89999997616,,,133094.89999997616,,133094.89999997616,2021-10-29T05:54:19.363Z,133146.797,1635486710,full,ni_sequenzen,NI_Sequenzen,,,,,,,,,,,,,,
,Screen_2,canvas.Screen,0_2_28_1,,skipped,29,133095.5,,,133094.89999997616,,133095.60000002384,2021-10-29T05:54:19.363Z,133146.797,1635486710,full,ni_sequenzen,NI_Sequenzen,,,,,,,,,,,,,,
,Screen_3,canvas.Screen,0_2_28_2,,skipped,29,133096.10000002384,,,133094.89999997616,,133096.20000004768,2021-10-29T05:54:19.364Z,133146.797,1635486710,full,ni_sequenzen,NI_Sequenzen,,,,,,,,,,,,,,
,Screen_4,canvas.Screen,0_2_28_3,,skipped,29,133096.79999995232,,,133094.89999997616,,133096.89999997616,2021-10-29T05:54:19.365Z,133146.797,1635486710,full,ni_sequenzen,NI_Sequenzen,,,,,,,,,,,,,,
,Screen_5,canvas.Screen,0_2_28_4,,skipped,29,133097.5,,,133094.89999997616,,133097.5,2021-10-29T05:54:19.365Z,133146.797,1635486710,full,ni_sequenzen,NI_Sequenzen,,,,,,,,,,,,,,
,Screen_6,canvas.Screen,0_2_28_5,,skipped,29,133098.10000002384,,,133094.89999997616,,133098.10000002384,2021-10-29T05:54:19.366Z,133146.797,1635486710,full,ni_sequenzen,NI_Sequenzen,,,,,,,,,,,,,,
,Sequence,flow.Sequence,0_2_28,,completion,29,133094.29999995232,,,133094.89999997616,,133098.29999995232,2021-10-29T05:54:19.366Z,133146.797,1635486710,full,ni_sequenzen,NI_Sequenzen,,,,,,,,,,,,,,
,Screen_1,canvas.Screen,0_2_29_0,,skipped,30,133099.10000002384,,,133099.10000002384,,133099.10000002384,2021-10-29T05:54:19.367Z,133146.797,1635486710,full,ni_sequenzen,NI_Sequenzen,,,,,,,,,,,,,,
,Screen_2,canvas.Screen,0_2_29_1,,skipped,30,133099.70000004768,,,133099.10000002384,,133099.79999995232,2021-10-29T05:54:19.368Z,133146.797,1635486710,full,ni_sequenzen,NI_Sequenzen,,,,,,,,,,,,,,
,Screen_3,canvas.Screen,0_2_29_2,,skipped,30,133100.39999997616,,,133099.10000002384,,133100.5,2021-10-29T05:54:19.368Z,133146.797,1635486710,full,ni_sequenzen,NI_Sequenzen,,,,,,,,,,,,,,
,Screen_4,canvas.Screen,0_2_29_3,,skipped,30,133101.70000004768,,,133099.10000002384,,133101.79999995232,2021-10-29T05:54:19.370Z,133146.797,1635486710,full,ni_sequenzen,NI_Sequenzen,,,,,,,,,,,,,,
,Screen_5,canvas.Screen,0_2_29_4,,skipped,30,133102.39999997616,,,133099.10000002384,,133102.5,2021-10-29T05:54:19.370Z,133146.797,1635486710,full,ni_sequenzen,NI_Sequenzen,,,,,,,,,,,,,,
,Screen_6,canvas.Screen,0_2_29_5,,skipped,30,133103.10000002384,,,133099.10000002384,,133103.10000002384,2021-10-29T05:54:19.371Z,133146.797,1635486710,full,ni_sequenzen,NI_Sequenzen,,,,,,,,,,,,,,
,Sequence,flow.Sequence,0_2_29,,completion,30,133098.5,,,133099.10000002384,,133103.20000004768,2021-10-29T05:54:19.371Z,133146.797,1635486710,full,ni_sequenzen,NI_Sequenzen,,,,,,,,,,,,,,
,Instructions_II,flow.Loop,0_2,,completion,,61199.299999952316,61189.451,61206.223,133099.10000002384,71892.87700002384,133103.29999995232,2021-10-29T05:54:19.371Z,133146.797,1635486710,full,ni_sequenzen,NI_Sequenzen,,,,,,,,,,,,,,
,Move,canvas.Screen,0_3_0_0_0_0,down,response,,133132.10000002384,133129.921,133146.797,144034,10887.203000000009,144034.39999997616,2021-10-29T05:54:30.302Z,144047.961,1635486710,full,ni_sequenzen,NI_Sequenzen,1,0,,,,,,,,,,,,
,Move,canvas.Screen,0_3_0_0_0_1,left,response,,144039.89999997616,144031.063,144047.961,144802.39999997616,754.4389999761479,144802.79999995232,2021-10-29T05:54:31.071Z,144814.695,1635486710,full,ni_sequenzen,NI_Sequenzen,2,0,,,,,,,,,,,,
,Move,canvas.Screen,0_3_0_0_0_2,down,response,,144805.10000002384,144798.089,144814.695,145266.89999997616,452.20499997615116,145267.39999997616,2021-10-29T05:54:31.535Z,145281.454,1635486710,full,ni_sequenzen,NI_Sequenzen,3,0,,,,,,,,,,,,
,Move,canvas.Screen,0_3_0_0_0_3,left,response,,145269.79999995232,145264.801,145281.454,145711.29999995232,429.8459999523184,145711.70000004768,2021-10-29T05:54:31.979Z,145748.224,1635486710,full,ni_sequenzen,NI_Sequenzen,4,0,,,,,,,,,,,,
,Move,canvas.Screen,0_3_0_0_0_4,-999,skipped,,145713.89999997616,,,145711.29999995232,,145714,2021-10-29T05:54:31.982Z,145748.224,1635486710,full,ni_sequenzen,NI_Sequenzen,5,0,,,,,,,,,,,,
,Move,canvas.Screen,0_3_0_0_0_5,-999,skipped,,145715.79999995232,,,145711.29999995232,,145715.79999995232,2021-10-29T05:54:31.984Z,145748.224,1635486710,full,ni_sequenzen,NI_Sequenzen,6,0,,,,,,,,,,,,
,Move,canvas.Screen,0_3_0_0_0_6,-999,skipped,,145718.5,,,145711.29999995232,,145718.5,2021-10-29T05:54:31.986Z,145748.224,1635486710,full,ni_sequenzen,NI_Sequenzen,7,0,,,,,,,,,,,,
,Move,canvas.Screen,0_3_0_0_0_7,-999,skipped,,145720.29999995232,,,145711.29999995232,,145720.29999995232,2021-10-29T05:54:31.988Z,145748.224,1635486710,full,ni_sequenzen,NI_Sequenzen,8,0,,,,,,,,,,,,
,Move,canvas.Screen,0_3_0_0_0_8,-999,skipped,,145722.29999995232,,,145711.29999995232,,145722.39999997616,2021-10-29T05:54:31.990Z,145748.224,1635486710,full,ni_sequenzen,NI_Sequenzen,9,0,,,,,,,,,,,,
,Move,canvas.Screen,0_3_0_0_0_9,-999,skipped,,145724.79999995232,,,145711.29999995232,,145724.79999995232,2021-10-29T05:54:31.993Z,145748.224,1635486710,full,ni_sequenzen,NI_Sequenzen,10,0,,,,,,,,,,,,
,Move,canvas.Screen,0_3_0_0_0_10,-999,skipped,,145726.5,,,145711.29999995232,,145726.5,2021-10-29T05:54:31.994Z,145748.224,1635486710,full,ni_sequenzen,NI_Sequenzen,11,0,,,,,,,,,,,,
,Move,canvas.Screen,0_3_0_0_0_11,-999,skipped,,145728.79999995232,,,145711.29999995232,,145728.89999997616,2021-10-29T05:54:31.997Z,145748.224,1635486710,full,ni_sequenzen,NI_Sequenzen,12,0,,,,,,,,,,,,
,Move,canvas.Screen,0_3_0_0_0_12,-999,skipped,,145731.60000002384,,,145711.29999995232,,145731.60000002384,2021-10-29T05:54:31.999Z,145748.224,1635486710,full,ni_sequenzen,NI_Sequenzen,13,0,,,,,,,,,,,,
,Move,canvas.Screen,0_3_0_0_0_13,-999,skipped,,145733.39999997616,,,145711.29999995232,,145733.39999997616,2021-10-29T05:54:32.001Z,145748.224,1635486710,full,ni_sequenzen,NI_Sequenzen,14,0,,,,,,,,,,,,
,Move,canvas.Screen,0_3_0_0_0_14,-999,skipped,,145736.20000004768,,,145711.29999995232,,145736.29999995232,2021-10-29T05:54:32.004Z,145748.224,1635486710,full,ni_sequenzen,NI_Sequenzen,15,0,,,,,,,,,,,,
,Loop,flow.Loop,0_3_0_0_0,-999,completion,,133127.10000002384,133129.921,133146.797,145711.29999995232,12564.502999952325,145736.39999997616,2021-10-29T05:54:32.004Z,145748.224,1635486710,full,ni_sequenzen,NI_Sequenzen,,0,,,,,,,,,,,,
,Feedback,canvas.Screen,0_3_0_0_1,,timeout,,145738.79999995232,145731.553,145748.224,149731.961,4000.3070000000007,149732.60000002384,2021-10-29T05:54:36.000Z,149748.531,1635486710,full,ni_sequenzen,NI_Sequenzen,,0,,,,,,,,,,,,
,Trial,flow.Sequence,0_3_0_0,,completion,,133116.60000002384,133129.921,133146.797,149731.961,16585.16400000002,149732.79999995232,2021-10-29T05:54:36.001Z,149765.271,1635486710,full,ni_sequenzen,NI_Sequenzen,,0,,,,,,,,,,,,
,Move,canvas.Screen,0_3_0_1_0_0,down,response,,149746.20000004768,149748.531,149765.271,150908.5,1143.228999999992,150908.89999997616,2021-10-29T05:54:37.177Z,150915.286,1635486710,full,ni_sequenzen,NI_Sequenzen,1,1,,,,,,,,,,,,
,Move,canvas.Screen,0_3_0_1_0_1,left,response,,150912.10000002384,150898.697,150915.286,151221.79999995232,306.5139999523235,151222.20000004768,2021-10-29T05:54:37.490Z,151232.019,1635486710,full,ni_sequenzen,NI_Sequenzen,2,1,,,,,,,,,,,,
,Move,canvas.Screen,0_3_0_1_0_2,down,response,,151224.5,151215.43,151232.019,151493.89999997616,261.8809999761579,151494.5,2021-10-29T05:54:37.762Z,151498.703,1635486710,full,ni_sequenzen,NI_Sequenzen,3,1,,,,,,,,,,,,
,Move,canvas.Screen,0_3_0_1_0_3,left,response,,151497,151482.125,151498.703,151798.20000004768,299.4970000476751,151798.79999995232,2021-10-29T05:54:38.067Z,151832.206,1635486710,full,ni_sequenzen,NI_Sequenzen,4,1,,,,,,,,,,,,
,Move,canvas.Screen,0_3_0_1_0_4,-999,skipped,,151801.10000002384,,,151798.20000004768,,151801.29999995232,2021-10-29T05:54:38.069Z,151832.206,1635486710,full,ni_sequenzen,NI_Sequenzen,5,1,,,,,,,,,,,,
,Move,canvas.Screen,0_3_0_1_0_5,-999,skipped,,151803.5,,,151798.20000004768,,151803.70000004768,2021-10-29T05:54:38.071Z,151832.206,1635486710,full,ni_sequenzen,NI_Sequenzen,6,1,,,,,,,,,,,,
,Move,canvas.Screen,0_3_0_1_0_6,-999,skipped,,151805.60000002384,,,151798.20000004768,,151805.60000002384,2021-10-29T05:54:38.073Z,151832.206,1635486710,full,ni_sequenzen,NI_Sequenzen,7,1,,,,,,,,,,,,
,Move,canvas.Screen,0_3_0_1_0_7,-999,skipped,,151807.20000004768,,,151798.20000004768,,151807.20000004768,2021-10-29T05:54:38.075Z,151832.206,1635486710,full,ni_sequenzen,NI_Sequenzen,8,1,,,,,,,,,,,,
,Move,canvas.Screen,0_3_0_1_0_8,-999,skipped,,151808.89999997616,,,151798.20000004768,,151808.89999997616,2021-10-29T05:54:38.077Z,151832.206,1635486710,full,ni_sequenzen,NI_Sequenzen,9,1,,,,,,,,,,,,
,Move,canvas.Screen,0_3_0_1_0_9,-999,skipped,,151811.60000002384,,,151798.20000004768,,151811.70000004768,2021-10-29T05:54:38.080Z,151832.206,1635486710,full,ni_sequenzen,NI_Sequenzen,10,1,,,,,,,,,,,,
,Move,canvas.Screen,0_3_0_1_0_10,-999,skipped,,151813.70000004768,,,151798.20000004768,,151813.70000004768,2021-10-29T05:54:38.082Z,151832.206,1635486710,full,ni_sequenzen,NI_Sequenzen,11,1,,,,,,,,,,,,
,Move,canvas.Screen,0_3_0_1_0_11,-999,skipped,,151815.5,,,151798.20000004768,,151815.60000002384,2021-10-29T05:54:38.083Z,151832.206,1635486710,full,ni_sequenzen,NI_Sequenzen,12,1,,,,,,,,,,,,
,Move,canvas.Screen,0_3_0_1_0_12,-999,skipped,,151817.79999995232,,,151798.20000004768,,151817.79999995232,2021-10-29T05:54:38.086Z,151832.206,1635486710,full,ni_sequenzen,NI_Sequenzen,13,1,,,,,,,,,,,,
,Move,canvas.Screen,0_3_0_1_0_13,-999,skipped,,151819.39999997616,,,151798.20000004768,,151819.39999997616,2021-10-29T05:54:38.087Z,151832.206,1635486710,full,ni_sequenzen,NI_Sequenzen,14,1,,,,,,,,,,,,
,Move,canvas.Screen,0_3_0_1_0_14,-999,skipped,,151821.5,,,151798.20000004768,,151821.70000004768,2021-10-29T05:54:38.089Z,151832.206,1635486710,full,ni_sequenzen,NI_Sequenzen,15,1,,,,,,,,,,,,
,Loop,flow.Loop,0_3_0_1_0,-999,completion,,149744.10000002384,149748.531,149765.271,151798.20000004768,2032.9290000476758,151821.70000004768,2021-10-29T05:54:38.090Z,151832.206,1635486710,full,ni_sequenzen,NI_Sequenzen,,1,,,,,,,,,,,,
,Feedback,canvas.Screen,0_3_0_1_1,,timeout,,151823.70000004768,151815.53,151832.206,155815.902,4000.2880000000005,155816.29999995232,2021-10-29T05:54:42.086Z,155832.494,1635486710,full,ni_sequenzen,NI_Sequenzen,,1,,,,,,,,,,,,
,Trial,flow.Sequence,0_3_0_1,,completion,,149733,149748.531,149765.271,155815.902,6050.630999999994,155816.5,2021-10-29T05:54:42.086Z,155849.241,1635486710,full,ni_sequenzen,NI_Sequenzen,,1,,,,,,,,,,,,
,Move,canvas.Screen,0_3_0_2_0_0,right,response,,155828.20000004768,155832.494,155849.241,156669.39999997616,820.1589999761491,156669.89999997616,2021-10-29T05:54:42.940Z,156682.639,1635486710,full,ni_sequenzen,NI_Sequenzen,1,2,,,,,,,,,,,,
,Move,canvas.Screen,0_3_0_2_0_1,down,response,,156672.70000004768,156665.989,156682.639,157043.70000004768,361.06100004768814,157044.29999995232,2021-10-29T05:54:43.314Z,157049.26,1635486710,full,ni_sequenzen,NI_Sequenzen,2,2,,,,,,,,,,,,
,Move,canvas.Screen,0_3_0_2_0_2,right,response,,157046.5,157032.703,157049.26,157427.79999995232,378.53999995230697,157428.5,2021-10-29T05:54:43.699Z,157432.649,1635486710,full,ni_sequenzen,NI_Sequenzen,3,2,,,,,,,,,,,,
,Move,canvas.Screen,0_3_0_2_0_3,down,response,,157430.5,157416.075,157432.649,157822.79999995232,390.1509999523114,157823.39999997616,2021-10-29T05:54:44.093Z,157849.406,1635486710,full,ni_sequenzen,NI_Sequenzen,4,2,,,,,,,,,,,,
,Move,canvas.Screen,0_3_0_2_0_4,-999,skipped,,157825.5,,,157822.79999995232,,157825.60000002384,2021-10-29T05:54:44.096Z,157849.406,1635486710,full,ni_sequenzen,NI_Sequenzen,5,2,,,,,,,,,,,,
,Move,canvas.Screen,0_3_0_2_0_5,-999,skipped,,157827.20000004768,,,157822.79999995232,,157827.29999995232,2021-10-29T05:54:44.097Z,157849.406,1635486710,full,ni_sequenzen,NI_Sequenzen,6,2,,,,,,,,,,,,
,Move,canvas.Screen,0_3_0_2_0_6,-999,skipped,,157828.79999995232,,,157822.79999995232,,157828.79999995232,2021-10-29T05:54:44.099Z,157849.406,1635486710,full,ni_sequenzen,NI_Sequenzen,7,2,,,,,,,,,,,,
,Move,canvas.Screen,0_3_0_2_0_7,-999,skipped,,157830.79999995232,,,157822.79999995232,,157830.89999997616,2021-10-29T05:54:44.101Z,157849.406,1635486710,full,ni_sequenzen,NI_Sequenzen,8,2,,,,,,,,,,,,
,Move,canvas.Screen,0_3_0_2_0_8,-999,skipped,,157832.70000004768,,,157822.79999995232,,157832.79999995232,2021-10-29T05:54:44.103Z,157849.406,1635486710,full,ni_sequenzen,NI_Sequenzen,9,2,,,,,,,,,,,,
,Move,canvas.Screen,0_3_0_2_0_9,-999,skipped,,157834.39999997616,,,157822.79999995232,,157834.39999997616,2021-10-29T05:54:44.104Z,157849.406,1635486710,full,ni_sequenzen,NI_Sequenzen,10,2,,,,,,,,,,,,
,Move,canvas.Screen,0_3_0_2_0_10,-999,skipped,,157836.5,,,157822.79999995232,,157836.60000002384,2021-10-29T05:54:44.107Z,157849.406,1635486710,full,ni_sequenzen,NI_Sequenzen,11,2,,,,,,,,,,,,
,Move,canvas.Screen,0_3_0_2_0_11,-999,skipped,,157838.20000004768,,,157822.79999995232,,157838.29999995232,2021-10-29T05:54:44.108Z,157849.406,1635486710,full,ni_sequenzen,NI_Sequenzen,12,2,,,,,,,,,,,,
,Move,canvas.Screen,0_3_0_2_0_12,-999,skipped,,157839.89999997616,,,157822.79999995232,,157840,2021-10-29T05:54:44.110Z,157849.406,1635486710,full,ni_sequenzen,NI_Sequenzen,13,2,,,,,,,,,,,,
,Move,canvas.Screen,0_3_0_2_0_13,-999,skipped,,157841.5,,,157822.79999995232,,157841.60000002384,2021-10-29T05:54:44.112Z,157849.406,1635486710,full,ni_sequenzen,NI_Sequenzen,14,2,,,,,,,,,,,,
,Move,canvas.Screen,0_3_0_2_0_14,-999,skipped,,157843.60000002384,,,157822.79999995232,,157843.70000004768,2021-10-29T05:54:44.114Z,157849.406,1635486710,full,ni_sequenzen,NI_Sequenzen,15,2,,,,,,,,,,,,
,Loop,flow.Loop,0_3_0_2_0,-999,completion,,155825.60000002384,155832.494,155849.241,157822.79999995232,1973.5589999523072,157843.79999995232,2021-10-29T05:54:44.114Z,157849.406,1635486710,full,ni_sequenzen,NI_Sequenzen,,2,,,,,,,,,,,,
,Feedback,canvas.Screen,0_3_0_2_1,,timeout,,157845.20000004768,157832.779,157849.406,161833.222,4000.3790000000154,161833.60000002384,2021-10-29T05:54:48.104Z,161849.785,1635486710,full,ni_sequenzen,NI_Sequenzen,,2,,,,,,,,,,,,
,Trial,flow.Sequence,0_3_0_2,,completion,,155816.70000004768,155832.494,155849.241,161833.222,5983.981,161833.79999995232,2021-10-29T05:54:48.104Z,161866.516,1635486710,full,ni_sequenzen,NI_Sequenzen,,2,,,,,,,,,,,,
,Move,canvas.Screen,0_3_0_3_0_0,right,response,,161845.89999997616,161849.785,161866.516,162573.10000002384,706.5840000238386,162573.70000004768,2021-10-29T05:54:48.844Z,162583.295,1635486710,full,ni_sequenzen,NI_Sequenzen,1,3,,,,,,,,,,,,
,Move,canvas.Screen,0_3_0_3_0_1,down,response,,162576,162566.584,162583.295,162958.20000004768,374.9050000476709,162959,2021-10-29T05:54:49.229Z,162966.631,1635486710,full,ni_sequenzen,NI_Sequenzen,2,3,,,,,,,,,,,,
,Move,canvas.Screen,0_3_0_3_0_2,right,response,,162961.79999995232,162949.974,162966.631,163422.89999997616,456.2689999761642,163423.39999997616,2021-10-29T05:54:49.694Z,163433.488,1635486710,full,ni_sequenzen,NI_Sequenzen,3,3,,,,,,,,,,,,
,Move,canvas.Screen,0_3_0_3_0_3,down,response,,163425.5,163416.688,163433.488,163755.60000002384,322.11200002382975,163756.10000002384,2021-10-29T05:54:50.026Z,163800.186,1635486710,full,ni_sequenzen,NI_Sequenzen,4,3,,,,,,,,,,,,
,Move,canvas.Screen,0_3_0_3_0_4,-999,skipped,,163758.29999995232,,,163755.60000002384,,163758.29999995232,2021-10-29T05:54:50.028Z,163800.186,1635486710,full,ni_sequenzen,NI_Sequenzen,5,3,,,,,,,,,,,,
,Move,canvas.Screen,0_3_0_3_0_5,-999,skipped,,163760.5,,,163755.60000002384,,163760.60000002384,2021-10-29T05:54:50.031Z,163800.186,1635486710,full,ni_sequenzen,NI_Sequenzen,6,3,,,,,,,,,,,,
,Move,canvas.Screen,0_3_0_3_0_6,-999,skipped,,163762.29999995232,,,163755.60000002384,,163762.39999997616,2021-10-29T05:54:50.032Z,163800.186,1635486710,full,ni_sequenzen,NI_Sequenzen,7,3,,,,,,,,,,,,
,Move,canvas.Screen,0_3_0_3_0_7,-999,skipped,,163763.89999997616,,,163755.60000002384,,163764.20000004768,2021-10-29T05:54:50.034Z,163800.186,1635486710,full,ni_sequenzen,NI_Sequenzen,8,3,,,,,,,,,,,,
,Move,canvas.Screen,0_3_0_3_0_8,-999,skipped,,163766.10000002384,,,163755.60000002384,,163766.10000002384,2021-10-29T05:54:50.036Z,163800.186,1635486710,full,ni_sequenzen,NI_Sequenzen,9,3,,,,,,,,,,,,
,Move,canvas.Screen,0_3_0_3_0_9,-999,skipped,,163768.5,,,163755.60000002384,,163768.60000002384,2021-10-29T05:54:50.039Z,163800.186,1635486710,full,ni_sequenzen,NI_Sequenzen,10,3,,,,,,,,,,,,
,Move,canvas.Screen,0_3_0_3_0_10,-999,skipped,,163770.10000002384,,,163755.60000002384,,163770.20000004768,2021-10-29T05:54:50.040Z,163800.186,1635486710,full,ni_sequenzen,NI_Sequenzen,11,3,,,,,,,,,,,,
,Move,canvas.Screen,0_3_0_3_0_11,-999,skipped,,163771.79999995232,,,163755.60000002384,,163771.89999997616,2021-10-29T05:54:50.042Z,163800.186,1635486710,full,ni_sequenzen,NI_Sequenzen,12,3,,,,,,,,,,,,
,Move,canvas.Screen,0_3_0_3_0_12,-999,skipped,,163773.89999997616,,,163755.60000002384,,163785.39999997616,2021-10-29T05:54:50.055Z,163800.186,1635486710,full,ni_sequenzen,NI_Sequenzen,13,3,,,,,,,,,,,,
,Move,canvas.Screen,0_3_0_3_0_13,-999,skipped,,163788.29999995232,,,163755.60000002384,,163788.29999995232,2021-10-29T05:54:50.058Z,163800.186,1635486710,full,ni_sequenzen,NI_Sequenzen,14,3,,,,,,,,,,,,
,Move,canvas.Screen,0_3_0_3_0_14,-999,skipped,,163790.20000004768,,,163755.60000002384,,163790.20000004768,2021-10-29T05:54:50.060Z,163800.186,1635486710,full,ni_sequenzen,NI_Sequenzen,15,3,,,,,,,,,,,,
,Loop,flow.Loop,0_3_0_3_0,-999,completion,,161843.70000004768,161849.785,161866.516,163755.60000002384,1889.0840000238386,163790.29999995232,2021-10-29T05:54:50.060Z,163800.186,1635486710,full,ni_sequenzen,NI_Sequenzen,,3,,,,,,,,,,,,
,Feedback,canvas.Screen,0_3_0_3_1,,timeout,,163791.70000004768,163783.392,163800.186,167783.825,4000.29800000001,167784.29999995232,2021-10-29T05:54:54.054Z,167800.484,1635486710,full,ni_sequenzen,NI_Sequenzen,,3,,,,,,,,,,,,
,Trial,flow.Sequence,0_3_0_3,,completion,,161834,161849.785,161866.516,167783.825,5917.309000000008,167784.39999997616,2021-10-29T05:54:54.054Z,167817.13,1635486710,full,ni_sequenzen,NI_Sequenzen,,3,,,,,,,,,,,,
,Move,canvas.Screen,0_3_0_4_0_0,down,response,,167797.60000002384,167800.484,167817.13,168437.89999997616,620.7699999761535,168438.60000002384,2021-10-29T05:54:54.709Z,168450.53,1635486710,full,ni_sequenzen,NI_Sequenzen,1,4,,,,,,,,,,,,
,Move,canvas.Screen,0_3_0_4_0_1,down,response,,168441.10000002384,168433.873,168450.53,168659.29999995232,208.76999995231745,168659.79999995232,2021-10-29T05:54:54.930Z,168667.147,1635486710,full,ni_sequenzen,NI_Sequenzen,2,4,,,,,,,,,,,,
,Move,canvas.Screen,0_3_0_4_0_2,right,response,,168661.70000004768,168650.596,168667.147,169235.89999997616,568.7529999761609,169236.39999997616,2021-10-29T05:54:55.507Z,169250.593,1635486710,full,ni_sequenzen,NI_Sequenzen,3,4,,,,,,,,,,,,
,Move,canvas.Screen,0_3_0_4_0_3,down,response,,169239.10000002384,169233.946,169250.593,169458.60000002384,208.00700002384838,169459.10000002384,2021-10-29T05:54:55.729Z,169483.906,1635486710,full,ni_sequenzen,NI_Sequenzen,4,4,,,,,,,,,,,,
,Move,canvas.Screen,0_3_0_4_0_4,-999,skipped,,169461.5,,,169458.60000002384,,169461.70000004768,2021-10-29T05:54:55.732Z,169483.906,1635486710,full,ni_sequenzen,NI_Sequenzen,5,4,,,,,,,,,,,,
,Move,canvas.Screen,0_3_0_4_0_5,-999,skipped,,169463.20000004768,,,169458.60000002384,,169463.20000004768,2021-10-29T05:54:55.733Z,169483.906,1635486710,full,ni_sequenzen,NI_Sequenzen,6,4,,,,,,,,,,,,
,Move,canvas.Screen,0_3_0_4_0_6,-999,skipped,,169465.10000002384,,,169458.60000002384,,169465.20000004768,2021-10-29T05:54:55.735Z,169483.906,1635486710,full,ni_sequenzen,NI_Sequenzen,7,4,,,,,,,,,,,,
,Move,canvas.Screen,0_3_0_4_0_7,-999,skipped,,169466.70000004768,,,169458.60000002384,,169466.70000004768,2021-10-29T05:54:55.737Z,169483.906,1635486710,full,ni_sequenzen,NI_Sequenzen,8,4,,,,,,,,,,,,
,Move,canvas.Screen,0_3_0_4_0_8,-999,skipped,,169468.10000002384,,,169458.60000002384,,169468.20000004768,2021-10-29T05:54:55.738Z,169483.906,1635486710,full,ni_sequenzen,NI_Sequenzen,9,4,,,,,,,,,,,,
,Move,canvas.Screen,0_3_0_4_0_9,-999,skipped,,169470.20000004768,,,169458.60000002384,,169470.29999995232,2021-10-29T05:54:55.740Z,169483.906,1635486710,full,ni_sequenzen,NI_Sequenzen,10,4,,,,,,,,,,,,
,Move,canvas.Screen,0_3_0_4_0_10,-999,skipped,,169472.10000002384,,,169458.60000002384,,169472.10000002384,2021-10-29T05:54:55.742Z,169483.906,1635486710,full,ni_sequenzen,NI_Sequenzen,11,4,,,,,,,,,,,,
,Move,canvas.Screen,0_3_0_4_0_11,-999,skipped,,169473.89999997616,,,169458.60000002384,,169473.89999997616,2021-10-29T05:54:55.744Z,169483.906,1635486710,full,ni_sequenzen,NI_Sequenzen,12,4,,,,,,,,,,,,
,Move,canvas.Screen,0_3_0_4_0_12,-999,skipped,,169475.60000002384,,,169458.60000002384,,169475.70000004768,2021-10-29T05:54:55.746Z,169483.906,1635486710,full,ni_sequenzen,NI_Sequenzen,13,4,,,,,,,,,,,,
,Move,canvas.Screen,0_3_0_4_0_13,-999,skipped,,169477.79999995232,,,169458.60000002384,,169477.89999997616,2021-10-29T05:54:55.748Z,169483.906,1635486710,full,ni_sequenzen,NI_Sequenzen,14,4,,,,,,,,,,,,
,Move,canvas.Screen,0_3_0_4_0_14,-999,skipped,,169479.70000004768,,,169458.60000002384,,169479.70000004768,2021-10-29T05:54:55.750Z,169483.906,1635486710,full,ni_sequenzen,NI_Sequenzen,15,4,,,,,,,,,,,,
,Loop,flow.Loop,0_3_0_4_0,-999,completion,,167795.29999995232,167800.484,167817.13,169458.60000002384,1641.4700000238372,169479.89999997616,2021-10-29T05:54:55.750Z,169483.906,1635486710,full,ni_sequenzen,NI_Sequenzen,,4,,,,,,,,,,,,
,Feedback,canvas.Screen,0_3_0_4_1,,timeout,,169481.20000004768,169467.321,169483.906,173467.752,4000.515000000014,173468.10000002384,2021-10-29T05:54:59.738Z,173484.421,1635486710,full,ni_sequenzen,NI_Sequenzen,,4,,,,,,,,,,,,
,Trial,flow.Sequence,0_3_0_4,,completion,,167784.70000004768,167800.484,167817.13,173467.752,5650.622000000003,173468.29999995232,2021-10-29T05:54:59.738Z,173501.056,1635486710,full,ni_sequenzen,NI_Sequenzen,,4,,,,,,,,,,,,
,Move,canvas.Screen,0_3_0_5_0_0,right,response,,173478.89999997616,173484.421,173501.056,174875.89999997616,1374.8439999761467,174876.5,2021-10-29T05:55:01.147Z,174884.54,1635486710,full,ni_sequenzen,NI_Sequenzen,1,5,,,,,,,,,,,,
,Move,canvas.Screen,0_3_0_5_0_1,down,response,,174879.60000002384,174867.831,174884.54,175099.70000004768,215.16000004767557,175100.20000004768,2021-10-29T05:55:01.370Z,175117.905,1635486710,full,ni_sequenzen,NI_Sequenzen,2,5,,,,,,,,,,,,
,Move,canvas.Screen,0_3_0_5_0_2,right,response,,175102.20000004768,175101.24,175117.905,175381.79999995232,263.89499995231745,175382.5,2021-10-29T05:55:01.653Z,175401.183,1635486710,full,ni_sequenzen,NI_Sequenzen,3,5,,,,,,,,,,,,
,Move,canvas.Screen,0_3_0_5_0_3,down,response,,175384.39999997616,175384.6,175401.183,175685.5,284.31700000001,175686,2021-10-29T05:55:01.956Z,175717.959,1635486710,full,ni_sequenzen,NI_Sequenzen,4,5,,,,,,,,,,,,
,Move,canvas.Screen,0_3_0_5_0_4,-999,skipped,,175688.39999997616,,,175685.5,,175688.60000002384,2021-10-29T05:55:01.959Z,175717.959,1635486710,full,ni_sequenzen,NI_Sequenzen,5,5,,,,,,,,,,,,
,Move,canvas.Screen,0_3_0_5_0_5,-999,skipped,,175690.20000004768,,,175685.5,,175690.29999995232,2021-10-29T05:55:01.960Z,175717.959,1635486710,full,ni_sequenzen,NI_Sequenzen,6,5,,,,,,,,,,,,
,Move,canvas.Screen,0_3_0_5_0_6,-999,skipped,,175691.89999997616,,,175685.5,,175692,2021-10-29T05:55:01.962Z,175717.959,1635486710,full,ni_sequenzen,NI_Sequenzen,7,5,,,,,,,,,,,,
,Move,canvas.Screen,0_3_0_5_0_7,-999,skipped,,175694.10000002384,,,175685.5,,175694.20000004768,2021-10-29T05:55:01.964Z,175717.959,1635486710,full,ni_sequenzen,NI_Sequenzen,8,5,,,,,,,,,,,,
,Move,canvas.Screen,0_3_0_5_0_8,-999,skipped,,175695.79999995232,,,175685.5,,175695.89999997616,2021-10-29T05:55:01.966Z,175717.959,1635486710,full,ni_sequenzen,NI_Sequenzen,9,5,,,,,,,,,,,,
,Move,canvas.Screen,0_3_0_5_0_9,-999,skipped,,175697.39999997616,,,175685.5,,175697.5,2021-10-29T05:55:01.968Z,175717.959,1635486710,full,ni_sequenzen,NI_Sequenzen,10,5,,,,,,,,,,,,
,Move,canvas.Screen,0_3_0_5_0_10,-999,skipped,,175699.70000004768,,,175685.5,,175699.79999995232,2021-10-29T05:55:01.970Z,175717.959,1635486710,full,ni_sequenzen,NI_Sequenzen,11,5,,,,,,,,,,,,
,Move,canvas.Screen,0_3_0_5_0_11,-999,skipped,,175701.60000002384,,,175685.5,,175701.70000004768,2021-10-29T05:55:01.972Z,175717.959,1635486710,full,ni_sequenzen,NI_Sequenzen,12,5,,,,,,,,,,,,
,Move,canvas.Screen,0_3_0_5_0_12,-999,skipped,,175703.20000004768,,,175685.5,,175703.29999995232,2021-10-29T05:55:01.973Z,175717.959,1635486710,full,ni_sequenzen,NI_Sequenzen,13,5,,,,,,,,,,,,
,Move,canvas.Screen,0_3_0_5_0_13,-999,skipped,,175704.89999997616,,,175685.5,,175704.89999997616,2021-10-29T05:55:01.975Z,175717.959,1635486710,full,ni_sequenzen,NI_Sequenzen,14,5,,,,,,,,,,,,
,Move,canvas.Screen,0_3_0_5_0_14,-999,skipped,,175707.10000002384,,,175685.5,,175707.20000004768,2021-10-29T05:55:01.977Z,175717.959,1635486710,full,ni_sequenzen,NI_Sequenzen,15,5,,,,,,,,,,,,
,Loop,flow.Loop,0_3_0_5_0,-999,completion,,173476.89999997616,173484.421,173501.056,175685.5,2184.4439999999886,175707.20000004768,2021-10-29T05:55:01.977Z,175717.959,1635486710,full,ni_sequenzen,NI_Sequenzen,,5,,,,,,,,,,,,
,Feedback,canvas.Screen,0_3_0_5_1,,timeout,,175708.60000002384,175701.279,175717.959,179701.738,4000.4249999999884,179702.20000004768,2021-10-29T05:55:05.972Z,179718.384,1635486710,full,ni_sequenzen,NI_Sequenzen,,5,,,,,,,,,,,,
,Trial,flow.Sequence,0_3_0_5,,completion,,173468.5,173484.421,173501.056,179701.738,6200.682000000001,179702.29999995232,2021-10-29T05:55:05.972Z,179735.044,1635486710,full,ni_sequenzen,NI_Sequenzen,,5,,,,,,,,,,,,
,Move,canvas.Screen,0_3_0_6_0_0,right,response,,179715.60000002384,179718.384,179735.044,180548.70000004768,813.6560000476893,180549.20000004768,2021-10-29T05:55:06.819Z,180583.915,1635486710,full,ni_sequenzen,NI_Sequenzen,1,6,,,,,,,,,,,,
,Move,canvas.Screen,0_3_0_6_0_1,down,response,,180551.10000002384,180535.119,180583.915,180911.20000004768,327.28500004767557,180911.70000004768,2021-10-29T05:55:07.182Z,180918.412,1635486710,full,ni_sequenzen,NI_Sequenzen,2,6,,,,,,,,,,,,
,Move,canvas.Screen,0_3_0_6_0_2,right,response,,180913.60000002384,180901.828,180918.412,181165.10000002384,246.68800002383068,181165.70000004768,2021-10-29T05:55:07.436Z,181200.65,1635486710,full,ni_sequenzen,NI_Sequenzen,3,6,,,,,,,,,,,,
,Move,canvas.Screen,0_3_0_6_0_3,down,response,,181167.89999997616,181151.853,181200.65,181377,176.35000000000582,181377.39999997616,2021-10-29T05:55:07.647Z,181433.556,1635486710,full,ni_sequenzen,NI_Sequenzen,4,6,,,,,,,,,,,,
,Move,canvas.Screen,0_3_0_6_0_4,-999,skipped,,181379.70000004768,,,181377,,181379.89999997616,2021-10-29T05:55:07.650Z,181433.556,1635486710,full,ni_sequenzen,NI_Sequenzen,5,6,,,,,,,,,,,,
,Move,canvas.Screen,0_3_0_6_0_5,-999,skipped,,181382,,,181377,,181382,2021-10-29T05:55:07.652Z,181433.556,1635486710,full,ni_sequenzen,NI_Sequenzen,6,6,,,,,,,,,,,,
,Move,canvas.Screen,0_3_0_6_0_6,-999,skipped,,181384.60000002384,,,181377,,181384.60000002384,2021-10-29T05:55:07.655Z,181433.556,1635486710,full,ni_sequenzen,NI_Sequenzen,7,6,,,,,,,,,,,,
,Move,canvas.Screen,0_3_0_6_0_7,-999,skipped,,181386.39999997616,,,181377,,181386.5,2021-10-29T05:55:07.657Z,181433.556,1635486710,full,ni_sequenzen,NI_Sequenzen,8,6,,,,,,,,,,,,
,Move,canvas.Screen,0_3_0_6_0_8,-999,skipped,,181388.10000002384,,,181377,,181388.20000004768,2021-10-29T05:55:07.658Z,181433.556,1635486710,full,ni_sequenzen,NI_Sequenzen,9,6,,,,,,,,,,,,
,Move,canvas.Screen,0_3_0_6_0_9,-999,skipped,,181390.39999997616,,,181377,,181390.39999997616,2021-10-29T05:55:07.660Z,181433.556,1635486710,full,ni_sequenzen,NI_Sequenzen,10,6,,,,,,,,,,,,
,Move,canvas.Screen,0_3_0_6_0_10,-999,skipped,,181392.20000004768,,,181377,,181392.39999997616,2021-10-29T05:55:07.662Z,181433.556,1635486710,full,ni_sequenzen,NI_Sequenzen,11,6,,,,,,,,,,,,
,Move,canvas.Screen,0_3_0_6_0_11,-999,skipped,,181393.89999997616,,,181377,,181393.89999997616,2021-10-29T05:55:07.664Z,181433.556,1635486710,full,ni_sequenzen,NI_Sequenzen,12,6,,,,,,,,,,,,
,Move,canvas.Screen,0_3_0_6_0_12,-999,skipped,,181395.5,,,181377,,181395.60000002384,2021-10-29T05:55:07.666Z,181433.556,1635486710,full,ni_sequenzen,NI_Sequenzen,13,6,,,,,,,,,,,,
,Move,canvas.Screen,0_3_0_6_0_13,-999,skipped,,181397.60000002384,,,181377,,181397.70000004768,2021-10-29T05:55:07.668Z,181433.556,1635486710,full,ni_sequenzen,NI_Sequenzen,14,6,,,,,,,,,,,,
,Move,canvas.Screen,0_3_0_6_0_14,-999,skipped,,181399.20000004768,,,181377,,181399.29999995232,2021-10-29T05:55:07.669Z,181433.556,1635486710,full,ni_sequenzen,NI_Sequenzen,15,6,,,,,,,,,,,,
,Loop,flow.Loop,0_3_0_6_0,-999,completion,,179713.60000002384,179718.384,179735.044,181377,1641.9560000000056,181399.39999997616,2021-10-29T05:55:07.669Z,181433.556,1635486710,full,ni_sequenzen,NI_Sequenzen,,6,,,,,,,,,,,,
,Feedback,canvas.Screen,0_3_0_6_1,,timeout,,181400.79999995232,181385.221,181433.556,185418.85,4002.091999999975,185419.20000004768,2021-10-29T05:55:11.689Z,185435.648,1635486710,full,ni_sequenzen,NI_Sequenzen,,6,,,,,,,,,,,,
,Trial,flow.Sequence,0_3_0_6,,completion,,179702.60000002384,179718.384,179735.044,185418.85,5683.806000000011,185419.20000004768,2021-10-29T05:55:11.689Z,185452.274,1635486710,full,ni_sequenzen,NI_Sequenzen,,6,,,,,,,,,,,,
,Move,canvas.Screen,0_3_0_7_0_0,right,response,,185433.10000002384,185435.648,185452.274,186026.79999995232,574.5259999523114,186027.39999997616,2021-10-29T05:55:12.297Z,186035.662,1635486710,full,ni_sequenzen,NI_Sequenzen,1,7,,,,,,,,,,,,
,Move,canvas.Screen,0_3_0_7_0_1,down,response,,186030.29999995232,186019.025,186035.662,186179.20000004768,143.53800004767254,186179.79999995232,2021-10-29T05:55:12.450Z,186185.619,1635486710,full,ni_sequenzen,NI_Sequenzen,2,7,,,,,,,,,,,,
,Move,canvas.Screen,0_3_0_7_0_2,right,response,,186183.89999997616,186169.047,186185.619,186340.10000002384,154.4810000238358,186340.60000002384,2021-10-29T05:55:12.611Z,186352.385,1635486710,full,ni_sequenzen,NI_Sequenzen,3,7,,,,,,,,,,,,
,Move,canvas.Screen,0_3_0_7_0_3,right,response,,186344.70000004768,186335.634,186352.385,186543.39999997616,191.01499997614883,186543.89999997616,2021-10-29T05:55:12.814Z,186552.458,1635486710,full,ni_sequenzen,NI_Sequenzen,4,7,,,,,,,,,,,,
,Move,canvas.Screen,0_3_0_7_0_4,down,response,,186546.10000002384,186535.76,186552.458,186688,135.54199999998673,186688.60000002384,2021-10-29T05:55:12.959Z,186719.087,1635486710,full,ni_sequenzen,NI_Sequenzen,5,7,,,,,,,,,,,,
,Move,canvas.Screen,0_3_0_7_0_5,-999,skipped,,186690.70000004768,,,186688,,186690.70000004768,2021-10-29T05:55:12.961Z,186719.087,1635486710,full,ni_sequenzen,NI_Sequenzen,6,7,,,,,,,,,,,,
,Move,canvas.Screen,0_3_0_7_0_6,-999,skipped,,186692.79999995232,,,186688,,186692.89999997616,2021-10-29T05:55:12.963Z,186719.087,1635486710,full,ni_sequenzen,NI_Sequenzen,7,7,,,,,,,,,,,,
,Move,canvas.Screen,0_3_0_7_0_7,-999,skipped,,186694.29999995232,,,186688,,186694.29999995232,2021-10-29T05:55:12.964Z,186719.087,1635486710,full,ni_sequenzen,NI_Sequenzen,8,7,,,,,,,,,,,,
,Move,canvas.Screen,0_3_0_7_0_8,-999,skipped,,186696,,,186688,,186696.10000002384,2021-10-29T05:55:12.966Z,186719.087,1635486710,full,ni_sequenzen,NI_Sequenzen,9,7,,,,,,,,,,,,
,Move,canvas.Screen,0_3_0_7_0_9,-999,skipped,,186698.10000002384,,,186688,,186698.29999995232,2021-10-29T05:55:12.968Z,186719.087,1635486710,full,ni_sequenzen,NI_Sequenzen,10,7,,,,,,,,,,,,
,Move,canvas.Screen,0_3_0_7_0_10,-999,skipped,,186700.20000004768,,,186688,,186700.20000004768,2021-10-29T05:55:12.970Z,186719.087,1635486710,full,ni_sequenzen,NI_Sequenzen,11,7,,,,,,,,,,,,
,Move,canvas.Screen,0_3_0_7_0_11,-999,skipped,,186701.79999995232,,,186688,,186701.89999997616,2021-10-29T05:55:12.972Z,186719.087,1635486710,full,ni_sequenzen,NI_Sequenzen,12,7,,,,,,,,,,,,
,Move,canvas.Screen,0_3_0_7_0_12,-999,skipped,,186703.79999995232,,,186688,,186703.79999995232,2021-10-29T05:55:12.974Z,186719.087,1635486710,full,ni_sequenzen,NI_Sequenzen,13,7,,,,,,,,,,,,
,Move,canvas.Screen,0_3_0_7_0_13,-999,skipped,,186705.60000002384,,,186688,,186705.70000004768,2021-10-29T05:55:12.976Z,186719.087,1635486710,full,ni_sequenzen,NI_Sequenzen,14,7,,,,,,,,,,,,
,Move,canvas.Screen,0_3_0_7_0_14,-999,skipped,,186707.5,,,186688,,186707.60000002384,2021-10-29T05:55:12.978Z,186719.087,1635486710,full,ni_sequenzen,NI_Sequenzen,15,7,,,,,,,,,,,,
,Loop,flow.Loop,0_3_0_7_0,-999,completion,,185430.89999997616,185435.648,185452.274,186688,1235.725999999995,186707.70000004768,2021-10-29T05:55:12.978Z,186719.087,1635486710,full,ni_sequenzen,NI_Sequenzen,,7,,,,,,,,,,,,
,Feedback,canvas.Screen,0_3_0_7_1,,timeout,,186708.89999997616,186702.437,186719.087,190702.862,4000.4249999999884,190703.29999995232,2021-10-29T05:55:16.973Z,190719.512,1635486710,full,ni_sequenzen,NI_Sequenzen,,7,,,,,,,,,,,,
,Trial,flow.Sequence,0_3_0_7,,completion,,185419.5,185435.648,185452.274,190702.862,5250.587999999989,190703.39999997616,2021-10-29T05:55:16.973Z,190736.119,1635486710,full,ni_sequenzen,NI_Sequenzen,,7,,,,,,,,,,,,
,Move,canvas.Screen,0_3_0_8_0_0,right,response,,190718.10000002384,190719.512,190736.119,191487.29999995232,751.1809999523102,191487.89999997616,2021-10-29T05:55:17.758Z,191502.929,1635486710,full,ni_sequenzen,NI_Sequenzen,1,8,,,,,,,,,,,,
,Move,canvas.Screen,0_3_0_8_0_1,down,response,,191490.20000004768,191486.257,191502.929,191598.70000004768,95.77100004767999,191599.5,2021-10-29T05:55:17.870Z,191602.869,1635486710,full,ni_sequenzen,NI_Sequenzen,2,8,,,,,,,,,,,,
,Move,canvas.Screen,0_3_0_8_0_2,right,response,,191601.5,191586.268,191602.869,191750.10000002384,147.2310000238358,191750.60000002384,2021-10-29T05:55:18.021Z,191769.644,1635486710,full,ni_sequenzen,NI_Sequenzen,3,8,,,,,,,,,,,,
,Move,canvas.Screen,0_3_0_8_0_3,down,response,,191752.60000002384,191736.29,191769.644,191891.20000004768,121.55600004768348,191891.79999995232,2021-10-29T05:55:18.162Z,191919.645,1635486710,full,ni_sequenzen,NI_Sequenzen,4,8,,,,,,,,,,,,
,Move,canvas.Screen,0_3_0_8_0_4,-999,skipped,,191893.70000004768,,,191891.20000004768,,191893.79999995232,2021-10-29T05:55:18.164Z,191919.645,1635486710,full,ni_sequenzen,NI_Sequenzen,5,8,,,,,,,,,,,,
,Move,canvas.Screen,0_3_0_8_0_5,-999,skipped,,191895.39999997616,,,191891.20000004768,,191895.39999997616,2021-10-29T05:55:18.165Z,191919.645,1635486710,full,ni_sequenzen,NI_Sequenzen,6,8,,,,,,,,,,,,
,Move,canvas.Screen,0_3_0_8_0_6,-999,skipped,,191897,,,191891.20000004768,,191897,2021-10-29T05:55:18.167Z,191919.645,1635486710,full,ni_sequenzen,NI_Sequenzen,7,8,,,,,,,,,,,,
,Move,canvas.Screen,0_3_0_8_0_7,-999,skipped,,191899.60000002384,,,191891.20000004768,,191899.60000002384,2021-10-29T05:55:18.170Z,191919.645,1635486710,full,ni_sequenzen,NI_Sequenzen,8,8,,,,,,,,,,,,
,Move,canvas.Screen,0_3_0_8_0_8,-999,skipped,,191901.10000002384,,,191891.20000004768,,191901.20000004768,2021-10-29T05:55:18.171Z,191919.645,1635486710,full,ni_sequenzen,NI_Sequenzen,9,8,,,,,,,,,,,,
,Move,canvas.Screen,0_3_0_8_0_9,-999,skipped,,191902.60000002384,,,191891.20000004768,,191902.60000002384,2021-10-29T05:55:18.173Z,191919.645,1635486710,full,ni_sequenzen,NI_Sequenzen,10,8,,,,,,,,,,,,
,Move,canvas.Screen,0_3_0_8_0_10,-999,skipped,,191905.10000002384,,,191891.20000004768,,191905.20000004768,2021-10-29T05:55:18.175Z,191919.645,1635486710,full,ni_sequenzen,NI_Sequenzen,11,8,,,,,,,,,,,,
,Move,canvas.Screen,0_3_0_8_0_11,-999,skipped,,191907.10000002384,,,191891.20000004768,,191907.10000002384,2021-10-29T05:55:18.177Z,191919.645,1635486710,full,ni_sequenzen,NI_Sequenzen,12,8,,,,,,,,,,,,
