meta,sender,sender_type,sender_id,response,ended_on,instrCount,time_run,time_render,time_show,time_end,duration,time_commit,timestamp,time_switch,openLabId,type,task,project,move,trialN,blockN_Train,blockN,moveCount,currPP,points,movesTrial,visitedFields,diff,reward,Strategie,Zweck,Probleme
[object Object],Screen_1,canvas.Screen,0_0_0_0,cont,response,1,266.59999999403954,260.382,277.048,2284,2006.952,2291.2999999970198,2021-11-02T16:16:34.504Z,2326.966,1635868564,full,ni_sequenzen,NI_Sequenzen,,,,,,,,,,,,,,
,Screen_2,canvas.Screen,0_0_0_1,cont,response,1,2323.7999999970198,2310.3,2326.966,2464.3999999910593,137.4339999910594,2469.3999999910593,2021-11-02T16:16:34.682Z,2493.626,1635868564,full,ni_sequenzen,NI_Sequenzen,,,,,,,,,,,,,,
,Screen_3,canvas.Screen,0_0_0_2,cont,response,1,2487.0999999940395,2476.96,2493.626,2851.699999988079,358.07399998807887,2856.3999999910593,2021-11-02T16:16:35.069Z,2876.944,1635868564,full,ni_sequenzen,NI_Sequenzen,,,,,,,,,,,,,,
,Screen_4,canvas.Screen,0_0_0_3,cont,response,1,2860.5,2860.278,2876.944,3067.199999988079,190.2559999880791,3071.8999999910593,2021-11-02T16:16:35.285Z,3160.266,1635868564,full,ni_sequenzen,NI_Sequenzen,,,,,,,,,,,,,,
,Sequence,flow.Sequence,0_0_0,,completion,1,228.19999998807907,260.382,277.048,3067.199999988079,2790.1519999880793,3072.699999988079,2021-11-02T16:16:35.286Z,3160.266,1635868564,full,ni_sequenzen,NI_Sequenzen,,,,,,,,,,,,,,
,Screen_1,canvas.Screen,0_0_1_0,,skipped,2,3076.8999999910593,,,3076.8999999910593,,3076.8999999910593,2021-11-02T16:16:35.290Z,3160.266,1635868564,full,ni_sequenzen,NI_Sequenzen,,,,,,,,,,,,,,
,Screen_2,canvas.Screen,0_0_1_1,,skipped,2,3078,,,3076.8999999910593,,3078.0999999940395,2021-11-02T16:16:35.291Z,3160.266,1635868564,full,ni_sequenzen,NI_Sequenzen,,,,,,,,,,,,,,
,Screen_3,canvas.Screen,0_0_1_2,,skipped,2,3080,,,3076.8999999910593,,3080.0999999940395,2021-11-02T16:16:35.293Z,3160.266,1635868564,full,ni_sequenzen,NI_Sequenzen,,,,,,,,,,,,,,
,Screen_4,canvas.Screen,0_0_1_3,,skipped,2,3081.2999999970198,,,3076.8999999910593,,3081.5999999940395,2021-11-02T16:16:35.294Z,3160.266,1635868564,full,ni_sequenzen,NI_Sequenzen,,,,,,,,,,,,,,
,Sequence,flow.Sequence,0_0_1,,completion,2,3075,,,3076.8999999910593,,3081.7999999970198,2021-11-02T16:16:35.295Z,3160.266,1635868564,full,ni_sequenzen,NI_Sequenzen,,,,,,,,,,,,,,
,Screen_1,canvas.Screen,0_0_2_0,,skipped,3,3082.7999999970198,,,3083,,3083,2021-11-02T16:16:35.296Z,3160.266,1635868564,full,ni_sequenzen,NI_Sequenzen,,,,,,,,,,,,,,
,Screen_2,canvas.Screen,0_0_2_1,,skipped,3,3083.699999988079,,,3083,,3083.699999988079,2021-11-02T16:16:35.297Z,3160.266,1635868564,full,ni_sequenzen,NI_Sequenzen,,,,,,,,,,,,,,
,Screen_3,canvas.Screen,0_0_2_2,,skipped,3,3084.699999988079,,,3083,,3084.8999999910593,2021-11-02T16:16:35.298Z,3160.266,1635868564,full,ni_sequenzen,NI_Sequenzen,,,,,,,,,,,,,,
,Screen_4,canvas.Screen,0_0_2_3,,skipped,3,3085.3999999910593,,,3083,,3085.5999999940395,2021-11-02T16:16:35.298Z,3160.266,1635868564,full,ni_sequenzen,NI_Sequenzen,,,,,,,,,,,,,,
,Sequence,flow.Sequence,0_0_2,,completion,3,3082.199999988079,,,3083,,3085.5999999940395,2021-11-02T16:16:35.298Z,3160.266,1635868564,full,ni_sequenzen,NI_Sequenzen,,,,,,,,,,,,,,
,Screen_1,canvas.Screen,0_0_3_0,,skipped,4,3086.3999999910593,,,3086.3999999910593,,3086.3999999910593,2021-11-02T16:16:35.299Z,3160.266,1635868564,full,ni_sequenzen,NI_Sequenzen,,,,,,,,,,,,,,
,Screen_2,canvas.Screen,0_0_3_1,,skipped,4,3087.0999999940395,,,3086.3999999910593,,3087.199999988079,2021-11-02T16:16:35.300Z,3160.266,1635868564,full,ni_sequenzen,NI_Sequenzen,,,,,,,,,,,,,,
,Screen_3,canvas.Screen,0_0_3_2,,skipped,4,3088,,,3086.3999999910593,,3088,2021-11-02T16:16:35.301Z,3160.266,1635868564,full,ni_sequenzen,NI_Sequenzen,,,,,,,,,,,,,,
,Screen_4,canvas.Screen,0_0_3_3,,skipped,4,3088.5999999940395,,,3086.3999999910593,,3088.699999988079,2021-11-02T16:16:35.301Z,3160.266,1635868564,full,ni_sequenzen,NI_Sequenzen,,,,,,,,,,,,,,
,Sequence,flow.Sequence,0_0_3,,completion,4,3086,,,3086.3999999910593,,3088.699999988079,2021-11-02T16:16:35.302Z,3160.266,1635868564,full,ni_sequenzen,NI_Sequenzen,,,,,,,,,,,,,,
,Screen_1,canvas.Screen,0_0_4_0,,skipped,5,3089.5,,,3089.5,,3089.5999999940395,2021-11-02T16:16:35.302Z,3160.266,1635868564,full,ni_sequenzen,NI_Sequenzen,,,,,,,,,,,,,,
,Screen_2,canvas.Screen,0_0_4_1,,skipped,5,3090.199999988079,,,3089.5,,3090.199999988079,2021-11-02T16:16:35.303Z,3160.266,1635868564,full,ni_sequenzen,NI_Sequenzen,,,,,,,,,,,,,,
,Screen_3,canvas.Screen,0_0_4_2,,skipped,5,3090.7999999970198,,,3089.5,,3090.7999999970198,2021-11-02T16:16:35.304Z,3160.266,1635868564,full,ni_sequenzen,NI_Sequenzen,,,,,,,,,,,,,,
,Screen_4,canvas.Screen,0_0_4_3,,skipped,5,3091.2999999970198,,,3089.5,,3091.5,2021-11-02T16:16:35.304Z,3160.266,1635868564,full,ni_sequenzen,NI_Sequenzen,,,,,,,,,,,,,,
,Sequence,flow.Sequence,0_0_4,,completion,5,3089,,,3089.5,,3091.5,2021-11-02T16:16:35.304Z,3160.266,1635868564,full,ni_sequenzen,NI_Sequenzen,,,,,,,,,,,,,,
,Screen_1,canvas.Screen,0_0_5_0,,skipped,6,3092.199999988079,,,3092.199999988079,,3092.2999999970198,2021-11-02T16:16:35.305Z,3160.266,1635868564,full,ni_sequenzen,NI_Sequenzen,,,,,,,,,,,,,,
,Screen_2,canvas.Screen,0_0_5_1,,skipped,6,3092.699999988079,,,3092.199999988079,,3092.7999999970198,2021-11-02T16:16:35.306Z,3160.266,1635868564,full,ni_sequenzen,NI_Sequenzen,,,,,,,,,,,,,,
,Screen_3,canvas.Screen,0_0_5_2,,skipped,6,3093.2999999970198,,,3092.199999988079,,3093.5,2021-11-02T16:16:35.306Z,3160.266,1635868564,full,ni_sequenzen,NI_Sequenzen,,,,,,,,,,,,,,
,Screen_4,canvas.Screen,0_0_5_3,,skipped,6,3094,,,3092.199999988079,,3094,2021-11-02T16:16:35.307Z,3160.266,1635868564,full,ni_sequenzen,NI_Sequenzen,,,,,,,,,,,,,,
,Sequence,flow.Sequence,0_0_5,,completion,6,3091.699999988079,,,3092.199999988079,,3094.0999999940395,2021-11-02T16:16:35.307Z,3160.266,1635868564,full,ni_sequenzen,NI_Sequenzen,,,,,,,,,,,,,,
,Screen_1,canvas.Screen,0_0_6_0,,skipped,7,3094.699999988079,,,3094.699999988079,,3094.699999988079,2021-11-02T16:16:35.308Z,3160.266,1635868564,full,ni_sequenzen,NI_Sequenzen,,,,,,,,,,,,,,
,Screen_2,canvas.Screen,0_0_6_1,,skipped,7,3095.199999988079,,,3094.699999988079,,3095.199999988079,2021-11-02T16:16:35.308Z,3160.266,1635868564,full,ni_sequenzen,NI_Sequenzen,,,,,,,,,,,,,,
,Screen_3,canvas.Screen,0_0_6_2,,skipped,7,3095.7999999970198,,,3094.699999988079,,3095.7999999970198,2021-11-02T16:16:35.309Z,3160.266,1635868564,full,ni_sequenzen,NI_Sequenzen,,,,,,,,,,,,,,
,Screen_4,canvas.Screen,0_0_6_3,,skipped,7,3096.3999999910593,,,3094.699999988079,,3096.5,2021-11-02T16:16:35.309Z,3160.266,1635868564,full,ni_sequenzen,NI_Sequenzen,,,,,,,,,,,,,,
,Sequence,flow.Sequence,0_0_6,,completion,7,3094.199999988079,,,3094.699999988079,,3096.5,2021-11-02T16:16:35.309Z,3160.266,1635868564,full,ni_sequenzen,NI_Sequenzen,,,,,,,,,,,,,,
,Screen_1,canvas.Screen,0_0_7_0,,skipped,8,3097.0999999940395,,,3097.0999999940395,,3097.199999988079,2021-11-02T16:16:35.310Z,3160.266,1635868564,full,ni_sequenzen,NI_Sequenzen,,,,,,,,,,,,,,
,Screen_2,canvas.Screen,0_0_7_1,,skipped,8,3097.699999988079,,,3097.0999999940395,,3097.699999988079,2021-11-02T16:16:35.311Z,3160.266,1635868564,full,ni_sequenzen,NI_Sequenzen,,,,,,,,,,,,,,
,Screen_3,canvas.Screen,0_0_7_2,,skipped,8,3098.3999999910593,,,3097.0999999940395,,3098.3999999910593,2021-11-02T16:16:35.311Z,3160.266,1635868564,full,ni_sequenzen,NI_Sequenzen,,,,,,,,,,,,,,
,Screen_4,canvas.Screen,0_0_7_3,,skipped,8,3099,,,3097.0999999940395,,3099,2021-11-02T16:16:35.312Z,3160.266,1635868564,full,ni_sequenzen,NI_Sequenzen,,,,,,,,,,,,,,
,Sequence,flow.Sequence,0_0_7,,completion,8,3096.7999999970198,,,3097.0999999940395,,3099.0999999940395,2021-11-02T16:16:35.312Z,3160.266,1635868564,full,ni_sequenzen,NI_Sequenzen,,,,,,,,,,,,,,
,Screen_1,canvas.Screen,0_0_8_0,,skipped,9,3100.5999999940395,,,3100.5999999940395,,3100.5999999940395,2021-11-02T16:16:35.313Z,3160.266,1635868564,full,ni_sequenzen,NI_Sequenzen,,,,,,,,,,,,,,
,Screen_2,canvas.Screen,0_0_8_1,,skipped,9,3101.199999988079,,,3100.5999999940395,,3101.199999988079,2021-11-02T16:16:35.314Z,3160.266,1635868564,full,ni_sequenzen,NI_Sequenzen,,,,,,,,,,,,,,
,Screen_3,canvas.Screen,0_0_8_2,,skipped,9,3101.8999999910593,,,3100.5999999940395,,3101.8999999910593,2021-11-02T16:16:35.315Z,3160.266,1635868564,full,ni_sequenzen,NI_Sequenzen,,,,,,,,,,,,,,
,Screen_4,canvas.Screen,0_0_8_3,,skipped,9,3102.2999999970198,,,3100.5999999940395,,3102.2999999970198,2021-11-02T16:16:35.315Z,3160.266,1635868564,full,ni_sequenzen,NI_Sequenzen,,,,,,,,,,,,,,
,Sequence,flow.Sequence,0_0_8,,completion,9,3099.7999999970198,,,3100.5999999940395,,3102.5,2021-11-02T16:16:35.315Z,3160.266,1635868564,full,ni_sequenzen,NI_Sequenzen,,,,,,,,,,,,,,
,Screen_1,canvas.Screen,0_0_9_0,,skipped,10,3103.2999999970198,,,3103.2999999970198,,3103.2999999970198,2021-11-02T16:16:35.316Z,3160.266,1635868564,full,ni_sequenzen,NI_Sequenzen,,,,,,,,,,,,,,
,Screen_2,canvas.Screen,0_0_9_1,,skipped,10,3103.8999999910593,,,3103.2999999970198,,3103.8999999910593,2021-11-02T16:16:35.317Z,3160.266,1635868564,full,ni_sequenzen,NI_Sequenzen,,,,,,,,,,,,,,
,Screen_3,canvas.Screen,0_0_9_2,,skipped,10,3104.5,,,3103.2999999970198,,3104.5,2021-11-02T16:16:35.317Z,3160.266,1635868564,full,ni_sequenzen,NI_Sequenzen,,,,,,,,,,,,,,
,Screen_4,canvas.Screen,0_0_9_3,,skipped,10,3105,,,3103.2999999970198,,3105,2021-11-02T16:16:35.318Z,3160.266,1635868564,full,ni_sequenzen,NI_Sequenzen,,,,,,,,,,,,,,
,Sequence,flow.Sequence,0_0_9,,completion,10,3102.8999999910593,,,3103.2999999970198,,3105.0999999940395,2021-11-02T16:16:35.318Z,3160.266,1635868564,full,ni_sequenzen,NI_Sequenzen,,,,,,,,,,,,,,
,Screen_1,canvas.Screen,0_0_10_0,,skipped,11,3105.699999988079,,,3105.699999988079,,3105.699999988079,2021-11-02T16:16:35.319Z,3160.266,1635868564,full,ni_sequenzen,NI_Sequenzen,,,,,,,,,,,,,,
,Screen_2,canvas.Screen,0_0_10_1,,skipped,11,3106.199999988079,,,3105.699999988079,,3106.199999988079,2021-11-02T16:16:35.319Z,3160.266,1635868564,full,ni_sequenzen,NI_Sequenzen,,,,,,,,,,,,,,
,Screen_3,canvas.Screen,0_0_10_2,,skipped,11,3106.5999999940395,,,3105.699999988079,,3106.699999988079,2021-11-02T16:16:35.319Z,3160.266,1635868564,full,ni_sequenzen,NI_Sequenzen,,,,,,,,,,,,,,
,Screen_4,canvas.Screen,0_0_10_3,,skipped,11,3107.0999999940395,,,3105.699999988079,,3107.0999999940395,2021-11-02T16:16:35.320Z,3160.266,1635868564,full,ni_sequenzen,NI_Sequenzen,,,,,,,,,,,,,,
,Sequence,flow.Sequence,0_0_10,,completion,11,3105.2999999970198,,,3105.699999988079,,3107.2999999970198,2021-11-02T16:16:35.320Z,3160.266,1635868564,full,ni_sequenzen,NI_Sequenzen,,,,,,,,,,,,,,
,Screen_1,canvas.Screen,0_0_11_0,,skipped,12,3107.699999988079,,,3107.699999988079,,3107.7999999970198,2021-11-02T16:16:35.321Z,3160.266,1635868564,full,ni_sequenzen,NI_Sequenzen,,,,,,,,,,,,,,
,Screen_2,canvas.Screen,0_0_11_1,,skipped,12,3108.5999999940395,,,3107.699999988079,,3109.0999999940395,2021-11-02T16:16:35.322Z,3160.266,1635868564,full,ni_sequenzen,NI_Sequenzen,,,,,,,,,,,,,,
,Screen_3,canvas.Screen,0_0_11_2,,skipped,12,3109.5999999940395,,,3107.699999988079,,3109.5999999940395,2021-11-02T16:16:35.322Z,3160.266,1635868564,full,ni_sequenzen,NI_Sequenzen,,,,,,,,,,,,,,
,Screen_4,canvas.Screen,0_0_11_3,,skipped,12,3109.8999999910593,,,3107.699999988079,,3110.0999999940395,2021-11-02T16:16:35.323Z,3160.266,1635868564,full,ni_sequenzen,NI_Sequenzen,,,,,,,,,,,,,,
,Sequence,flow.Sequence,0_0_11,,completion,12,3107.2999999970198,,,3107.699999988079,,3110.0999999940395,2021-11-02T16:16:35.323Z,3160.266,1635868564,full,ni_sequenzen,NI_Sequenzen,,,,,,,,,,,,,,
,Screen_1,canvas.Screen,0_0_12_0,,skipped,13,3110.5999999940395,,,3110.5999999940395,,3110.5999999940395,2021-11-02T16:16:35.323Z,3160.266,1635868564,full,ni_sequenzen,NI_Sequenzen,,,,,,,,,,,,,,
,Screen_2,canvas.Screen,0_0_12_1,,skipped,13,3111.0999999940395,,,3110.5999999940395,,3111.0999999940395,2021-11-02T16:16:35.324Z,3160.266,1635868564,full,ni_sequenzen,NI_Sequenzen,,,,,,,,,,,,,,
,Screen_3,canvas.Screen,0_0_12_2,,skipped,13,3111.3999999910593,,,3110.5999999940395,,3111.3999999910593,2021-11-02T16:16:35.324Z,3160.266,1635868564,full,ni_sequenzen,NI_Sequenzen,,,,,,,,,,,,,,
,Screen_4,canvas.Screen,0_0_12_3,,skipped,13,3111.7999999970198,,,3110.5999999940395,,3111.7999999970198,2021-11-02T16:16:35.325Z,3160.266,1635868564,full,ni_sequenzen,NI_Sequenzen,,,,,,,,,,,,,,
,Sequence,flow.Sequence,0_0_12,,completion,13,3110.2999999970198,,,3110.5999999940395,,3112,2021-11-02T16:16:35.325Z,3160.266,1635868564,full,ni_sequenzen,NI_Sequenzen,,,,,,,,,,,,,,
,Screen_1,canvas.Screen,0_0_13_0,,skipped,14,3112.2999999970198,,,3112.2999999970198,,3112.5,2021-11-02T16:16:35.325Z,3160.266,1635868564,full,ni_sequenzen,NI_Sequenzen,,,,,,,,,,,,,,
,Screen_2,canvas.Screen,0_0_13_1,,skipped,14,3112.699999988079,,,3112.2999999970198,,3112.699999988079,2021-11-02T16:16:35.326Z,3160.266,1635868564,full,ni_sequenzen,NI_Sequenzen,,,,,,,,,,,,,,
,Screen_3,canvas.Screen,0_0_13_2,,skipped,14,3113.0999999940395,,,3112.2999999970198,,3113.0999999940395,2021-11-02T16:16:35.326Z,3160.266,1635868564,full,ni_sequenzen,NI_Sequenzen,,,,,,,,,,,,,,
,Screen_4,canvas.Screen,0_0_13_3,,skipped,14,3113.5,,,3112.2999999970198,,3113.5,2021-11-02T16:16:35.326Z,3160.266,1635868564,full,ni_sequenzen,NI_Sequenzen,,,,,,,,,,,,,,
,Sequence,flow.Sequence,0_0_13,,completion,14,3112.0999999940395,,,3112.2999999970198,,3113.5,2021-11-02T16:16:35.326Z,3160.266,1635868564,full,ni_sequenzen,NI_Sequenzen,,,,,,,,,,,,,,
,Screen_1,canvas.Screen,0_0_14_0,,skipped,15,3113.7999999970198,,,3113.7999999970198,,3114,2021-11-02T16:16:35.327Z,3160.266,1635868564,full,ni_sequenzen,NI_Sequenzen,,,,,,,,,,,,,,
,Screen_2,canvas.Screen,0_0_14_1,,skipped,15,3114.7999999970198,,,3113.7999999970198,,3114.8999999910593,2021-11-02T16:16:35.328Z,3160.266,1635868564,full,ni_sequenzen,NI_Sequenzen,,,,,,,,,,,,,,
,Screen_3,canvas.Screen,0_0_14_2,,skipped,15,3115.2999999970198,,,3113.7999999970198,,3115.2999999970198,2021-11-02T16:16:35.328Z,3160.266,1635868564,full,ni_sequenzen,NI_Sequenzen,,,,,,,,,,,,,,
,Screen_4,canvas.Screen,0_0_14_3,,skipped,15,3115.699999988079,,,3113.7999999970198,,3115.7999999970198,2021-11-02T16:16:35.329Z,3160.266,1635868564,full,ni_sequenzen,NI_Sequenzen,,,,,,,,,,,,,,
,Sequence,flow.Sequence,0_0_14,,completion,15,3113.5999999940395,,,3113.7999999970198,,3116,2021-11-02T16:16:35.329Z,3160.266,1635868564,full,ni_sequenzen,NI_Sequenzen,,,,,,,,,,,,,,
,Screen_1,canvas.Screen,0_0_15_0,,skipped,16,3116.5,,,3116.5,,3116.5,2021-11-02T16:16:35.329Z,3160.266,1635868564,full,ni_sequenzen,NI_Sequenzen,,,,,,,,,,,,,,
,Screen_2,canvas.Screen,0_0_15_1,,skipped,16,3116.699999988079,,,3116.5,,3116.8999999910593,2021-11-02T16:16:35.330Z,3160.266,1635868564,full,ni_sequenzen,NI_Sequenzen,,,,,,,,,,,,,,
,Screen_3,canvas.Screen,0_0_15_2,,skipped,16,3117.0999999940395,,,3116.5,,3117.199999988079,2021-11-02T16:16:35.330Z,3160.266,1635868564,full,ni_sequenzen,NI_Sequenzen,,,,,,,,,,,,,,
,Screen_4,canvas.Screen,0_0_15_3,,skipped,16,3118.2999999970198,,,3116.5,,3118.2999999970198,2021-11-02T16:16:35.331Z,3160.266,1635868564,full,ni_sequenzen,NI_Sequenzen,,,,,,,,,,,,,,
,Sequence,flow.Sequence,0_0_15,,completion,16,3116.0999999940395,,,3116.5,,3118.2999999970198,2021-11-02T16:16:35.331Z,3160.266,1635868564,full,ni_sequenzen,NI_Sequenzen,,,,,,,,,,,,,,
,Screen_1,canvas.Screen,0_0_16_0,,skipped,17,3118.7999999970198,,,3118.7999999970198,,3118.7999999970198,2021-11-02T16:16:35.332Z,3160.266,1635868564,full,ni_sequenzen,NI_Sequenzen,,,,,,,,,,,,,,
,Screen_2,canvas.Screen,0_0_16_1,,skipped,17,3119.199999988079,,,3118.7999999970198,,3119.199999988079,2021-11-02T16:16:35.332Z,3160.266,1635868564,full,ni_sequenzen,NI_Sequenzen,,,,,,,,,,,,,,
,Screen_3,canvas.Screen,0_0_16_2,,skipped,17,3119.5999999940395,,,3118.7999999970198,,3119.5999999940395,2021-11-02T16:16:35.332Z,3160.266,1635868564,full,ni_sequenzen,NI_Sequenzen,,,,,,,,,,,,,,
,Screen_4,canvas.Screen,0_0_16_3,,skipped,17,3120,,,3118.7999999970198,,3120,2021-11-02T16:16:35.333Z,3160.266,1635868564,full,ni_sequenzen,NI_Sequenzen,,,,,,,,,,,,,,
,Sequence,flow.Sequence,0_0_16,,completion,17,3118.5999999940395,,,3118.7999999970198,,3120,2021-11-02T16:16:35.333Z,3160.266,1635868564,full,ni_sequenzen,NI_Sequenzen,,,,,,,,,,,,,,
,Screen_1,canvas.Screen,0_0_17_0,,skipped,18,3120.3999999910593,,,3120.3999999910593,,3120.3999999910593,2021-11-02T16:16:35.333Z,3160.266,1635868564,full,ni_sequenzen,NI_Sequenzen,,,,,,,,,,,,,,
,Screen_2,canvas.Screen,0_0_17_1,,skipped,18,3120.7999999970198,,,3120.3999999910593,,3120.7999999970198,2021-11-02T16:16:35.334Z,3160.266,1635868564,full,ni_sequenzen,NI_Sequenzen,,,,,,,,,,,,,,
,Screen_3,canvas.Screen,0_0_17_2,,skipped,18,3121.0999999940395,,,3120.3999999910593,,3121.0999999940395,2021-11-02T16:16:35.334Z,3160.266,1635868564,full,ni_sequenzen,NI_Sequenzen,,,,,,,,,,,,,,
,Screen_4,canvas.Screen,0_0_17_3,,skipped,18,3121.3999999910593,,,3120.3999999910593,,3121.5,2021-11-02T16:16:35.334Z,3160.266,1635868564,full,ni_sequenzen,NI_Sequenzen,,,,,,,,,,,,,,
,Sequence,flow.Sequence,0_0_17,,completion,18,3120.0999999940395,,,3120.3999999910593,,3121.5,2021-11-02T16:16:35.334Z,3160.266,1635868564,full,ni_sequenzen,NI_Sequenzen,,,,,,,,,,,,,,
,Screen_1,canvas.Screen,0_0_18_0,,skipped,19,3121.7999999970198,,,3121.7999999970198,,3121.7999999970198,2021-11-02T16:16:35.335Z,3160.266,1635868564,full,ni_sequenzen,NI_Sequenzen,,,,,,,,,,,,,,
,Screen_2,canvas.Screen,0_0_18_1,,skipped,19,3122.199999988079,,,3121.7999999970198,,3122.199999988079,2021-11-02T16:16:35.335Z,3160.266,1635868564,full,ni_sequenzen,NI_Sequenzen,,,,,,,,,,,,,,
,Screen_3,canvas.Screen,0_0_18_2,,skipped,19,3122.3999999910593,,,3121.7999999970198,,3122.3999999910593,2021-11-02T16:16:35.335Z,3160.266,1635868564,full,ni_sequenzen,NI_Sequenzen,,,,,,,,,,,,,,
,Screen_4,canvas.Screen,0_0_18_3,,skipped,19,3122.699999988079,,,3121.7999999970198,,3122.699999988079,2021-11-02T16:16:35.336Z,3160.266,1635868564,full,ni_sequenzen,NI_Sequenzen,,,,,,,,,,,,,,
,Sequence,flow.Sequence,0_0_18,,completion,19,3121.5999999940395,,,3121.7999999970198,,3122.7999999970198,2021-11-02T16:16:35.336Z,3160.266,1635868564,full,ni_sequenzen,NI_Sequenzen,,,,,,,,,,,,,,
,Screen_1,canvas.Screen,0_0_19_0,,skipped,20,3123.0999999940395,,,3123.0999999940395,,3123.2999999970198,2021-11-02T16:16:35.336Z,3160.266,1635868564,full,ni_sequenzen,NI_Sequenzen,,,,,,,,,,,,,,
,Screen_2,canvas.Screen,0_0_19_1,,skipped,20,3123.3999999910593,,,3123.0999999940395,,3123.3999999910593,2021-11-02T16:16:35.336Z,3160.266,1635868564,full,ni_sequenzen,NI_Sequenzen,,,,,,,,,,,,,,
,Screen_3,canvas.Screen,0_0_19_2,,skipped,20,3123.699999988079,,,3123.0999999940395,,3123.699999988079,2021-11-02T16:16:35.337Z,3160.266,1635868564,full,ni_sequenzen,NI_Sequenzen,,,,,,,,,,,,,,
,Screen_4,canvas.Screen,0_0_19_3,,skipped,20,3124,,,3123.0999999940395,,3124,2021-11-02T16:16:35.337Z,3160.266,1635868564,full,ni_sequenzen,NI_Sequenzen,,,,,,,,,,,,,,
,Sequence,flow.Sequence,0_0_19,,completion,20,3123,,,3123.0999999940395,,3124.0999999940395,2021-11-02T16:16:35.337Z,3160.266,1635868564,full,ni_sequenzen,NI_Sequenzen,,,,,,,,,,,,,,
,Instructions_I,flow.Loop,0_0,,completion,,227.79999999701977,260.382,277.048,3123.0999999940395,2846.0519999940398,3124.0999999940395,2021-11-02T16:16:35.337Z,3160.266,1635868564,full,ni_sequenzen,NI_Sequenzen,,,,,,,,,,,,,,
,Move,canvas.Screen,0_1_0_0,right,response,,3153.0999999940395,3143.6,3160.266,3366.0999999940395,205.83399999403946,3369.8999999910593,2021-11-02T16:16:35.583Z,3376.924,1635868564,full,ni_sequenzen,NI_Sequenzen,1,,,,,,,,,,,,,
,Move,canvas.Screen,0_1_0_1,right,response,,3372.8999999910593,3360.258,3376.924,3604,227.07600000000002,3609.199999988079,2021-11-02T16:16:35.822Z,3626.914,1635868564,full,ni_sequenzen,NI_Sequenzen,2,,,,,,,,,,,,,
,Move,canvas.Screen,0_1_0_2,right,response,,3613.0999999940395,3610.248,3626.914,3868.0999999940395,241.18599999403932,3872.199999988079,2021-11-02T16:16:36.085Z,3876.904,1635868564,full,ni_sequenzen,NI_Sequenzen,3,,,,,,,,,,,,,
,Move,canvas.Screen,0_1_0_3,right,response,,3875.0999999940395,3860.238,3876.904,4100.899999991059,223.9959999910593,4106,2021-11-02T16:16:36.319Z,4126.894,1635868564,full,ni_sequenzen,NI_Sequenzen,4,,,,,,,,,,,,,
,Move,canvas.Screen,0_1_0_4,right,response,,4110.199999988079,4110.228,4126.894,4304.5999999940395,177.7059999940393,4309.0999999940395,2021-11-02T16:16:36.522Z,4326.886,1635868564,full,ni_sequenzen,NI_Sequenzen,5,,,,,,,,,,,,,
,Move,canvas.Screen,0_1_0_5,left,response,,4312.5,4310.22,4326.886,4860.79999999702,533.9139999970193,4866.0999999940395,2021-11-02T16:16:37.079Z,4876.864,1635868564,full,ni_sequenzen,NI_Sequenzen,6,,,,,,,,,,,,,
,Move,canvas.Screen,0_1_0_6,down,response,,4870.0999999940395,4860.198,4876.864,4932.5999999940395,55.73599999403996,4937.79999999702,2021-11-02T16:16:37.150Z,4943.528,1635868564,full,ni_sequenzen,NI_Sequenzen,7,,,,,,,,,,,,,
,Move,canvas.Screen,0_1_0_7,right,response,,4940.899999991059,4926.862,4943.528,5000.79999999702,57.27199999701952,5006.399999991059,2021-11-02T16:16:37.219Z,5026.858,1635868564,full,ni_sequenzen,NI_Sequenzen,8,,,,,,,,,,,,,
,Move,canvas.Screen,0_1_0_8,left,response,,5009.899999991059,5010.192,5026.858,5219.5,192.64199999999983,5223.5999999940395,2021-11-02T16:16:37.436Z,5226.85,1635868564,full,ni_sequenzen,NI_Sequenzen,9,,,,,,,,,,,,,
,Move,canvas.Screen,0_1_0_9,down,response,,5226.29999999702,5210.184,5226.85,5267.399999991059,40.54999999105894,5271.399999991059,2021-11-02T16:16:37.484Z,5293.514,1635868564,full,ni_sequenzen,NI_Sequenzen,10,,,,,,,,,,,,,
,Move,canvas.Screen,0_1_0_10,right,response,,5273.79999999702,5276.848,5293.514,5343.79999999702,50.285999997019644,5349.0999999940395,2021-11-02T16:16:37.562Z,5360.58,1635868564,full,ni_sequenzen,NI_Sequenzen,11,,,,,,,,,,,,,
,Move,canvas.Screen,0_1_0_11,left,response,,5351.899999991059,5343.914,5360.58,5561.5,200.92000000000007,5565.0999999940395,2021-11-02T16:16:37.778Z,5577.238,1635868564,full,ni_sequenzen,NI_Sequenzen,12,,,,,,,,,,,,,
,Move,canvas.Screen,0_1_0_12,down,response,,5567.5999999940395,5560.572,5577.238,5609.79999999702,32.561999997019484,5614.5,2021-11-02T16:16:37.827Z,5643.902,1635868564,full,ni_sequenzen,NI_Sequenzen,13,,,,,,,,,,,,,
,Move,canvas.Screen,0_1_0_13,right,response,,5616.79999999702,5627.236,5643.902,5690,46.097999999999956,5695.199999988079,2021-11-02T16:16:37.908Z,5710.566,1635868564,full,ni_sequenzen,NI_Sequenzen,14,,,,,,,,,,,,,
,Move,canvas.Screen,0_1_0_14,left,response,,5698.5999999940395,5693.9,5710.566,5935.199999988079,224.63399998807927,5938.5,2021-11-02T16:16:38.151Z,5943.89,1635868564,full,ni_sequenzen,NI_Sequenzen,15,,,,,,,,,,,,,
,Move,canvas.Screen,0_1_0_15,down,response,,5940.5999999940395,5927.224,5943.89,5983.0999999940395,39.20999999403921,5987.5999999940395,2021-11-02T16:16:38.200Z,6010.554,1635868564,full,ni_sequenzen,NI_Sequenzen,16,,,,,,,,,,,,,
,Move,canvas.Screen,0_1_0_16,right,response,,5991.0999999940395,5993.888,6010.554,6067.29999999702,56.74599999701968,6072.399999991059,2021-11-02T16:16:38.285Z,6077.218,1635868564,full,ni_sequenzen,NI_Sequenzen,17,,,,,,,,,,,,,
,Move,canvas.Screen,0_1_0_17,left,response,,6075.79999999702,6060.552,6077.218,6294.29999999702,217.08199999701992,6298.5999999940395,2021-11-02T16:16:38.511Z,6310.542,1635868564,full,ni_sequenzen,NI_Sequenzen,18,,,,,,,,,,,,,
,Move,canvas.Screen,0_1_0_18,down,response,,6302,6293.876,6310.542,6342.899999991059,32.35799999105893,6347.399999991059,2021-11-02T16:16:38.560Z,6377.206,1635868564,full,ni_sequenzen,NI_Sequenzen,19,,,,,,,,,,,,,
,Move,canvas.Screen,0_1_0_19,right,response,,6350.29999999702,6360.54,6377.206,6442.79999999702,65.59399999701964,6448.0999999940395,2021-11-02T16:16:38.661Z,6460.536,1635868564,full,ni_sequenzen,NI_Sequenzen,20,,,,,,,,,,,,,
,Move,canvas.Screen,0_1_0_20,left,response,,6452,6443.87,6460.536,6684.5,223.96399999999994,6688.5,2021-11-02T16:16:38.901Z,6693.86,1635868564,full,ni_sequenzen,NI_Sequenzen,21,,,,,,,,,,,,,
,Move,canvas.Screen,0_1_0_21,down,response,,6692,6677.194,6693.86,6732.5,38.64000000000033,6736.5999999940395,2021-11-02T16:16:38.949Z,6743.858,1635868564,full,ni_sequenzen,NI_Sequenzen,22,,,,,,,,,,,,,
,Move,canvas.Screen,0_1_0_22,right,response,,6740,6727.192,6743.858,6832.899999991059,89.04199999105913,6837.899999991059,2021-11-02T16:16:39.051Z,6843.854,1635868564,full,ni_sequenzen,NI_Sequenzen,23,,,,,,,,,,,,,
,Move,canvas.Screen,0_1_0_23,left,response,,6840.699999988079,6827.188,6843.854,7088.199999988079,244.3459999880788,7092.0999999940395,2021-11-02T16:16:39.305Z,7110.51,1635868564,full,ni_sequenzen,NI_Sequenzen,24,,,,,,,,,,,,,
,Move,canvas.Screen,0_1_0_24,down,response,,7096,7093.844,7110.51,7140.79999999702,30.28999999701955,7145.79999999702,2021-11-02T16:16:39.359Z,7160.508,1635868564,full,ni_sequenzen,NI_Sequenzen,25,,,,,,,,,,,,,
,Move,canvas.Screen,0_1_0_25,right,response,,7148.199999988079,7143.842,7160.508,7240.699999988079,80.19199998807926,7246,2021-11-02T16:16:39.459Z,7260.504,1635868564,full,ni_sequenzen,NI_Sequenzen,26,,,,,,,,,,,,,
,Move,canvas.Screen,0_1_0_26,left,response,,7249.399999991059,7243.838,7260.504,7498.699999988079,238.19599998807917,7502,2021-11-02T16:16:39.715Z,7510.494,1635868564,full,ni_sequenzen,NI_Sequenzen,27,,,,,,,,,,,,,
,Move,canvas.Screen,0_1_0_27,down,response,,7504.199999988079,7493.828,7510.494,7535,24.506000000000313,7538.79999999702,2021-11-02T16:16:39.751Z,7543.826,1635868564,full,ni_sequenzen,NI_Sequenzen,28,,,,,,,,,,,,,
,Move,canvas.Screen,0_1_0_28,right,response,,7541.29999999702,7527.16,7543.826,7655,111.17399999999998,7660,2021-11-02T16:16:39.873Z,7677.154,1635868564,full,ni_sequenzen,NI_Sequenzen,29,,,,,,,,,,,,,
,Move,canvas.Screen,0_1_0_29,left,response,,7662.5999999940395,7660.488,7677.154,7922.0999999940395,244.94599999403908,7926.5999999940395,2021-11-02T16:16:40.139Z,7960.476,1635868564,full,ni_sequenzen,NI_Sequenzen,30,,,,,,,,,,,,,
,Loop,flow.Loop,0_1_0,-999,completion,,3129.3999999910593,3143.6,3160.266,7922.0999999940395,4761.83399999404,7927,2021-11-02T16:16:40.140Z,7960.476,1635868564,full,ni_sequenzen,NI_Sequenzen,,,,,,,,,,,,,,
,Training_I,flow.Sequence,0_1,,completion,,3124.3999999910593,3143.6,3160.266,7922.0999999940395,4761.83399999404,7927.199999988079,2021-11-02T16:16:40.140Z,7960.476,1635868564,full,ni_sequenzen,NI_Sequenzen,,,,,,,,,,,,,,
,Screen_1,canvas.Screen,0_2_0_0,cont,response,1,7955.29999999702,7943.81,7960.476,8077.899999991059,117.42399999105965,8081.899999991059,2021-11-02T16:16:40.295Z,8127.136,1635868564,full,ni_sequenzen,NI_Sequenzen,,,,,,,,,,,,,,
,Screen_2,canvas.Screen,0_2_0_1,back,response,1,8115.399999991059,8110.47,8127.136,8276.199999988079,149.06399998807865,8279.699999988079,2021-11-02T16:16:40.492Z,8410.458,1635868564,full,ni_sequenzen,NI_Sequenzen,,,,,,,,,,,,,,
,Screen_3,canvas.Screen,0_2_0_2,,skipped,1,8282.29999999702,,,8276.199999988079,,8282.29999999702,2021-11-02T16:16:40.495Z,8410.458,1635868564,full,ni_sequenzen,NI_Sequenzen,,,,,,,,,,,,,,
,Screen_4,canvas.Screen,0_2_0_3,,skipped,1,8381.699999988079,,,8276.199999988079,,8382,2021-11-02T16:16:40.595Z,8410.458,1635868564,full,ni_sequenzen,NI_Sequenzen,,,,,,,,,,,,,,
,Screen_5,canvas.Screen,0_2_0_4,,skipped,1,8384.199999988079,,,8276.199999988079,,8384.199999988079,2021-11-02T16:16:40.597Z,8410.458,1635868564,full,ni_sequenzen,NI_Sequenzen,,,,,,,,,,,,,,
,Screen_6,canvas.Screen,0_2_0_5,,skipped,1,8397,,,8276.199999988079,,8397.09999999404,2021-11-02T16:16:40.610Z,8410.458,1635868564,full,ni_sequenzen,NI_Sequenzen,,,,,,,,,,,,,,
,Sequence,flow.Sequence,0_2_0,,completion,1,7954.5,7943.81,7960.476,8276.199999988079,315.7239999880794,8397.39999999106,2021-11-02T16:16:40.610Z,8410.458,1635868564,full,ni_sequenzen,NI_Sequenzen,,,,,,,,,,,,,,
,Screen_1,canvas.Screen,0_2_1_0,cont,response,2,8398.89999999106,8393.792,,8408.09999999404,,8411.199999988079,2021-11-02T16:16:40.624Z,8443.79,1635868564,full,ni_sequenzen,NI_Sequenzen,,,,,,,,,,,,,,
,Screen_2,canvas.Screen,0_2_1_1,back,response,2,8412.699999988079,8427.124,8443.79,8690.5,246.70999999999913,8695.39999999106,2021-11-02T16:16:40.908Z,8710.446,1635868564,full,ni_sequenzen,NI_Sequenzen,,,,,,,,,,,,,,
,Screen_3,canvas.Screen,0_2_1_2,,skipped,2,8699.5,,,8690.5,,8699.59999999404,2021-11-02T16:16:40.912Z,8710.446,1635868564,full,ni_sequenzen,NI_Sequenzen,,,,,,,,,,,,,,
,Screen_4,canvas.Screen,0_2_1_3,,skipped,2,8701,,,8690.5,,8701.09999999404,2021-11-02T16:16:40.914Z,8710.446,1635868564,full,ni_sequenzen,NI_Sequenzen,,,,,,,,,,,,,,
,Screen_5,canvas.Screen,0_2_1_4,,skipped,2,8702.09999999404,,,8690.5,,8702.09999999404,2021-11-02T16:16:40.915Z,8710.446,1635868564,full,ni_sequenzen,NI_Sequenzen,,,,,,,,,,,,,,
,Screen_6,canvas.Screen,0_2_1_5,,skipped,2,8702.89999999106,,,8690.5,,8702.89999999106,2021-11-02T16:16:40.916Z,8710.446,1635868564,full,ni_sequenzen,NI_Sequenzen,,,,,,,,,,,,,,
,Sequence,flow.Sequence,0_2_1,,completion,2,8398,8393.792,8410.458,8690.5,280.04199999999946,8703.09999999404,2021-11-02T16:16:40.916Z,8710.446,1635868564,full,ni_sequenzen,NI_Sequenzen,,,,,,,,,,,,,,
,Screen_1,canvas.Screen,0_2_2_0,cont,response,3,8704.59999999404,8693.78,8710.446,8794.09999999404,83.65399999403962,8797.89999999106,2021-11-02T16:16:41.011Z,8810.442,1635868564,full,ni_sequenzen,NI_Sequenzen,,,,,,,,,,,,,,
,Screen_2,canvas.Screen,0_2_2_1,back,response,3,8800.199999988079,8793.776,8810.442,9055,244.5580000000009,9059.29999999702,2021-11-02T16:16:41.272Z,9077.098,1635868564,full,ni_sequenzen,NI_Sequenzen,,,,,,,,,,,,,,
,Screen_3,canvas.Screen,0_2_2_2,,skipped,3,9062.29999999702,,,9055,,9062.5,2021-11-02T16:16:41.275Z,9077.098,1635868564,full,ni_sequenzen,NI_Sequenzen,,,,,,,,,,,,,,
,Screen_4,canvas.Screen,0_2_2_3,,skipped,3,9063.89999999106,,,9055,,9064,2021-11-02T16:16:41.277Z,9077.098,1635868564,full,ni_sequenzen,NI_Sequenzen,,,,,,,,,,,,,,
,Screen_5,canvas.Screen,0_2_2_4,,skipped,3,9065.199999988079,,,9055,,9065.39999999106,2021-11-02T16:16:41.278Z,9077.098,1635868564,full,ni_sequenzen,NI_Sequenzen,,,,,,,,,,,,,,
,Screen_6,canvas.Screen,0_2_2_5,,skipped,3,9066.79999999702,,,9055,,9067,2021-11-02T16:16:41.280Z,9077.098,1635868564,full,ni_sequenzen,NI_Sequenzen,,,,,,,,,,,,,,
,Sequence,flow.Sequence,0_2_2,,completion,3,8703.5,8693.78,8710.446,9055,344.5540000000001,9067.199999988079,2021-11-02T16:16:41.280Z,9077.098,1635868564,full,ni_sequenzen,NI_Sequenzen,,,,,,,,,,,,,,
,Screen_1,canvas.Screen,0_2_3_0,cont,response,4,9068.89999999106,9060.432,9077.098,9203.29999999702,126.20199999701981,9207.89999999106,2021-11-02T16:16:41.421Z,9210.426,1635868564,full,ni_sequenzen,NI_Sequenzen,,,,,,,,,,,,,,
,Screen_2,canvas.Screen,0_2_3_1,back,response,4,9209.89999999106,9193.76,9210.426,9475,264.5740000000005,9479.89999999106,2021-11-02T16:16:41.693Z,9493.748,1635868564,full,ni_sequenzen,NI_Sequenzen,,,,,,,,,,,,,,
,Screen_3,canvas.Screen,0_2_3_2,,skipped,4,9482.89999999106,,,9475,,9482.89999999106,2021-11-02T16:16:41.696Z,9493.748,1635868564,full,ni_sequenzen,NI_Sequenzen,,,,,,,,,,,,,,
,Screen_4,canvas.Screen,0_2_3_3,,skipped,4,9483.89999999106,,,9475,,9483.89999999106,2021-11-02T16:16:41.697Z,9493.748,1635868564,full,ni_sequenzen,NI_Sequenzen,,,,,,,,,,,,,,
,Screen_5,canvas.Screen,0_2_3_4,,skipped,4,9485,,,9475,,9485.09999999404,2021-11-02T16:16:41.698Z,9493.748,1635868564,full,ni_sequenzen,NI_Sequenzen,,,,,,,,,,,,,,
,Screen_6,canvas.Screen,0_2_3_5,,skipped,4,9486.29999999702,,,9475,,9486.5,2021-11-02T16:16:41.699Z,9493.748,1635868564,full,ni_sequenzen,NI_Sequenzen,,,,,,,,,,,,,,
,Sequence,flow.Sequence,0_2_3,,completion,4,9067.79999999702,9060.432,9077.098,9475,397.90200000000004,9486.59999999404,2021-11-02T16:16:41.699Z,9493.748,1635868564,full,ni_sequenzen,NI_Sequenzen,,,,,,,,,,,,,,
,Screen_1,canvas.Screen,0_2_4_0,cont,response,5,9487.699999988079,9477.082,9493.748,9599.39999999106,105.65199999105971,9604.39999999106,2021-11-02T16:16:41.817Z,9610.41,1635868564,full,ni_sequenzen,NI_Sequenzen,,,,,,,,,,,,,,
,Screen_2,canvas.Screen,0_2_4_1,back,response,5,9606.59999999404,9593.744,9610.41,9872.79999999702,262.3899999970199,9877.09999999404,2021-11-02T16:16:42.090Z,9893.732,1635868564,full,ni_sequenzen,NI_Sequenzen,,,,,,,,,,,,,,
,Screen_3,canvas.Screen,0_2_4_2,,skipped,5,9880.09999999404,,,9872.79999999702,,9880.09999999404,2021-11-02T16:16:42.093Z,9893.732,1635868564,full,ni_sequenzen,NI_Sequenzen,,,,,,,,,,,,,,
,Screen_4,canvas.Screen,0_2_4_3,,skipped,5,9880.699999988079,,,9872.79999999702,,9880.89999999106,2021-11-02T16:16:42.093Z,9893.732,1635868564,full,ni_sequenzen,NI_Sequenzen,,,,,,,,,,,,,,
,Screen_5,canvas.Screen,0_2_4_4,,skipped,5,9881.39999999106,,,9872.79999999702,,9881.39999999106,2021-11-02T16:16:42.094Z,9893.732,1635868564,full,ni_sequenzen,NI_Sequenzen,,,,,,,,,,,,,,
,Screen_6,canvas.Screen,0_2_4_5,,skipped,5,9882.89999999106,,,9872.79999999702,,9882.89999999106,2021-11-02T16:16:42.096Z,9893.732,1635868564,full,ni_sequenzen,NI_Sequenzen,,,,,,,,,,,,,,
,Sequence,flow.Sequence,0_2_4,,completion,5,9487,9477.082,9493.748,9872.79999999702,379.0519999970202,9883.199999988079,2021-11-02T16:16:42.096Z,9893.732,1635868564,full,ni_sequenzen,NI_Sequenzen,,,,,,,,,,,,,,
,Screen_1,canvas.Screen,0_2_5_0,cont,response,6,9884.199999988079,9877.066,9893.732,9981,87.26800000000003,9984.5,2021-11-02T16:16:42.197Z,9993.728,1635868564,full,ni_sequenzen,NI_Sequenzen,,,,,,,,,,,,,,
,Screen_2,canvas.Screen,0_2_5_1,cont,response,6,9986.199999988079,9977.062,9993.728,10497.09999999404,503.3719999940404,10501,2021-11-02T16:16:42.714Z,10510.374,1635868564,full,ni_sequenzen,NI_Sequenzen,,,,,,,,,,,,,,
,Screen_3,canvas.Screen,0_2_5_2,back,response,6,10503.5,10493.708,10510.374,10794.199999988079,283.8259999880793,10798.09999999404,2021-11-02T16:16:43.011Z,10827.028,1635868564,full,ni_sequenzen,NI_Sequenzen,,,,,,,,,,,,,,
,Screen_4,canvas.Screen,0_2_5_3,,skipped,6,10800.199999988079,,,10794.199999988079,,10800.29999999702,2021-11-02T16:16:43.013Z,10827.028,1635868564,full,ni_sequenzen,NI_Sequenzen,,,,,,,,,,,,,,
,Screen_5,canvas.Screen,0_2_5_4,,skipped,6,10801.29999999702,,,10794.199999988079,,10801.39999999106,2021-11-02T16:16:43.014Z,10827.028,1635868564,full,ni_sequenzen,NI_Sequenzen,,,,,,,,,,,,,,
,Screen_6,canvas.Screen,0_2_5_5,,skipped,6,10802.89999999106,,,10794.199999988079,,10803,2021-11-02T16:16:43.016Z,10827.028,1635868564,full,ni_sequenzen,NI_Sequenzen,,,,,,,,,,,,,,
,Sequence,flow.Sequence,0_2_5,,completion,6,9883.59999999404,9877.066,9893.732,10794.199999988079,900.4679999880791,10803.09999999404,2021-11-02T16:16:43.016Z,10827.028,1635868564,full,ni_sequenzen,NI_Sequenzen,,,,,,,,,,,,,,
,Screen_1,canvas.Screen,0_2_6_0,,skipped,7,10804.39999999106,,,10804.39999999106,,10804.39999999106,2021-11-02T16:16:43.017Z,10827.028,1635868564,full,ni_sequenzen,NI_Sequenzen,,,,,,,,,,,,,,
,Screen_2,canvas.Screen,0_2_6_1,cont,response,7,10810.699999988079,10810.362,10827.028,10946.199999988079,119.17199998807882,10950.39999999106,2021-11-02T16:16:43.163Z,10960.356,1635868564,full,ni_sequenzen,NI_Sequenzen,,,,,,,,,,,,,,
,Screen_3,canvas.Screen,0_2_6_2,back,response,7,10953.5,10943.69,10960.356,11209.79999999702,249.44399999702,11214.699999988079,2021-11-02T16:16:43.427Z,11227.012,1635868564,full,ni_sequenzen,NI_Sequenzen,,,,,,,,,,,,,,
,Screen_4,canvas.Screen,0_2_6_3,,skipped,7,11217.39999999106,,,11209.79999999702,,11217.59999999404,2021-11-02T16:16:43.430Z,11227.012,1635868564,full,ni_sequenzen,NI_Sequenzen,,,,,,,,,,,,,,
,Screen_5,canvas.Screen,0_2_6_4,,skipped,7,11218.89999999106,,,11209.79999999702,,11219,2021-11-02T16:16:43.432Z,11227.012,1635868564,full,ni_sequenzen,NI_Sequenzen,,,,,,,,,,,,,,
,Screen_6,canvas.Screen,0_2_6_5,,skipped,7,11220.09999999404,,,11209.79999999702,,11220.199999988079,2021-11-02T16:16:43.433Z,11227.012,1635868564,full,ni_sequenzen,NI_Sequenzen,,,,,,,,,,,,,,
,Sequence,flow.Sequence,0_2_6,,completion,7,10803.39999999106,10810.362,10827.028,11209.79999999702,382.7719999970195,11220.39999999106,2021-11-02T16:16:43.433Z,11227.012,1635868564,full,ni_sequenzen,NI_Sequenzen,,,,,,,,,,,,,,
,Screen_1,canvas.Screen,0_2_7_0,,skipped,8,11221.89999999106,,,11221.89999999106,,11221.89999999106,2021-11-02T16:16:43.435Z,11227.012,1635868564,full,ni_sequenzen,NI_Sequenzen,,,,,,,,,,,,,,
,Screen_2,canvas.Screen,0_2_7_1,cont,response,8,11222.59999999404,11210.346,11227.012,11333.89999999106,106.88799999105868,11338.89999999106,2021-11-02T16:16:43.552Z,11343.674,1635868564,full,ni_sequenzen,NI_Sequenzen,,,,,,,,,,,,,,
,Screen_3,canvas.Screen,0_2_7_2,back,response,8,11341.699999988079,11327.008,11343.674,11594.39999999106,250.72599999105842,11599.5,2021-11-02T16:16:43.812Z,11610.33,1635868564,full,ni_sequenzen,NI_Sequenzen,,,,,,,,,,,,,,
,Screen_4,canvas.Screen,0_2_7_3,,skipped,8,11602,,,11594.39999999106,,11602,2021-11-02T16:16:43.815Z,11610.33,1635868564,full,ni_sequenzen,NI_Sequenzen,,,,,,,,,,,,,,
,Screen_5,canvas.Screen,0_2_7_4,,skipped,8,11602.699999988079,,,11594.39999999106,,11602.89999999106,2021-11-02T16:16:43.815Z,11610.33,1635868564,full,ni_sequenzen,NI_Sequenzen,,,,,,,,,,,,,,
,Screen_6,canvas.Screen,0_2_7_5,,skipped,8,11603.59999999404,,,11594.39999999106,,11603.699999988079,2021-11-02T16:16:43.816Z,11610.33,1635868564,full,ni_sequenzen,NI_Sequenzen,,,,,,,,,,,,,,
,Sequence,flow.Sequence,0_2_7,,completion,8,11221,11210.346,11227.012,11594.39999999106,367.3879999910587,11603.79999999702,2021-11-02T16:16:43.816Z,11610.33,1635868564,full,ni_sequenzen,NI_Sequenzen,,,,,,,,,,,,,,
,Screen_1,canvas.Screen,0_2_8_0,,skipped,9,11604.89999999106,,,11604.89999999106,,11604.89999999106,2021-11-02T16:16:43.818Z,11610.33,1635868564,full,ni_sequenzen,NI_Sequenzen,,,,,,,,,,,,,,
,Screen_2,canvas.Screen,0_2_8_1,cont,response,9,11605.5,11593.664,11610.33,11718.59999999404,108.26999999403961,11723.59999999404,2021-11-02T16:16:43.936Z,11743.658,1635868564,full,ni_sequenzen,NI_Sequenzen,,,,,,,,,,,,,,
,Screen_3,canvas.Screen,0_2_8_2,cont,response,9,11726.79999999702,11726.992,11743.658,12449.699999988079,706.0419999880796,12453.39999999106,2021-11-02T16:16:44.666Z,12460.296,1635868564,full,ni_sequenzen,NI_Sequenzen,,,,,,,,,,,,,,
,Screen_4,canvas.Screen,0_2_8_3,back,response,9,12456.39999999106,12443.63,12460.296,12798.199999988079,337.9039999880788,12804.09999999404,2021-11-02T16:16:45.017Z,12826.948,1635868564,full,ni_sequenzen,NI_Sequenzen,,,,,,,,,,,,,,
,Screen_5,canvas.Screen,0_2_8_4,,skipped,9,12807.5,,,12798.199999988079,,12807.59999999404,2021-11-02T16:16:45.020Z,12826.948,1635868564,full,ni_sequenzen,NI_Sequenzen,,,,,,,,,,,,,,
,Screen_6,canvas.Screen,0_2_8_5,,skipped,9,12809.199999988079,,,12798.199999988079,,12809.29999999702,2021-11-02T16:16:45.022Z,12826.948,1635868564,full,ni_sequenzen,NI_Sequenzen,,,,,,,,,,,,,,
,Sequence,flow.Sequence,0_2_8,,completion,9,11604.199999988079,11593.664,11610.33,12798.199999988079,1187.8699999880791,12809.59999999404,2021-11-02T16:16:45.022Z,12826.948,1635868564,full,ni_sequenzen,NI_Sequenzen,,,,,,,,,,,,,,
,Screen_1,canvas.Screen,0_2_9_0,,skipped,10,12811,,,12811,,12811.09999999404,2021-11-02T16:16:45.024Z,12826.948,1635868564,full,ni_sequenzen,NI_Sequenzen,,,,,,,,,,,,,,
,Screen_2,canvas.Screen,0_2_9_1,,skipped,10,12811.79999999702,,,12811,,12811.89999999106,2021-11-02T16:16:45.025Z,12826.948,1635868564,full,ni_sequenzen,NI_Sequenzen,,,,,,,,,,,,,,
,Screen_3,canvas.Screen,0_2_9_2,cont,response,10,12812.59999999404,12810.282,12826.948,12926.199999988079,99.25199998807875,12931,2021-11-02T16:16:45.144Z,12943.61,1635868564,full,ni_sequenzen,NI_Sequenzen,,,,,,,,,,,,,,
,Screen_4,canvas.Screen,0_2_9_3,back,response,10,12933.5,12926.944,12943.61,13187.29999999702,243.68999999701919,13192,2021-11-02T16:16:45.405Z,13210.266,1635868564,full,ni_sequenzen,NI_Sequenzen,,,,,,,,,,,,,,
,Screen_5,canvas.Screen,0_2_9_4,,skipped,10,13195.09999999404,,,13187.29999999702,,13195.199999988079,2021-11-02T16:16:45.408Z,13210.266,1635868564,full,ni_sequenzen,NI_Sequenzen,,,,,,,,,,,,,,
,Screen_6,canvas.Screen,0_2_9_5,,skipped,10,13196.59999999404,,,13187.29999999702,,13196.699999988079,2021-11-02T16:16:45.409Z,13210.266,1635868564,full,ni_sequenzen,NI_Sequenzen,,,,,,,,,,,,,,
,Sequence,flow.Sequence,0_2_9,,completion,10,12810.29999999702,12810.282,12826.948,13187.29999999702,360.35199999701945,13197,2021-11-02T16:16:45.410Z,13210.266,1635868564,full,ni_sequenzen,NI_Sequenzen,,,,,,,,,,,,,,
,Screen_1,canvas.Screen,0_2_10_0,,skipped,11,13198.39999999106,,,13198.39999999106,,13198.39999999106,2021-11-02T16:16:45.411Z,13210.266,1635868564,full,ni_sequenzen,NI_Sequenzen,,,,,,,,,,,,,,
,Screen_2,canvas.Screen,0_2_10_1,,skipped,11,13199.79999999702,,,13198.39999999106,,13199.79999999702,2021-11-02T16:16:45.413Z,13210.266,1635868564,full,ni_sequenzen,NI_Sequenzen,,,,,,,,,,,,,,
,Screen_3,canvas.Screen,0_2_10_2,cont,response,11,13200.699999988079,13193.6,13210.266,13343.699999988079,133.43399998807945,13349,2021-11-02T16:16:45.562Z,13360.26,1635868564,full,ni_sequenzen,NI_Sequenzen,,,,,,,,,,,,,,
,Screen_4,canvas.Screen,0_2_10_3,back,response,11,13351.5,13343.594,13360.26,13607.29999999702,247.03999999701955,13611.89999999106,2021-11-02T16:16:45.824Z,13626.916,1635868564,full,ni_sequenzen,NI_Sequenzen,,,,,,,,,,,,,,
,Screen_5,canvas.Screen,0_2_10_4,,skipped,11,13614.59999999404,,,13607.29999999702,,13614.79999999702,2021-11-02T16:16:45.827Z,13626.916,1635868564,full,ni_sequenzen,NI_Sequenzen,,,,,,,,,,,,,,
,Screen_6,canvas.Screen,0_2_10_5,,skipped,11,13616.09999999404,,,13607.29999999702,,13616.09999999404,2021-11-02T16:16:45.829Z,13626.916,1635868564,full,ni_sequenzen,NI_Sequenzen,,,,,,,,,,,,,,
,Sequence,flow.Sequence,0_2_10,,completion,11,13197.59999999404,13193.6,13210.266,13607.29999999702,397.03399999702015,13616.39999999106,2021-11-02T16:16:45.829Z,13626.916,1635868564,full,ni_sequenzen,NI_Sequenzen,,,,,,,,,,,,,,
,Screen_1,canvas.Screen,0_2_11_0,,skipped,12,13618.09999999404,,,13618.09999999404,,13618.199999988079,2021-11-02T16:16:45.831Z,13626.916,1635868564,full,ni_sequenzen,NI_Sequenzen,,,,,,,,,,,,,,
,Screen_2,canvas.Screen,0_2_11_1,,skipped,12,13619.199999988079,,,13618.09999999404,,13619.199999988079,2021-11-02T16:16:45.832Z,13626.916,1635868564,full,ni_sequenzen,NI_Sequenzen,,,,,,,,,,,,,,
,Screen_3,canvas.Screen,0_2_11_2,cont,response,12,13619.89999999106,13610.25,13626.916,13743.59999999404,116.68399999404028,13747.79999999702,2021-11-02T16:16:45.961Z,13760.244,1635868564,full,ni_sequenzen,NI_Sequenzen,,,,,,,,,,,,,,
,Screen_4,canvas.Screen,0_2_11_3,cont,response,12,13750.699999988079,13743.578,13760.244,14160,399.7559999999994,14165.29999999702,2021-11-02T16:16:46.378Z,14176.894,1635868564,full,ni_sequenzen,NI_Sequenzen,,,,,,,,,,,,,,
,Screen_5,canvas.Screen,0_2_11_4,cont,response,12,14168.29999999702,14160.228,14176.894,14354.79999999702,177.90599999701953,14358.89999999106,2021-11-02T16:16:46.571Z,14376.886,1635868564,full,ni_sequenzen,NI_Sequenzen,,,,,,,,,,,,,,
,Screen_6,canvas.Screen,0_2_11_5,cont,response,12,14361.79999999702,14360.22,14376.886,14587.29999999702,210.41399999701935,14591.5,2021-11-02T16:16:46.804Z,14660.208,1635868564,full,ni_sequenzen,NI_Sequenzen,,,,,,,,,,,,,,
,Sequence,flow.Sequence,0_2_11,,completion,12,13616.89999999106,13610.25,13626.916,14587.29999999702,960.3839999970205,14591.699999988079,2021-11-02T16:16:46.804Z,14660.208,1635868564,full,ni_sequenzen,NI_Sequenzen,,,,,,,,,,,,,,
,Screen_1,canvas.Screen,0_2_12_0,,skipped,13,14594.59999999404,,,14594.59999999404,,14594.59999999404,2021-11-02T16:16:46.807Z,14660.208,1635868564,full,ni_sequenzen,NI_Sequenzen,,,,,,,,,,,,,,
,Screen_2,canvas.Screen,0_2_12_1,,skipped,13,14595.5,,,14594.59999999404,,14595.5,2021-11-02T16:16:46.808Z,14660.208,1635868564,full,ni_sequenzen,NI_Sequenzen,,,,,,,,,,,,,,
,Screen_3,canvas.Screen,0_2_12_2,,skipped,13,14596.09999999404,,,14594.59999999404,,14596.09999999404,2021-11-02T16:16:46.809Z,14660.208,1635868564,full,ni_sequenzen,NI_Sequenzen,,,,,,,,,,,,,,
,Screen_4,canvas.Screen,0_2_12_3,,skipped,13,14597.199999988079,,,14594.59999999404,,14597.39999999106,2021-11-02T16:16:46.810Z,14660.208,1635868564,full,ni_sequenzen,NI_Sequenzen,,,,,,,,,,,,,,
,Screen_5,canvas.Screen,0_2_12_4,,skipped,13,14598.199999988079,,,14594.59999999404,,14598.199999988079,2021-11-02T16:16:46.811Z,14660.208,1635868564,full,ni_sequenzen,NI_Sequenzen,,,,,,,,,,,,,,
,Screen_6,canvas.Screen,0_2_12_5,,skipped,13,14599,,,14594.59999999404,,14599,2021-11-02T16:16:46.812Z,14660.208,1635868564,full,ni_sequenzen,NI_Sequenzen,,,,,,,,,,,,,,
,Sequence,flow.Sequence,0_2_12,,completion,13,14593.09999999404,,,14594.59999999404,,14599.09999999404,2021-11-02T16:16:46.812Z,14660.208,1635868564,full,ni_sequenzen,NI_Sequenzen,,,,,,,,,,,,,,
,Screen_1,canvas.Screen,0_2_13_0,,skipped,14,14599.89999999106,,,14599.89999999106,,14599.89999999106,2021-11-02T16:16:46.812Z,14660.208,1635868564,full,ni_sequenzen,NI_Sequenzen,,,,,,,,,,,,,,
,Screen_2,canvas.Screen,0_2_13_1,,skipped,14,14600.5,,,14599.89999999106,,14600.5,2021-11-02T16:16:46.813Z,14660.208,1635868564,full,ni_sequenzen,NI_Sequenzen,,,,,,,,,,,,,,
,Screen_3,canvas.Screen,0_2_13_2,,skipped,14,14601.09999999404,,,14599.89999999106,,14601.09999999404,2021-11-02T16:16:46.814Z,14660.208,1635868564,full,ni_sequenzen,NI_Sequenzen,,,,,,,,,,,,,,
,Screen_4,canvas.Screen,0_2_13_3,,skipped,14,14601.59999999404,,,14599.89999999106,,14601.79999999702,2021-11-02T16:16:46.814Z,14660.208,1635868564,full,ni_sequenzen,NI_Sequenzen,,,,,,,,,,,,,,
,Screen_5,canvas.Screen,0_2_13_4,,skipped,14,14602.39999999106,,,14599.89999999106,,14602.5,2021-11-02T16:16:46.815Z,14660.208,1635868564,full,ni_sequenzen,NI_Sequenzen,,,,,,,,,,,,,,
,Screen_6,canvas.Screen,0_2_13_5,,skipped,14,14603,,,14599.89999999106,,14603,2021-11-02T16:16:46.816Z,14660.208,1635868564,full,ni_sequenzen,NI_Sequenzen,,,,,,,,,,,,,,
,Sequence,flow.Sequence,0_2_13,,completion,14,14599.39999999106,,,14599.89999999106,,14603.09999999404,2021-11-02T16:16:46.816Z,14660.208,1635868564,full,ni_sequenzen,NI_Sequenzen,,,,,,,,,,,,,,
,Screen_1,canvas.Screen,0_2_14_0,,skipped,15,14603.699999988079,,,14603.79999999702,,14603.79999999702,2021-11-02T16:16:46.816Z,14660.208,1635868564,full,ni_sequenzen,NI_Sequenzen,,,,,,,,,,,,,,
,Screen_2,canvas.Screen,0_2_14_1,,skipped,15,14604.39999999106,,,14603.79999999702,,14604.5,2021-11-02T16:16:46.817Z,14660.208,1635868564,full,ni_sequenzen,NI_Sequenzen,,,,,,,,,,,,,,
,Screen_3,canvas.Screen,0_2_14_2,,skipped,15,14605,,,14603.79999999702,,14605,2021-11-02T16:16:46.818Z,14660.208,1635868564,full,ni_sequenzen,NI_Sequenzen,,,,,,,,,,,,,,
,Screen_4,canvas.Screen,0_2_14_3,,skipped,15,14605.5,,,14603.79999999702,,14605.59999999404,2021-11-02T16:16:46.818Z,14660.208,1635868564,full,ni_sequenzen,NI_Sequenzen,,,,,,,,,,,,,,
,Screen_5,canvas.Screen,0_2_14_4,,skipped,15,14606.199999988079,,,14603.79999999702,,14606.199999988079,2021-11-02T16:16:46.819Z,14660.208,1635868564,full,ni_sequenzen,NI_Sequenzen,,,,,,,,,,,,,,
,Screen_6,canvas.Screen,0_2_14_5,,skipped,15,14606.89999999106,,,14603.79999999702,,14606.89999999106,2021-11-02T16:16:46.819Z,14660.208,1635868564,full,ni_sequenzen,NI_Sequenzen,,,,,,,,,,,,,,
,Sequence,flow.Sequence,0_2_14,,completion,15,14603.29999999702,,,14603.79999999702,,14607,2021-11-02T16:16:46.820Z,14660.208,1635868564,full,ni_sequenzen,NI_Sequenzen,,,,,,,,,,,,,,
,Screen_1,canvas.Screen,0_2_15_0,,skipped,16,14607.59999999404,,,14607.59999999404,,14607.699999988079,2021-11-02T16:16:46.820Z,14660.208,1635868564,full,ni_sequenzen,NI_Sequenzen,,,,,,,,,,,,,,
,Screen_2,canvas.Screen,0_2_15_1,,skipped,16,14608.29999999702,,,14607.59999999404,,14608.29999999702,2021-11-02T16:16:46.821Z,14660.208,1635868564,full,ni_sequenzen,NI_Sequenzen,,,,,,,,,,,,,,
,Screen_3,canvas.Screen,0_2_15_2,,skipped,16,14608.699999988079,,,14607.59999999404,,14608.89999999106,2021-11-02T16:16:46.821Z,14660.208,1635868564,full,ni_sequenzen,NI_Sequenzen,,,,,,,,,,,,,,
,Screen_4,canvas.Screen,0_2_15_3,,skipped,16,14609.199999988079,,,14607.59999999404,,14609.39999999106,2021-11-02T16:16:46.822Z,14660.208,1635868564,full,ni_sequenzen,NI_Sequenzen,,,,,,,,,,,,,,
,Screen_5,canvas.Screen,0_2_15_4,,skipped,16,14609.79999999702,,,14607.59999999404,,14609.79999999702,2021-11-02T16:16:46.822Z,14660.208,1635868564,full,ni_sequenzen,NI_Sequenzen,,,,,,,,,,,,,,
,Screen_6,canvas.Screen,0_2_15_5,,skipped,16,14610.199999988079,,,14607.59999999404,,14610.199999988079,2021-11-02T16:16:46.823Z,14660.208,1635868564,full,ni_sequenzen,NI_Sequenzen,,,,,,,,,,,,,,
,Sequence,flow.Sequence,0_2_15,,completion,16,14607.29999999702,,,14607.59999999404,,14610.39999999106,2021-11-02T16:16:46.823Z,14660.208,1635868564,full,ni_sequenzen,NI_Sequenzen,,,,,,,,,,,,,,
,Screen_1,canvas.Screen,0_2_16_0,,skipped,17,14610.79999999702,,,14610.79999999702,,14610.89999999106,2021-11-02T16:16:46.824Z,14660.208,1635868564,full,ni_sequenzen,NI_Sequenzen,,,,,,,,,,,,,,
,Screen_2,canvas.Screen,0_2_16_1,,skipped,17,14611.5,,,14610.79999999702,,14611.5,2021-11-02T16:16:46.824Z,14660.208,1635868564,full,ni_sequenzen,NI_Sequenzen,,,,,,,,,,,,,,
,Screen_3,canvas.Screen,0_2_16_2,,skipped,17,14612,,,14610.79999999702,,14612,2021-11-02T16:16:46.825Z,14660.208,1635868564,full,ni_sequenzen,NI_Sequenzen,,,,,,,,,,,,,,
,Screen_4,canvas.Screen,0_2_16_3,,skipped,17,14612.29999999702,,,14610.79999999702,,14612.5,2021-11-02T16:16:46.825Z,14660.208,1635868564,full,ni_sequenzen,NI_Sequenzen,,,,,,,,,,,,,,
,Screen_5,canvas.Screen,0_2_16_4,,skipped,17,14612.89999999106,,,14610.79999999702,,14612.89999999106,2021-11-02T16:16:46.825Z,14660.208,1635868564,full,ni_sequenzen,NI_Sequenzen,,,,,,,,,,,,,,
,Screen_6,canvas.Screen,0_2_16_5,,skipped,17,14613.39999999106,,,14610.79999999702,,14613.39999999106,2021-11-02T16:16:46.826Z,14660.208,1635868564,full,ni_sequenzen,NI_Sequenzen,,,,,,,,,,,,,,
,Sequence,flow.Sequence,0_2_16,,completion,17,14610.5,,,14610.79999999702,,14613.5,2021-11-02T16:16:46.826Z,14660.208,1635868564,full,ni_sequenzen,NI_Sequenzen,,,,,,,,,,,,,,
,Screen_1,canvas.Screen,0_2_17_0,,skipped,18,14613.89999999106,,,14613.89999999106,,14614.09999999404,2021-11-02T16:16:46.827Z,14660.208,1635868564,full,ni_sequenzen,NI_Sequenzen,,,,,,,,,,,,,,
,Screen_2,canvas.Screen,0_2_17_1,,skipped,18,14614.5,,,14613.89999999106,,14614.59999999404,2021-11-02T16:16:46.827Z,14660.208,1635868564,full,ni_sequenzen,NI_Sequenzen,,,,,,,,,,,,,,
,Screen_3,canvas.Screen,0_2_17_2,,skipped,18,14615,,,14613.89999999106,,14615,2021-11-02T16:16:46.828Z,14660.208,1635868564,full,ni_sequenzen,NI_Sequenzen,,,,,,,,,,,,,,
,Screen_4,canvas.Screen,0_2_17_3,,skipped,18,14615.5,,,14613.89999999106,,14615.5,2021-11-02T16:16:46.828Z,14660.208,1635868564,full,ni_sequenzen,NI_Sequenzen,,,,,,,,,,,,,,
,Screen_5,canvas.Screen,0_2_17_4,,skipped,18,14615.89999999106,,,14613.89999999106,,14615.89999999106,2021-11-02T16:16:46.829Z,14660.208,1635868564,full,ni_sequenzen,NI_Sequenzen,,,,,,,,,,,,,,
,Screen_6,canvas.Screen,0_2_17_5,,skipped,18,14616.29999999702,,,14613.89999999106,,14616.29999999702,2021-11-02T16:16:46.829Z,14660.208,1635868564,full,ni_sequenzen,NI_Sequenzen,,,,,,,,,,,,,,
,Sequence,flow.Sequence,0_2_17,,completion,18,14613.59999999404,,,14613.89999999106,,14616.5,2021-11-02T16:16:46.829Z,14660.208,1635868564,full,ni_sequenzen,NI_Sequenzen,,,,,,,,,,,,,,
,Screen_1,canvas.Screen,0_2_18_0,,skipped,19,14617,,,14617,,14617.09999999404,2021-11-02T16:16:46.830Z,14660.208,1635868564,full,ni_sequenzen,NI_Sequenzen,,,,,,,,,,,,,,
,Screen_2,canvas.Screen,0_2_18_1,,skipped,19,14617.5,,,14617,,14617.5,2021-11-02T16:16:46.830Z,14660.208,1635868564,full,ni_sequenzen,NI_Sequenzen,,,,,,,,,,,,,,
,Screen_3,canvas.Screen,0_2_18_2,,skipped,19,14617.89999999106,,,14617,,14617.89999999106,2021-11-02T16:16:46.830Z,14660.208,1635868564,full,ni_sequenzen,NI_Sequenzen,,,,,,,,,,,,,,
,Screen_4,canvas.Screen,0_2_18_3,,skipped,19,14618.29999999702,,,14617,,14618.29999999702,2021-11-02T16:16:46.831Z,14660.208,1635868564,full,ni_sequenzen,NI_Sequenzen,,,,,,,,,,,,,,
,Screen_5,canvas.Screen,0_2_18_4,,skipped,19,14618.699999988079,,,14617,,14618.79999999702,2021-11-02T16:16:46.831Z,14660.208,1635868564,full,ni_sequenzen,NI_Sequenzen,,,,,,,,,,,,,,
,Screen_6,canvas.Screen,0_2_18_5,,skipped,19,14619.199999988079,,,14617,,14619.199999988079,2021-11-02T16:16:46.832Z,14660.208,1635868564,full,ni_sequenzen,NI_Sequenzen,,,,,,,,,,,,,,
,Sequence,flow.Sequence,0_2_18,,completion,19,14616.59999999404,,,14617,,14619.29999999702,2021-11-02T16:16:46.832Z,14660.208,1635868564,full,ni_sequenzen,NI_Sequenzen,,,,,,,,,,,,,,
,Screen_1,canvas.Screen,0_2_19_0,,skipped,20,14620.5,,,14620.5,,14620.5,2021-11-02T16:16:46.833Z,14660.208,1635868564,full,ni_sequenzen,NI_Sequenzen,,,,,,,,,,,,,,
,Screen_2,canvas.Screen,0_2_19_1,,skipped,20,14620.79999999702,,,14620.5,,14620.79999999702,2021-11-02T16:16:46.833Z,14660.208,1635868564,full,ni_sequenzen,NI_Sequenzen,,,,,,,,,,,,,,
,Screen_3,canvas.Screen,0_2_19_2,,skipped,20,14621.199999988079,,,14620.5,,14621.199999988079,2021-11-02T16:16:46.834Z,14660.208,1635868564,full,ni_sequenzen,NI_Sequenzen,,,,,,,,,,,,,,
,Screen_4,canvas.Screen,0_2_19_3,,skipped,20,14621.59999999404,,,14620.5,,14621.59999999404,2021-11-02T16:16:46.834Z,14660.208,1635868564,full,ni_sequenzen,NI_Sequenzen,,,,,,,,,,,,,,
,Screen_5,canvas.Screen,0_2_19_4,,skipped,20,14622,,,14620.5,,14622,2021-11-02T16:16:46.835Z,14660.208,1635868564,full,ni_sequenzen,NI_Sequenzen,,,,,,,,,,,,,,
,Screen_6,canvas.Screen,0_2_19_5,,skipped,20,14622.39999999106,,,14620.5,,14622.39999999106,2021-11-02T16:16:46.835Z,14660.208,1635868564,full,ni_sequenzen,NI_Sequenzen,,,,,,,,,,,,,,
,Sequence,flow.Sequence,0_2_19,,completion,20,14620.09999999404,,,14620.5,,14622.5,2021-11-02T16:16:46.835Z,14660.208,1635868564,full,ni_sequenzen,NI_Sequenzen,,,,,,,,,,,,,,
,Screen_1,canvas.Screen,0_2_20_0,,skipped,21,14623.09999999404,,,14623.09999999404,,14623.09999999404,2021-11-02T16:16:46.836Z,14660.208,1635868564,full,ni_sequenzen,NI_Sequenzen,,,,,,,,,,,,,,
,Screen_2,canvas.Screen,0_2_20_1,,skipped,21,14623.5,,,14623.09999999404,,14623.59999999404,2021-11-02T16:16:46.836Z,14660.208,1635868564,full,ni_sequenzen,NI_Sequenzen,,,,,,,,,,,,,,
,Screen_3,canvas.Screen,0_2_20_2,,skipped,21,14624,,,14623.09999999404,,14624,2021-11-02T16:16:46.837Z,14660.208,1635868564,full,ni_sequenzen,NI_Sequenzen,,,,,,,,,,,,,,
,Screen_4,canvas.Screen,0_2_20_3,,skipped,21,14624.39999999106,,,14623.09999999404,,14624.39999999106,2021-11-02T16:16:46.837Z,14660.208,1635868564,full,ni_sequenzen,NI_Sequenzen,,,,,,,,,,,,,,
,Screen_5,canvas.Screen,0_2_20_4,,skipped,21,14624.79999999702,,,14623.09999999404,,14624.89999999106,2021-11-02T16:16:46.838Z,14660.208,1635868564,full,ni_sequenzen,NI_Sequenzen,,,,,,,,,,,,,,
,Screen_6,canvas.Screen,0_2_20_5,,skipped,21,14625.5,,,14623.09999999404,,14625.5,2021-11-02T16:16:46.838Z,14660.208,1635868564,full,ni_sequenzen,NI_Sequenzen,,,,,,,,,,,,,,
,Sequence,flow.Sequence,0_2_20,,completion,21,14622.699999988079,,,14623.09999999404,,14625.59999999404,2021-11-02T16:16:46.838Z,14660.208,1635868564,full,ni_sequenzen,NI_Sequenzen,,,,,,,,,,,,,,
,Screen_1,canvas.Screen,0_2_21_0,,skipped,22,14626.59999999404,,,14626.59999999404,,14626.59999999404,2021-11-02T16:16:46.839Z,14660.208,1635868564,full,ni_sequenzen,NI_Sequenzen,,,,,,,,,,,,,,
,Screen_2,canvas.Screen,0_2_21_1,,skipped,22,14627.29999999702,,,14626.59999999404,,14627.29999999702,2021-11-02T16:16:46.840Z,14660.208,1635868564,full,ni_sequenzen,NI_Sequenzen,,,,,,,,,,,,,,
,Screen_3,canvas.Screen,0_2_21_2,,skipped,22,14627.59999999404,,,14626.59999999404,,14627.699999988079,2021-11-02T16:16:46.840Z,14660.208,1635868564,full,ni_sequenzen,NI_Sequenzen,,,,,,,,,,,,,,
,Screen_4,canvas.Screen,0_2_21_3,,skipped,22,14628.09999999404,,,14626.59999999404,,14628.09999999404,2021-11-02T16:16:46.841Z,14660.208,1635868564,full,ni_sequenzen,NI_Sequenzen,,,,,,,,,,,,,,
,Screen_5,canvas.Screen,0_2_21_4,,skipped,22,14628.5,,,14626.59999999404,,14628.5,2021-11-02T16:16:46.841Z,14660.208,1635868564,full,ni_sequenzen,NI_Sequenzen,,,,,,,,,,,,,,
,Screen_6,canvas.Screen,0_2_21_5,,skipped,22,14629,,,14626.59999999404,,14629,2021-11-02T16:16:46.842Z,14660.208,1635868564,full,ni_sequenzen,NI_Sequenzen,,,,,,,,,,,,,,
,Sequence,flow.Sequence,0_2_21,,completion,22,14625.79999999702,,,14626.59999999404,,14629.09999999404,2021-11-02T16:16:46.842Z,14660.208,1635868564,full,ni_sequenzen,NI_Sequenzen,,,,,,,,,,,,,,
,Screen_1,canvas.Screen,0_2_22_0,,skipped,23,14629.59999999404,,,14629.59999999404,,14629.59999999404,2021-11-02T16:16:46.842Z,14660.208,1635868564,full,ni_sequenzen,NI_Sequenzen,,,,,,,,,,,,,,
,Screen_2,canvas.Screen,0_2_22_1,,skipped,23,14630,,,14629.59999999404,,14630,2021-11-02T16:16:46.843Z,14660.208,1635868564,full,ni_sequenzen,NI_Sequenzen,,,,,,,,,,,,,,
,Screen_3,canvas.Screen,0_2_22_2,,skipped,23,14630.39999999106,,,14629.59999999404,,14630.39999999106,2021-11-02T16:16:46.843Z,14660.208,1635868564,full,ni_sequenzen,NI_Sequenzen,,,,,,,,,,,,,,
,Screen_4,canvas.Screen,0_2_22_3,,skipped,23,14630.59999999404,,,14629.59999999404,,14630.59999999404,2021-11-02T16:16:46.843Z,14660.208,1635868564,full,ni_sequenzen,NI_Sequenzen,,,,,,,,,,,,,,
,Screen_5,canvas.Screen,0_2_22_4,,skipped,23,14630.89999999106,,,14629.59999999404,,14630.89999999106,2021-11-02T16:16:46.844Z,14660.208,1635868564,full,ni_sequenzen,NI_Sequenzen,,,,,,,,,,,,,,
,Screen_6,canvas.Screen,0_2_22_5,,skipped,23,14631.199999988079,,,14629.59999999404,,14631.199999988079,2021-11-02T16:16:46.844Z,14660.208,1635868564,full,ni_sequenzen,NI_Sequenzen,,,,,,,,,,,,,,
,Sequence,flow.Sequence,0_2_22,,completion,23,14629.199999988079,,,14629.59999999404,,14631.29999999702,2021-11-02T16:16:46.844Z,14660.208,1635868564,full,ni_sequenzen,NI_Sequenzen,,,,,,,,,,,,,,
,Screen_1,canvas.Screen,0_2_23_0,,skipped,24,14631.699999988079,,,14631.699999988079,,14631.699999988079,2021-11-02T16:16:46.844Z,14660.208,1635868564,full,ni_sequenzen,NI_Sequenzen,,,,,,,,,,,,,,
,Screen_2,canvas.Screen,0_2_23_1,,skipped,24,14632.09999999404,,,14631.699999988079,,14632.09999999404,2021-11-02T16:16:46.845Z,14660.208,1635868564,full,ni_sequenzen,NI_Sequenzen,,,,,,,,,,,,,,
,Screen_3,canvas.Screen,0_2_23_2,,skipped,24,14632.29999999702,,,14631.699999988079,,14632.5,2021-11-02T16:16:46.845Z,14660.208,1635868564,full,ni_sequenzen,NI_Sequenzen,,,,,,,,,,,,,,
,Screen_4,canvas.Screen,0_2_23_3,,skipped,24,14632.699999988079,,,14631.699999988079,,14632.699999988079,2021-11-02T16:16:46.845Z,14660.208,1635868564,full,ni_sequenzen,NI_Sequenzen,,,,,,,,,,,,,,
,Screen_5,canvas.Screen,0_2_23_4,,skipped,24,14633.09999999404,,,14631.699999988079,,14633.09999999404,2021-11-02T16:16:46.846Z,14660.208,1635868564,full,ni_sequenzen,NI_Sequenzen,,,,,,,,,,,,,,
,Screen_6,canvas.Screen,0_2_23_5,,skipped,24,14633.39999999106,,,14631.699999988079,,14633.5,2021-11-02T16:16:46.846Z,14660.208,1635868564,full,ni_sequenzen,NI_Sequenzen,,,,,,,,,,,,,,
,Sequence,flow.Sequence,0_2_23,,completion,24,14631.5,,,14631.699999988079,,14633.5,2021-11-02T16:16:46.846Z,14660.208,1635868564,full,ni_sequenzen,NI_Sequenzen,,,,,,,,,,,,,,
,Screen_1,canvas.Screen,0_2_24_0,,skipped,25,14633.89999999106,,,14633.89999999106,,14634,2021-11-02T16:16:46.847Z,14660.208,1635868564,full,ni_sequenzen,NI_Sequenzen,,,,,,,,,,,,,,
,Screen_2,canvas.Screen,0_2_24_1,,skipped,25,14634.199999988079,,,14633.89999999106,,14634.199999988079,2021-11-02T16:16:46.847Z,14660.208,1635868564,full,ni_sequenzen,NI_Sequenzen,,,,,,,,,,,,,,
,Screen_3,canvas.Screen,0_2_24_2,,skipped,25,14634.59999999404,,,14633.89999999106,,14634.59999999404,2021-11-02T16:16:46.847Z,14660.208,1635868564,full,ni_sequenzen,NI_Sequenzen,,,,,,,,,,,,,,
,Screen_4,canvas.Screen,0_2_24_3,,skipped,25,14634.79999999702,,,14633.89999999106,,14634.79999999702,2021-11-02T16:16:46.847Z,14660.208,1635868564,full,ni_sequenzen,NI_Sequenzen,,,,,,,,,,,,,,
,Screen_5,canvas.Screen,0_2_24_4,,skipped,25,14635.29999999702,,,14633.89999999106,,14635.29999999702,2021-11-02T16:16:46.848Z,14660.208,1635868564,full,ni_sequenzen,NI_Sequenzen,,,,,,,,,,,,,,
,Screen_6,canvas.Screen,0_2_24_5,,skipped,25,14635.39999999106,,,14633.89999999106,,14635.39999999106,2021-11-02T16:16:46.848Z,14660.208,1635868564,full,ni_sequenzen,NI_Sequenzen,,,,,,,,,,,,,,
,Sequence,flow.Sequence,0_2_24,,completion,25,14633.59999999404,,,14633.89999999106,,14635.59999999404,2021-11-02T16:16:46.848Z,14660.208,1635868564,full,ni_sequenzen,NI_Sequenzen,,,,,,,,,,,,,,
,Screen_1,canvas.Screen,0_2_25_0,,skipped,26,14636,,,14636,,14636,2021-11-02T16:16:46.849Z,14660.208,1635868564,full,ni_sequenzen,NI_Sequenzen,,,,,,,,,,,,,,
,Screen_2,canvas.Screen,0_2_25_1,,skipped,26,14636.29999999702,,,14636,,14636.29999999702,2021-11-02T16:16:46.849Z,14660.208,1635868564,full,ni_sequenzen,NI_Sequenzen,,,,,,,,,,,,,,
,Screen_3,canvas.Screen,0_2_25_2,,skipped,26,14636.59999999404,,,14636,,14636.59999999404,2021-11-02T16:16:46.849Z,14660.208,1635868564,full,ni_sequenzen,NI_Sequenzen,,,,,,,,,,,,,,
,Screen_4,canvas.Screen,0_2_25_3,,skipped,26,14636.89999999106,,,14636,,14637,2021-11-02T16:16:46.850Z,14660.208,1635868564,full,ni_sequenzen,NI_Sequenzen,,,,,,,,,,,,,,
,Screen_5,canvas.Screen,0_2_25_4,,skipped,26,14637.199999988079,,,14636,,14637.199999988079,2021-11-02T16:16:46.850Z,14660.208,1635868564,full,ni_sequenzen,NI_Sequenzen,,,,,,,,,,,,,,
,Screen_6,canvas.Screen,0_2_25_5,,skipped,26,14637.5,,,14636,,14637.59999999404,2021-11-02T16:16:46.850Z,14660.208,1635868564,full,ni_sequenzen,NI_Sequenzen,,,,,,,,,,,,,,
,Sequence,flow.Sequence,0_2_25,,completion,26,14635.699999988079,,,14636,,14637.59999999404,2021-11-02T16:16:46.850Z,14660.208,1635868564,full,ni_sequenzen,NI_Sequenzen,,,,,,,,,,,,,,
,Screen_1,canvas.Screen,0_2_26_0,,skipped,27,14637.89999999106,,,14637.89999999106,,14637.89999999106,2021-11-02T16:16:46.851Z,14660.208,1635868564,full,ni_sequenzen,NI_Sequenzen,,,,,,,,,,,,,,
,Screen_2,canvas.Screen,0_2_26_1,,skipped,27,14638.29999999702,,,14637.89999999106,,14638.29999999702,2021-11-02T16:16:46.851Z,14660.208,1635868564,full,ni_sequenzen,NI_Sequenzen,,,,,,,,,,,,,,
,Screen_3,canvas.Screen,0_2_26_2,,skipped,27,14638.59999999404,,,14637.89999999106,,14638.699999988079,2021-11-02T16:16:46.851Z,14660.208,1635868564,full,ni_sequenzen,NI_Sequenzen,,,,,,,,,,,,,,
,Screen_4,canvas.Screen,0_2_26_3,,skipped,27,14638.89999999106,,,14637.89999999106,,14638.89999999106,2021-11-02T16:16:46.852Z,14660.208,1635868564,full,ni_sequenzen,NI_Sequenzen,,,,,,,,,,,,,,
,Screen_5,canvas.Screen,0_2_26_4,,skipped,27,14639.39999999106,,,14637.89999999106,,14639.39999999106,2021-11-02T16:16:46.852Z,14660.208,1635868564,full,ni_sequenzen,NI_Sequenzen,,,,,,,,,,,,,,
,Screen_6,canvas.Screen,0_2_26_5,,skipped,27,14639.59999999404,,,14637.89999999106,,14639.59999999404,2021-11-02T16:16:46.852Z,14660.208,1635868564,full,ni_sequenzen,NI_Sequenzen,,,,,,,,,,,,,,
,Sequence,flow.Sequence,0_2_26,,completion,27,14637.699999988079,,,14637.89999999106,,14639.699999988079,2021-11-02T16:16:46.852Z,14660.208,1635868564,full,ni_sequenzen,NI_Sequenzen,,,,,,,,,,,,,,
,Screen_1,canvas.Screen,0_2_27_0,,skipped,28,14640.09999999404,,,14640.09999999404,,14640.09999999404,2021-11-02T16:16:46.853Z,14660.208,1635868564,full,ni_sequenzen,NI_Sequenzen,,,,,,,,,,,,,,
,Screen_2,canvas.Screen,0_2_27_1,,skipped,28,14640.29999999702,,,14640.09999999404,,14640.29999999702,2021-11-02T16:16:46.853Z,14660.208,1635868564,full,ni_sequenzen,NI_Sequenzen,,,,,,,,,,,,,,
,Screen_3,canvas.Screen,0_2_27_2,,skipped,28,14640.59999999404,,,14640.09999999404,,14640.59999999404,2021-11-02T16:16:46.853Z,14660.208,1635868564,full,ni_sequenzen,NI_Sequenzen,,,,,,,,,,,,,,
,Screen_4,canvas.Screen,0_2_27_3,,skipped,28,14641,,,14640.09999999404,,14641,2021-11-02T16:16:46.854Z,14660.208,1635868564,full,ni_sequenzen,NI_Sequenzen,,,,,,,,,,,,,,
,Screen_5,canvas.Screen,0_2_27_4,,skipped,28,14641.199999988079,,,14640.09999999404,,14641.199999988079,2021-11-02T16:16:46.854Z,14660.208,1635868564,full,ni_sequenzen,NI_Sequenzen,,,,,,,,,,,,,,
,Screen_6,canvas.Screen,0_2_27_5,,skipped,28,14641.5,,,14640.09999999404,,14641.5,2021-11-02T16:16:46.854Z,14660.208,1635868564,full,ni_sequenzen,NI_Sequenzen,,,,,,,,,,,,,,
,Sequence,flow.Sequence,0_2_27,,completion,28,14639.79999999702,,,14640.09999999404,,14641.59999999404,2021-11-02T16:16:46.854Z,14660.208,1635868564,full,ni_sequenzen,NI_Sequenzen,,,,,,,,,,,,,,
,Screen_1,canvas.Screen,0_2_28_0,,skipped,29,14641.79999999702,,,14642,,14642,2021-11-02T16:16:46.855Z,14660.208,1635868564,full,ni_sequenzen,NI_Sequenzen,,,,,,,,,,,,,,
,Screen_2,canvas.Screen,0_2_28_1,,skipped,29,14642.199999988079,,,14642,,14642.199999988079,2021-11-02T16:16:46.855Z,14660.208,1635868564,full,ni_sequenzen,NI_Sequenzen,,,,,,,,,,,,,,
,Screen_3,canvas.Screen,0_2_28_2,,skipped,29,14642.39999999106,,,14642,,14642.39999999106,2021-11-02T16:16:46.855Z,14660.208,1635868564,full,ni_sequenzen,NI_Sequenzen,,,,,,,,,,,,,,
,Screen_4,canvas.Screen,0_2_28_3,,skipped,29,14642.79999999702,,,14642,,14642.89999999106,2021-11-02T16:16:46.855Z,14660.208,1635868564,full,ni_sequenzen,NI_Sequenzen,,,,,,,,,,,,,,
,Screen_5,canvas.Screen,0_2_28_4,,skipped,29,14643.09999999404,,,14642,,14643.09999999404,2021-11-02T16:16:46.856Z,14660.208,1635868564,full,ni_sequenzen,NI_Sequenzen,,,,,,,,,,,,,,
,Screen_6,canvas.Screen,0_2_28_5,,skipped,29,14643.39999999106,,,14642,,14643.39999999106,2021-11-02T16:16:46.856Z,14660.208,1635868564,full,ni_sequenzen,NI_Sequenzen,,,,,,,,,,,,,,
,Sequence,flow.Sequence,0_2_28,,completion,29,14641.79999999702,,,14642,,14643.39999999106,2021-11-02T16:16:46.856Z,14660.208,1635868564,full,ni_sequenzen,NI_Sequenzen,,,,,,,,,,,,,,
,Screen_1,canvas.Screen,0_2_29_0,,skipped,30,14643.699999988079,,,14643.699999988079,,14643.699999988079,2021-11-02T16:16:46.856Z,14660.208,1635868564,full,ni_sequenzen,NI_Sequenzen,,,,,,,,,,,,,,
,Screen_2,canvas.Screen,0_2_29_1,,skipped,30,14644,,,14643.699999988079,,14644,2021-11-02T16:16:46.857Z,14660.208,1635868564,full,ni_sequenzen,NI_Sequenzen,,,,,,,,,,,,,,
,Screen_3,canvas.Screen,0_2_29_2,,skipped,30,14644.29999999702,,,14643.699999988079,,14644.29999999702,2021-11-02T16:16:46.857Z,14660.208,1635868564,full,ni_sequenzen,NI_Sequenzen,,,,,,,,,,,,,,
,Screen_4,canvas.Screen,0_2_29_3,,skipped,30,14644.59999999404,,,14643.699999988079,,14644.59999999404,2021-11-02T16:16:46.857Z,14660.208,1635868564,full,ni_sequenzen,NI_Sequenzen,,,,,,,,,,,,,,
,Screen_5,canvas.Screen,0_2_29_4,,skipped,30,14644.79999999702,,,14643.699999988079,,14644.79999999702,2021-11-02T16:16:46.857Z,14660.208,1635868564,full,ni_sequenzen,NI_Sequenzen,,,,,,,,,,,,,,
,Screen_6,canvas.Screen,0_2_29_5,,skipped,30,14645.09999999404,,,14643.699999988079,,14645.09999999404,2021-11-02T16:16:46.858Z,14660.208,1635868564,full,ni_sequenzen,NI_Sequenzen,,,,,,,,,,,,,,
,Sequence,flow.Sequence,0_2_29,,completion,30,14643.5,,,14643.699999988079,,14645.09999999404,2021-11-02T16:16:46.858Z,14660.208,1635868564,full,ni_sequenzen,NI_Sequenzen,,,,,,,,,,,,,,
,Instructions_II,flow.Loop,0_2,,completion,,7954.29999999702,7943.81,7960.476,14643.699999988079,6683.223999988079,14645.199999988079,2021-11-02T16:16:46.858Z,14660.208,1635868564,full,ni_sequenzen,NI_Sequenzen,,,,,,,,,,,,,,
,Move,canvas.Screen,0_3_0_0_0_0,right,response,,14658.79999999702,14643.542,14660.208,14808.89999999106,148.69199999105876,14812.199999988079,2021-11-02T16:16:47.025Z,14826.868,1635868564,full,ni_sequenzen,NI_Sequenzen,1,0,,,,,,,,,,,,
,Move,canvas.Screen,0_3_0_0_0_1,left,response,,14816.5,14810.202,14826.868,15168.79999999702,341.9319999970194,15184.5,2021-11-02T16:16:47.397Z,15193.52,1635868564,full,ni_sequenzen,NI_Sequenzen,2,0,,,,,,,,,,,,
,Move,canvas.Screen,0_3_0_0_0_2,down,response,,15186.699999988079,15176.854,15193.52,15280.699999988079,87.17999998807863,15286,2021-11-02T16:16:47.499Z,15293.516,1635868564,full,ni_sequenzen,NI_Sequenzen,3,0,,,,,,,,,,,,
,Move,canvas.Screen,0_3_0_0_0_3,right,response,,15290.59999999404,15276.85,15293.516,15408.5,114.98400000000038,15412,2021-11-02T16:16:47.625Z,15443.51,1635868564,full,ni_sequenzen,NI_Sequenzen,4,0,,,,,,,,,,,,
,Move,canvas.Screen,0_3_0_0_0_4,-999,skipped,,15415.199999988079,,,15408.5,,15415.29999999702,2021-11-02T16:16:47.628Z,15443.51,1635868564,full,ni_sequenzen,NI_Sequenzen,5,0,,,,,,,,,,,,
,Move,canvas.Screen,0_3_0_0_0_5,-999,skipped,,15417.699999988079,,,15408.5,,15417.79999999702,2021-11-02T16:16:47.630Z,15443.51,1635868564,full,ni_sequenzen,NI_Sequenzen,6,0,,,,,,,,,,,,
,Move,canvas.Screen,0_3_0_0_0_6,-999,skipped,,15419.79999999702,,,15408.5,,15419.89999999106,2021-11-02T16:16:47.632Z,15443.51,1635868564,full,ni_sequenzen,NI_Sequenzen,7,0,,,,,,,,,,,,
,Move,canvas.Screen,0_3_0_0_0_7,-999,skipped,,15421.59999999404,,,15408.5,,15421.79999999702,2021-11-02T16:16:47.634Z,15443.51,1635868564,full,ni_sequenzen,NI_Sequenzen,8,0,,,,,,,,,,,,
,Move,canvas.Screen,0_3_0_0_0_8,-999,skipped,,15423.199999988079,,,15408.5,,15423.199999988079,2021-11-02T16:16:47.636Z,15443.51,1635868564,full,ni_sequenzen,NI_Sequenzen,9,0,,,,,,,,,,,,
,Move,canvas.Screen,0_3_0_0_0_9,-999,skipped,,15424.79999999702,,,15408.5,,15424.79999999702,2021-11-02T16:16:47.637Z,15443.51,1635868564,full,ni_sequenzen,NI_Sequenzen,10,0,,,,,,,,,,,,
,Move,canvas.Screen,0_3_0_0_0_10,-999,skipped,,15426.199999988079,,,15408.5,,15426.199999988079,2021-11-02T16:16:47.639Z,15443.51,1635868564,full,ni_sequenzen,NI_Sequenzen,11,0,,,,,,,,,,,,
,Move,canvas.Screen,0_3_0_0_0_11,-999,skipped,,15428.59999999404,,,15408.5,,15428.59999999404,2021-11-02T16:16:47.641Z,15443.51,1635868564,full,ni_sequenzen,NI_Sequenzen,12,0,,,,,,,,,,,,
,Move,canvas.Screen,0_3_0_0_0_12,-999,skipped,,15430.59999999404,,,15408.5,,15430.699999988079,2021-11-02T16:16:47.643Z,15443.51,1635868564,full,ni_sequenzen,NI_Sequenzen,13,0,,,,,,,,,,,,
,Move,canvas.Screen,0_3_0_0_0_13,-999,skipped,,15431.89999999106,,,15408.5,,15431.89999999106,2021-11-02T16:16:47.644Z,15443.51,1635868564,full,ni_sequenzen,NI_Sequenzen,14,0,,,,,,,,,,,,
,Move,canvas.Screen,0_3_0_0_0_14,-999,skipped,,15433.29999999702,,,15408.5,,15433.29999999702,2021-11-02T16:16:47.646Z,15443.51,1635868564,full,ni_sequenzen,NI_Sequenzen,15,0,,,,,,,,,,,,
,Loop,flow.Loop,0_3_0_0_0,-999,completion,,14657.09999999404,14643.542,14660.208,15408.5,748.2919999999995,15433.5,2021-11-02T16:16:47.646Z,15443.51,1635868564,full,ni_sequenzen,NI_Sequenzen,,0,,,,,,,,,,,,
,Feedback,canvas.Screen,0_3_0_0_1,,timeout,,15434.89999999106,15426.844,15443.51,19427.17,4000.325999999999,19429.5,2021-11-02T16:16:51.642Z,19443.836,1635868564,full,ni_sequenzen,NI_Sequenzen,,0,,,,,,,,,,,,
,Trial,flow.Sequence,0_3_0_0,,completion,,14653.29999999702,14643.542,14660.208,19427.17,4766.961999999998,19429.69999998808,2021-11-02T16:16:51.642Z,19460.502,1635868564,full,ni_sequenzen,NI_Sequenzen,,0,,,,,,,,,,,,
,Move,canvas.Screen,0_3_0_1_0_0,left,response,,19445,19443.836,19460.502,20164.89999999106,704.3979999910589,20170.09999999404,2021-11-02T16:16:52.383Z,20177.14,1635868564,full,ni_sequenzen,NI_Sequenzen,1,1,,,,,,,,,,,,
,Move,canvas.Screen,0_3_0_1_0_1,down,response,,20175.59999999404,20160.474,20177.14,20260.79999999702,83.65999999702035,20265.79999999702,2021-11-02T16:16:52.478Z,20277.136,1635868564,full,ni_sequenzen,NI_Sequenzen,2,1,,,,,,,,,,,,
,Move,canvas.Screen,0_3_0_1_0_2,right,response,,20269.5,20260.47,20277.136,20373.09999999404,95.96399999404093,20378.09999999404,2021-11-02T16:16:52.591Z,20393.798,1635868564,full,ni_sequenzen,NI_Sequenzen,3,1,,,,,,,,,,,,
,Move,canvas.Screen,0_3_0_1_0_3,left,response,,20382.29999999702,20377.132,20393.798,20613.5,219.70200000000114,20618.09999999404,2021-11-02T16:16:52.831Z,20643.788,1635868564,full,ni_sequenzen,NI_Sequenzen,4,1,,,,,,,,,,,,
,Move,canvas.Screen,0_3_0_1_0_4,-999,skipped,,20624.39999999106,,,20613.5,,20624.59999999404,2021-11-02T16:16:52.837Z,20643.788,1635868564,full,ni_sequenzen,NI_Sequenzen,5,1,,,,,,,,,,,,
,Move,canvas.Screen,0_3_0_1_0_5,-999,skipped,,20626.39999999106,,,20613.5,,20626.39999999106,2021-11-02T16:16:52.839Z,20643.788,1635868564,full,ni_sequenzen,NI_Sequenzen,6,1,,,,,,,,,,,,
,Move,canvas.Screen,0_3_0_1_0_6,-999,skipped,,20627.59999999404,,,20613.5,,20627.59999999404,2021-11-02T16:16:52.840Z,20643.788,1635868564,full,ni_sequenzen,NI_Sequenzen,7,1,,,,,,,,,,,,
,Move,canvas.Screen,0_3_0_1_0_7,-999,skipped,,20628.89999999106,,,20613.5,,20628.89999999106,2021-11-02T16:16:52.841Z,20643.788,1635868564,full,ni_sequenzen,NI_Sequenzen,8,1,,,,,,,,,,,,
,Move,canvas.Screen,0_3_0_1_0_8,-999,skipped,,20630.09999999404,,,20613.5,,20630.09999999404,2021-11-02T16:16:52.843Z,20643.788,1635868564,full,ni_sequenzen,NI_Sequenzen,9,1,,,,,,,,,,,,
,Move,canvas.Screen,0_3_0_1_0_9,-999,skipped,,20631.39999999106,,,20613.5,,20631.39999999106,2021-11-02T16:16:52.844Z,20643.788,1635868564,full,ni_sequenzen,NI_Sequenzen,10,1,,,,,,,,,,,,
,Move,canvas.Screen,0_3_0_1_0_10,-999,skipped,,20632.79999999702,,,20613.5,,20633,2021-11-02T16:16:52.845Z,20643.788,1635868564,full,ni_sequenzen,NI_Sequenzen,11,1,,,,,,,,,,,,
,Move,canvas.Screen,0_3_0_1_0_11,-999,skipped,,20634.09999999404,,,20613.5,,20634.09999999404,2021-11-02T16:16:52.847Z,20643.788,1635868564,full,ni_sequenzen,NI_Sequenzen,12,1,,,,,,,,,,,,
,Move,canvas.Screen,0_3_0_1_0_12,-999,skipped,,20635.09999999404,,,20613.5,,20635.19999998808,2021-11-02T16:16:52.848Z,20643.788,1635868564,full,ni_sequenzen,NI_Sequenzen,13,1,,,,,,,,,,,,
,Move,canvas.Screen,0_3_0_1_0_13,-999,skipped,,20636.5,,,20613.5,,20636.5,2021-11-02T16:16:52.849Z,20643.788,1635868564,full,ni_sequenzen,NI_Sequenzen,14,1,,,,,,,,,,,,
,Move,canvas.Screen,0_3_0_1_0_14,-999,skipped,,20637.69999998808,,,20613.5,,20637.69999998808,2021-11-02T16:16:52.850Z,20643.788,1635868564,full,ni_sequenzen,NI_Sequenzen,15,1,,,,,,,,,,,,
,Loop,flow.Loop,0_3_0_1_0,-999,completion,,19442.89999999106,19443.836,19460.502,20613.5,1152.9979999999996,20637.69999998808,2021-11-02T16:16:52.850Z,20643.788,1635868564,full,ni_sequenzen,NI_Sequenzen,,1,,,,,,,,,,,,
,Feedback,canvas.Screen,0_3_0_1_1,,timeout,,20639.19999998808,20627.122,20643.788,24626.962,3999.84,24628.89999999106,2021-11-02T16:16:56.841Z,24643.628,1635868564,full,ni_sequenzen,NI_Sequenzen,,1,,,,,,,,,,,,
,Trial,flow.Sequence,0_3_0_1,,completion,,19430.29999999702,19443.836,19460.502,24626.962,5166.459999999999,24629.09999999404,2021-11-02T16:16:56.841Z,24660.294,1635868564,full,ni_sequenzen,NI_Sequenzen,,1,,,,,,,,,,,,
,Move,canvas.Screen,0_3_0_2_0_0,left,response,,24648.39999999106,24643.628,24660.294,27856.19999998808,3195.9059999880774,27859.29999999702,2021-11-02T16:17:00.072Z,27876.832,1635868564,full,ni_sequenzen,NI_Sequenzen,1,2,,,,,,,,,,,,
,Move,canvas.Screen,0_3_0_2_0_1,down,response,,27862.29999999702,27860.166,27876.832,27888.79999999702,11.967999997021252,27892.69999998808,2021-11-02T16:17:00.105Z,27910.164,1635868564,full,ni_sequenzen,NI_Sequenzen,2,2,,,,,,,,,,,,
,Move,canvas.Screen,0_3_0_2_0_2,right,response,,27895.89999999106,27893.498,27910.164,28012.89999999106,102.73599999105863,28018.39999999106,2021-11-02T16:17:00.231Z,28027.412,1635868564,full,ni_sequenzen,NI_Sequenzen,3,2,,,,,,,,,,,,
,Move,canvas.Screen,0_3_0_2_0_3,left,response,,28023.39999999106,28010.746,28027.412,28222,194.58799999999974,28226.39999999106,2021-11-02T16:17:00.439Z,28260.736,1635868564,full,ni_sequenzen,NI_Sequenzen,4,2,,,,,,,,,,,,
,Move,canvas.Screen,0_3_0_2_0_4,-999,skipped,,28231.19999998808,,,28222,,28231.39999999106,2021-11-02T16:17:00.444Z,28260.736,1635868564,full,ni_sequenzen,NI_Sequenzen,5,2,,,,,,,,,,,,
,Move,canvas.Screen,0_3_0_2_0_5,-999,skipped,,28233.29999999702,,,28222,,28233.29999999702,2021-11-02T16:17:00.446Z,28260.736,1635868564,full,ni_sequenzen,NI_Sequenzen,6,2,,,,,,,,,,,,
,Move,canvas.Screen,0_3_0_2_0_6,-999,skipped,,28235.5,,,28222,,28235.59999999404,2021-11-02T16:17:00.448Z,28260.736,1635868564,full,ni_sequenzen,NI_Sequenzen,7,2,,,,,,,,,,,,
,Move,canvas.Screen,0_3_0_2_0_7,-999,skipped,,28237.09999999404,,,28222,,28237.09999999404,2021-11-02T16:17:00.449Z,28260.736,1635868564,full,ni_sequenzen,NI_Sequenzen,8,2,,,,,,,,,,,,
,Move,canvas.Screen,0_3_0_2_0_8,-999,skipped,,28238.59999999404,,,28222,,28238.59999999404,2021-11-02T16:17:00.451Z,28260.736,1635868564,full,ni_sequenzen,NI_Sequenzen,9,2,,,,,,,,,,,,
,Move,canvas.Screen,0_3_0_2_0_9,-999,skipped,,28240.19999998808,,,28222,,28240.29999999702,2021-11-02T16:17:00.453Z,28260.736,1635868564,full,ni_sequenzen,NI_Sequenzen,10,2,,,,,,,,,,,,
,Move,canvas.Screen,0_3_0_2_0_10,-999,skipped,,28247.5,,,28222,,28247.5,2021-11-02T16:17:00.460Z,28260.736,1635868564,full,ni_sequenzen,NI_Sequenzen,11,2,,,,,,,,,,,,
,Move,canvas.Screen,0_3_0_2_0_11,-999,skipped,,28248.89999999106,,,28222,,28248.89999999106,2021-11-02T16:17:00.461Z,28260.736,1635868564,full,ni_sequenzen,NI_Sequenzen,12,2,,,,,,,,,,,,
,Move,canvas.Screen,0_3_0_2_0_12,-999,skipped,,28250.39999999106,,,28222,,28250.59999999404,2021-11-02T16:17:00.463Z,28260.736,1635868564,full,ni_sequenzen,NI_Sequenzen,13,2,,,,,,,,,,,,
,Move,canvas.Screen,0_3_0_2_0_13,-999,skipped,,28251.59999999404,,,28222,,28251.59999999404,2021-11-02T16:17:00.464Z,28260.736,1635868564,full,ni_sequenzen,NI_Sequenzen,14,2,,,,,,,,,,,,
,Move,canvas.Screen,0_3_0_2_0_14,-999,skipped,,28252.79999999702,,,28222,,28252.79999999702,2021-11-02T16:17:00.465Z,28260.736,1635868564,full,ni_sequenzen,NI_Sequenzen,15,2,,,,,,,,,,,,
,Loop,flow.Loop,0_3_0_2_0,-999,completion,,24646.39999999106,24643.628,24660.294,28222,3561.7059999999983,28253,2021-11-02T16:17:00.465Z,28260.736,1635868564,full,ni_sequenzen,NI_Sequenzen,,2,,,,,,,,,,,,
,Feedback,canvas.Screen,0_3_0_2_1,,timeout,,28255.09999999404,28244.07,28260.736,32243.91,3999.84,32246.89999999106,2021-11-02T16:17:04.459Z,32260.576,1635868564,full,ni_sequenzen,NI_Sequenzen,,2,,,,,,,,,,,,
,Trial,flow.Sequence,0_3_0_2,,completion,,24629.79999999702,24643.628,24660.294,32243.91,7583.615999999998,32247.09999999404,2021-11-02T16:17:04.459Z,32277.242,1635868564,full,ni_sequenzen,NI_Sequenzen,,2,,,,,,,,,,,,
,Move,canvas.Screen,0_3_0_3_0_0,left,response,,32262.09999999404,32260.576,32277.242,32810.59999999404,533.3579999940412,32816.59999999404,2021-11-02T16:17:05.029Z,32827.22,1635868564,full,ni_sequenzen,NI_Sequenzen,1,3,,,,,,,,,,,,
,Move,canvas.Screen,0_3_0_3_0_1,down,response,,32822,32810.554,32827.22,32877.89999999106,50.67999999105814,32882.59999999404,2021-11-02T16:17:05.095Z,32893.884,1635868564,full,ni_sequenzen,NI_Sequenzen,2,3,,,,,,,,,,,,
,Move,canvas.Screen,0_3_0_3_0_2,right,response,,32886.19999998808,32877.218,32893.884,32949.89999999106,56.01599999106111,32955.39999999106,2021-11-02T16:17:05.168Z,32960.548,1635868564,full,ni_sequenzen,NI_Sequenzen,3,3,,,,,,,,,,,,
,Move,canvas.Screen,0_3_0_3_0_3,left,response,,32960.29999999702,32943.882,32960.548,33221.19999998808,260.65199998807657,33225.89999999106,2021-11-02T16:17:05.438Z,33260.536,1635868564,full,ni_sequenzen,NI_Sequenzen,4,3,,,,,,,,,,,,
,Move,canvas.Screen,0_3_0_3_0_4,-999,skipped,,33231.5,,,33221.19999998808,,33231.59999999404,2021-11-02T16:17:05.444Z,33260.536,1635868564,full,ni_sequenzen,NI_Sequenzen,5,3,,,,,,,,,,,,
,Move,canvas.Screen,0_3_0_3_0_5,-999,skipped,,33235,,,33221.19999998808,,33235.09999999404,2021-11-02T16:17:05.447Z,33260.536,1635868564,full,ni_sequenzen,NI_Sequenzen,6,3,,,,,,,,,,,,
,Move,canvas.Screen,0_3_0_3_0_6,-999,skipped,,33237.19999998808,,,33221.19999998808,,33237.39999999106,2021-11-02T16:17:05.450Z,33260.536,1635868564,full,ni_sequenzen,NI_Sequenzen,7,3,,,,,,,,,,,,
,Move,canvas.Screen,0_3_0_3_0_7,-999,skipped,,33240.39999999106,,,33221.19999998808,,33240.5,2021-11-02T16:17:05.453Z,33260.536,1635868564,full,ni_sequenzen,NI_Sequenzen,8,3,,,,,,,,,,,,
,Move,canvas.Screen,0_3_0_3_0_8,-999,skipped,,33242.09999999404,,,33221.19999998808,,33242.09999999404,2021-11-02T16:17:05.454Z,33260.536,1635868564,full,ni_sequenzen,NI_Sequenzen,9,3,,,,,,,,,,,,
,Move,canvas.Screen,0_3_0_3_0_9,-999,skipped,,33243.59999999404,,,33221.19999998808,,33243.69999998808,2021-11-02T16:17:05.456Z,33260.536,1635868564,full,ni_sequenzen,NI_Sequenzen,10,3,,,,,,,,,,,,
,Move,canvas.Screen,0_3_0_3_0_10,-999,skipped,,33245.59999999404,,,33221.19999998808,,33245.59999999404,2021-11-02T16:17:05.458Z,33260.536,1635868564,full,ni_sequenzen,NI_Sequenzen,11,3,,,,,,,,,,,,
,Move,canvas.Screen,0_3_0_3_0_11,-999,skipped,,33246.89999999106,,,33221.19999998808,,33246.89999999106,2021-11-02T16:17:05.459Z,33260.536,1635868564,full,ni_sequenzen,NI_Sequenzen,12,3,,,,,,,,,,,,
,Move,canvas.Screen,0_3_0_3_0_12,-999,skipped,,33248.19999998808,,,33221.19999998808,,33248.39999999106,2021-11-02T16:17:05.461Z,33260.536,1635868564,full,ni_sequenzen,NI_Sequenzen,13,3,,,,,,,,,,,,
,Move,canvas.Screen,0_3_0_3_0_13,-999,skipped,,33249.59999999404,,,33221.19999998808,,33249.59999999404,2021-11-02T16:17:05.462Z,33260.536,1635868564,full,ni_sequenzen,NI_Sequenzen,14,3,,,,,,,,,,,,
,Move,canvas.Screen,0_3_0_3_0_14,-999,skipped,,33251.09999999404,,,33221.19999998808,,33251.19999998808,2021-11-02T16:17:05.463Z,33260.536,1635868564,full,ni_sequenzen,NI_Sequenzen,15,3,,,,,,,,,,,,
,Loop,flow.Loop,0_3_0_3_0,-999,completion,,32260.09999999404,32260.576,32277.242,33221.19999998808,943.9579999880807,33251.19999998808,2021-11-02T16:17:05.464Z,33260.536,1635868564,full,ni_sequenzen,NI_Sequenzen,,3,,,,,,,,,,,,
,Feedback,canvas.Screen,0_3_0_3_1,,timeout,,33252.29999999702,33243.87,33260.536,37243.71,3999.8399999999965,37246.09999999404,2021-11-02T16:17:09.458Z,37260.376,1635868564,full,ni_sequenzen,NI_Sequenzen,,3,,,,,,,,,,,,
,Trial,flow.Sequence,0_3_0_3,,completion,,32247.69999998808,32260.576,32277.242,37243.71,4966.468000000001,37246.29999999702,2021-11-02T16:17:09.458Z,37277.042,1635868564,full,ni_sequenzen,NI_Sequenzen,,3,,,,,,,,,,,,
,Move,canvas.Screen,0_3_0_4_0_0,left,response,,37263.89999999106,37260.376,37277.042,40019.39999999106,2742.357999991058,40024.59999999404,2021-11-02T16:17:12.237Z,40043.598,1635868564,full,ni_sequenzen,NI_Sequenzen,1,4,,,,,,,,,,,,
,Move,canvas.Screen,0_3_0_4_0_1,down,response,,40029.89999999106,40026.932,40043.598,40122.39999999106,78.80199999106117,40127.59999999404,2021-11-02T16:17:12.340Z,40143.594,1635868564,full,ni_sequenzen,NI_Sequenzen,2,4,,,,,,,,,,,,
,Move,canvas.Screen,0_3_0_4_0_2,right,response,,40131.5,40126.928,40143.594,40210.5,66.90600000000268,40215.69999998808,2021-11-02T16:17:12.428Z,40227.619,1635868564,full,ni_sequenzen,NI_Sequenzen,3,4,,,,,,,,,,,,
,Move,canvas.Screen,0_3_0_4_0_3,left,response,,40220.29999999702,40210.953,40227.619,40461.09999999404,233.48099999404076,40466.29999999702,2021-11-02T16:17:12.678Z,40494.275,1635868564,full,ni_sequenzen,NI_Sequenzen,4,4,,,,,,,,,,,,
,Move,canvas.Screen,0_3_0_4_0_4,-999,skipped,,40470.29999999702,,,40461.09999999404,,40470.5,2021-11-02T16:17:12.683Z,40494.275,1635868564,full,ni_sequenzen,NI_Sequenzen,5,4,,,,,,,,,,,,
,Move,canvas.Screen,0_3_0_4_0_5,-999,skipped,,40472.79999999702,,,40461.09999999404,,40472.89999999106,2021-11-02T16:17:12.685Z,40494.275,1635868564,full,ni_sequenzen,NI_Sequenzen,6,4,,,,,,,,,,,,
,Move,canvas.Screen,0_3_0_4_0_6,-999,skipped,,40474.5,,,40461.09999999404,,40474.59999999404,2021-11-02T16:17:12.687Z,40494.275,1635868564,full,ni_sequenzen,NI_Sequenzen,7,4,,,,,,,,,,,,
,Move,canvas.Screen,0_3_0_4_0_7,-999,skipped,,40476.59999999404,,,40461.09999999404,,40476.59999999404,2021-11-02T16:17:12.689Z,40494.275,1635868564,full,ni_sequenzen,NI_Sequenzen,8,4,,,,,,,,,,,,
,Move,canvas.Screen,0_3_0_4_0_8,-999,skipped,,40478.09999999404,,,40461.09999999404,,40478.09999999404,2021-11-02T16:17:12.690Z,40494.275,1635868564,full,ni_sequenzen,NI_Sequenzen,9,4,,,,,,,,,,,,
,Move,canvas.Screen,0_3_0_4_0_9,-999,skipped,,40479.79999999702,,,40461.09999999404,,40479.79999999702,2021-11-02T16:17:12.692Z,40494.275,1635868564,full,ni_sequenzen,NI_Sequenzen,10,4,,,,,,,,,,,,
,Move,canvas.Screen,0_3_0_4_0_10,-999,skipped,,40481.59999999404,,,40461.09999999404,,40481.69999998808,2021-11-02T16:17:12.694Z,40494.275,1635868564,full,ni_sequenzen,NI_Sequenzen,11,4,,,,,,,,,,,,
,Move,canvas.Screen,0_3_0_4_0_11,-999,skipped,,40482.89999999106,,,40461.09999999404,,40482.89999999106,2021-11-02T16:17:12.695Z,40494.275,1635868564,full,ni_sequenzen,NI_Sequenzen,12,4,,,,,,,,,,,,
,Move,canvas.Screen,0_3_0_4_0_12,-999,skipped,,40484.19999998808,,,40461.09999999404,,40484.19999998808,2021-11-02T16:17:12.696Z,40494.275,1635868564,full,ni_sequenzen,NI_Sequenzen,13,4,,,,,,,,,,,,
,Move,canvas.Screen,0_3_0_4_0_13,-999,skipped,,40485.5,,,40461.09999999404,,40485.5,2021-11-02T16:17:12.698Z,40494.275,1635868564,full,ni_sequenzen,NI_Sequenzen,14,4,,,,,,,,,,,,
,Move,canvas.Screen,0_3_0_4_0_14,-999,skipped,,40486.89999999106,,,40461.09999999404,,40486.89999999106,2021-11-02T16:17:12.699Z,40494.275,1635868564,full,ni_sequenzen,NI_Sequenzen,15,4,,,,,,,,,,,,
,Loop,flow.Loop,0_3_0_4_0,-999,completion,,37262.09999999404,37260.376,37277.042,40461.09999999404,3184.0579999940383,40487,2021-11-02T16:17:12.699Z,40494.275,1635868564,full,ni_sequenzen,NI_Sequenzen,,4,,,,,,,,,,,,
,Feedback,canvas.Screen,0_3_0_4_1,,timeout,,40488,40477.609,40494.275,44477.449,3999.8399999999965,44479.09999999404,2021-11-02T16:17:16.691Z,44494.115,1635868564,full,ni_sequenzen,NI_Sequenzen,,4,,,,,,,,,,,,
,Trial,flow.Sequence,0_3_0_4,,completion,,37247,37260.376,37277.042,44477.449,7200.406999999999,44479.39999999106,2021-11-02T16:17:16.691Z,44510.781,1635868564,full,ni_sequenzen,NI_Sequenzen,,4,,,,,,,,,,,,
,Move,canvas.Screen,0_3_0_5_0_0,left,response,,44497,44494.115,44510.781,44984.79999999702,474.0189999970171,44990.5,2021-11-02T16:17:17.202Z,45010.761,1635868564,full,ni_sequenzen,NI_Sequenzen,1,5,,,,,,,,,,,,
,Move,canvas.Screen,0_3_0_5_0_1,down,response,,44994.5,44994.095,45010.761,45104.89999999106,94.1389999910607,45110.09999999404,2021-11-02T16:17:17.322Z,45127.423,1635868564,full,ni_sequenzen,NI_Sequenzen,2,5,,,,,,,,,,,,
,Move,canvas.Screen,0_3_0_5_0_2,right,response,,45113.69999998808,45110.757,45127.423,45232.5,105.0769999999975,45236.19999998808,2021-11-02T16:17:17.448Z,45244.085,1635868564,full,ni_sequenzen,NI_Sequenzen,3,5,,,,,,,,,,,,
,Move,canvas.Screen,0_3_0_5_0_3,left,response,,45240.79999999702,45227.419,45244.085,45431.39999999106,187.31499999106018,45435.69999998808,2021-11-02T16:17:17.648Z,45460.743,1635868564,full,ni_sequenzen,NI_Sequenzen,4,5,,,,,,,,,,,,
,Move,canvas.Screen,0_3_0_5_0_4,-999,skipped,,45441.39999999106,,,45431.39999999106,,45441.59999999404,2021-11-02T16:17:17.654Z,45460.743,1635868564,full,ni_sequenzen,NI_Sequenzen,5,5,,,,,,,,,,,,
,Move,canvas.Screen,0_3_0_5_0_5,-999,skipped,,45443.19999998808,,,45431.39999999106,,45443.19999998808,2021-11-02T16:17:17.655Z,45460.743,1635868564,full,ni_sequenzen,NI_Sequenzen,6,5,,,,,,,,,,,,
,Move,canvas.Screen,0_3_0_5_0_6,-999,skipped,,45445.39999999106,,,45431.39999999106,,45445.59999999404,2021-11-02T16:17:17.658Z,45460.743,1635868564,full,ni_sequenzen,NI_Sequenzen,7,5,,,,,,,,,,,,
,Move,canvas.Screen,0_3_0_5_0_7,-999,skipped,,45447.59999999404,,,45431.39999999106,,45447.59999999404,2021-11-02T16:17:17.660Z,45460.743,1635868564,full,ni_sequenzen,NI_Sequenzen,8,5,,,,,,,,,,,,
,Move,canvas.Screen,0_3_0_5_0_8,-999,skipped,,45448.89999999106,,,45431.39999999106,,45449.09999999404,2021-11-02T16:17:17.661Z,45460.743,1635868564,full,ni_sequenzen,NI_Sequenzen,9,5,,,,,,,,,,,,
,Move,canvas.Screen,0_3_0_5_0_9,-999,skipped,,45450.5,,,45431.39999999106,,45450.5,2021-11-02T16:17:17.663Z,45460.743,1635868564,full,ni_sequenzen,NI_Sequenzen,10,5,,,,,,,,,,,,
,Move,canvas.Screen,0_3_0_5_0_10,-999,skipped,,45452.19999998808,,,45431.39999999106,,45452.19999998808,2021-11-02T16:17:17.664Z,45460.743,1635868564,full,ni_sequenzen,NI_Sequenzen,11,5,,,,,,,,,,,,
,Move,canvas.Screen,0_3_0_5_0_11,-999,skipped,,45453.5,,,45431.39999999106,,45453.59999999404,2021-11-02T16:17:17.666Z,45460.743,1635868564,full,ni_sequenzen,NI_Sequenzen,12,5,,,,,,,,,,,,
,Move,canvas.Screen,0_3_0_5_0_12,-999,skipped,,45454.89999999106,,,45431.39999999106,,45455,2021-11-02T16:17:17.667Z,45460.743,1635868564,full,ni_sequenzen,NI_Sequenzen,13,5,,,,,,,,,,,,
,Move,canvas.Screen,0_3_0_5_0_13,-999,skipped,,45456.09999999404,,,45431.39999999106,,45456.09999999404,2021-11-02T16:17:17.668Z,45460.743,1635868564,full,ni_sequenzen,NI_Sequenzen,14,5,,,,,,,,,,,,
,Move,canvas.Screen,0_3_0_5_0_14,-999,skipped,,45457.39999999106,,,45431.39999999106,,45457.39999999106,2021-11-02T16:17:17.669Z,45460.743,1635868564,full,ni_sequenzen,NI_Sequenzen,15,5,,,,,,,,,,,,
,Loop,flow.Loop,0_3_0_5_0,-999,completion,,44495.29999999702,44494.115,44510.781,45431.39999999106,920.6189999910566,45457.59999999404,2021-11-02T16:17:17.670Z,45460.743,1635868564,full,ni_sequenzen,NI_Sequenzen,,5,,,,,,,,,,,,
,Feedback,canvas.Screen,0_3_0_5_1,,timeout,,45458.5,45444.077,45460.743,49443.917,3999.8399999999965,49445.59999999404,2021-11-02T16:17:21.658Z,49460.583,1635868564,full,ni_sequenzen,NI_Sequenzen,,5,,,,,,,,,,,,
,Trial,flow.Sequence,0_3_0_5,,completion,,44480,44494.115,44510.781,49443.917,4933.135999999999,49445.89999999106,2021-11-02T16:17:21.658Z,49477.249,1635868564,full,ni_sequenzen,NI_Sequenzen,,5,,,,,,,,,,,,
,Move,canvas.Screen,0_3_0_6_0_0,left,response,,49462.29999999702,49460.583,49477.249,50265.19999998808,787.9509999880756,50270.59999999404,2021-11-02T16:17:22.483Z,50277.217,1635868564,full,ni_sequenzen,NI_Sequenzen,1,6,,,,,,,,,,,,
,Move,canvas.Screen,0_3_0_6_0_1,down,response,,50276,50260.551,50277.217,50328.39999999106,51.18299999106239,50333.59999999404,2021-11-02T16:17:22.545Z,50343.881,1635868564,full,ni_sequenzen,NI_Sequenzen,2,6,,,,,,,,,,,,
,Move,canvas.Screen,0_3_0_6_0_2,right,response,,50337.29999999702,50327.215,50343.881,50464.09999999404,120.21899999403831,50468.09999999404,2021-11-02T16:17:22.680Z,50477.619,1635868564,full,ni_sequenzen,NI_Sequenzen,3,6,,,,,,,,,,,,
,Move,canvas.Screen,0_3_0_6_0_3,left,response,,50473.79999999702,50460.953,50477.619,50701.09999999404,223.48099999404076,50705,2021-11-02T16:17:22.917Z,50727.609,1635868564,full,ni_sequenzen,NI_Sequenzen,4,6,,,,,,,,,,,,
,Move,canvas.Screen,0_3_0_6_0_4,-999,skipped,,50708.79999999702,,,50701.09999999404,,50709.09999999404,2021-11-02T16:17:22.921Z,50727.609,1635868564,full,ni_sequenzen,NI_Sequenzen,5,6,,,,,,,,,,,,
,Move,canvas.Screen,0_3_0_6_0_5,-999,skipped,,50711.89999999106,,,50701.09999999404,,50711.89999999106,2021-11-02T16:17:22.924Z,50727.609,1635868564,full,ni_sequenzen,NI_Sequenzen,6,6,,,,,,,,,,,,
,Move,canvas.Screen,0_3_0_6_0_6,-999,skipped,,50713.5,,,50701.09999999404,,50713.59999999404,2021-11-02T16:17:22.925Z,50727.609,1635868564,full,ni_sequenzen,NI_Sequenzen,7,6,,,,,,,,,,,,
,Move,canvas.Screen,0_3_0_6_0_7,-999,skipped,,50715.09999999404,,,50701.09999999404,,50715.09999999404,2021-11-02T16:17:22.927Z,50727.609,1635868564,full,ni_sequenzen,NI_Sequenzen,8,6,,,,,,,,,,,,
,Move,canvas.Screen,0_3_0_6_0_8,-999,skipped,,50716.59999999404,,,50701.09999999404,,50716.59999999404,2021-11-02T16:17:22.929Z,50727.609,1635868564,full,ni_sequenzen,NI_Sequenzen,9,6,,,,,,,,,,,,
,Move,canvas.Screen,0_3_0_6_0_9,-999,skipped,,50718.59999999404,,,50701.09999999404,,50718.59999999404,2021-11-02T16:17:22.931Z,50727.609,1635868564,full,ni_sequenzen,NI_Sequenzen,10,6,,,,,,,,,,,,
,Move,canvas.Screen,0_3_0_6_0_10,-999,skipped,,50720,,,50701.09999999404,,50720,2021-11-02T16:17:22.932Z,50727.609,1635868564,full,ni_sequenzen,NI_Sequenzen,11,6,,,,,,,,,,,,
,Move,canvas.Screen,0_3_0_6_0_11,-999,skipped,,50721.59999999404,,,50701.09999999404,,50721.59999999404,2021-11-02T16:17:22.933Z,50727.609,1635868564,full,ni_sequenzen,NI_Sequenzen,12,6,,,,,,,,,,,,
,Move,canvas.Screen,0_3_0_6_0_12,-999,skipped,,50723,,,50701.09999999404,,50723,2021-11-02T16:17:22.935Z,50727.609,1635868564,full,ni_sequenzen,NI_Sequenzen,13,6,,,,,,,,,,,,
,Move,canvas.Screen,0_3_0_6_0_13,-999,skipped,,50724.09999999404,,,50701.09999999404,,50724.19999998808,2021-11-02T16:17:22.936Z,50727.609,1635868564,full,ni_sequenzen,NI_Sequenzen,14,6,,,,,,,,,,,,
,Move,canvas.Screen,0_3_0_6_0_14,-999,skipped,,50725.39999999106,,,50701.09999999404,,50725.5,2021-11-02T16:17:22.937Z,50727.609,1635868564,full,ni_sequenzen,NI_Sequenzen,15,6,,,,,,,,,,,,
,Loop,flow.Loop,0_3_0_6_0,-999,completion,,49460.5,49460.583,49477.249,50701.09999999404,1223.850999994036,50725.5,2021-11-02T16:17:22.937Z,50727.609,1635868564,full,ni_sequenzen,NI_Sequenzen,,6,,,,,,,,,,,,
,Feedback,canvas.Screen,0_3_0_6_1,,timeout,,50726.59999999404,50710.943,50727.609,54710.783,3999.840000000004,54713.5,2021-11-02T16:17:26.925Z,54727.449,1635868564,full,ni_sequenzen,NI_Sequenzen,,6,,,,,,,,,,,,
,Trial,flow.Sequence,0_3_0_6,,completion,,49446.5,49460.583,49477.249,54710.783,5233.534,54713.69999998808,2021-11-02T16:17:26.926Z,54744.115,1635868564,full,ni_sequenzen,NI_Sequenzen,,6,,,,,,,,,,,,
,Move,canvas.Screen,0_3_0_7_0_0,left,response,,54729.89999999106,54727.449,,54735,,54739.39999999106,2021-11-02T16:17:26.951Z,54760.781,1635868564,full,ni_sequenzen,NI_Sequenzen,1,7,,,,,,,,,,,,
,Move,canvas.Screen,0_3_0_7_0_1,down,response,,54741.39999999106,54744.115,54760.781,54931.79999999702,171.0189999970171,54937.09999999404,2021-11-02T16:17:27.149Z,54944.107,1635868564,full,ni_sequenzen,NI_Sequenzen,2,7,,,,,,,,,,,,
,Move,canvas.Screen,0_3_0_7_0_2,right,response,,54941.5,54927.441,54944.107,55011.39999999106,67.2929999910557,55016.09999999404,2021-11-02T16:17:27.228Z,55027.437,1635868564,full,ni_sequenzen,NI_Sequenzen,3,7,,,,,,,,,,,,
,Move,canvas.Screen,0_3_0_7_0_3,left,response,,55020,55010.771,55027.437,55243.09999999404,215.66299999404146,55247.09999999404,2021-11-02T16:17:27.459Z,55277.427,1635868564,full,ni_sequenzen,NI_Sequenzen,4,7,,,,,,,,,,,,
,Move,canvas.Screen,0_3_0_7_0_4,-999,skipped,,55251.59999999404,,,55243.09999999404,,55251.69999998808,2021-11-02T16:17:27.464Z,55277.427,1635868564,full,ni_sequenzen,NI_Sequenzen,5,7,,,,,,,,,,,,
,Move,canvas.Screen,0_3_0_7_0_5,-999,skipped,,55253.89999999106,,,55243.09999999404,,55253.89999999106,2021-11-02T16:17:27.466Z,55277.427,1635868564,full,ni_sequenzen,NI_Sequenzen,6,7,,,,,,,,,,,,
,Move,canvas.Screen,0_3_0_7_0_6,-999,skipped,,55255.39999999106,,,55243.09999999404,,55255.39999999106,2021-11-02T16:17:27.467Z,55277.427,1635868564,full,ni_sequenzen,NI_Sequenzen,7,7,,,,,,,,,,,,
,Move,canvas.Screen,0_3_0_7_0_7,-999,skipped,,55256.79999999702,,,55243.09999999404,,55256.79999999702,2021-11-02T16:17:27.469Z,55277.427,1635868564,full,ni_sequenzen,NI_Sequenzen,8,7,,,,,,,,,,,,
,Move,canvas.Screen,0_3_0_7_0_8,-999,skipped,,55258.19999998808,,,55243.09999999404,,55258.19999998808,2021-11-02T16:17:27.470Z,55277.427,1635868564,full,ni_sequenzen,NI_Sequenzen,9,7,,,,,,,,,,,,
,Move,canvas.Screen,0_3_0_7_0_9,-999,skipped,,55259.59999999404,,,55243.09999999404,,55259.69999998808,2021-11-02T16:17:27.471Z,55277.427,1635868564,full,ni_sequenzen,NI_Sequenzen,10,7,,,,,,,,,,,,
,Move,canvas.Screen,0_3_0_7_0_10,-999,skipped,,55262.09999999404,,,55243.09999999404,,55262.19999998808,2021-11-02T16:17:27.474Z,55277.427,1635868564,full,ni_sequenzen,NI_Sequenzen,11,7,,,,,,,,,,,,
,Move,canvas.Screen,0_3_0_7_0_11,-999,skipped,,55263.5,,,55243.09999999404,,55263.59999999404,2021-11-02T16:17:27.475Z,55277.427,1635868564,full,ni_sequenzen,NI_Sequenzen,12,7,,,,,,,,,,,,
,Move,canvas.Screen,0_3_0_7_0_12,-999,skipped,,55264.59999999404,,,55243.09999999404,,55264.79999999702,2021-11-02T16:17:27.477Z,55277.427,1635868564,full,ni_sequenzen,NI_Sequenzen,13,7,,,,,,,,,,,,
,Move,canvas.Screen,0_3_0_7_0_13,-999,skipped,,55265.79999999702,,,55243.09999999404,,55265.79999999702,2021-11-02T16:17:27.478Z,55277.427,1635868564,full,ni_sequenzen,NI_Sequenzen,14,7,,,,,,,,,,,,
,Move,canvas.Screen,0_3_0_7_0_14,-999,skipped,,55267,,,55243.09999999404,,55267,2021-11-02T16:17:27.479Z,55277.427,1635868564,full,ni_sequenzen,NI_Sequenzen,15,7,,,,,,,,,,,,
,Loop,flow.Loop,0_3_0_7_0,-999,completion,,54728.09999999404,54727.449,54744.115,55243.09999999404,498.9849999940416,55267.09999999404,2021-11-02T16:17:27.479Z,55277.427,1635868564,full,ni_sequenzen,NI_Sequenzen,,7,,,,,,,,,,,,
,Feedback,canvas.Screen,0_3_0_7_1,,timeout,,55268.29999999702,55260.761,55277.427,59260.601,3999.8399999999965,59263,2021-11-02T16:17:31.475Z,59277.267,1635868564,full,ni_sequenzen,NI_Sequenzen,,7,,,,,,,,,,,,
,Trial,flow.Sequence,0_3_0_7,,completion,,54714.39999999106,54727.449,54744.115,59260.601,4516.486000000004,59263.19999998808,2021-11-02T16:17:31.475Z,59293.933,1635868564,full,ni_sequenzen,NI_Sequenzen,,7,,,,,,,,,,,,
,Move,canvas.Screen,0_3_0_8_0_0,left,response,,59277.09999999404,59277.267,59293.933,60948,1654.0670000000027,60953.39999999106,2021-11-02T16:17:33.165Z,60960.533,1635868564,full,ni_sequenzen,NI_Sequenzen,1,8,,,,,,,,,,,,
,Move,canvas.Screen,0_3_0_8_0_1,down,response,,60959.59999999404,60943.867,60960.533,60989.79999999702,29.266999997016683,60993,2021-11-02T16:17:33.205Z,61010.531,1635868564,full,ni_sequenzen,NI_Sequenzen,2,8,,,,,,,,,,,,
,Move,canvas.Screen,0_3_0_8_0_2,right,response,,60995.09999999404,60993.865,61010.531,61086.89999999106,76.36899999105663,61091.19999998808,2021-11-02T16:17:33.303Z,61110.996,1635868564,full,ni_sequenzen,NI_Sequenzen,3,8,,,,,,,,,,,,
,Move,canvas.Screen,0_3_0_8_0_3,left,response,,61094.59999999404,61094.33,61110.996,61266.69999998808,155.7039999880799,61270.89999999106,2021-11-02T16:17:33.483Z,61294.322,1635868564,full,ni_sequenzen,NI_Sequenzen,4,8,,,,,,,,,,,,
,Move,canvas.Screen,0_3_0_8_0_4,-999,skipped,,61276.19999998808,,,61266.69999998808,,61276.29999999702,2021-11-02T16:17:33.488Z,61294.322,1635868564,full,ni_sequenzen,NI_Sequenzen,5,8,,,,,,,,,,,,
,Move,canvas.Screen,0_3_0_8_0_5,-999,skipped,,61278.39999999106,,,61266.69999998808,,61278.39999999106,2021-11-02T16:17:33.490Z,61294.322,1635868564,full,ni_sequenzen,NI_Sequenzen,6,8,,,,,,,,,,,,
,Move,canvas.Screen,0_3_0_8_0_6,-999,skipped,,61280,,,61266.69999998808,,61280,2021-11-02T16:17:33.492Z,61294.322,1635868564,full,ni_sequenzen,NI_Sequenzen,7,8,,,,,,,,,,,,
,Move,canvas.Screen,0_3_0_8_0_7,-999,skipped,,61282,,,61266.69999998808,,61282.09999999404,2021-11-02T16:17:33.494Z,61294.322,1635868564,full,ni_sequenzen,NI_Sequenzen,8,8,,,,,,,,,,,,
,Move,canvas.Screen,0_3_0_8_0_8,-999,skipped,,61283.39999999106,,,61266.69999998808,,61283.39999999106,2021-11-02T16:17:33.495Z,61294.322,1635868564,full,ni_sequenzen,NI_Sequenzen,9,8,,,,,,,,,,,,
,Move,canvas.Screen,0_3_0_8_0_9,-999,skipped,,61284.59999999404,,,61266.69999998808,,61284.59999999404,2021-11-02T16:17:33.496Z,61294.322,1635868564,full,ni_sequenzen,NI_Sequenzen,10,8,,,,,,,,,,,,
,Move,canvas.Screen,0_3_0_8_0_10,-999,skipped,,61286,,,61266.69999998808,,61286.09999999404,2021-11-02T16:17:33.498Z,61294.322,1635868564,full,ni_sequenzen,NI_Sequenzen,11,8,,,,,,,,,,,,
,Move,canvas.Screen,0_3_0_8_0_11,-999,skipped,,61287.09999999404,,,61266.69999998808,,61287.09999999404,2021-11-02T16:17:33.499Z,61294.322,1635868564,full,ni_sequenzen,NI_Sequenzen,12,8,,,,,,,,,,,,
,Move,canvas.Screen,0_3_0_8_0_12,-999,skipped,,61288.19999998808,,,61266.69999998808,,61288.19999998808,2021-11-02T16:17:33.500Z,61294.322,1635868564,full,ni_sequenzen,NI_Sequenzen,13,8,,,,,,,,,,,,
,Move,canvas.Screen,0_3_0_8_0_13,-999,skipped,,61289.5,,,61266.69999998808,,61289.5,2021-11-02T16:17:33.501Z,61294.322,1635868564,full,ni_sequenzen,NI_Sequenzen,14,8,,,,,,,,,,,,
,Move,canvas.Screen,0_3_0_8_0_14,-999,skipped,,61291,,,61266.69999998808,,61291,2021-11-02T16:17:33.503Z,61294.322,1635868564,full,ni_sequenzen,NI_Sequenzen,15,8,,,,,,,,,,,,
,Loop,flow.Loop,0_3_0_8_0,-999,completion,,59275.5,59277.267,59293.933,61266.69999998808,1972.7669999880818,61291.09999999404,2021-11-02T16:17:33.503Z,61294.322,1635868564,full,ni_sequenzen,NI_Sequenzen,,8,,,,,,,,,,,,
,Feedback,canvas.Screen,0_3_0_8_1,,timeout,,61292.39999999106,61277.656,61294.322,65277.496,3999.8399999999965,65280.29999999702,2021-11-02T16:17:37.492Z,65294.162,1635868564,full,ni_sequenzen,NI_Sequenzen,,8,,,,,,,,,,,,
,Trial,flow.Sequence,0_3_0_8,,completion,,59263.79999999702,59277.267,59293.933,65277.496,5983.563000000002,65280.59999999404,2021-11-02T16:17:37.492Z,65310.828,1635868564,full,ni_sequenzen,NI_Sequenzen,,8,,,,,,,,,,,,
