meta,sender,sender_type,sender_id,response,ended_on,instrCount,time_run,time_render,time_show,time_end,duration,time_commit,timestamp,time_switch,openLabId,type,task,project,move,trialN,blockN_Train,blockN,moveCount,currPP,points,movesTrial,visitedFields,diff,reward,Strategie,Zweck,Probleme
[object Object],Screen_1,canvas.Screen,0_0_0_0,cont,response,1,1563,1564.06,1616.36,3906,2289.6400000000003,3915,2021-10-29T09:45:57.308Z,4082.46,1635459224,full,ni_sequenzen,NI_Sequenzen,,,,,,,,,,,,,,
,Screen_2,canvas.Screen,0_0_0_1,cont,response,1,4076,4075.72,4082.46,4954,871.54,4958,2021-10-29T09:45:58.350Z,5382.14,1635459224,full,ni_sequenzen,NI_Sequenzen,,,,,,,,,,,,,,
,Screen_3,canvas.Screen,0_0_0_2,cont,response,1,5365,5364.52,5382.14,6282,899.8599999999997,6290,2021-10-29T09:45:59.682Z,6315.26,1635459224,full,ni_sequenzen,NI_Sequenzen,,,,,,,,,,,,,,
,Screen_4,canvas.Screen,0_0_0_3,cont,response,1,6309,6309.1,6315.26,7281,965.7399999999998,7295,2021-10-29T09:46:00.688Z,8081.48,1635459224,full,ni_sequenzen,NI_Sequenzen,,,,,,,,,,,,,,
,Sequence,flow.Sequence,0_0_0,,completion,1,1466,1564.06,1616.36,7281,5664.64,7295,2021-10-29T09:46:00.689Z,8081.48,1635459224,full,ni_sequenzen,NI_Sequenzen,,,,,,,,,,,,,,
,Screen_1,canvas.Screen,0_0_1_0,,skipped,2,7309,,,7309,,7310,2021-10-29T09:46:00.703Z,8081.48,1635459224,full,ni_sequenzen,NI_Sequenzen,,,,,,,,,,,,,,
,Screen_2,canvas.Screen,0_0_1_1,,skipped,2,7326,,,7309,,7326,2021-10-29T09:46:00.720Z,8081.48,1635459224,full,ni_sequenzen,NI_Sequenzen,,,,,,,,,,,,,,
,Screen_3,canvas.Screen,0_0_1_2,,skipped,2,7343,,,7309,,7344,2021-10-29T09:46:00.736Z,8081.48,1635459224,full,ni_sequenzen,NI_Sequenzen,,,,,,,,,,,,,,
,Screen_4,canvas.Screen,0_0_1_3,,skipped,2,7356,,,7309,,7356,2021-10-29T09:46:00.750Z,8081.48,1635459224,full,ni_sequenzen,NI_Sequenzen,,,,,,,,,,,,,,
,Sequence,flow.Sequence,0_0_1,,completion,2,7299,,,7309,,7357,2021-10-29T09:46:00.750Z,8081.48,1635459224,full,ni_sequenzen,NI_Sequenzen,,,,,,,,,,,,,,
,Screen_1,canvas.Screen,0_0_2_0,,skipped,3,7364,,,7364,,7365,2021-10-29T09:46:00.758Z,8081.48,1635459224,full,ni_sequenzen,NI_Sequenzen,,,,,,,,,,,,,,
,Screen_2,canvas.Screen,0_0_2_1,,skipped,3,7376,,,7364,,7376,2021-10-29T09:46:00.769Z,8081.48,1635459224,full,ni_sequenzen,NI_Sequenzen,,,,,,,,,,,,,,
,Screen_3,canvas.Screen,0_0_2_2,,skipped,3,7389,,,7364,,7389,2021-10-29T09:46:00.782Z,8081.48,1635459224,full,ni_sequenzen,NI_Sequenzen,,,,,,,,,,,,,,
,Screen_4,canvas.Screen,0_0_2_3,,skipped,3,7397,,,7364,,7397,2021-10-29T09:46:00.790Z,8081.48,1635459224,full,ni_sequenzen,NI_Sequenzen,,,,,,,,,,,,,,
,Sequence,flow.Sequence,0_0_2,,completion,3,7359,,,7364,,7398,2021-10-29T09:46:00.791Z,8081.48,1635459224,full,ni_sequenzen,NI_Sequenzen,,,,,,,,,,,,,,
,Screen_1,canvas.Screen,0_0_3_0,,skipped,4,7409,,,7409,,7409,2021-10-29T09:46:00.802Z,8081.48,1635459224,full,ni_sequenzen,NI_Sequenzen,,,,,,,,,,,,,,
,Screen_2,canvas.Screen,0_0_3_1,,skipped,4,7415,,,7409,,7415,2021-10-29T09:46:00.809Z,8081.48,1635459224,full,ni_sequenzen,NI_Sequenzen,,,,,,,,,,,,,,
,Screen_3,canvas.Screen,0_0_3_2,,skipped,4,7426,,,7409,,7426,2021-10-29T09:46:00.819Z,8081.48,1635459224,full,ni_sequenzen,NI_Sequenzen,,,,,,,,,,,,,,
,Screen_4,canvas.Screen,0_0_3_3,,skipped,4,7433,,,7409,,7433,2021-10-29T09:46:00.826Z,8081.48,1635459224,full,ni_sequenzen,NI_Sequenzen,,,,,,,,,,,,,,
,Sequence,flow.Sequence,0_0_3,,completion,4,7403,,,7409,,7436,2021-10-29T09:46:00.829Z,8081.48,1635459224,full,ni_sequenzen,NI_Sequenzen,,,,,,,,,,,,,,
,Screen_1,canvas.Screen,0_0_4_0,,skipped,5,7446,,,7446,,7446,2021-10-29T09:46:00.838Z,8081.48,1635459224,full,ni_sequenzen,NI_Sequenzen,,,,,,,,,,,,,,
,Screen_2,canvas.Screen,0_0_4_1,,skipped,5,7458,,,7446,,7458,2021-10-29T09:46:00.850Z,8081.48,1635459224,full,ni_sequenzen,NI_Sequenzen,,,,,,,,,,,,,,
,Screen_3,canvas.Screen,0_0_4_2,,skipped,5,7463,,,7446,,7464,2021-10-29T09:46:00.857Z,8081.48,1635459224,full,ni_sequenzen,NI_Sequenzen,,,,,,,,,,,,,,
,Screen_4,canvas.Screen,0_0_4_3,,skipped,5,7476,,,7446,,7476,2021-10-29T09:46:00.869Z,8081.48,1635459224,full,ni_sequenzen,NI_Sequenzen,,,,,,,,,,,,,,
,Sequence,flow.Sequence,0_0_4,,completion,5,7441,,,7446,,7477,2021-10-29T09:46:00.870Z,8081.48,1635459224,full,ni_sequenzen,NI_Sequenzen,,,,,,,,,,,,,,
,Screen_1,canvas.Screen,0_0_5_0,,skipped,6,7491,,,7491,,7492,2021-10-29T09:46:00.885Z,8081.48,1635459224,full,ni_sequenzen,NI_Sequenzen,,,,,,,,,,,,,,
,Screen_2,canvas.Screen,0_0_5_1,,skipped,6,7498,,,7491,,7498,2021-10-29T09:46:00.891Z,8081.48,1635459224,full,ni_sequenzen,NI_Sequenzen,,,,,,,,,,,,,,
,Screen_3,canvas.Screen,0_0_5_2,,skipped,6,7507,,,7491,,7508,2021-10-29T09:46:00.901Z,8081.48,1635459224,full,ni_sequenzen,NI_Sequenzen,,,,,,,,,,,,,,
,Screen_4,canvas.Screen,0_0_5_3,,skipped,6,7514,,,7491,,7514,2021-10-29T09:46:00.906Z,8081.48,1635459224,full,ni_sequenzen,NI_Sequenzen,,,,,,,,,,,,,,
,Sequence,flow.Sequence,0_0_5,,completion,6,7479,,,7491,,7514,2021-10-29T09:46:00.907Z,8081.48,1635459224,full,ni_sequenzen,NI_Sequenzen,,,,,,,,,,,,,,
,Screen_1,canvas.Screen,0_0_6_0,,skipped,7,7526,,,7526,,7526,2021-10-29T09:46:00.919Z,8081.48,1635459224,full,ni_sequenzen,NI_Sequenzen,,,,,,,,,,,,,,
,Screen_2,canvas.Screen,0_0_6_1,,skipped,7,7530,,,7526,,7531,2021-10-29T09:46:00.924Z,8081.48,1635459224,full,ni_sequenzen,NI_Sequenzen,,,,,,,,,,,,,,
,Screen_3,canvas.Screen,0_0_6_2,,skipped,7,7541,,,7526,,7542,2021-10-29T09:46:00.934Z,8081.48,1635459224,full,ni_sequenzen,NI_Sequenzen,,,,,,,,,,,,,,
,Screen_4,canvas.Screen,0_0_6_3,,skipped,7,7548,,,7526,,7548,2021-10-29T09:46:00.941Z,8081.48,1635459224,full,ni_sequenzen,NI_Sequenzen,,,,,,,,,,,,,,
,Sequence,flow.Sequence,0_0_6,,completion,7,7517,,,7526,,7548,2021-10-29T09:46:00.941Z,8081.48,1635459224,full,ni_sequenzen,NI_Sequenzen,,,,,,,,,,,,,,
,Screen_1,canvas.Screen,0_0_7_0,,skipped,8,7559,,,7559,,7560,2021-10-29T09:46:00.953Z,8081.48,1635459224,full,ni_sequenzen,NI_Sequenzen,,,,,,,,,,,,,,
,Screen_2,canvas.Screen,0_0_7_1,,skipped,8,7565,,,7559,,7565,2021-10-29T09:46:00.958Z,8081.48,1635459224,full,ni_sequenzen,NI_Sequenzen,,,,,,,,,,,,,,
,Screen_3,canvas.Screen,0_0_7_2,,skipped,8,7576,,,7559,,7577,2021-10-29T09:46:00.969Z,8081.48,1635459224,full,ni_sequenzen,NI_Sequenzen,,,,,,,,,,,,,,
,Screen_4,canvas.Screen,0_0_7_3,,skipped,8,7583,,,7559,,7584,2021-10-29T09:46:00.976Z,8081.48,1635459224,full,ni_sequenzen,NI_Sequenzen,,,,,,,,,,,,,,
,Sequence,flow.Sequence,0_0_7,,completion,8,7554,,,7559,,7584,2021-10-29T09:46:00.977Z,8081.48,1635459224,full,ni_sequenzen,NI_Sequenzen,,,,,,,,,,,,,,
,Screen_1,canvas.Screen,0_0_8_0,,skipped,9,7594,,,7594,,7594,2021-10-29T09:46:00.987Z,8081.48,1635459224,full,ni_sequenzen,NI_Sequenzen,,,,,,,,,,,,,,
,Screen_2,canvas.Screen,0_0_8_1,,skipped,9,7603,,,7594,,7603,2021-10-29T09:46:00.996Z,8081.48,1635459224,full,ni_sequenzen,NI_Sequenzen,,,,,,,,,,,,,,
,Screen_3,canvas.Screen,0_0_8_2,,skipped,9,7610,,,7594,,7611,2021-10-29T09:46:01.004Z,8081.48,1635459224,full,ni_sequenzen,NI_Sequenzen,,,,,,,,,,,,,,
,Screen_4,canvas.Screen,0_0_8_3,,skipped,9,7616,,,7594,,7617,2021-10-29T09:46:01.010Z,8081.48,1635459224,full,ni_sequenzen,NI_Sequenzen,,,,,,,,,,,,,,
,Sequence,flow.Sequence,0_0_8,,completion,9,7589,,,7594,,7619,2021-10-29T09:46:01.012Z,8081.48,1635459224,full,ni_sequenzen,NI_Sequenzen,,,,,,,,,,,,,,
,Screen_1,canvas.Screen,0_0_9_0,,skipped,10,7628,,,7628,,7628,2021-10-29T09:46:01.022Z,8081.48,1635459224,full,ni_sequenzen,NI_Sequenzen,,,,,,,,,,,,,,
,Screen_2,canvas.Screen,0_0_9_1,,skipped,10,7639,,,7628,,7639,2021-10-29T09:46:01.032Z,8081.48,1635459224,full,ni_sequenzen,NI_Sequenzen,,,,,,,,,,,,,,
,Screen_3,canvas.Screen,0_0_9_2,,skipped,10,7645,,,7628,,7645,2021-10-29T09:46:01.038Z,8081.48,1635459224,full,ni_sequenzen,NI_Sequenzen,,,,,,,,,,,,,,
,Screen_4,canvas.Screen,0_0_9_3,,skipped,10,7656,,,7628,,7656,2021-10-29T09:46:01.049Z,8081.48,1635459224,full,ni_sequenzen,NI_Sequenzen,,,,,,,,,,,,,,
,Sequence,flow.Sequence,0_0_9,,completion,10,7624,,,7628,,7656,2021-10-29T09:46:01.050Z,8081.48,1635459224,full,ni_sequenzen,NI_Sequenzen,,,,,,,,,,,,,,
,Screen_1,canvas.Screen,0_0_10_0,,skipped,11,7663,,,7663,,7663,2021-10-29T09:46:01.056Z,8081.48,1635459224,full,ni_sequenzen,NI_Sequenzen,,,,,,,,,,,,,,
,Screen_2,canvas.Screen,0_0_10_1,,skipped,11,7673,,,7663,,7674,2021-10-29T09:46:01.066Z,8081.48,1635459224,full,ni_sequenzen,NI_Sequenzen,,,,,,,,,,,,,,
,Screen_3,canvas.Screen,0_0_10_2,,skipped,11,7679,,,7663,,7679,2021-10-29T09:46:01.072Z,8081.48,1635459224,full,ni_sequenzen,NI_Sequenzen,,,,,,,,,,,,,,
,Screen_4,canvas.Screen,0_0_10_3,,skipped,11,7691,,,7663,,7691,2021-10-29T09:46:01.085Z,8081.48,1635459224,full,ni_sequenzen,NI_Sequenzen,,,,,,,,,,,,,,
,Sequence,flow.Sequence,0_0_10,,completion,11,7658,,,7663,,7691,2021-10-29T09:46:01.085Z,8081.48,1635459224,full,ni_sequenzen,NI_Sequenzen,,,,,,,,,,,,,,
,Screen_1,canvas.Screen,0_0_11_0,,skipped,12,7698,,,7698,,7699,2021-10-29T09:46:01.092Z,8081.48,1635459224,full,ni_sequenzen,NI_Sequenzen,,,,,,,,,,,,,,
,Screen_2,canvas.Screen,0_0_11_1,,skipped,12,7708,,,7698,,7708,2021-10-29T09:46:01.101Z,8081.48,1635459224,full,ni_sequenzen,NI_Sequenzen,,,,,,,,,,,,,,
,Screen_3,canvas.Screen,0_0_11_2,,skipped,12,7714,,,7698,,7714,2021-10-29T09:46:01.107Z,8081.48,1635459224,full,ni_sequenzen,NI_Sequenzen,,,,,,,,,,,,,,
,Screen_4,canvas.Screen,0_0_11_3,,skipped,12,7725,,,7698,,7725,2021-10-29T09:46:01.118Z,8081.48,1635459224,full,ni_sequenzen,NI_Sequenzen,,,,,,,,,,,,,,
,Sequence,flow.Sequence,0_0_11,,completion,12,7693,,,7698,,7726,2021-10-29T09:46:01.118Z,8081.48,1635459224,full,ni_sequenzen,NI_Sequenzen,,,,,,,,,,,,,,
,Screen_1,canvas.Screen,0_0_12_0,,skipped,13,7732,,,7732,,7732,2021-10-29T09:46:01.125Z,8081.48,1635459224,full,ni_sequenzen,NI_Sequenzen,,,,,,,,,,,,,,
,Screen_2,canvas.Screen,0_0_12_1,,skipped,13,7742,,,7732,,7742,2021-10-29T09:46:01.135Z,8081.48,1635459224,full,ni_sequenzen,NI_Sequenzen,,,,,,,,,,,,,,
,Screen_3,canvas.Screen,0_0_12_2,,skipped,13,7748,,,7732,,7749,2021-10-29T09:46:01.141Z,8081.48,1635459224,full,ni_sequenzen,NI_Sequenzen,,,,,,,,,,,,,,
,Screen_4,canvas.Screen,0_0_12_3,,skipped,13,7759,,,7732,,7759,2021-10-29T09:46:01.153Z,8081.48,1635459224,full,ni_sequenzen,NI_Sequenzen,,,,,,,,,,,,,,
,Sequence,flow.Sequence,0_0_12,,completion,13,7727,,,7732,,7760,2021-10-29T09:46:01.153Z,8081.48,1635459224,full,ni_sequenzen,NI_Sequenzen,,,,,,,,,,,,,,
,Screen_1,canvas.Screen,0_0_13_0,,skipped,14,7766,,,7766,,7766,2021-10-29T09:46:01.159Z,8081.48,1635459224,full,ni_sequenzen,NI_Sequenzen,,,,,,,,,,,,,,
,Screen_2,canvas.Screen,0_0_13_1,,skipped,14,7774,,,7766,,7774,2021-10-29T09:46:01.168Z,8081.48,1635459224,full,ni_sequenzen,NI_Sequenzen,,,,,,,,,,,,,,
,Screen_3,canvas.Screen,0_0_13_2,,skipped,14,7780,,,7766,,7781,2021-10-29T09:46:01.174Z,8081.48,1635459224,full,ni_sequenzen,NI_Sequenzen,,,,,,,,,,,,,,
,Screen_4,canvas.Screen,0_0_13_3,,skipped,14,7792,,,7766,,7792,2021-10-29T09:46:01.184Z,8081.48,1635459224,full,ni_sequenzen,NI_Sequenzen,,,,,,,,,,,,,,
,Sequence,flow.Sequence,0_0_13,,completion,14,7761,,,7766,,7792,2021-10-29T09:46:01.185Z,8081.48,1635459224,full,ni_sequenzen,NI_Sequenzen,,,,,,,,,,,,,,
,Screen_1,canvas.Screen,0_0_14_0,,skipped,15,7797,,,7797,,7798,2021-10-29T09:46:01.190Z,8081.48,1635459224,full,ni_sequenzen,NI_Sequenzen,,,,,,,,,,,,,,
,Screen_2,canvas.Screen,0_0_14_1,,skipped,15,7807,,,7797,,7807,2021-10-29T09:46:01.201Z,8081.48,1635459224,full,ni_sequenzen,NI_Sequenzen,,,,,,,,,,,,,,
,Screen_3,canvas.Screen,0_0_14_2,,skipped,15,7813,,,7797,,7813,2021-10-29T09:46:01.207Z,8081.48,1635459224,full,ni_sequenzen,NI_Sequenzen,,,,,,,,,,,,,,
,Screen_4,canvas.Screen,0_0_14_3,,skipped,15,7824,,,7797,,7824,2021-10-29T09:46:01.217Z,8081.48,1635459224,full,ni_sequenzen,NI_Sequenzen,,,,,,,,,,,,,,
,Sequence,flow.Sequence,0_0_14,,completion,15,7794,,,7797,,7825,2021-10-29T09:46:01.218Z,8081.48,1635459224,full,ni_sequenzen,NI_Sequenzen,,,,,,,,,,,,,,
,Screen_1,canvas.Screen,0_0_15_0,,skipped,16,7830,,,7830,,7831,2021-10-29T09:46:01.223Z,8081.48,1635459224,full,ni_sequenzen,NI_Sequenzen,,,,,,,,,,,,,,
,Screen_2,canvas.Screen,0_0_15_1,,skipped,16,7841,,,7830,,7841,2021-10-29T09:46:01.234Z,8081.48,1635459224,full,ni_sequenzen,NI_Sequenzen,,,,,,,,,,,,,,
,Screen_3,canvas.Screen,0_0_15_2,,skipped,16,7846,,,7830,,7846,2021-10-29T09:46:01.239Z,8081.48,1635459224,full,ni_sequenzen,NI_Sequenzen,,,,,,,,,,,,,,
,Screen_4,canvas.Screen,0_0_15_3,,skipped,16,7856,,,7830,,7857,2021-10-29T09:46:01.250Z,8081.48,1635459224,full,ni_sequenzen,NI_Sequenzen,,,,,,,,,,,,,,
,Sequence,flow.Sequence,0_0_15,,completion,16,7826,,,7830,,7857,2021-10-29T09:46:01.250Z,8081.48,1635459224,full,ni_sequenzen,NI_Sequenzen,,,,,,,,,,,,,,
,Screen_1,canvas.Screen,0_0_16_0,,skipped,17,7862,,,7862,,7862,2021-10-29T09:46:01.255Z,8081.48,1635459224,full,ni_sequenzen,NI_Sequenzen,,,,,,,,,,,,,,
,Screen_2,canvas.Screen,0_0_16_1,,skipped,17,7873,,,7862,,7873,2021-10-29T09:46:01.266Z,8081.48,1635459224,full,ni_sequenzen,NI_Sequenzen,,,,,,,,,,,,,,
,Screen_3,canvas.Screen,0_0_16_2,,skipped,17,7878,,,7862,,7878,2021-10-29T09:46:01.272Z,8081.48,1635459224,full,ni_sequenzen,NI_Sequenzen,,,,,,,,,,,,,,
,Screen_4,canvas.Screen,0_0_16_3,,skipped,17,7889,,,7862,,7890,2021-10-29T09:46:01.283Z,8081.48,1635459224,full,ni_sequenzen,NI_Sequenzen,,,,,,,,,,,,,,
,Sequence,flow.Sequence,0_0_16,,completion,17,7859,,,7862,,7890,2021-10-29T09:46:01.283Z,8081.48,1635459224,full,ni_sequenzen,NI_Sequenzen,,,,,,,,,,,,,,
,Screen_1,canvas.Screen,0_0_17_0,,skipped,18,7896,,,7896,,7896,2021-10-29T09:46:01.289Z,8081.48,1635459224,full,ni_sequenzen,NI_Sequenzen,,,,,,,,,,,,,,
,Screen_2,canvas.Screen,0_0_17_1,,skipped,18,7906,,,7896,,7906,2021-10-29T09:46:01.298Z,8081.48,1635459224,full,ni_sequenzen,NI_Sequenzen,,,,,,,,,,,,,,
,Screen_3,canvas.Screen,0_0_17_2,,skipped,18,7911,,,7896,,7911,2021-10-29T09:46:01.304Z,8081.48,1635459224,full,ni_sequenzen,NI_Sequenzen,,,,,,,,,,,,,,
,Screen_4,canvas.Screen,0_0_17_3,,skipped,18,7923,,,7896,,7923,2021-10-29T09:46:01.316Z,8081.48,1635459224,full,ni_sequenzen,NI_Sequenzen,,,,,,,,,,,,,,
,Sequence,flow.Sequence,0_0_17,,completion,18,7892,,,7896,,7924,2021-10-29T09:46:01.317Z,8081.48,1635459224,full,ni_sequenzen,NI_Sequenzen,,,,,,,,,,,,,,
,Screen_1,canvas.Screen,0_0_18_0,,skipped,19,7929,,,7929,,7930,2021-10-29T09:46:01.323Z,8081.48,1635459224,full,ni_sequenzen,NI_Sequenzen,,,,,,,,,,,,,,
,Screen_2,canvas.Screen,0_0_18_1,,skipped,19,7940,,,7929,,7940,2021-10-29T09:46:01.333Z,8081.48,1635459224,full,ni_sequenzen,NI_Sequenzen,,,,,,,,,,,,,,
,Screen_3,canvas.Screen,0_0_18_2,,skipped,19,7946,,,7929,,7946,2021-10-29T09:46:01.339Z,8081.48,1635459224,full,ni_sequenzen,NI_Sequenzen,,,,,,,,,,,,,,
,Screen_4,canvas.Screen,0_0_18_3,,skipped,19,7956,,,7929,,7957,2021-10-29T09:46:01.350Z,8081.48,1635459224,full,ni_sequenzen,NI_Sequenzen,,,,,,,,,,,,,,
,Sequence,flow.Sequence,0_0_18,,completion,19,7925,,,7929,,7957,2021-10-29T09:46:01.350Z,8081.48,1635459224,full,ni_sequenzen,NI_Sequenzen,,,,,,,,,,,,,,
,Screen_1,canvas.Screen,0_0_19_0,,skipped,20,7963,,,7963,,7963,2021-10-29T09:46:01.355Z,8081.48,1635459224,full,ni_sequenzen,NI_Sequenzen,,,,,,,,,,,,,,
,Screen_2,canvas.Screen,0_0_19_1,,skipped,20,7973,,,7963,,7973,2021-10-29T09:46:01.365Z,8081.48,1635459224,full,ni_sequenzen,NI_Sequenzen,,,,,,,,,,,,,,
,Screen_3,canvas.Screen,0_0_19_2,,skipped,20,7978,,,7963,,7978,2021-10-29T09:46:01.371Z,8081.48,1635459224,full,ni_sequenzen,NI_Sequenzen,,,,,,,,,,,,,,
,Screen_4,canvas.Screen,0_0_19_3,,skipped,20,7990,,,7963,,7990,2021-10-29T09:46:01.383Z,8081.48,1635459224,full,ni_sequenzen,NI_Sequenzen,,,,,,,,,,,,,,
,Sequence,flow.Sequence,0_0_19,,completion,20,7959,,,7963,,7990,2021-10-29T09:46:01.383Z,8081.48,1635459224,full,ni_sequenzen,NI_Sequenzen,,,,,,,,,,,,,,
,Instructions_I,flow.Loop,0_0,,completion,,1463,1564.06,1616.36,7963,6346.64,7991,2021-10-29T09:46:01.384Z,8081.48,1635459224,full,ni_sequenzen,NI_Sequenzen,,,,,,,,,,,,,,
,Move,canvas.Screen,0_1_0_0,down,response,,8059,8059.06,8081.48,9891,1809.5200000000004,9894,2021-10-29T09:46:03.287Z,9931.04,1635459224,full,ni_sequenzen,NI_Sequenzen,1,,,,,,,,,,,,,
,Move,canvas.Screen,0_1_0_1,right,response,,9923,9923.6,9931.04,10204,272.9599999999991,10207,2021-10-29T09:46:03.600Z,10230.94,1635459224,full,ni_sequenzen,NI_Sequenzen,2,,,,,,,,,,,,,
,Move,canvas.Screen,0_1_0_2,down,response,,10231,10230.32,10230.94,10688,457.0599999999995,10706,2021-10-29T09:46:04.100Z,10747.54,1635459224,full,ni_sequenzen,NI_Sequenzen,3,,,,,,,,,,,,,
,Move,canvas.Screen,0_1_0_3,right,response,,10743,10742.8,10747.54,11001,253.45999999999913,11017,2021-10-29T09:46:04.411Z,11064.1,1635459224,full,ni_sequenzen,NI_Sequenzen,4,,,,,,,,,,,,,
,Move,canvas.Screen,0_1_0_4,down,response,,11058,11057.78,11064.1,11766,701.8999999999996,11774,2021-10-29T09:46:05.167Z,11797.28,1635459224,full,ni_sequenzen,NI_Sequenzen,5,,,,,,,,,,,,,
,Move,canvas.Screen,0_1_0_5,left,response,,11797,11796.2,11797.28,12078,280.71999999999935,12094,2021-10-29T09:46:05.487Z,12147.18,1635459224,full,ni_sequenzen,NI_Sequenzen,6,,,,,,,,,,,,,
,Move,canvas.Screen,0_1_0_6,left,response,,12136,12137.08,12147.18,12313,165.8199999999997,12321,2021-10-29T09:46:05.715Z,12513.74,1635459224,full,ni_sequenzen,NI_Sequenzen,7,,,,,,,,,,,,,
,Move,canvas.Screen,0_1_0_7,left,response,,12347,12346.56,12513.74,12532,18.26000000000022,12545,2021-10-29T09:46:05.939Z,12580.38,1635459224,full,ni_sequenzen,NI_Sequenzen,8,,,,,,,,,,,,,
,Move,canvas.Screen,0_1_0_8,down,response,,12574,12574.04,12580.38,13220,639.6200000000008,13223,2021-10-29T09:46:06.616Z,13246.92,1635459224,full,ni_sequenzen,NI_Sequenzen,9,,,,,,,,,,,,,
,Move,canvas.Screen,0_1_0_9,down,response,,13245,13244.42,13246.92,13532,285.0799999999999,13552,2021-10-29T09:46:06.946Z,13580.16,1635459224,full,ni_sequenzen,NI_Sequenzen,10,,,,,,,,,,,,,
,Move,canvas.Screen,0_1_0_10,right,response,,13576,13576.22,13580.16,13845,264.84000000000015,13857,2021-10-29T09:46:07.250Z,13880.06,1635459224,full,ni_sequenzen,NI_Sequenzen,11,,,,,,,,,,,,,
,Move,canvas.Screen,0_1_0_11,down,response,,13880,13879.52,13880.06,14376,495.9400000000005,14388,2021-10-29T09:46:07.782Z,14413.28,1635459224,full,ni_sequenzen,NI_Sequenzen,12,,,,,,,,,,,,,
,Move,canvas.Screen,0_1_0_12,right,response,,14411,14410.4,14413.28,14751,337.71999999999935,14759,2021-10-29T09:46:08.152Z,14796.52,1635459224,full,ni_sequenzen,NI_Sequenzen,13,,,,,,,,,,,,,
,Move,canvas.Screen,0_1_0_13,down,response,,14781,14780.96,14796.52,15345,548.4799999999996,15357,2021-10-29T09:46:08.750Z,15379.7,1635459224,full,ni_sequenzen,NI_Sequenzen,14,,,,,,,,,,,,,
,Move,canvas.Screen,0_1_0_14,left,response,,15377,15376.88,15379.7,15720,340.2999999999993,15737,2021-10-29T09:46:09.130Z,15762.92,1635459224,full,ni_sequenzen,NI_Sequenzen,15,,,,,,,,,,,,,
,Move,canvas.Screen,0_1_0_15,left,response,,15758,15758.22,15762.92,16345,582.0799999999999,16360,2021-10-29T09:46:09.753Z,16396.08,1635459224,full,ni_sequenzen,NI_Sequenzen,16,,,,,,,,,,,,,
,Move,canvas.Screen,0_1_0_16,right,response,,16387,16387.02,16396.08,16751,354.91999999999825,16758,2021-10-29T09:46:10.150Z,16796.04,1635459224,full,ni_sequenzen,NI_Sequenzen,17,,,,,,,,,,,,,
,Move,canvas.Screen,0_1_0_17,down,response,,16780,16780.08,16796.04,17626,829.9599999999991,17635,2021-10-29T09:46:11.029Z,17662.5,1635459224,full,ni_sequenzen,NI_Sequenzen,18,,,,,,,,,,,,,
,Move,canvas.Screen,0_1_0_18,down,response,,17657,17657.2,17662.5,17985,322.5,17987,2021-10-29T09:46:11.380Z,18012.42,1635459224,full,ni_sequenzen,NI_Sequenzen,19,,,,,,,,,,,,,
,Move,canvas.Screen,0_1_0_19,down,response,,18010,18009.24,18012.42,18298,285.58000000000175,18305,2021-10-29T09:46:11.697Z,18329,1635459224,full,ni_sequenzen,NI_Sequenzen,20,,,,,,,,,,,,,
,Move,canvas.Screen,0_1_0_20,right,response,,18326,18325.46,18329,18688,359,18704,2021-10-29T09:46:12.096Z,18728.9,1635459224,full,ni_sequenzen,NI_Sequenzen,21,,,,,,,,,,,,,
,Move,canvas.Screen,0_1_0_21,down,response,,18726,18725.68,18728.9,19157,428.09999999999854,19159,2021-10-29T09:46:12.552Z,19195.44,1635459224,full,ni_sequenzen,NI_Sequenzen,22,,,,,,,,,,,,,
,Move,canvas.Screen,0_1_0_22,right,response,,19185,19185.4,19195.44,19453,257.5600000000013,19462,2021-10-29T09:46:12.856Z,19495.36,1635459224,full,ni_sequenzen,NI_Sequenzen,23,,,,,,,,,,,,,
,Move,canvas.Screen,0_1_0_23,left,response,,19488,19487.92,19495.36,19907,411.6399999999994,19917,2021-10-29T09:46:13.311Z,19945.26,1635459224,full,ni_sequenzen,NI_Sequenzen,24,,,,,,,,,,,,,
,Move,canvas.Screen,0_1_0_24,down,response,,19941,19940.46,19945.26,20376,430.7400000000016,20377,2021-10-29T09:46:13.770Z,20411.84,1635459224,full,ni_sequenzen,NI_Sequenzen,25,,,,,,,,,,,,,
,Move,canvas.Screen,0_1_0_25,down,response,,20404,20404.46,20411.84,20704,292.15999999999985,20720,2021-10-29T09:46:14.113Z,20745.06,1635459224,full,ni_sequenzen,NI_Sequenzen,26,,,,,,,,,,,,,
,Move,canvas.Screen,0_1_0_26,right,response,,20741,20741,20745.06,21031,285.9399999999987,21037,2021-10-29T09:46:14.430Z,21061.62,1635459224,full,ni_sequenzen,NI_Sequenzen,27,,,,,,,,,,,,,
,Move,canvas.Screen,0_1_0_27,left,response,,21059,21059.06,21061.62,22015,953.380000000001,22024,2021-10-29T09:46:15.418Z,22061.4,1635459224,full,ni_sequenzen,NI_Sequenzen,28,,,,,,,,,,,,,
,Move,canvas.Screen,0_1_0_28,right,response,,22054,22054.4,22061.4,22516,454.59999999999854,22520,2021-10-29T09:46:15.914Z,22544.6,1635459224,full,ni_sequenzen,NI_Sequenzen,29,,,,,,,,,,,,,
,Move,canvas.Screen,0_1_0_29,down,response,,22543,22543.08,22544.6,23220,675.4000000000015,23235,2021-10-29T09:46:16.627Z,23344.4,1635459224,full,ni_sequenzen,NI_Sequenzen,30,,,,,,,,,,,,,
,Loop,flow.Loop,0_1_0,-999,completion,,8020,8059.06,8081.48,23220,15138.52,23236,2021-10-29T09:46:16.628Z,23344.4,1635459224,full,ni_sequenzen,NI_Sequenzen,,,,,,,,,,,,,,
,Training_I,flow.Sequence,0_1,,completion,,7992,8059.06,8081.48,23220,15138.52,23236,2021-10-29T09:46:16.628Z,23344.4,1635459224,full,ni_sequenzen,NI_Sequenzen,,,,,,,,,,,,,,
,Screen_1,canvas.Screen,0_2_0_0,cont,response,1,23343,23342.94,23344.4,24266,921.5999999999985,24269,2021-10-29T09:46:17.662Z,24460.82,1635459224,full,ni_sequenzen,NI_Sequenzen,,,,,,,,,,,,,,
,Screen_2,canvas.Screen,0_2_0_1,cont,response,1,24456,24456.22,24460.82,25548,1087.1800000000003,25553,2021-10-29T09:46:18.946Z,25577.2,1635459224,full,ni_sequenzen,NI_Sequenzen,,,,,,,,,,,,,,
,Screen_3,canvas.Screen,0_2_0_2,cont,response,1,25562,25562.38,25577.2,39453,13875.8,39466,2021-10-29T09:46:32.859Z,39573.78,1635459224,full,ni_sequenzen,NI_Sequenzen,,,,,,,,,,,,,,
,Screen_4,canvas.Screen,0_2_0_3,cont,response,1,39569,39568.9,39573.78,40454,880.2200000000012,40465,2021-10-29T09:46:33.858Z,40490.22,1635459224,full,ni_sequenzen,NI_Sequenzen,,,,,,,,,,,,,,
,Screen_5,canvas.Screen,0_2_0_4,cont,response,1,40489,40488.84,40490.22,40922,431.77999999999884,40933,2021-10-29T09:46:34.326Z,41056.76,1635459224,full,ni_sequenzen,NI_Sequenzen,,,,,,,,,,,,,,
,Screen_6,canvas.Screen,0_2_0_5,cont,response,1,41049,41048.76,41056.76,41391,334.23999999999796,41400,2021-10-29T09:46:34.794Z,42989.64,1635459224,full,ni_sequenzen,NI_Sequenzen,,,,,,,,,,,,,,
,Sequence,flow.Sequence,0_2_0,,completion,1,23336,23342.94,23344.4,41391,18046.6,41401,2021-10-29T09:46:34.794Z,42989.64,1635459224,full,ni_sequenzen,NI_Sequenzen,,,,,,,,,,,,,,
,Screen_1,canvas.Screen,0_2_1_0,,skipped,2,41417,,,41417,,41417,2021-10-29T09:46:34.810Z,42989.64,1635459224,full,ni_sequenzen,NI_Sequenzen,,,,,,,,,,,,,,
,Screen_2,canvas.Screen,0_2_1_1,,skipped,2,41422,,,41417,,41422,2021-10-29T09:46:34.815Z,42989.64,1635459224,full,ni_sequenzen,NI_Sequenzen,,,,,,,,,,,,,,
,Screen_3,canvas.Screen,0_2_1_2,,skipped,2,41432,,,41417,,41432,2021-10-29T09:46:34.826Z,42989.64,1635459224,full,ni_sequenzen,NI_Sequenzen,,,,,,,,,,,,,,
,Screen_4,canvas.Screen,0_2_1_3,,skipped,2,41438,,,41417,,41438,2021-10-29T09:46:34.831Z,42989.64,1635459224,full,ni_sequenzen,NI_Sequenzen,,,,,,,,,,,,,,
,Screen_5,canvas.Screen,0_2_1_4,,skipped,2,41449,,,41417,,41449,2021-10-29T09:46:34.842Z,42989.64,1635459224,full,ni_sequenzen,NI_Sequenzen,,,,,,,,,,,,,,
,Screen_6,canvas.Screen,0_2_1_5,,skipped,2,41455,,,41417,,41455,2021-10-29T09:46:34.848Z,42989.64,1635459224,full,ni_sequenzen,NI_Sequenzen,,,,,,,,,,,,,,
,Sequence,flow.Sequence,0_2_1,,completion,2,41404,,,41417,,41455,2021-10-29T09:46:34.849Z,42989.64,1635459224,full,ni_sequenzen,NI_Sequenzen,,,,,,,,,,,,,,
,Screen_1,canvas.Screen,0_2_2_0,,skipped,3,41467,,,41467,,41467,2021-10-29T09:46:34.860Z,42989.64,1635459224,full,ni_sequenzen,NI_Sequenzen,,,,,,,,,,,,,,
,Screen_2,canvas.Screen,0_2_2_1,,skipped,3,41472,,,41467,,41473,2021-10-29T09:46:34.866Z,42989.64,1635459224,full,ni_sequenzen,NI_Sequenzen,,,,,,,,,,,,,,
,Screen_3,canvas.Screen,0_2_2_2,,skipped,3,41483,,,41467,,41484,2021-10-29T09:46:34.877Z,42989.64,1635459224,full,ni_sequenzen,NI_Sequenzen,,,,,,,,,,,,,,
,Screen_4,canvas.Screen,0_2_2_3,,skipped,3,41488,,,41467,,41489,2021-10-29T09:46:34.882Z,42989.64,1635459224,full,ni_sequenzen,NI_Sequenzen,,,,,,,,,,,,,,
,Screen_5,canvas.Screen,0_2_2_4,,skipped,3,41499,,,41467,,41499,2021-10-29T09:46:34.892Z,42989.64,1635459224,full,ni_sequenzen,NI_Sequenzen,,,,,,,,,,,,,,
,Screen_6,canvas.Screen,0_2_2_5,,skipped,3,41504,,,41467,,41504,2021-10-29T09:46:34.897Z,42989.64,1635459224,full,ni_sequenzen,NI_Sequenzen,,,,,,,,,,,,,,
,Sequence,flow.Sequence,0_2_2,,completion,3,41457,,,41467,,41504,2021-10-29T09:46:34.897Z,42989.64,1635459224,full,ni_sequenzen,NI_Sequenzen,,,,,,,,,,,,,,
,Screen_1,canvas.Screen,0_2_3_0,,skipped,4,41517,,,41517,,41517,2021-10-29T09:46:34.910Z,42989.64,1635459224,full,ni_sequenzen,NI_Sequenzen,,,,,,,,,,,,,,
,Screen_2,canvas.Screen,0_2_3_1,,skipped,4,41522,,,41517,,41522,2021-10-29T09:46:34.915Z,42989.64,1635459224,full,ni_sequenzen,NI_Sequenzen,,,,,,,,,,,,,,
,Screen_3,canvas.Screen,0_2_3_2,,skipped,4,41533,,,41517,,41533,2021-10-29T09:46:34.926Z,42989.64,1635459224,full,ni_sequenzen,NI_Sequenzen,,,,,,,,,,,,,,
,Screen_4,canvas.Screen,0_2_3_3,,skipped,4,41539,,,41517,,41539,2021-10-29T09:46:34.932Z,42989.64,1635459224,full,ni_sequenzen,NI_Sequenzen,,,,,,,,,,,,,,
,Screen_5,canvas.Screen,0_2_3_4,,skipped,4,41550,,,41517,,41550,2021-10-29T09:46:34.943Z,42989.64,1635459224,full,ni_sequenzen,NI_Sequenzen,,,,,,,,,,,,,,
,Screen_6,canvas.Screen,0_2_3_5,,skipped,4,41556,,,41517,,41556,2021-10-29T09:46:34.948Z,42989.64,1635459224,full,ni_sequenzen,NI_Sequenzen,,,,,,,,,,,,,,
,Sequence,flow.Sequence,0_2_3,,completion,4,41506,,,41517,,41556,2021-10-29T09:46:34.949Z,42989.64,1635459224,full,ni_sequenzen,NI_Sequenzen,,,,,,,,,,,,,,
,Screen_1,canvas.Screen,0_2_4_0,,skipped,5,41568,,,41568,,41568,2021-10-29T09:46:34.961Z,42989.64,1635459224,full,ni_sequenzen,NI_Sequenzen,,,,,,,,,,,,,,
,Screen_2,canvas.Screen,0_2_4_1,,skipped,5,41573,,,41568,,41574,2021-10-29T09:46:34.967Z,42989.64,1635459224,full,ni_sequenzen,NI_Sequenzen,,,,,,,,,,,,,,
,Screen_3,canvas.Screen,0_2_4_2,,skipped,5,41584,,,41568,,41584,2021-10-29T09:46:34.977Z,42989.64,1635459224,full,ni_sequenzen,NI_Sequenzen,,,,,,,,,,,,,,
,Screen_4,canvas.Screen,0_2_4_3,,skipped,5,41589,,,41568,,41589,2021-10-29T09:46:34.982Z,42989.64,1635459224,full,ni_sequenzen,NI_Sequenzen,,,,,,,,,,,,,,
,Screen_5,canvas.Screen,0_2_4_4,,skipped,5,41601,,,41568,,41601,2021-10-29T09:46:34.993Z,42989.64,1635459224,full,ni_sequenzen,NI_Sequenzen,,,,,,,,,,,,,,
,Screen_6,canvas.Screen,0_2_4_5,,skipped,5,41605,,,41568,,41606,2021-10-29T09:46:34.999Z,42989.64,1635459224,full,ni_sequenzen,NI_Sequenzen,,,,,,,,,,,,,,
,Sequence,flow.Sequence,0_2_4,,completion,5,41564,,,41568,,41606,2021-10-29T09:46:34.999Z,42989.64,1635459224,full,ni_sequenzen,NI_Sequenzen,,,,,,,,,,,,,,
,Screen_1,canvas.Screen,0_2_5_0,,skipped,6,41619,,,41619,,41619,2021-10-29T09:46:35.011Z,42989.64,1635459224,full,ni_sequenzen,NI_Sequenzen,,,,,,,,,,,,,,
,Screen_2,canvas.Screen,0_2_5_1,,skipped,6,41624,,,41619,,41625,2021-10-29T09:46:35.018Z,42989.64,1635459224,full,ni_sequenzen,NI_Sequenzen,,,,,,,,,,,,,,
,Screen_3,canvas.Screen,0_2_5_2,,skipped,6,41635,,,41619,,41635,2021-10-29T09:46:35.028Z,42989.64,1635459224,full,ni_sequenzen,NI_Sequenzen,,,,,,,,,,,,,,
,Screen_4,canvas.Screen,0_2_5_3,,skipped,6,41642,,,41619,,41642,2021-10-29T09:46:35.035Z,42989.64,1635459224,full,ni_sequenzen,NI_Sequenzen,,,,,,,,,,,,,,
,Screen_5,canvas.Screen,0_2_5_4,,skipped,6,41652,,,41619,,41652,2021-10-29T09:46:35.045Z,42989.64,1635459224,full,ni_sequenzen,NI_Sequenzen,,,,,,,,,,,,,,
,Screen_6,canvas.Screen,0_2_5_5,,skipped,6,41662,,,41619,,41663,2021-10-29T09:46:35.056Z,42989.64,1635459224,full,ni_sequenzen,NI_Sequenzen,,,,,,,,,,,,,,
,Sequence,flow.Sequence,0_2_5,,completion,6,41611,,,41619,,41664,2021-10-29T09:46:35.057Z,42989.64,1635459224,full,ni_sequenzen,NI_Sequenzen,,,,,,,,,,,,,,
,Screen_1,canvas.Screen,0_2_6_0,,skipped,7,41670,,,41670,,41670,2021-10-29T09:46:35.064Z,42989.64,1635459224,full,ni_sequenzen,NI_Sequenzen,,,,,,,,,,,,,,
,Screen_2,canvas.Screen,0_2_6_1,,skipped,7,41682,,,41670,,41682,2021-10-29T09:46:35.075Z,42989.64,1635459224,full,ni_sequenzen,NI_Sequenzen,,,,,,,,,,,,,,
,Screen_3,canvas.Screen,0_2_6_2,,skipped,7,41687,,,41670,,41688,2021-10-29T09:46:35.081Z,42989.64,1635459224,full,ni_sequenzen,NI_Sequenzen,,,,,,,,,,,,,,
,Screen_4,canvas.Screen,0_2_6_3,,skipped,7,41699,,,41670,,41699,2021-10-29T09:46:35.092Z,42989.64,1635459224,full,ni_sequenzen,NI_Sequenzen,,,,,,,,,,,,,,
,Screen_5,canvas.Screen,0_2_6_4,,skipped,7,41703,,,41670,,41703,2021-10-29T09:46:35.097Z,42989.64,1635459224,full,ni_sequenzen,NI_Sequenzen,,,,,,,,,,,,,,
,Screen_6,canvas.Screen,0_2_6_5,,skipped,7,41713,,,41670,,41713,2021-10-29T09:46:35.106Z,42989.64,1635459224,full,ni_sequenzen,NI_Sequenzen,,,,,,,,,,,,,,
,Sequence,flow.Sequence,0_2_6,,completion,7,41666,,,41670,,41715,2021-10-29T09:46:35.107Z,42989.64,1635459224,full,ni_sequenzen,NI_Sequenzen,,,,,,,,,,,,,,
,Screen_1,canvas.Screen,0_2_7_0,,skipped,8,41721,,,41721,,41721,2021-10-29T09:46:35.113Z,42989.64,1635459224,full,ni_sequenzen,NI_Sequenzen,,,,,,,,,,,,,,
,Screen_2,canvas.Screen,0_2_7_1,,skipped,8,41730,,,41721,,41731,2021-10-29T09:46:35.123Z,42989.64,1635459224,full,ni_sequenzen,NI_Sequenzen,,,,,,,,,,,,,,
,Screen_3,canvas.Screen,0_2_7_2,,skipped,8,41735,,,41721,,41736,2021-10-29T09:46:35.129Z,42989.64,1635459224,full,ni_sequenzen,NI_Sequenzen,,,,,,,,,,,,,,
,Screen_4,canvas.Screen,0_2_7_3,,skipped,8,41741,,,41721,,41742,2021-10-29T09:46:35.136Z,42989.64,1635459224,full,ni_sequenzen,NI_Sequenzen,,,,,,,,,,,,,,
,Screen_5,canvas.Screen,0_2_7_4,,skipped,8,41751,,,41721,,41751,2021-10-29T09:46:35.144Z,42989.64,1635459224,full,ni_sequenzen,NI_Sequenzen,,,,,,,,,,,,,,
,Screen_6,canvas.Screen,0_2_7_5,,skipped,8,41757,,,41721,,41757,2021-10-29T09:46:35.150Z,42989.64,1635459224,full,ni_sequenzen,NI_Sequenzen,,,,,,,,,,,,,,
,Sequence,flow.Sequence,0_2_7,,completion,8,41716,,,41721,,41758,2021-10-29T09:46:35.151Z,42989.64,1635459224,full,ni_sequenzen,NI_Sequenzen,,,,,,,,,,,,,,
,Screen_1,canvas.Screen,0_2_8_0,,skipped,9,41768,,,41768,,41768,2021-10-29T09:46:35.162Z,42989.64,1635459224,full,ni_sequenzen,NI_Sequenzen,,,,,,,,,,,,,,
,Screen_2,canvas.Screen,0_2_8_1,,skipped,9,41773,,,41768,,41773,2021-10-29T09:46:35.167Z,42989.64,1635459224,full,ni_sequenzen,NI_Sequenzen,,,,,,,,,,,,,,
,Screen_3,canvas.Screen,0_2_8_2,,skipped,9,41784,,,41768,,41784,2021-10-29T09:46:35.177Z,42989.64,1635459224,full,ni_sequenzen,NI_Sequenzen,,,,,,,,,,,,,,
,Screen_4,canvas.Screen,0_2_8_3,,skipped,9,41788,,,41768,,41788,2021-10-29T09:46:35.182Z,42989.64,1635459224,full,ni_sequenzen,NI_Sequenzen,,,,,,,,,,,,,,
,Screen_5,canvas.Screen,0_2_8_4,,skipped,9,41800,,,41768,,41800,2021-10-29T09:46:35.193Z,42989.64,1635459224,full,ni_sequenzen,NI_Sequenzen,,,,,,,,,,,,,,
,Screen_6,canvas.Screen,0_2_8_5,,skipped,9,41805,,,41768,,41805,2021-10-29T09:46:35.199Z,42989.64,1635459224,full,ni_sequenzen,NI_Sequenzen,,,,,,,,,,,,,,
,Sequence,flow.Sequence,0_2_8,,completion,9,41764,,,41768,,41806,2021-10-29T09:46:35.199Z,42989.64,1635459224,full,ni_sequenzen,NI_Sequenzen,,,,,,,,,,,,,,
,Screen_1,canvas.Screen,0_2_9_0,,skipped,10,41818,,,41818,,41818,2021-10-29T09:46:35.211Z,42989.64,1635459224,full,ni_sequenzen,NI_Sequenzen,,,,,,,,,,,,,,
,Screen_2,canvas.Screen,0_2_9_1,,skipped,10,41823,,,41818,,41823,2021-10-29T09:46:35.216Z,42989.64,1635459224,full,ni_sequenzen,NI_Sequenzen,,,,,,,,,,,,,,
,Screen_3,canvas.Screen,0_2_9_2,,skipped,10,41833,,,41818,,41833,2021-10-29T09:46:35.227Z,42989.64,1635459224,full,ni_sequenzen,NI_Sequenzen,,,,,,,,,,,,,,
,Screen_4,canvas.Screen,0_2_9_3,,skipped,10,41838,,,41818,,41838,2021-10-29T09:46:35.230Z,42989.64,1635459224,full,ni_sequenzen,NI_Sequenzen,,,,,,,,,,,,,,
,Screen_5,canvas.Screen,0_2_9_4,,skipped,10,41848,,,41818,,41848,2021-10-29T09:46:35.241Z,42989.64,1635459224,full,ni_sequenzen,NI_Sequenzen,,,,,,,,,,,,,,
,Screen_6,canvas.Screen,0_2_9_5,,skipped,10,41852,,,41818,,41852,2021-10-29T09:46:35.245Z,42989.64,1635459224,full,ni_sequenzen,NI_Sequenzen,,,,,,,,,,,,,,
,Sequence,flow.Sequence,0_2_9,,completion,10,41812,,,41818,,41853,2021-10-29T09:46:35.246Z,42989.64,1635459224,full,ni_sequenzen,NI_Sequenzen,,,,,,,,,,,,,,
,Screen_1,canvas.Screen,0_2_10_0,,skipped,11,41864,,,41864,,41864,2021-10-29T09:46:35.257Z,42989.64,1635459224,full,ni_sequenzen,NI_Sequenzen,,,,,,,,,,,,,,
,Screen_2,canvas.Screen,0_2_10_1,,skipped,11,41868,,,41864,,41868,2021-10-29T09:46:35.261Z,42989.64,1635459224,full,ni_sequenzen,NI_Sequenzen,,,,,,,,,,,,,,
,Screen_3,canvas.Screen,0_2_10_2,,skipped,11,41876,,,41864,,41881,2021-10-29T09:46:35.273Z,42989.64,1635459224,full,ni_sequenzen,NI_Sequenzen,,,,,,,,,,,,,,
,Screen_4,canvas.Screen,0_2_10_3,,skipped,11,41886,,,41864,,41887,2021-10-29T09:46:35.279Z,42989.64,1635459224,full,ni_sequenzen,NI_Sequenzen,,,,,,,,,,,,,,
,Screen_5,canvas.Screen,0_2_10_4,,skipped,11,41891,,,41864,,41892,2021-10-29T09:46:35.285Z,42989.64,1635459224,full,ni_sequenzen,NI_Sequenzen,,,,,,,,,,,,,,
,Screen_6,canvas.Screen,0_2_10_5,,skipped,11,41901,,,41864,,41901,2021-10-29T09:46:35.295Z,42989.64,1635459224,full,ni_sequenzen,NI_Sequenzen,,,,,,,,,,,,,,
,Sequence,flow.Sequence,0_2_10,,completion,11,41854,,,41864,,41901,2021-10-29T09:46:35.295Z,42989.64,1635459224,full,ni_sequenzen,NI_Sequenzen,,,,,,,,,,,,,,
,Screen_1,canvas.Screen,0_2_11_0,,skipped,12,41909,,,41909,,41909,2021-10-29T09:46:35.302Z,42989.64,1635459224,full,ni_sequenzen,NI_Sequenzen,,,,,,,,,,,,,,
,Screen_2,canvas.Screen,0_2_11_1,,skipped,12,41917,,,41909,,41918,2021-10-29T09:46:35.311Z,42989.64,1635459224,full,ni_sequenzen,NI_Sequenzen,,,,,,,,,,,,,,
,Screen_3,canvas.Screen,0_2_11_2,,skipped,12,41922,,,41909,,41922,2021-10-29T09:46:35.315Z,42989.64,1635459224,full,ni_sequenzen,NI_Sequenzen,,,,,,,,,,,,,,
,Screen_4,canvas.Screen,0_2_11_3,,skipped,12,41932,,,41909,,41932,2021-10-29T09:46:35.325Z,42989.64,1635459224,full,ni_sequenzen,NI_Sequenzen,,,,,,,,,,,,,,
,Screen_5,canvas.Screen,0_2_11_4,,skipped,12,41936,,,41909,,41937,2021-10-29T09:46:35.329Z,42989.64,1635459224,full,ni_sequenzen,NI_Sequenzen,,,,,,,,,,,,,,
,Screen_6,canvas.Screen,0_2_11_5,,skipped,12,41942,,,41909,,41942,2021-10-29T09:46:35.334Z,42989.64,1635459224,full,ni_sequenzen,NI_Sequenzen,,,,,,,,,,,,,,
,Sequence,flow.Sequence,0_2_11,,completion,12,41904,,,41909,,41942,2021-10-29T09:46:35.334Z,42989.64,1635459224,full,ni_sequenzen,NI_Sequenzen,,,,,,,,,,,,,,
,Screen_1,canvas.Screen,0_2_12_0,,skipped,13,41952,,,41952,,41952,2021-10-29T09:46:35.345Z,42989.64,1635459224,full,ni_sequenzen,NI_Sequenzen,,,,,,,,,,,,,,
,Screen_2,canvas.Screen,0_2_12_1,,skipped,13,41956,,,41952,,41956,2021-10-29T09:46:35.349Z,42989.64,1635459224,full,ni_sequenzen,NI_Sequenzen,,,,,,,,,,,,,,
,Screen_3,canvas.Screen,0_2_12_2,,skipped,13,41966,,,41952,,41966,2021-10-29T09:46:35.360Z,42989.64,1635459224,full,ni_sequenzen,NI_Sequenzen,,,,,,,,,,,,,,
,Screen_4,canvas.Screen,0_2_12_3,,skipped,13,41970,,,41952,,41970,2021-10-29T09:46:35.363Z,42989.64,1635459224,full,ni_sequenzen,NI_Sequenzen,,,,,,,,,,,,,,
,Screen_5,canvas.Screen,0_2_12_4,,skipped,13,41980,,,41952,,41980,2021-10-29T09:46:35.374Z,42989.64,1635459224,full,ni_sequenzen,NI_Sequenzen,,,,,,,,,,,,,,
,Screen_6,canvas.Screen,0_2_12_5,,skipped,13,41986,,,41952,,41986,2021-10-29T09:46:35.379Z,42989.64,1635459224,full,ni_sequenzen,NI_Sequenzen,,,,,,,,,,,,,,
,Sequence,flow.Sequence,0_2_12,,completion,13,41948,,,41952,,41986,2021-10-29T09:46:35.379Z,42989.64,1635459224,full,ni_sequenzen,NI_Sequenzen,,,,,,,,,,,,,,
,Screen_1,canvas.Screen,0_2_13_0,,skipped,14,41996,,,41996,,41996,2021-10-29T09:46:35.389Z,42989.64,1635459224,full,ni_sequenzen,NI_Sequenzen,,,,,,,,,,,,,,
,Screen_2,canvas.Screen,0_2_13_1,,skipped,14,42000,,,41996,,42001,2021-10-29T09:46:35.394Z,42989.64,1635459224,full,ni_sequenzen,NI_Sequenzen,,,,,,,,,,,,,,
,Screen_3,canvas.Screen,0_2_13_2,,skipped,14,42005,,,41996,,42006,2021-10-29T09:46:35.398Z,42989.64,1635459224,full,ni_sequenzen,NI_Sequenzen,,,,,,,,,,,,,,
,Screen_4,canvas.Screen,0_2_13_3,,skipped,14,42016,,,41996,,42016,2021-10-29T09:46:35.409Z,42989.64,1635459224,full,ni_sequenzen,NI_Sequenzen,,,,,,,,,,,,,,
,Screen_5,canvas.Screen,0_2_13_4,,skipped,14,42020,,,41996,,42020,2021-10-29T09:46:35.414Z,42989.64,1635459224,full,ni_sequenzen,NI_Sequenzen,,,,,,,,,,,,,,
,Screen_6,canvas.Screen,0_2_13_5,,skipped,14,42029,,,41996,,42030,2021-10-29T09:46:35.422Z,42989.64,1635459224,full,ni_sequenzen,NI_Sequenzen,,,,,,,,,,,,,,
,Sequence,flow.Sequence,0_2_13,,completion,14,41988,,,41996,,42030,2021-10-29T09:46:35.423Z,42989.64,1635459224,full,ni_sequenzen,NI_Sequenzen,,,,,,,,,,,,,,
,Screen_1,canvas.Screen,0_2_14_0,,skipped,15,42035,,,42035,,42035,2021-10-29T09:46:35.429Z,42989.64,1635459224,full,ni_sequenzen,NI_Sequenzen,,,,,,,,,,,,,,
,Screen_2,canvas.Screen,0_2_14_1,,skipped,15,42040,,,42035,,42041,2021-10-29T09:46:35.434Z,42989.64,1635459224,full,ni_sequenzen,NI_Sequenzen,,,,,,,,,,,,,,
,Screen_3,canvas.Screen,0_2_14_2,,skipped,15,42050,,,42035,,42050,2021-10-29T09:46:35.443Z,42989.64,1635459224,full,ni_sequenzen,NI_Sequenzen,,,,,,,,,,,,,,
,Screen_4,canvas.Screen,0_2_14_3,,skipped,15,42054,,,42035,,42054,2021-10-29T09:46:35.448Z,42989.64,1635459224,full,ni_sequenzen,NI_Sequenzen,,,,,,,,,,,,,,
,Screen_5,canvas.Screen,0_2_14_4,,skipped,15,42064,,,42035,,42064,2021-10-29T09:46:35.458Z,42989.64,1635459224,full,ni_sequenzen,NI_Sequenzen,,,,,,,,,,,,,,
,Screen_6,canvas.Screen,0_2_14_5,,skipped,15,42070,,,42035,,42070,2021-10-29T09:46:35.462Z,42989.64,1635459224,full,ni_sequenzen,NI_Sequenzen,,,,,,,,,,,,,,
,Sequence,flow.Sequence,0_2_14,,completion,15,42032,,,42035,,42070,2021-10-29T09:46:35.463Z,42989.64,1635459224,full,ni_sequenzen,NI_Sequenzen,,,,,,,,,,,,,,
,Screen_1,canvas.Screen,0_2_15_0,,skipped,16,42080,,,42080,,42080,2021-10-29T09:46:35.474Z,42989.64,1635459224,full,ni_sequenzen,NI_Sequenzen,,,,,,,,,,,,,,
,Screen_2,canvas.Screen,0_2_15_1,,skipped,16,42084,,,42080,,42085,2021-10-29T09:46:35.477Z,42989.64,1635459224,full,ni_sequenzen,NI_Sequenzen,,,,,,,,,,,,,,
,Screen_3,canvas.Screen,0_2_15_2,,skipped,16,42089,,,42080,,42090,2021-10-29T09:46:35.482Z,42989.64,1635459224,full,ni_sequenzen,NI_Sequenzen,,,,,,,,,,,,,,
,Screen_4,canvas.Screen,0_2_15_3,,skipped,16,42099,,,42080,,42099,2021-10-29T09:46:35.493Z,42989.64,1635459224,full,ni_sequenzen,NI_Sequenzen,,,,,,,,,,,,,,
,Screen_5,canvas.Screen,0_2_15_4,,skipped,16,42104,,,42080,,42104,2021-10-29T09:46:35.497Z,42989.64,1635459224,full,ni_sequenzen,NI_Sequenzen,,,,,,,,,,,,,,
,Screen_6,canvas.Screen,0_2_15_5,,skipped,16,42109,,,42080,,42110,2021-10-29T09:46:35.503Z,42989.64,1635459224,full,ni_sequenzen,NI_Sequenzen,,,,,,,,,,,,,,
,Sequence,flow.Sequence,0_2_15,,completion,16,42071,,,42080,,42112,2021-10-29T09:46:35.506Z,42989.64,1635459224,full,ni_sequenzen,NI_Sequenzen,,,,,,,,,,,,,,
,Screen_1,canvas.Screen,0_2_16_0,,skipped,17,42119,,,42119,,42119,2021-10-29T09:46:35.512Z,42989.64,1635459224,full,ni_sequenzen,NI_Sequenzen,,,,,,,,,,,,,,
,Screen_2,canvas.Screen,0_2_16_1,,skipped,17,42123,,,42119,,42123,2021-10-29T09:46:35.516Z,42989.64,1635459224,full,ni_sequenzen,NI_Sequenzen,,,,,,,,,,,,,,
,Screen_3,canvas.Screen,0_2_16_2,,skipped,17,42133,,,42119,,42133,2021-10-29T09:46:35.526Z,42989.64,1635459224,full,ni_sequenzen,NI_Sequenzen,,,,,,,,,,,,,,
,Screen_4,canvas.Screen,0_2_16_3,,skipped,17,42137,,,42119,,42137,2021-10-29T09:46:35.530Z,42989.64,1635459224,full,ni_sequenzen,NI_Sequenzen,,,,,,,,,,,,,,
,Screen_5,canvas.Screen,0_2_16_4,,skipped,17,42147,,,42119,,42147,2021-10-29T09:46:35.540Z,42989.64,1635459224,full,ni_sequenzen,NI_Sequenzen,,,,,,,,,,,,,,
,Screen_6,canvas.Screen,0_2_16_5,,skipped,17,42152,,,42119,,42152,2021-10-29T09:46:35.545Z,42989.64,1635459224,full,ni_sequenzen,NI_Sequenzen,,,,,,,,,,,,,,
,Sequence,flow.Sequence,0_2_16,,completion,17,42115,,,42119,,42153,2021-10-29T09:46:35.545Z,42989.64,1635459224,full,ni_sequenzen,NI_Sequenzen,,,,,,,,,,,,,,
,Screen_1,canvas.Screen,0_2_17_0,,skipped,18,42164,,,42164,,42164,2021-10-29T09:46:35.557Z,42989.64,1635459224,full,ni_sequenzen,NI_Sequenzen,,,,,,,,,,,,,,
,Screen_2,canvas.Screen,0_2_17_1,,skipped,18,42168,,,42164,,42169,2021-10-29T09:46:35.562Z,42989.64,1635459224,full,ni_sequenzen,NI_Sequenzen,,,,,,,,,,,,,,
,Screen_3,canvas.Screen,0_2_17_2,,skipped,18,42174,,,42164,,42174,2021-10-29T09:46:35.567Z,42989.64,1635459224,full,ni_sequenzen,NI_Sequenzen,,,,,,,,,,,,,,
,Screen_4,canvas.Screen,0_2_17_3,,skipped,18,42184,,,42164,,42184,2021-10-29T09:46:35.577Z,42989.64,1635459224,full,ni_sequenzen,NI_Sequenzen,,,,,,,,,,,,,,
,Screen_5,canvas.Screen,0_2_17_4,,skipped,18,42188,,,42164,,42188,2021-10-29T09:46:35.581Z,42989.64,1635459224,full,ni_sequenzen,NI_Sequenzen,,,,,,,,,,,,,,
,Screen_6,canvas.Screen,0_2_17_5,,skipped,18,42199,,,42164,,42199,2021-10-29T09:46:35.592Z,42989.64,1635459224,full,ni_sequenzen,NI_Sequenzen,,,,,,,,,,,,,,
,Sequence,flow.Sequence,0_2_17,,completion,18,42154,,,42164,,42199,2021-10-29T09:46:35.593Z,42989.64,1635459224,full,ni_sequenzen,NI_Sequenzen,,,,,,,,,,,,,,
,Screen_1,canvas.Screen,0_2_18_0,,skipped,19,42204,,,42204,,42205,2021-10-29T09:46:35.598Z,42989.64,1635459224,full,ni_sequenzen,NI_Sequenzen,,,,,,,,,,,,,,
,Screen_2,canvas.Screen,0_2_18_1,,skipped,19,42216,,,42204,,42216,2021-10-29T09:46:35.609Z,42989.64,1635459224,full,ni_sequenzen,NI_Sequenzen,,,,,,,,,,,,,,
,Screen_3,canvas.Screen,0_2_18_2,,skipped,19,42220,,,42204,,42220,2021-10-29T09:46:35.613Z,42989.64,1635459224,full,ni_sequenzen,NI_Sequenzen,,,,,,,,,,,,,,
,Screen_4,canvas.Screen,0_2_18_3,,skipped,19,42231,,,42204,,42231,2021-10-29T09:46:35.624Z,42989.64,1635459224,full,ni_sequenzen,NI_Sequenzen,,,,,,,,,,,,,,
,Screen_5,canvas.Screen,0_2_18_4,,skipped,19,42236,,,42204,,42236,2021-10-29T09:46:35.630Z,42989.64,1635459224,full,ni_sequenzen,NI_Sequenzen,,,,,,,,,,,,,,
,Screen_6,canvas.Screen,0_2_18_5,,skipped,19,42247,,,42204,,42247,2021-10-29T09:46:35.640Z,42989.64,1635459224,full,ni_sequenzen,NI_Sequenzen,,,,,,,,,,,,,,
,Sequence,flow.Sequence,0_2_18,,completion,19,42201,,,42204,,42248,2021-10-29T09:46:35.641Z,42989.64,1635459224,full,ni_sequenzen,NI_Sequenzen,,,,,,,,,,,,,,
,Screen_1,canvas.Screen,0_2_19_0,,skipped,20,42255,,,42255,,42255,2021-10-29T09:46:35.648Z,42989.64,1635459224,full,ni_sequenzen,NI_Sequenzen,,,,,,,,,,,,,,
,Screen_2,canvas.Screen,0_2_19_1,,skipped,20,42267,,,42255,,42268,2021-10-29T09:46:35.660Z,42989.64,1635459224,full,ni_sequenzen,NI_Sequenzen,,,,,,,,,,,,,,
,Screen_3,canvas.Screen,0_2_19_2,,skipped,20,42274,,,42255,,42274,2021-10-29T09:46:35.667Z,42989.64,1635459224,full,ni_sequenzen,NI_Sequenzen,,,,,,,,,,,,,,
,Screen_4,canvas.Screen,0_2_19_3,,skipped,20,42285,,,42255,,42285,2021-10-29T09:46:35.678Z,42989.64,1635459224,full,ni_sequenzen,NI_Sequenzen,,,,,,,,,,,,,,
,Screen_5,canvas.Screen,0_2_19_4,,skipped,20,42295,,,42255,,42296,2021-10-29T09:46:35.689Z,42989.64,1635459224,full,ni_sequenzen,NI_Sequenzen,,,,,,,,,,,,,,
,Screen_6,canvas.Screen,0_2_19_5,,skipped,20,42302,,,42255,,42302,2021-10-29T09:46:35.695Z,42989.64,1635459224,full,ni_sequenzen,NI_Sequenzen,,,,,,,,,,,,,,
,Sequence,flow.Sequence,0_2_19,,completion,20,42250,,,42255,,42303,2021-10-29T09:46:35.695Z,42989.64,1635459224,full,ni_sequenzen,NI_Sequenzen,,,,,,,,,,,,,,
,Screen_1,canvas.Screen,0_2_20_0,,skipped,21,42316,,,42316,,42316,2021-10-29T09:46:35.709Z,42989.64,1635459224,full,ni_sequenzen,NI_Sequenzen,,,,,,,,,,,,,,
,Screen_2,canvas.Screen,0_2_20_1,,skipped,21,42322,,,42316,,42322,2021-10-29T09:46:35.715Z,42989.64,1635459224,full,ni_sequenzen,NI_Sequenzen,,,,,,,,,,,,,,
,Screen_3,canvas.Screen,0_2_20_2,,skipped,21,42333,,,42316,,42333,2021-10-29T09:46:35.725Z,42989.64,1635459224,full,ni_sequenzen,NI_Sequenzen,,,,,,,,,,,,,,
,Screen_4,canvas.Screen,0_2_20_3,,skipped,21,42339,,,42316,,42339,2021-10-29T09:46:35.732Z,42989.64,1635459224,full,ni_sequenzen,NI_Sequenzen,,,,,,,,,,,,,,
,Screen_5,canvas.Screen,0_2_20_4,,skipped,21,42351,,,42316,,42351,2021-10-29T09:46:35.744Z,42989.64,1635459224,full,ni_sequenzen,NI_Sequenzen,,,,,,,,,,,,,,
,Screen_6,canvas.Screen,0_2_20_5,,skipped,21,42357,,,42316,,42357,2021-10-29T09:46:35.751Z,42989.64,1635459224,full,ni_sequenzen,NI_Sequenzen,,,,,,,,,,,,,,
,Sequence,flow.Sequence,0_2_20,,completion,21,42304,,,42316,,42360,2021-10-29T09:46:35.753Z,42989.64,1635459224,full,ni_sequenzen,NI_Sequenzen,,,,,,,,,,,,,,
,Screen_1,canvas.Screen,0_2_21_0,,skipped,22,42369,,,42369,,42369,2021-10-29T09:46:35.762Z,42989.64,1635459224,full,ni_sequenzen,NI_Sequenzen,,,,,,,,,,,,,,
,Screen_2,canvas.Screen,0_2_21_1,,skipped,22,42374,,,42369,,42374,2021-10-29T09:46:35.767Z,42989.64,1635459224,full,ni_sequenzen,NI_Sequenzen,,,,,,,,,,,,,,
,Screen_3,canvas.Screen,0_2_21_2,,skipped,22,42385,,,42369,,42386,2021-10-29T09:46:35.779Z,42989.64,1635459224,full,ni_sequenzen,NI_Sequenzen,,,,,,,,,,,,,,
,Screen_4,canvas.Screen,0_2_21_3,,skipped,22,42391,,,42369,,42392,2021-10-29T09:46:35.786Z,42989.64,1635459224,full,ni_sequenzen,NI_Sequenzen,,,,,,,,,,,,,,
,Screen_5,canvas.Screen,0_2_21_4,,skipped,22,42401,,,42369,,42401,2021-10-29T09:46:35.794Z,42989.64,1635459224,full,ni_sequenzen,NI_Sequenzen,,,,,,,,,,,,,,
,Screen_6,canvas.Screen,0_2_21_5,,skipped,22,42406,,,42369,,42406,2021-10-29T09:46:35.799Z,42989.64,1635459224,full,ni_sequenzen,NI_Sequenzen,,,,,,,,,,,,,,
,Sequence,flow.Sequence,0_2_21,,completion,22,42365,,,42369,,42407,2021-10-29T09:46:35.799Z,42989.64,1635459224,full,ni_sequenzen,NI_Sequenzen,,,,,,,,,,,,,,
,Screen_1,canvas.Screen,0_2_22_0,,skipped,23,42418,,,42418,,42418,2021-10-29T09:46:35.812Z,42989.64,1635459224,full,ni_sequenzen,NI_Sequenzen,,,,,,,,,,,,,,
,Screen_2,canvas.Screen,0_2_22_1,,skipped,23,42424,,,42418,,42424,2021-10-29T09:46:35.817Z,42989.64,1635459224,full,ni_sequenzen,NI_Sequenzen,,,,,,,,,,,,,,
,Screen_3,canvas.Screen,0_2_22_2,,skipped,23,42433,,,42418,,42433,2021-10-29T09:46:35.827Z,42989.64,1635459224,full,ni_sequenzen,NI_Sequenzen,,,,,,,,,,,,,,
,Screen_4,canvas.Screen,0_2_22_3,,skipped,23,42439,,,42418,,42439,2021-10-29T09:46:35.832Z,42989.64,1635459224,full,ni_sequenzen,NI_Sequenzen,,,,,,,,,,,,,,
,Screen_5,canvas.Screen,0_2_22_4,,skipped,23,42452,,,42418,,42452,2021-10-29T09:46:35.846Z,42989.64,1635459224,full,ni_sequenzen,NI_Sequenzen,,,,,,,,,,,,,,
,Screen_6,canvas.Screen,0_2_22_5,,skipped,23,42462,,,42418,,42462,2021-10-29T09:46:35.855Z,42989.64,1635459224,full,ni_sequenzen,NI_Sequenzen,,,,,,,,,,,,,,
,Sequence,flow.Sequence,0_2_22,,completion,23,42414,,,42418,,42463,2021-10-29T09:46:35.856Z,42989.64,1635459224,full,ni_sequenzen,NI_Sequenzen,,,,,,,,,,,,,,
,Screen_1,canvas.Screen,0_2_23_0,,skipped,24,42470,,,42470,,42470,2021-10-29T09:46:35.863Z,42989.64,1635459224,full,ni_sequenzen,NI_Sequenzen,,,,,,,,,,,,,,
,Screen_2,canvas.Screen,0_2_23_1,,skipped,24,42480,,,42470,,42480,2021-10-29T09:46:35.873Z,42989.64,1635459224,full,ni_sequenzen,NI_Sequenzen,,,,,,,,,,,,,,
,Screen_3,canvas.Screen,0_2_23_2,,skipped,24,42485,,,42470,,42486,2021-10-29T09:46:35.879Z,42989.64,1635459224,full,ni_sequenzen,NI_Sequenzen,,,,,,,,,,,,,,
,Screen_4,canvas.Screen,0_2_23_3,,skipped,24,42492,,,42470,,42494,2021-10-29T09:46:35.887Z,42989.64,1635459224,full,ni_sequenzen,NI_Sequenzen,,,,,,,,,,,,,,
,Screen_5,canvas.Screen,0_2_23_4,,skipped,24,42501,,,42470,,42501,2021-10-29T09:46:35.895Z,42989.64,1635459224,full,ni_sequenzen,NI_Sequenzen,,,,,,,,,,,,,,
,Screen_6,canvas.Screen,0_2_23_5,,skipped,24,42509,,,42470,,42509,2021-10-29T09:46:35.903Z,42989.64,1635459224,full,ni_sequenzen,NI_Sequenzen,,,,,,,,,,,,,,
,Sequence,flow.Sequence,0_2_23,,completion,24,42465,,,42470,,42512,2021-10-29T09:46:35.905Z,42989.64,1635459224,full,ni_sequenzen,NI_Sequenzen,,,,,,,,,,,,,,
,Screen_1,canvas.Screen,0_2_24_0,,skipped,25,42521,,,42521,,42521,2021-10-29T09:46:35.914Z,42989.64,1635459224,full,ni_sequenzen,NI_Sequenzen,,,,,,,,,,,,,,
,Screen_2,canvas.Screen,0_2_24_1,,skipped,25,42532,,,42521,,42532,2021-10-29T09:46:35.924Z,42989.64,1635459224,full,ni_sequenzen,NI_Sequenzen,,,,,,,,,,,,,,
,Screen_3,canvas.Screen,0_2_24_2,,skipped,25,42537,,,42521,,42537,2021-10-29T09:46:35.929Z,42989.64,1635459224,full,ni_sequenzen,NI_Sequenzen,,,,,,,,,,,,,,
,Screen_4,canvas.Screen,0_2_24_3,,skipped,25,42547,,,42521,,42548,2021-10-29T09:46:35.940Z,42989.64,1635459224,full,ni_sequenzen,NI_Sequenzen,,,,,,,,,,,,,,
,Screen_5,canvas.Screen,0_2_24_4,,skipped,25,42553,,,42521,,42553,2021-10-29T09:46:35.946Z,42989.64,1635459224,full,ni_sequenzen,NI_Sequenzen,,,,,,,,,,,,,,
,Screen_6,canvas.Screen,0_2_24_5,,skipped,25,42564,,,42521,,42564,2021-10-29T09:46:35.957Z,42989.64,1635459224,full,ni_sequenzen,NI_Sequenzen,,,,,,,,,,,,,,
,Sequence,flow.Sequence,0_2_24,,completion,25,42515,,,42521,,42564,2021-10-29T09:46:35.957Z,42989.64,1635459224,full,ni_sequenzen,NI_Sequenzen,,,,,,,,,,,,,,
,Screen_1,canvas.Screen,0_2_25_0,,skipped,26,42570,,,42570,,42571,2021-10-29T09:46:35.963Z,42989.64,1635459224,full,ni_sequenzen,NI_Sequenzen,,,,,,,,,,,,,,
,Screen_2,canvas.Screen,0_2_25_1,,skipped,26,42581,,,42570,,42581,2021-10-29T09:46:35.974Z,42989.64,1635459224,full,ni_sequenzen,NI_Sequenzen,,,,,,,,,,,,,,
,Screen_3,canvas.Screen,0_2_25_2,,skipped,26,42586,,,42570,,42587,2021-10-29T09:46:35.979Z,42989.64,1635459224,full,ni_sequenzen,NI_Sequenzen,,,,,,,,,,,,,,
,Screen_4,canvas.Screen,0_2_25_3,,skipped,26,42596,,,42570,,42597,2021-10-29T09:46:35.989Z,42989.64,1635459224,full,ni_sequenzen,NI_Sequenzen,,,,,,,,,,,,,,
,Screen_5,canvas.Screen,0_2_25_4,,skipped,26,42601,,,42570,,42602,2021-10-29T09:46:35.995Z,42989.64,1635459224,full,ni_sequenzen,NI_Sequenzen,,,,,,,,,,,,,,
,Screen_6,canvas.Screen,0_2_25_5,,skipped,26,42609,,,42570,,42609,2021-10-29T09:46:36.002Z,42989.64,1635459224,full,ni_sequenzen,NI_Sequenzen,,,,,,,,,,,,,,
,Sequence,flow.Sequence,0_2_25,,completion,26,42566,,,42570,,42613,2021-10-29T09:46:36.006Z,42989.64,1635459224,full,ni_sequenzen,NI_Sequenzen,,,,,,,,,,,,,,
,Screen_1,canvas.Screen,0_2_26_0,,skipped,27,42620,,,42620,,42620,2021-10-29T09:46:36.013Z,42989.64,1635459224,full,ni_sequenzen,NI_Sequenzen,,,,,,,,,,,,,,
,Screen_2,canvas.Screen,0_2_26_1,,skipped,27,42629,,,42620,,42629,2021-10-29T09:46:36.023Z,42989.64,1635459224,full,ni_sequenzen,NI_Sequenzen,,,,,,,,,,,,,,
,Screen_3,canvas.Screen,0_2_26_2,,skipped,27,42634,,,42620,,42634,2021-10-29T09:46:36.028Z,42989.64,1635459224,full,ni_sequenzen,NI_Sequenzen,,,,,,,,,,,,,,
,Screen_4,canvas.Screen,0_2_26_3,,skipped,27,42639,,,42620,,42639,2021-10-29T09:46:36.032Z,42989.64,1635459224,full,ni_sequenzen,NI_Sequenzen,,,,,,,,,,,,,,
,Screen_5,canvas.Screen,0_2_26_4,,skipped,27,42649,,,42620,,42650,2021-10-29T09:46:36.043Z,42989.64,1635459224,full,ni_sequenzen,NI_Sequenzen,,,,,,,,,,,,,,
,Screen_6,canvas.Screen,0_2_26_5,,skipped,27,42655,,,42620,,42655,2021-10-29T09:46:36.048Z,42989.64,1635459224,full,ni_sequenzen,NI_Sequenzen,,,,,,,,,,,,,,
,Sequence,flow.Sequence,0_2_26,,completion,27,42615,,,42620,,42655,2021-10-29T09:46:36.049Z,42989.64,1635459224,full,ni_sequenzen,NI_Sequenzen,,,,,,,,,,,,,,
,Screen_1,canvas.Screen,0_2_27_0,,skipped,28,42666,,,42666,,42666,2021-10-29T09:46:36.059Z,42989.64,1635459224,full,ni_sequenzen,NI_Sequenzen,,,,,,,,,,,,,,
,Screen_2,canvas.Screen,0_2_27_1,,skipped,28,42670,,,42666,,42670,2021-10-29T09:46:36.064Z,42989.64,1635459224,full,ni_sequenzen,NI_Sequenzen,,,,,,,,,,,,,,
,Screen_3,canvas.Screen,0_2_27_2,,skipped,28,42682,,,42666,,42682,2021-10-29T09:46:36.075Z,42989.64,1635459224,full,ni_sequenzen,NI_Sequenzen,,,,,,,,,,,,,,
,Screen_4,canvas.Screen,0_2_27_3,,skipped,28,42687,,,42666,,42687,2021-10-29T09:46:36.081Z,42989.64,1635459224,full,ni_sequenzen,NI_Sequenzen,,,,,,,,,,,,,,
,Screen_5,canvas.Screen,0_2_27_4,,skipped,28,42698,,,42666,,42698,2021-10-29T09:46:36.092Z,42989.64,1635459224,full,ni_sequenzen,NI_Sequenzen,,,,,,,,,,,,,,
,Screen_6,canvas.Screen,0_2_27_5,,skipped,28,42704,,,42666,,42705,2021-10-29T09:46:36.098Z,42989.64,1635459224,full,ni_sequenzen,NI_Sequenzen,,,,,,,,,,,,,,
,Sequence,flow.Sequence,0_2_27,,completion,28,42657,,,42666,,42705,2021-10-29T09:46:36.098Z,42989.64,1635459224,full,ni_sequenzen,NI_Sequenzen,,,,,,,,,,,,,,
,Screen_1,canvas.Screen,0_2_28_0,,skipped,29,42717,,,42717,,42717,2021-10-29T09:46:36.110Z,42989.64,1635459224,full,ni_sequenzen,NI_Sequenzen,,,,,,,,,,,,,,
,Screen_2,canvas.Screen,0_2_28_1,,skipped,29,42722,,,42717,,42722,2021-10-29T09:46:36.116Z,42989.64,1635459224,full,ni_sequenzen,NI_Sequenzen,,,,,,,,,,,,,,
,Screen_3,canvas.Screen,0_2_28_2,,skipped,29,42734,,,42717,,42734,2021-10-29T09:46:36.126Z,42989.64,1635459224,full,ni_sequenzen,NI_Sequenzen,,,,,,,,,,,,,,
,Screen_4,canvas.Screen,0_2_28_3,,skipped,29,42738,,,42717,,42738,2021-10-29T09:46:36.132Z,42989.64,1635459224,full,ni_sequenzen,NI_Sequenzen,,,,,,,,,,,,,,
,Screen_5,canvas.Screen,0_2_28_4,,skipped,29,42750,,,42717,,42750,2021-10-29T09:46:36.143Z,42989.64,1635459224,full,ni_sequenzen,NI_Sequenzen,,,,,,,,,,,,,,
,Screen_6,canvas.Screen,0_2_28_5,,skipped,29,42755,,,42717,,42755,2021-10-29T09:46:36.149Z,42989.64,1635459224,full,ni_sequenzen,NI_Sequenzen,,,,,,,,,,,,,,
,Sequence,flow.Sequence,0_2_28,,completion,29,42707,,,42717,,42755,2021-10-29T09:46:36.149Z,42989.64,1635459224,full,ni_sequenzen,NI_Sequenzen,,,,,,,,,,,,,,
,Screen_1,canvas.Screen,0_2_29_0,,skipped,30,42767,,,42767,,42767,2021-10-29T09:46:36.161Z,42989.64,1635459224,full,ni_sequenzen,NI_Sequenzen,,,,,,,,,,,,,,
,Screen_2,canvas.Screen,0_2_29_1,,skipped,30,42773,,,42767,,42773,2021-10-29T09:46:36.166Z,42989.64,1635459224,full,ni_sequenzen,NI_Sequenzen,,,,,,,,,,,,,,
,Screen_3,canvas.Screen,0_2_29_2,,skipped,30,42783,,,42767,,42783,2021-10-29T09:46:36.176Z,42989.64,1635459224,full,ni_sequenzen,NI_Sequenzen,,,,,,,,,,,,,,
,Screen_4,canvas.Screen,0_2_29_3,,skipped,30,42788,,,42767,,42788,2021-10-29T09:46:36.181Z,42989.64,1635459224,full,ni_sequenzen,NI_Sequenzen,,,,,,,,,,,,,,
,Screen_5,canvas.Screen,0_2_29_4,,skipped,30,42798,,,42767,,42798,2021-10-29T09:46:36.191Z,42989.64,1635459224,full,ni_sequenzen,NI_Sequenzen,,,,,,,,,,,,,,
,Screen_6,canvas.Screen,0_2_29_5,,skipped,30,42802,,,42767,,42802,2021-10-29T09:46:36.196Z,42989.64,1635459224,full,ni_sequenzen,NI_Sequenzen,,,,,,,,,,,,,,
,Sequence,flow.Sequence,0_2_29,,completion,30,42762,,,42767,,42803,2021-10-29T09:46:36.196Z,42989.64,1635459224,full,ni_sequenzen,NI_Sequenzen,,,,,,,,,,,,,,
,Instructions_II,flow.Loop,0_2,,completion,,23335,23342.94,23344.4,42767,19422.6,42803,2021-10-29T09:46:36.196Z,42989.64,1635459224,full,ni_sequenzen,NI_Sequenzen,,,,,,,,,,,,,,
,Move,canvas.Screen,0_3_0_0_0_0,left,response,,42975,42975.08,42989.64,59173,16183.36,59194,2021-10-29T09:46:52.587Z,59235.66,1635459224,full,ni_sequenzen,NI_Sequenzen,1,0,,,,,,,,,,,,
,Move,canvas.Screen,0_3_0_0_0_1,down,response,,59235,59234.36,59235.66,64376,5140.3399999999965,64379,2021-10-29T09:46:57.772Z,64434.08,1635459224,full,ni_sequenzen,NI_Sequenzen,2,0,,,,,,,,,,,,
,Move,canvas.Screen,0_3_0_0_0_2,left,response,,64430,64429.46,64434.08,65110,675.9199999999983,65113,2021-10-29T09:46:58.506Z,65167.32,1635459224,full,ni_sequenzen,NI_Sequenzen,3,0,,,,,,,,,,,,
,Move,canvas.Screen,0_3_0_0_0_3,right,response,,65150,65151.14,65167.32,65485,317.6800000000003,65495,2021-10-29T09:46:58.889Z,65950.56,1635459224,full,ni_sequenzen,NI_Sequenzen,4,0,,,,,,,,,,,,
,Move,canvas.Screen,0_3_0_0_0_4,-999,skipped,,65533,,,65485,,65533,2021-10-29T09:46:58.926Z,65950.56,1635459224,full,ni_sequenzen,NI_Sequenzen,5,0,,,,,,,,,,,,
,Move,canvas.Screen,0_3_0_0_0_5,-999,skipped,,65569,,,65485,,65569,2021-10-29T09:46:58.962Z,65950.56,1635459224,full,ni_sequenzen,NI_Sequenzen,6,0,,,,,,,,,,,,
,Move,canvas.Screen,0_3_0_0_0_6,-999,skipped,,65612,,,65485,,65613,2021-10-29T09:46:59.006Z,65950.56,1635459224,full,ni_sequenzen,NI_Sequenzen,7,0,,,,,,,,,,,,
,Move,canvas.Screen,0_3_0_0_0_7,-999,skipped,,65648,,,65485,,65648,2021-10-29T09:46:59.041Z,65950.56,1635459224,full,ni_sequenzen,NI_Sequenzen,8,0,,,,,,,,,,,,
,Move,canvas.Screen,0_3_0_0_0_8,-999,skipped,,65684,,,65485,,65684,2021-10-29T09:46:59.077Z,65950.56,1635459224,full,ni_sequenzen,NI_Sequenzen,9,0,,,,,,,,,,,,
,Move,canvas.Screen,0_3_0_0_0_9,-999,skipped,,65725,,,65485,,65725,2021-10-29T09:46:59.118Z,65950.56,1635459224,full,ni_sequenzen,NI_Sequenzen,10,0,,,,,,,,,,,,
,Move,canvas.Screen,0_3_0_0_0_10,-999,skipped,,65762,,,65485,,65763,2021-10-29T09:46:59.156Z,65950.56,1635459224,full,ni_sequenzen,NI_Sequenzen,11,0,,,,,,,,,,,,
,Move,canvas.Screen,0_3_0_0_0_11,-999,skipped,,65799,,,65485,,65799,2021-10-29T09:46:59.192Z,65950.56,1635459224,full,ni_sequenzen,NI_Sequenzen,12,0,,,,,,,,,,,,
,Move,canvas.Screen,0_3_0_0_0_12,-999,skipped,,65841,,,65485,,65841,2021-10-29T09:46:59.234Z,65950.56,1635459224,full,ni_sequenzen,NI_Sequenzen,13,0,,,,,,,,,,,,
,Move,canvas.Screen,0_3_0_0_0_13,-999,skipped,,65876,,,65485,,65876,2021-10-29T09:46:59.270Z,65950.56,1635459224,full,ni_sequenzen,NI_Sequenzen,14,0,,,,,,,,,,,,
,Move,canvas.Screen,0_3_0_0_0_14,-999,skipped,,65912,,,65485,,65912,2021-10-29T09:46:59.305Z,65950.56,1635459224,full,ni_sequenzen,NI_Sequenzen,15,0,,,,,,,,,,,,
,Loop,flow.Loop,0_3_0_0_0,-999,completion,,42866,42975.08,42989.64,65485,22495.36,65912,2021-10-29T09:46:59.305Z,65950.56,1635459224,full,ni_sequenzen,NI_Sequenzen,,0,,,,,,,,,,,,
,Feedback,canvas.Screen,0_3_0_0_1,,timeout,,65944,65944.28,65950.56,69933.02,4058.1199999999953,69938,2021-10-29T09:47:03.331Z,70008.68,1635459224,full,ni_sequenzen,NI_Sequenzen,,0,,,,,,,,,,,,
,Trial,flow.Sequence,0_3_0_0,,completion,,42842,42975.08,42989.64,69933.02,26943.380000000005,69940,2021-10-29T09:47:03.333Z,70016.34,1635459224,full,ni_sequenzen,NI_Sequenzen,,0,,,,,,,,,,,,
,Move,canvas.Screen,0_3_0_1_0_0,left,response,,70008,70008.68,70016.34,78626,8609.660000000003,78639,2021-10-29T09:47:12.032Z,78680.9,1635459224,full,ni_sequenzen,NI_Sequenzen,1,1,,,,,,,,,,,,
,Move,canvas.Screen,0_3_0_1_0_1,left,response,,78673,78673.1,78680.9,79078,397.1000000000058,79090,2021-10-29T09:47:12.483Z,79130.84,1635459224,full,ni_sequenzen,NI_Sequenzen,2,1,,,,,,,,,,,,
,Move,canvas.Screen,0_3_0_1_0_2,down,response,,79131,79130.52,79130.84,79470,339.1600000000035,79484,2021-10-29T09:47:12.877Z,79530.62,1635459224,full,ni_sequenzen,NI_Sequenzen,3,1,,,,,,,,,,,,
,Move,canvas.Screen,0_3_0_1_0_3,down,response,,79527,79526.64,79530.62,79798,267.38000000000466,79811,2021-10-29T09:47:13.204Z,80263.86,1635459224,full,ni_sequenzen,NI_Sequenzen,4,1,,,,,,,,,,,,
,Move,canvas.Screen,0_3_0_1_0_4,-999,skipped,,79857,,,79798,,79857,2021-10-29T09:47:13.249Z,80263.86,1635459224,full,ni_sequenzen,NI_Sequenzen,5,1,,,,,,,,,,,,
,Move,canvas.Screen,0_3_0_1_0_5,-999,skipped,,79891,,,79798,,79891,2021-10-29T09:47:13.284Z,80263.86,1635459224,full,ni_sequenzen,NI_Sequenzen,6,1,,,,,,,,,,,,
,Move,canvas.Screen,0_3_0_1_0_6,-999,skipped,,79926,,,79798,,79926,2021-10-29T09:47:13.318Z,80263.86,1635459224,full,ni_sequenzen,NI_Sequenzen,7,1,,,,,,,,,,,,
,Move,canvas.Screen,0_3_0_1_0_7,-999,skipped,,79960,,,79798,,79960,2021-10-29T09:47:13.353Z,80263.86,1635459224,full,ni_sequenzen,NI_Sequenzen,8,1,,,,,,,,,,,,
,Move,canvas.Screen,0_3_0_1_0_8,-999,skipped,,79995,,,79798,,79995,2021-10-29T09:47:13.388Z,80263.86,1635459224,full,ni_sequenzen,NI_Sequenzen,9,1,,,,,,,,,,,,
,Move,canvas.Screen,0_3_0_1_0_9,-999,skipped,,80030,,,79798,,80031,2021-10-29T09:47:13.423Z,80263.86,1635459224,full,ni_sequenzen,NI_Sequenzen,10,1,,,,,,,,,,,,
,Move,canvas.Screen,0_3_0_1_0_10,-999,skipped,,80069,,,79798,,80070,2021-10-29T09:47:13.463Z,80263.86,1635459224,full,ni_sequenzen,NI_Sequenzen,11,1,,,,,,,,,,,,
,Move,canvas.Screen,0_3_0_1_0_11,-999,skipped,,80105,,,79798,,80105,2021-10-29T09:47:13.498Z,80263.86,1635459224,full,ni_sequenzen,NI_Sequenzen,12,1,,,,,,,,,,,,
,Move,canvas.Screen,0_3_0_1_0_12,-999,skipped,,80138,,,79798,,80138,2021-10-29T09:47:13.532Z,80263.86,1635459224,full,ni_sequenzen,NI_Sequenzen,13,1,,,,,,,,,,,,
,Move,canvas.Screen,0_3_0_1_0_13,-999,skipped,,80173,,,79798,,80173,2021-10-29T09:47:13.566Z,80263.86,1635459224,full,ni_sequenzen,NI_Sequenzen,14,1,,,,,,,,,,,,
,Move,canvas.Screen,0_3_0_1_0_14,-999,skipped,,80211,,,79798,,80211,2021-10-29T09:47:13.604Z,80263.86,1635459224,full,ni_sequenzen,NI_Sequenzen,15,1,,,,,,,,,,,,
,Loop,flow.Loop,0_3_0_1_0,-999,completion,,69961,70008.68,70016.34,79798,9781.660000000003,80212,2021-10-29T09:47:13.605Z,80263.86,1635459224,full,ni_sequenzen,NI_Sequenzen,,1,,,,,,,,,,,,
,Feedback,canvas.Screen,0_3_0_1_1,,timeout,,80248,80248.1,80263.86,84246.18,4041.6600000000035,84248,2021-10-29T09:47:17.641Z,84305.52,1635459224,full,ni_sequenzen,NI_Sequenzen,,1,,,,,,,,,,,,
,Trial,flow.Sequence,0_3_0_1,,completion,,69941,70008.68,70016.34,84246.18,14229.839999999997,84248,2021-10-29T09:47:17.642Z,84312.84,1635459224,full,ni_sequenzen,NI_Sequenzen,,1,,,,,,,,,,,,
,Move,canvas.Screen,0_3_0_2_0_0,right,response,,84306,84305.52,84312.84,110345,26032.160000000003,110354,2021-10-29T09:47:43.748Z,110389.78,1635459224,full,ni_sequenzen,NI_Sequenzen,1,2,,,,,,,,,,,,
,Move,canvas.Screen,0_3_0_2_0_1,left,response,,110389,110389.1,110389.78,111579,1189.2200000000012,111582,2021-10-29T09:47:44.975Z,111622.86,1635459224,full,ni_sequenzen,NI_Sequenzen,2,2,,,,,,,,,,,,
,Move,canvas.Screen,0_3_0_2_0_2,down,response,,111616,111616.28,111622.86,112095,472.1399999999994,112097,2021-10-29T09:47:45.490Z,112139.34,1635459224,full,ni_sequenzen,NI_Sequenzen,3,2,,,,,,,,,,,,
,Move,canvas.Screen,0_3_0_2_0_3,right,response,,112133,112132.52,112139.34,112516,376.6600000000035,112521,2021-10-29T09:47:45.914Z,112905.9,1635459224,full,ni_sequenzen,NI_Sequenzen,4,2,,,,,,,,,,,,
,Move,canvas.Screen,0_3_0_2_0_4,-999,skipped,,112564,,,112516,,112564,2021-10-29T09:47:45.956Z,112905.9,1635459224,full,ni_sequenzen,NI_Sequenzen,5,2,,,,,,,,,,,,
,Move,canvas.Screen,0_3_0_2_0_5,-999,skipped,,112591,,,112516,,112592,2021-10-29T09:47:45.985Z,112905.9,1635459224,full,ni_sequenzen,NI_Sequenzen,6,2,,,,,,,,,,,,
,Move,canvas.Screen,0_3_0_2_0_6,-999,skipped,,112621,,,112516,,112622,2021-10-29T09:47:46.015Z,112905.9,1635459224,full,ni_sequenzen,NI_Sequenzen,7,2,,,,,,,,,,,,
,Move,canvas.Screen,0_3_0_2_0_7,-999,skipped,,112651,,,112516,,112651,2021-10-29T09:47:46.043Z,112905.9,1635459224,full,ni_sequenzen,NI_Sequenzen,8,2,,,,,,,,,,,,
,Move,canvas.Screen,0_3_0_2_0_8,-999,skipped,,112673,,,112516,,112673,2021-10-29T09:47:46.066Z,112905.9,1635459224,full,ni_sequenzen,NI_Sequenzen,9,2,,,,,,,,,,,,
,Move,canvas.Screen,0_3_0_2_0_9,-999,skipped,,112701,,,112516,,112702,2021-10-29T09:47:46.095Z,112905.9,1635459224,full,ni_sequenzen,NI_Sequenzen,10,2,,,,,,,,,,,,
,Move,canvas.Screen,0_3_0_2_0_10,-999,skipped,,112731,,,112516,,112732,2021-10-29T09:47:46.125Z,112905.9,1635459224,full,ni_sequenzen,NI_Sequenzen,11,2,,,,,,,,,,,,
,Move,canvas.Screen,0_3_0_2_0_11,-999,skipped,,112757,,,112516,,112757,2021-10-29T09:47:46.150Z,112905.9,1635459224,full,ni_sequenzen,NI_Sequenzen,12,2,,,,,,,,,,,,
,Move,canvas.Screen,0_3_0_2_0_12,-999,skipped,,112786,,,112516,,112786,2021-10-29T09:47:46.179Z,112905.9,1635459224,full,ni_sequenzen,NI_Sequenzen,13,2,,,,,,,,,,,,
,Move,canvas.Screen,0_3_0_2_0_13,-999,skipped,,112818,,,112516,,112818,2021-10-29T09:47:46.211Z,112905.9,1635459224,full,ni_sequenzen,NI_Sequenzen,14,2,,,,,,,,,,,,
,Move,canvas.Screen,0_3_0_2_0_14,-999,skipped,,112866,,,112516,,112866,2021-10-29T09:47:46.258Z,112905.9,1635459224,full,ni_sequenzen,NI_Sequenzen,15,2,,,,,,,,,,,,
,Loop,flow.Loop,0_3_0_2_0,-999,completion,,84269,84305.52,84312.84,112516,28203.160000000003,112866,2021-10-29T09:47:46.258Z,112905.9,1635459224,full,ni_sequenzen,NI_Sequenzen,,2,,,,,,,,,,,,
,Feedback,canvas.Screen,0_3_0_2_1,,timeout,,112899,112899,112905.9,116888.24,4048.9800000000105,116894,2021-10-29T09:47:50.287Z,116954.88,1635459224,full,ni_sequenzen,NI_Sequenzen,,2,,,,,,,,,,,,
,Trial,flow.Sequence,0_3_0_2,,completion,,84253,84305.52,84312.84,116888.24,32575.40000000001,116895,2021-10-29T09:47:50.288Z,116971.56,1635459224,full,ni_sequenzen,NI_Sequenzen,,2,,,,,,,,,,,,
,Move,canvas.Screen,0_3_0_3_0_0,down,response,,116947,116954.88,116971.56,136485,19513.440000000002,136493,2021-10-29T09:48:09.885Z,136550.02,1635459224,full,ni_sequenzen,NI_Sequenzen,1,3,,,,,,,,,,,,
,Move,canvas.Screen,0_3_0_3_0_1,down,response,,136542,136541.62,136550.02,137157,606.9800000000105,137162,2021-10-29T09:48:10.556Z,137199.92,1635459224,full,ni_sequenzen,NI_Sequenzen,2,3,,,,,,,,,,,,
,Move,canvas.Screen,0_3_0_3_0_2,left,response,,137199,137199.36,137199.92,137751,551.0799999999872,137759,2021-10-29T09:48:11.152Z,137799.84,1635459224,full,ni_sequenzen,NI_Sequenzen,3,3,,,,,,,,,,,,
,Move,canvas.Screen,0_3_0_3_0_3,down,response,,137798,137798.58,137799.84,138204,404.1600000000035,138223,2021-10-29T09:48:11.616Z,138582.98,1635459224,full,ni_sequenzen,NI_Sequenzen,4,3,,,,,,,,,,,,
,Move,canvas.Screen,0_3_0_3_0_4,-999,skipped,,138261,,,138204,,138262,2021-10-29T09:48:11.655Z,138582.98,1635459224,full,ni_sequenzen,NI_Sequenzen,5,3,,,,,,,,,,,,
,Move,canvas.Screen,0_3_0_3_0_5,-999,skipped,,138294,,,138204,,138294,2021-10-29T09:48:11.687Z,138582.98,1635459224,full,ni_sequenzen,NI_Sequenzen,6,3,,,,,,,,,,,,
,Move,canvas.Screen,0_3_0_3_0_6,-999,skipped,,138327,,,138204,,138327,2021-10-29T09:48:11.720Z,138582.98,1635459224,full,ni_sequenzen,NI_Sequenzen,7,3,,,,,,,,,,,,
,Move,canvas.Screen,0_3_0_3_0_7,-999,skipped,,138358,,,138204,,138358,2021-10-29T09:48:11.752Z,138582.98,1635459224,full,ni_sequenzen,NI_Sequenzen,8,3,,,,,,,,,,,,
,Move,canvas.Screen,0_3_0_3_0_8,-999,skipped,,138382,,,138204,,138382,2021-10-29T09:48:11.775Z,138582.98,1635459224,full,ni_sequenzen,NI_Sequenzen,9,3,,,,,,,,,,,,
,Move,canvas.Screen,0_3_0_3_0_9,-999,skipped,,138411,,,138204,,138411,2021-10-29T09:48:11.804Z,138582.98,1635459224,full,ni_sequenzen,NI_Sequenzen,10,3,,,,,,,,,,,,
,Move,canvas.Screen,0_3_0_3_0_10,-999,skipped,,138435,,,138204,,138435,2021-10-29T09:48:11.828Z,138582.98,1635459224,full,ni_sequenzen,NI_Sequenzen,11,3,,,,,,,,,,,,
,Move,canvas.Screen,0_3_0_3_0_11,-999,skipped,,138462,,,138204,,138462,2021-10-29T09:48:11.856Z,138582.98,1635459224,full,ni_sequenzen,NI_Sequenzen,12,3,,,,,,,,,,,,
,Move,canvas.Screen,0_3_0_3_0_12,-999,skipped,,138493,,,138204,,138494,2021-10-29T09:48:11.887Z,138582.98,1635459224,full,ni_sequenzen,NI_Sequenzen,13,3,,,,,,,,,,,,
,Move,canvas.Screen,0_3_0_3_0_13,-999,skipped,,138525,,,138204,,138525,2021-10-29T09:48:11.918Z,138582.98,1635459224,full,ni_sequenzen,NI_Sequenzen,14,3,,,,,,,,,,,,
,Move,canvas.Screen,0_3_0_3_0_14,-999,skipped,,138551,,,138204,,138551,2021-10-29T09:48:11.944Z,138582.98,1635459224,full,ni_sequenzen,NI_Sequenzen,15,3,,,,,,,,,,,,
,Loop,flow.Loop,0_3_0_3_0,-999,completion,,116912,116954.88,116971.56,138204,21232.440000000002,138554,2021-10-29T09:48:11.948Z,138582.98,1635459224,full,ni_sequenzen,NI_Sequenzen,,3,,,,,,,,,,,,
,Feedback,canvas.Screen,0_3_0_3_1,,timeout,,138577,138577.2,138582.98,142565.32,4071.6999999999825,142573,2021-10-29T09:48:15.966Z,142654.68,1635459224,full,ni_sequenzen,NI_Sequenzen,,3,,,,,,,,,,,,
,Trial,flow.Sequence,0_3_0_3,,completion,,116897,116954.88,116971.56,142565.32,25593.76000000001,142575,2021-10-29T09:48:15.968Z,142665.32,1635459224,full,ni_sequenzen,NI_Sequenzen,,3,,,,,,,,,,,,
,Move,canvas.Screen,0_3_0_4_0_0,left,response,,142655,142654.68,142665.32,182798,40132.67999999999,182814,2021-10-29T09:48:56.207Z,182855.48,1635459224,full,ni_sequenzen,NI_Sequenzen,1,4,,,,,,,,,,,,
,Move,canvas.Screen,0_3_0_4_0_1,down,response,,182855,182854.92,182855.48,183282,426.5199999999895,183291,2021-10-29T09:48:56.684Z,183355.28,1635459224,full,ni_sequenzen,NI_Sequenzen,2,4,,,,,,,,,,,,
,Move,canvas.Screen,0_3_0_4_0_2,left,response,,183345,183345.36,183355.28,183782,426.72000000000116,183797,2021-10-29T09:48:57.190Z,183838.54,1635459224,full,ni_sequenzen,NI_Sequenzen,3,4,,,,,,,,,,,,
,Move,canvas.Screen,0_3_0_4_0_3,right,response,,183835,183835.1,183838.54,185063,1224.4599999999919,185071,2021-10-29T09:48:58.465Z,185488.1,1635459224,full,ni_sequenzen,NI_Sequenzen,4,4,,,,,,,,,,,,
,Move,canvas.Screen,0_3_0_4_0_4,-999,skipped,,185115,,,185063,,185115,2021-10-29T09:48:58.509Z,185488.1,1635459224,full,ni_sequenzen,NI_Sequenzen,5,4,,,,,,,,,,,,
,Move,canvas.Screen,0_3_0_4_0_5,-999,skipped,,185151,,,185063,,185151,2021-10-29T09:48:58.544Z,185488.1,1635459224,full,ni_sequenzen,NI_Sequenzen,6,4,,,,,,,,,,,,
,Move,canvas.Screen,0_3_0_4_0_6,-999,skipped,,185186,,,185063,,185186,2021-10-29T09:48:58.579Z,185488.1,1635459224,full,ni_sequenzen,NI_Sequenzen,7,4,,,,,,,,,,,,
,Move,canvas.Screen,0_3_0_4_0_7,-999,skipped,,185219,,,185063,,185219,2021-10-29T09:48:58.612Z,185488.1,1635459224,full,ni_sequenzen,NI_Sequenzen,8,4,,,,,,,,,,,,
,Move,canvas.Screen,0_3_0_4_0_8,-999,skipped,,185252,,,185063,,185253,2021-10-29T09:48:58.646Z,185488.1,1635459224,full,ni_sequenzen,NI_Sequenzen,9,4,,,,,,,,,,,,
,Move,canvas.Screen,0_3_0_4_0_9,-999,skipped,,185286,,,185063,,185286,2021-10-29T09:48:58.679Z,185488.1,1635459224,full,ni_sequenzen,NI_Sequenzen,10,4,,,,,,,,,,,,
,Move,canvas.Screen,0_3_0_4_0_10,-999,skipped,,185321,,,185063,,185322,2021-10-29T09:48:58.715Z,185488.1,1635459224,full,ni_sequenzen,NI_Sequenzen,11,4,,,,,,,,,,,,
,Move,canvas.Screen,0_3_0_4_0_11,-999,skipped,,185361,,,185063,,185362,2021-10-29T09:48:58.755Z,185488.1,1635459224,full,ni_sequenzen,NI_Sequenzen,12,4,,,,,,,,,,,,
,Move,canvas.Screen,0_3_0_4_0_12,-999,skipped,,185387,,,185063,,185387,2021-10-29T09:48:58.780Z,185488.1,1635459224,full,ni_sequenzen,NI_Sequenzen,13,4,,,,,,,,,,,,
,Move,canvas.Screen,0_3_0_4_0_13,-999,skipped,,185417,,,185063,,185417,2021-10-29T09:48:58.809Z,185488.1,1635459224,full,ni_sequenzen,NI_Sequenzen,14,4,,,,,,,,,,,,
,Move,canvas.Screen,0_3_0_4_0_14,-999,skipped,,185446,,,185063,,185446,2021-10-29T09:48:58.839Z,185488.1,1635459224,full,ni_sequenzen,NI_Sequenzen,15,4,,,,,,,,,,,,
,Loop,flow.Loop,0_3_0_4_0,-999,completion,,142611,142654.68,142665.32,185063,42397.67999999999,185447,2021-10-29T09:48:58.839Z,185488.1,1635459224,full,ni_sequenzen,NI_Sequenzen,,4,,,,,,,,,,,,
,Feedback,canvas.Screen,0_3_0_4_1,,timeout,,185478,185478.34,185488.1,189470.48,4044.859999999986,189474,2021-10-29T09:49:02.866Z,189532.96,1635459224,full,ni_sequenzen,NI_Sequenzen,,4,,,,,,,,,,,,
,Trial,flow.Sequence,0_3_0_4,,completion,,142579,142654.68,142665.32,189470.48,46805.16,189477,2021-10-29T09:49:02.870Z,189537.14,1635459224,full,ni_sequenzen,NI_Sequenzen,,4,,,,,,,,,,,,
,Move,canvas.Screen,0_3_0_5_0_0,left,response,,189533,189532.96,189537.14,192673,3135.859999999986,192694,2021-10-29T09:49:06.086Z,192753.04,1635459224,full,ni_sequenzen,NI_Sequenzen,1,5,,,,,,,,,,,,
,Move,canvas.Screen,0_3_0_5_0_1,down,response,,192747,192747.32,192753.04,192907,153.95999999999185,192916,2021-10-29T09:49:06.309Z,192969.68,1635459224,full,ni_sequenzen,NI_Sequenzen,2,5,,,,,,,,,,,,
,Move,canvas.Screen,0_3_0_5_0_2,left,response,,192965,192964.72,192969.68,193173,203.32000000000698,193195,2021-10-29T09:49:06.588Z,193252.84,1635459224,full,ni_sequenzen,NI_Sequenzen,3,5,,,,,,,,,,,,
,Move,canvas.Screen,0_3_0_5_0_3,right,response,,193241,193241.44,193252.84,193501,248.1600000000035,193510,2021-10-29T09:49:06.903Z,194036.08,1635459224,full,ni_sequenzen,NI_Sequenzen,4,5,,,,,,,,,,,,
,Move,canvas.Screen,0_3_0_5_0_4,-999,skipped,,193562,,,193501,,193562,2021-10-29T09:49:06.956Z,194036.08,1635459224,full,ni_sequenzen,NI_Sequenzen,5,5,,,,,,,,,,,,
,Move,canvas.Screen,0_3_0_5_0_5,-999,skipped,,193604,,,193501,,193604,2021-10-29T09:49:06.997Z,194036.08,1635459224,full,ni_sequenzen,NI_Sequenzen,6,5,,,,,,,,,,,,
,Move,canvas.Screen,0_3_0_5_0_6,-999,skipped,,193649,,,193501,,193649,2021-10-29T09:49:07.042Z,194036.08,1635459224,full,ni_sequenzen,NI_Sequenzen,7,5,,,,,,,,,,,,
,Move,canvas.Screen,0_3_0_5_0_7,-999,skipped,,193695,,,193501,,193695,2021-10-29T09:49:07.089Z,194036.08,1635459224,full,ni_sequenzen,NI_Sequenzen,8,5,,,,,,,,,,,,
,Move,canvas.Screen,0_3_0_5_0_8,-999,skipped,,193736,,,193501,,193736,2021-10-29T09:49:07.129Z,194036.08,1635459224,full,ni_sequenzen,NI_Sequenzen,9,5,,,,,,,,,,,,
,Move,canvas.Screen,0_3_0_5_0_9,-999,skipped,,193781,,,193501,,193781,2021-10-29T09:49:07.175Z,194036.08,1635459224,full,ni_sequenzen,NI_Sequenzen,10,5,,,,,,,,,,,,
,Move,canvas.Screen,0_3_0_5_0_10,-999,skipped,,193827,,,193501,,193828,2021-10-29T09:49:07.221Z,194036.08,1635459224,full,ni_sequenzen,NI_Sequenzen,11,5,,,,,,,,,,,,
,Move,canvas.Screen,0_3_0_5_0_11,-999,skipped,,193865,,,193501,,193866,2021-10-29T09:49:07.258Z,194036.08,1635459224,full,ni_sequenzen,NI_Sequenzen,12,5,,,,,,,,,,,,
,Move,canvas.Screen,0_3_0_5_0_12,-999,skipped,,193911,,,193501,,193911,2021-10-29T09:49:07.304Z,194036.08,1635459224,full,ni_sequenzen,NI_Sequenzen,13,5,,,,,,,,,,,,
,Move,canvas.Screen,0_3_0_5_0_13,-999,skipped,,193951,,,193501,,193951,2021-10-29T09:49:07.344Z,194036.08,1635459224,full,ni_sequenzen,NI_Sequenzen,14,5,,,,,,,,,,,,
,Move,canvas.Screen,0_3_0_5_0_14,-999,skipped,,193998,,,193501,,193998,2021-10-29T09:49:07.391Z,194036.08,1635459224,full,ni_sequenzen,NI_Sequenzen,15,5,,,,,,,,,,,,
,Loop,flow.Loop,0_3_0_5_0,-999,completion,,189500,189532.96,189537.14,193501,3963.859999999986,193999,2021-10-29T09:49:07.392Z,194036.08,1635459224,full,ni_sequenzen,NI_Sequenzen,,5,,,,,,,,,,,,
,Feedback,canvas.Screen,0_3_0_5_1,,timeout,,194034,194034.24,194036.08,198018.44,4058.8000000000175,198021,2021-10-29T09:49:11.414Z,198094.88,1635459224,full,ni_sequenzen,NI_Sequenzen,,5,,,,,,,,,,,,
,Trial,flow.Sequence,0_3_0_5,,completion,,189478,189532.96,189537.14,198018.44,8481.299999999988,198024,2021-10-29T09:49:11.417Z,198101.64,1635459224,full,ni_sequenzen,NI_Sequenzen,,5,,,,,,,,,,,,
,Move,canvas.Screen,0_3_0_6_0_0,left,response,,198095,198094.88,198101.64,202719,4617.359999999986,202724,2021-10-29T09:49:16.118Z,202767.24,1635459224,full,ni_sequenzen,NI_Sequenzen,1,6,,,,,,,,,,,,
,Move,canvas.Screen,0_3_0_6_0_1,down,response,,202761,202761.02,202767.24,202954,186.7600000000093,202961,2021-10-29T09:49:16.355Z,203000.56,1635459224,full,ni_sequenzen,NI_Sequenzen,2,6,,,,,,,,,,,,
,Move,canvas.Screen,0_3_0_6_0_2,left,response,,203000,202999.54,203000.56,203234,233.44000000000233,203242,2021-10-29T09:49:16.635Z,203283.74,1635459224,full,ni_sequenzen,NI_Sequenzen,3,6,,,,,,,,,,,,
,Move,canvas.Screen,0_3_0_6_0_3,right,response,,203277,203277.2,203283.74,203548,264.2600000000093,203560,2021-10-29T09:49:16.953Z,203966.98,1635459224,full,ni_sequenzen,NI_Sequenzen,4,6,,,,,,,,,,,,
,Move,canvas.Screen,0_3_0_6_0_4,-999,skipped,,203609,,,203548,,203609,2021-10-29T09:49:17.002Z,203966.98,1635459224,full,ni_sequenzen,NI_Sequenzen,5,6,,,,,,,,,,,,
,Move,canvas.Screen,0_3_0_6_0_5,-999,skipped,,203649,,,203548,,203649,2021-10-29T09:49:17.043Z,203966.98,1635459224,full,ni_sequenzen,NI_Sequenzen,6,6,,,,,,,,,,,,
,Move,canvas.Screen,0_3_0_6_0_6,-999,skipped,,203691,,,203548,,203691,2021-10-29T09:49:17.084Z,203966.98,1635459224,full,ni_sequenzen,NI_Sequenzen,7,6,,,,,,,,,,,,
,Move,canvas.Screen,0_3_0_6_0_7,-999,skipped,,203718,,,203548,,203718,2021-10-29T09:49:17.110Z,203966.98,1635459224,full,ni_sequenzen,NI_Sequenzen,8,6,,,,,,,,,,,,
,Move,canvas.Screen,0_3_0_6_0_8,-999,skipped,,203746,,,203548,,203746,2021-10-29T09:49:17.140Z,203966.98,1635459224,full,ni_sequenzen,NI_Sequenzen,9,6,,,,,,,,,,,,
,Move,canvas.Screen,0_3_0_6_0_9,-999,skipped,,203776,,,203548,,203776,2021-10-29T09:49:17.169Z,203966.98,1635459224,full,ni_sequenzen,NI_Sequenzen,10,6,,,,,,,,,,,,
,Move,canvas.Screen,0_3_0_6_0_10,-999,skipped,,203809,,,203548,,203809,2021-10-29T09:49:17.202Z,203966.98,1635459224,full,ni_sequenzen,NI_Sequenzen,11,6,,,,,,,,,,,,
,Move,canvas.Screen,0_3_0_6_0_11,-999,skipped,,203835,,,203548,,203838,2021-10-29T09:49:17.231Z,203966.98,1635459224,full,ni_sequenzen,NI_Sequenzen,12,6,,,,,,,,,,,,
,Move,canvas.Screen,0_3_0_6_0_12,-999,skipped,,203862,,,203548,,203862,2021-10-29T09:49:17.256Z,203966.98,1635459224,full,ni_sequenzen,NI_Sequenzen,13,6,,,,,,,,,,,,
,Move,canvas.Screen,0_3_0_6_0_13,-999,skipped,,203894,,,203548,,203895,2021-10-29T09:49:17.287Z,203966.98,1635459224,full,ni_sequenzen,NI_Sequenzen,14,6,,,,,,,,,,,,
,Move,canvas.Screen,0_3_0_6_0_14,-999,skipped,,203931,,,203548,,203931,2021-10-29T09:49:17.323Z,203966.98,1635459224,full,ni_sequenzen,NI_Sequenzen,15,6,,,,,,,,,,,,
,Loop,flow.Loop,0_3_0_6_0,-999,completion,,198052,198094.88,198101.64,203548,5446.359999999986,203931,2021-10-29T09:49:17.324Z,203966.98,1635459224,full,ni_sequenzen,NI_Sequenzen,,6,,,,,,,,,,,,
,Feedback,canvas.Screen,0_3_0_6_1,,timeout,,203959,203959.08,203966.98,207949.26,4029.5599999999977,207951,2021-10-29T09:49:21.344Z,207996.54,1635459224,full,ni_sequenzen,NI_Sequenzen,,6,,,,,,,,,,,,
,Trial,flow.Sequence,0_3_0_6,,completion,,198027,198094.88,198101.64,207949.26,9847.619999999995,207952,2021-10-29T09:49:21.345Z,207999.24,1635459224,full,ni_sequenzen,NI_Sequenzen,,6,,,,,,,,,,,,
,Move,canvas.Screen,0_3_0_7_0_0,left,response,,207997,207996.54,207999.24,208578,578.7600000000093,208596,2021-10-29T09:49:21.989Z,208665.72,1635459224,full,ni_sequenzen,NI_Sequenzen,1,7,,,,,,,,,,,,
,Move,canvas.Screen,0_3_0_7_0_1,down,response,,208661,208661.1,208665.72,208876,210.27999999999884,208879,2021-10-29T09:49:22.272Z,208949,1635459224,full,ni_sequenzen,NI_Sequenzen,2,7,,,,,,,,,,,,
,Move,canvas.Screen,0_3_0_7_0_2,left,response,,208934,208934.22,208949,209156,207,209173,2021-10-29T09:49:22.566Z,209215.64,1635459224,full,ni_sequenzen,NI_Sequenzen,3,7,,,,,,,,,,,,
,Move,canvas.Screen,0_3_0_7_0_3,right,response,,209208,209207.38,209215.64,209423,207.35999999998603,209439,2021-10-29T09:49:22.832Z,209815.48,1635459224,full,ni_sequenzen,NI_Sequenzen,4,7,,,,,,,,,,,,
,Move,canvas.Screen,0_3_0_7_0_4,-999,skipped,,209476,,,209423,,209476,2021-10-29T09:49:22.869Z,209815.48,1635459224,full,ni_sequenzen,NI_Sequenzen,5,7,,,,,,,,,,,,
,Move,canvas.Screen,0_3_0_7_0_5,-999,skipped,,209510,,,209423,,209510,2021-10-29T09:49:22.903Z,209815.48,1635459224,full,ni_sequenzen,NI_Sequenzen,6,7,,,,,,,,,,,,
,Move,canvas.Screen,0_3_0_7_0_6,-999,skipped,,209549,,,209423,,209549,2021-10-29T09:49:22.943Z,209815.48,1635459224,full,ni_sequenzen,NI_Sequenzen,7,7,,,,,,,,,,,,
,Move,canvas.Screen,0_3_0_7_0_7,-999,skipped,,209585,,,209423,,209585,2021-10-29T09:49:22.978Z,209815.48,1635459224,full,ni_sequenzen,NI_Sequenzen,8,7,,,,,,,,,,,,
,Move,canvas.Screen,0_3_0_7_0_8,-999,skipped,,209625,,,209423,,209625,2021-10-29T09:49:23.018Z,209815.48,1635459224,full,ni_sequenzen,NI_Sequenzen,9,7,,,,,,,,,,,,
,Move,canvas.Screen,0_3_0_7_0_9,-999,skipped,,209647,,,209423,,209647,2021-10-29T09:49:23.040Z,209815.48,1635459224,full,ni_sequenzen,NI_Sequenzen,10,7,,,,,,,,,,,,
,Move,canvas.Screen,0_3_0_7_0_10,-999,skipped,,209677,,,209423,,209678,2021-10-29T09:49:23.070Z,209815.48,1635459224,full,ni_sequenzen,NI_Sequenzen,11,7,,,,,,,,,,,,
,Move,canvas.Screen,0_3_0_7_0_11,-999,skipped,,209707,,,209423,,209707,2021-10-29T09:49:23.100Z,209815.48,1635459224,full,ni_sequenzen,NI_Sequenzen,12,7,,,,,,,,,,,,
,Move,canvas.Screen,0_3_0_7_0_12,-999,skipped,,209732,,,209423,,209732,2021-10-29T09:49:23.126Z,209815.48,1635459224,full,ni_sequenzen,NI_Sequenzen,13,7,,,,,,,,,,,,
,Move,canvas.Screen,0_3_0_7_0_13,-999,skipped,,209764,,,209423,,209764,2021-10-29T09:49:23.157Z,209815.48,1635459224,full,ni_sequenzen,NI_Sequenzen,14,7,,,,,,,,,,,,
,Move,canvas.Screen,0_3_0_7_0_14,-999,skipped,,209793,,,209423,,209794,2021-10-29T09:49:23.187Z,209815.48,1635459224,full,ni_sequenzen,NI_Sequenzen,15,7,,,,,,,,,,,,
,Loop,flow.Loop,0_3_0_7_0,-999,completion,,207964,207996.54,207999.24,209423,1423.7600000000093,209794,2021-10-29T09:49:23.187Z,209815.48,1635459224,full,ni_sequenzen,NI_Sequenzen,,7,,,,,,,,,,,,
,Feedback,canvas.Screen,0_3_0_7_1,,timeout,,209813,209812.4,209815.48,213797.9,4039.5599999999977,213800,2021-10-29T09:49:27.194Z,213855.04,1635459224,full,ni_sequenzen,NI_Sequenzen,,7,,,,,,,,,,,,
,Trial,flow.Sequence,0_3_0_7,,completion,,207958,207996.54,207999.24,213797.9,5798.6600000000035,213804,2021-10-29T09:49:27.197Z,213864.56,1635459224,full,ni_sequenzen,NI_Sequenzen,,7,,,,,,,,,,,,
,Move,canvas.Screen,0_3_0_8_0_0,left,response,,213855,213855.04,213864.56,214265,400.4400000000023,214281,2021-10-29T09:49:27.674Z,214347.72,1635459224,full,ni_sequenzen,NI_Sequenzen,1,8,,,,,,,,,,,,
,Move,canvas.Screen,0_3_0_8_0_1,down,response,,214337,214336.58,214347.72,214562,214.27999999999884,214571,2021-10-29T09:49:27.964Z,214631.02,1635459224,full,ni_sequenzen,NI_Sequenzen,2,8,,,,,,,,,,,,
,Move,canvas.Screen,0_3_0_8_0_2,left,response,,214626,214625.54,214631.02,214890,258.9800000000105,214899,2021-10-29T09:49:28.292Z,214964.3,1635459224,full,ni_sequenzen,NI_Sequenzen,3,8,,,,,,,,,,,,
,Move,canvas.Screen,0_3_0_8_0_3,right,response,,214961,214961.52,214964.3,215173,208.70000000001164,215184,2021-10-29T09:49:28.577Z,215597.4,1635459224,full,ni_sequenzen,NI_Sequenzen,4,8,,,,,,,,,,,,
,Move,canvas.Screen,0_3_0_8_0_4,-999,skipped,,215226,,,215173,,215226,2021-10-29T09:49:28.618Z,215597.4,1635459224,full,ni_sequenzen,NI_Sequenzen,5,8,,,,,,,,,,,,
,Move,canvas.Screen,0_3_0_8_0_5,-999,skipped,,215261,,,215173,,215261,2021-10-29T09:49:28.654Z,215597.4,1635459224,full,ni_sequenzen,NI_Sequenzen,6,8,,,,,,,,,,,,
,Move,canvas.Screen,0_3_0_8_0_6,-999,skipped,,215292,,,215173,,215292,2021-10-29T09:49:28.686Z,215597.4,1635459224,full,ni_sequenzen,NI_Sequenzen,7,8,,,,,,,,,,,,
,Move,canvas.Screen,0_3_0_8_0_7,-999,skipped,,215324,,,215173,,215325,2021-10-29T09:49:28.717Z,215597.4,1635459224,full,ni_sequenzen,NI_Sequenzen,8,8,,,,,,,,,,,,
,Move,canvas.Screen,0_3_0_8_0_8,-999,skipped,,215347,,,215173,,215347,2021-10-29T09:49:28.740Z,215597.4,1635459224,full,ni_sequenzen,NI_Sequenzen,9,8,,,,,,,,,,,,
,Move,canvas.Screen,0_3_0_8_0_9,-999,skipped,,215376,,,215173,,215376,2021-10-29T09:49:28.770Z,215597.4,1635459224,full,ni_sequenzen,NI_Sequenzen,10,8,,,,,,,,,,,,
,Move,canvas.Screen,0_3_0_8_0_10,-999,skipped,,215406,,,215173,,215406,2021-10-29T09:49:28.799Z,215597.4,1635459224,full,ni_sequenzen,NI_Sequenzen,11,8,,,,,,,,,,,,
,Move,canvas.Screen,0_3_0_8_0_11,-999,skipped,,215436,,,215173,,215437,2021-10-29T09:49:28.830Z,215597.4,1635459224,full,ni_sequenzen,NI_Sequenzen,12,8,,,,,,,,,,,,
,Move,canvas.Screen,0_3_0_8_0_12,-999,skipped,,215472,,,215173,,215472,2021-10-29T09:49:28.865Z,215597.4,1635459224,full,ni_sequenzen,NI_Sequenzen,13,8,,,,,,,,,,,,
,Move,canvas.Screen,0_3_0_8_0_13,-999,skipped,,215507,,,215173,,215507,2021-10-29T09:49:28.900Z,215597.4,1635459224,full,ni_sequenzen,NI_Sequenzen,14,8,,,,,,,,,,,,
,Move,canvas.Screen,0_3_0_8_0_14,-999,skipped,,215545,,,215173,,215545,2021-10-29T09:49:28.938Z,215597.4,1635459224,full,ni_sequenzen,NI_Sequenzen,15,8,,,,,,,,,,,,
,Loop,flow.Loop,0_3_0_8_0,-999,completion,,213822,213855.04,213864.56,215173,1308.4400000000023,215546,2021-10-29T09:49:28.939Z,215597.4,1635459224,full,ni_sequenzen,NI_Sequenzen,,8,,,,,,,,,,,,
,Feedback,canvas.Screen,0_3_0_8_1,,timeout,,215593,215593.28,215597.4,219579.82,4042.3800000000047,219586,2021-10-29T09:49:32.979Z,219639.78,1635459224,full,ni_sequenzen,NI_Sequenzen,,8,,,,,,,,,,,,
,Trial,flow.Sequence,0_3_0_8,,completion,,213806,213855.04,213864.56,219579.82,5715.260000000009,219588,2021-10-29T09:49:32.980Z,219646.48,1635459224,full,ni_sequenzen,NI_Sequenzen,,8,,,,,,,,,,,,
,Move,canvas.Screen,0_3_0_9_0_0,down,response,,219640,219639.78,219646.48,221484,1837.5199999999895,221503,2021-10-29T09:49:34.896Z,221545.78,1635459224,full,ni_sequenzen,NI_Sequenzen,1,9,,,,,,,,,,,,
,Move,canvas.Screen,0_3_0_9_0_1,down,response,,221540,221540.64,221545.78,221812,266.22000000000116,221823,2021-10-29T09:49:35.216Z,221879.08,1635459224,full,ni_sequenzen,NI_Sequenzen,2,9,,,,,,,,,,,,
,Move,canvas.Screen,0_3_0_9_0_2,right,response,,221874,221874.54,221879.08,222173,293.9200000000128,222177,2021-10-29T09:49:35.570Z,222229.04,1635459224,full,ni_sequenzen,NI_Sequenzen,3,9,,,,,,,,,,,,
,Move,canvas.Screen,0_3_0_9_0_3,down,response,,222220,222220.3,222229.04,222500,270.95999999999185,222508,2021-10-29T09:49:35.901Z,222895.62,1635459224,full,ni_sequenzen,NI_Sequenzen,4,9,,,,,,,,,,,,
,Move,canvas.Screen,0_3_0_9_0_4,-999,skipped,,222546,,,222500,,222546,2021-10-29T09:49:35.938Z,222895.62,1635459224,full,ni_sequenzen,NI_Sequenzen,5,9,,,,,,,,,,,,
,Move,canvas.Screen,0_3_0_9_0_5,-999,skipped,,222580,,,222500,,222582,2021-10-29T09:49:35.974Z,222895.62,1635459224,full,ni_sequenzen,NI_Sequenzen,6,9,,,,,,,,,,,,
,Move,canvas.Screen,0_3_0_9_0_6,-999,skipped,,222621,,,222500,,222621,2021-10-29T09:49:36.014Z,222895.62,1635459224,full,ni_sequenzen,NI_Sequenzen,7,9,,,,,,,,,,,,
,Move,canvas.Screen,0_3_0_9_0_7,-999,skipped,,222645,,,222500,,222646,2021-10-29T09:49:36.039Z,222895.62,1635459224,full,ni_sequenzen,NI_Sequenzen,8,9,,,,,,,,,,,,
,Move,canvas.Screen,0_3_0_9_0_8,-999,skipped,,222680,,,222500,,222680,2021-10-29T09:49:36.074Z,222895.62,1635459224,full,ni_sequenzen,NI_Sequenzen,9,9,,,,,,,,,,,,
,Move,canvas.Screen,0_3_0_9_0_9,-999,skipped,,222719,,,222500,,222719,2021-10-29T09:49:36.113Z,222895.62,1635459224,full,ni_sequenzen,NI_Sequenzen,10,9,,,,,,,,,,,,
,Move,canvas.Screen,0_3_0_9_0_10,-999,skipped,,222754,,,222500,,222754,2021-10-29T09:49:36.148Z,222895.62,1635459224,full,ni_sequenzen,NI_Sequenzen,11,9,,,,,,,,,,,,
,Move,canvas.Screen,0_3_0_9_0_11,-999,skipped,,222779,,,222500,,222779,2021-10-29T09:49:36.171Z,222895.62,1635459224,full,ni_sequenzen,NI_Sequenzen,12,9,,,,,,,,,,,,
,Move,canvas.Screen,0_3_0_9_0_12,-999,skipped,,222808,,,222500,,222808,2021-10-29T09:49:36.201Z,222895.62,1635459224,full,ni_sequenzen,NI_Sequenzen,13,9,,,,,,,,,,,,
,Move,canvas.Screen,0_3_0_9_0_13,-999,skipped,,222837,,,222500,,222838,2021-10-29T09:49:36.231Z,222895.62,1635459224,full,ni_sequenzen,NI_Sequenzen,14,9,,,,,,,,,,,,
,Move,canvas.Screen,0_3_0_9_0_14,-999,skipped,,222862,,,222500,,222862,2021-10-29T09:49:36.256Z,222895.62,1635459224,full,ni_sequenzen,NI_Sequenzen,15,9,,,,,,,,,,,,
,Loop,flow.Loop,0_3_0_9_0,-999,completion,,219605,219639.78,219646.48,222500,2853.5199999999895,222863,2021-10-29T09:49:36.256Z,222895.62,1635459224,full,ni_sequenzen,NI_Sequenzen,,9,,,,,,,,,,,,
,Feedback,canvas.Screen,0_3_0_9_1,,timeout,,222887,222887.44,222895.62,226878.02,4081.0200000000186,226880,2021-10-29T09:49:40.273Z,226976.64,1635459224,full,ni_sequenzen,NI_Sequenzen,,9,,,,,,,,,,,,
,Trial,flow.Sequence,0_3_0_9,,completion,,219589,219639.78,219646.48,226878.02,7231.539999999979,226881,2021-10-29T09:49:40.274Z,226994.66,1635459224,full,ni_sequenzen,NI_Sequenzen,,9,,,,,,,,,,,,
,Block,flow.Loop,0_3_0,,completion,,42839,42975.08,42989.64,226878.02,183888.38,226882,2021-10-29T09:49:40.276Z,226994.66,1635459224,full,ni_sequenzen,NI_Sequenzen,,,,,,,,,,,,,,
,Training_II,flow.Sequence,0_3,,completion,,42804,42975.08,42989.64,226878.02,183888.38,226885,2021-10-29T09:49:40.278Z,226994.66,1635459224,full,ni_sequenzen,NI_Sequenzen,,,,,,,,,,,,,,
,Screen_1,canvas.Screen,0_4_0_0,cont,response,1,226977,226976.64,226994.66,228532,1537.3399999999965,228540,2021-10-29T09:49:41.934Z,228560.9,1635459224,full,ni_sequenzen,NI_Sequenzen,,,,,,,,,,,,,,
,Screen_2,canvas.Screen,0_4_0_1,cont,response,1,228553,228553.42,228560.9,229125,564.1000000000058,229138,2021-10-29T09:49:42.531Z,229260.8,1635459224,full,ni_sequenzen,NI_Sequenzen,,,,,,,,,,,,,,
,Screen_3,canvas.Screen,0_4_0_2,cont,response,1,229246,229245.74,229260.8,230110,849.2000000000116,230119,2021-10-29T09:49:43.512Z,230643.68,1635459224,full,ni_sequenzen,NI_Sequenzen,,,,,,,,,,,,,,
,Sequence,flow.Sequence,0_4_0,,completion,1,226923,226976.64,226994.66,230110,3115.3399999999965,230120,2021-10-29T09:49:43.513Z,230643.68,1635459224,full,ni_sequenzen,NI_Sequenzen,,,,,,,,,,,,,,
,Screen_1,canvas.Screen,0_4_1_0,,skipped,2,230127,,,230127,,230127,2021-10-29T09:49:43.520Z,230643.68,1635459224,full,ni_sequenzen,NI_Sequenzen,,,,,,,,,,,,,,
,Screen_2,canvas.Screen,0_4_1_1,,skipped,2,230135,,,230127,,230135,2021-10-29T09:49:43.528Z,230643.68,1635459224,full,ni_sequenzen,NI_Sequenzen,,,,,,,,,,,,,,
,Screen_3,canvas.Screen,0_4_1_2,,skipped,2,230139,,,230127,,230139,2021-10-29T09:49:43.532Z,230643.68,1635459224,full,ni_sequenzen,NI_Sequenzen,,,,,,,,,,,,,,
,Sequence,flow.Sequence,0_4_1,,completion,2,230121,,,230127,,230139,2021-10-29T09:49:43.532Z,230643.68,1635459224,full,ni_sequenzen,NI_Sequenzen,,,,,,,,,,,,,,
,Screen_1,canvas.Screen,0_4_2_0,,skipped,3,230143,,,230143,,230143,2021-10-29T09:49:43.537Z,230643.68,1635459224,full,ni_sequenzen,NI_Sequenzen,,,,,,,,,,,,,,
,Screen_2,canvas.Screen,0_4_2_1,,skipped,3,230152,,,230143,,230153,2021-10-29T09:49:43.545Z,230643.68,1635459224,full,ni_sequenzen,NI_Sequenzen,,,,,,,,,,,,,,
,Screen_3,canvas.Screen,0_4_2_2,,skipped,3,230156,,,230143,,230156,2021-10-29T09:49:43.549Z,230643.68,1635459224,full,ni_sequenzen,NI_Sequenzen,,,,,,,,,,,,,,
,Sequence,flow.Sequence,0_4_2,,completion,3,230140,,,230143,,230156,2021-10-29T09:49:43.549Z,230643.68,1635459224,full,ni_sequenzen,NI_Sequenzen,,,,,,,,,,,,,,
,Screen_1,canvas.Screen,0_4_3_0,,skipped,4,230160,,,230161,,230161,2021-10-29T09:49:43.554Z,230643.68,1635459224,full,ni_sequenzen,NI_Sequenzen,,,,,,,,,,,,,,
,Screen_2,canvas.Screen,0_4_3_1,,skipped,4,230169,,,230161,,230170,2021-10-29T09:49:43.563Z,230643.68,1635459224,full,ni_sequenzen,NI_Sequenzen,,,,,,,,,,,,,,
,Screen_3,canvas.Screen,0_4_3_2,,skipped,4,230173,,,230161,,230173,2021-10-29T09:49:43.566Z,230643.68,1635459224,full,ni_sequenzen,NI_Sequenzen,,,,,,,,,,,,,,
,Sequence,flow.Sequence,0_4_3,,completion,4,230157,,,230161,,230174,2021-10-29T09:49:43.566Z,230643.68,1635459224,full,ni_sequenzen,NI_Sequenzen,,,,,,,,,,,,,,
,Screen_1,canvas.Screen,0_4_4_0,,skipped,5,230178,,,230178,,230178,2021-10-29T09:49:43.571Z,230643.68,1635459224,full,ni_sequenzen,NI_Sequenzen,,,,,,,,,,,,,,
,Screen_2,canvas.Screen,0_4_4_1,,skipped,5,230186,,,230178,,230186,2021-10-29T09:49:43.579Z,230643.68,1635459224,full,ni_sequenzen,NI_Sequenzen,,,,,,,,,,,,,,
,Screen_3,canvas.Screen,0_4_4_2,,skipped,5,230190,,,230178,,230190,2021-10-29T09:49:43.583Z,230643.68,1635459224,full,ni_sequenzen,NI_Sequenzen,,,,,,,,,,,,,,
,Sequence,flow.Sequence,0_4_4,,completion,5,230175,,,230178,,230190,2021-10-29T09:49:43.583Z,230643.68,1635459224,full,ni_sequenzen,NI_Sequenzen,,,,,,,,,,,,,,
,Screen_1,canvas.Screen,0_4_5_0,,skipped,6,230194,,,230194,,230194,2021-10-29T09:49:43.587Z,230643.68,1635459224,full,ni_sequenzen,NI_Sequenzen,,,,,,,,,,,,,,
,Screen_2,canvas.Screen,0_4_5_1,,skipped,6,230203,,,230194,,230203,2021-10-29T09:49:43.596Z,230643.68,1635459224,full,ni_sequenzen,NI_Sequenzen,,,,,,,,,,,,,,
,Screen_3,canvas.Screen,0_4_5_2,,skipped,6,230206,,,230194,,230206,2021-10-29T09:49:43.599Z,230643.68,1635459224,full,ni_sequenzen,NI_Sequenzen,,,,,,,,,,,,,,
,Sequence,flow.Sequence,0_4_5,,completion,6,230191,,,230194,,230206,2021-10-29T09:49:43.599Z,230643.68,1635459224,full,ni_sequenzen,NI_Sequenzen,,,,,,,,,,,,,,
,Screen_1,canvas.Screen,0_4_6_0,,skipped,7,230211,,,230211,,230211,2021-10-29T09:49:43.603Z,230643.68,1635459224,full,ni_sequenzen,NI_Sequenzen,,,,,,,,,,,,,,
,Screen_2,canvas.Screen,0_4_6_1,,skipped,7,230219,,,230211,,230219,2021-10-29T09:49:43.613Z,230643.68,1635459224,full,ni_sequenzen,NI_Sequenzen,,,,,,,,,,,,,,
,Screen_3,canvas.Screen,0_4_6_2,,skipped,7,230222,,,230211,,230222,2021-10-29T09:49:43.616Z,230643.68,1635459224,full,ni_sequenzen,NI_Sequenzen,,,,,,,,,,,,,,
,Sequence,flow.Sequence,0_4_6,,completion,7,230207,,,230211,,230223,2021-10-29T09:49:43.616Z,230643.68,1635459224,full,ni_sequenzen,NI_Sequenzen,,,,,,,,,,,,,,
,Screen_1,canvas.Screen,0_4_7_0,,skipped,8,230227,,,230227,,230228,2021-10-29T09:49:43.620Z,230643.68,1635459224,full,ni_sequenzen,NI_Sequenzen,,,,,,,,,,,,,,
,Screen_2,canvas.Screen,0_4_7_1,,skipped,8,230235,,,230227,,230236,2021-10-29T09:49:43.629Z,230643.68,1635459224,full,ni_sequenzen,NI_Sequenzen,,,,,,,,,,,,,,
,Screen_3,canvas.Screen,0_4_7_2,,skipped,8,230240,,,230227,,230240,2021-10-29T09:49:43.633Z,230643.68,1635459224,full,ni_sequenzen,NI_Sequenzen,,,,,,,,,,,,,,
,Sequence,flow.Sequence,0_4_7,,completion,8,230224,,,230227,,230240,2021-10-29T09:49:43.633Z,230643.68,1635459224,full,ni_sequenzen,NI_Sequenzen,,,,,,,,,,,,,,
,Screen_1,canvas.Screen,0_4_8_0,,skipped,9,230245,,,230245,,230246,2021-10-29T09:49:43.639Z,230643.68,1635459224,full,ni_sequenzen,NI_Sequenzen,,,,,,,,,,,,,,
,Screen_2,canvas.Screen,0_4_8_1,,skipped,9,230254,,,230245,,230254,2021-10-29T09:49:43.647Z,230643.68,1635459224,full,ni_sequenzen,NI_Sequenzen,,,,,,,,,,,,,,
,Screen_3,canvas.Screen,0_4_8_2,,skipped,9,230257,,,230245,,230258,2021-10-29T09:49:43.650Z,230643.68,1635459224,full,ni_sequenzen,NI_Sequenzen,,,,,,,,,,,,,,
,Sequence,flow.Sequence,0_4_8,,completion,9,230241,,,230245,,230258,2021-10-29T09:49:43.650Z,230643.68,1635459224,full,ni_sequenzen,NI_Sequenzen,,,,,,,,,,,,,,
,Screen_1,canvas.Screen,0_4_9_0,,skipped,10,230267,,,230267,,230267,2021-10-29T09:49:43.660Z,230643.68,1635459224,full,ni_sequenzen,NI_Sequenzen,,,,,,,,,,,,,,
,Screen_2,canvas.Screen,0_4_9_1,,skipped,10,230271,,,230267,,230271,2021-10-29T09:49:43.664Z,230643.68,1635459224,full,ni_sequenzen,NI_Sequenzen,,,,,,,,,,,,,,
,Screen_3,canvas.Screen,0_4_9_2,,skipped,10,230275,,,230267,,230275,2021-10-29T09:49:43.667Z,230643.68,1635459224,full,ni_sequenzen,NI_Sequenzen,,,,,,,,,,,,,,
,Sequence,flow.Sequence,0_4_9,,completion,10,230259,,,230267,,230275,2021-10-29T09:49:43.667Z,230643.68,1635459224,full,ni_sequenzen,NI_Sequenzen,,,,,,,,,,,,,,
,Screen_1,canvas.Screen,0_4_10_0,,skipped,11,230284,,,230284,,230284,2021-10-29T09:49:43.677Z,230643.68,1635459224,full,ni_sequenzen,NI_Sequenzen,,,,,,,,,,,,,,
,Screen_2,canvas.Screen,0_4_10_1,,skipped,11,230287,,,230284,,230287,2021-10-29T09:49:43.681Z,230643.68,1635459224,full,ni_sequenzen,NI_Sequenzen,,,,,,,,,,,,,,
,Screen_3,canvas.Screen,0_4_10_2,,skipped,11,230291,,,230284,,230291,2021-10-29T09:49:43.684Z,230643.68,1635459224,full,ni_sequenzen,NI_Sequenzen,,,,,,,,,,,,,,
,Sequence,flow.Sequence,0_4_10,,completion,11,230275,,,230284,,230291,2021-10-29T09:49:43.684Z,230643.68,1635459224,full,ni_sequenzen,NI_Sequenzen,,,,,,,,,,,,,,
,Screen_1,canvas.Screen,0_4_11_0,,skipped,12,230300,,,230300,,230300,2021-10-29T09:49:43.694Z,230643.68,1635459224,full,ni_sequenzen,NI_Sequenzen,,,,,,,,,,,,,,
,Screen_2,canvas.Screen,0_4_11_1,,skipped,12,230303,,,230300,,230304,2021-10-29T09:49:43.697Z,230643.68,1635459224,full,ni_sequenzen,NI_Sequenzen,,,,,,,,,,,,,,
,Screen_3,canvas.Screen,0_4_11_2,,skipped,12,230307,,,230300,,230307,2021-10-29T09:49:43.700Z,230643.68,1635459224,full,ni_sequenzen,NI_Sequenzen,,,,,,,,,,,,,,
,Sequence,flow.Sequence,0_4_11,,completion,12,230292,,,230300,,230308,2021-10-29T09:49:43.700Z,230643.68,1635459224,full,ni_sequenzen,NI_Sequenzen,,,,,,,,,,,,,,
,Screen_1,canvas.Screen,0_4_12_0,,skipped,13,230317,,,230317,,230317,2021-10-29T09:49:43.711Z,230643.68,1635459224,full,ni_sequenzen,NI_Sequenzen,,,,,,,,,,,,,,
,Screen_2,canvas.Screen,0_4_12_1,,skipped,13,230320,,,230317,,230320,2021-10-29T09:49:43.713Z,230643.68,1635459224,full,ni_sequenzen,NI_Sequenzen,,,,,,,,,,,,,,
,Screen_3,canvas.Screen,0_4_12_2,,skipped,13,230324,,,230317,,230324,2021-10-29T09:49:43.717Z,230643.68,1635459224,full,ni_sequenzen,NI_Sequenzen,,,,,,,,,,,,,,
,Sequence,flow.Sequence,0_4_12,,completion,13,230309,,,230317,,230324,2021-10-29T09:49:43.717Z,230643.68,1635459224,full,ni_sequenzen,NI_Sequenzen,,,,,,,,,,,,,,
,Screen_1,canvas.Screen,0_4_13_0,,skipped,14,230333,,,230333,,230333,2021-10-29T09:49:43.726Z,230643.68,1635459224,full,ni_sequenzen,NI_Sequenzen,,,,,,,,,,,,,,
,Screen_2,canvas.Screen,0_4_13_1,,skipped,14,230337,,,230333,,230337,2021-10-29T09:49:43.730Z,230643.68,1635459224,full,ni_sequenzen,NI_Sequenzen,,,,,,,,,,,,,,
,Screen_3,canvas.Screen,0_4_13_2,,skipped,14,230340,,,230333,,230340,2021-10-29T09:49:43.733Z,230643.68,1635459224,full,ni_sequenzen,NI_Sequenzen,,,,,,,,,,,,,,
,Sequence,flow.Sequence,0_4_13,,completion,14,230325,,,230333,,230340,2021-10-29T09:49:43.733Z,230643.68,1635459224,full,ni_sequenzen,NI_Sequenzen,,,,,,,,,,,,,,
,Screen_1,canvas.Screen,0_4_14_0,,skipped,15,230346,,,230346,,230346,2021-10-29T09:49:43.740Z,230643.68,1635459224,full,ni_sequenzen,NI_Sequenzen,,,,,,,,,,,,,,
,Screen_2,canvas.Screen,0_4_14_1,,skipped,15,230353,,,230346,,230353,2021-10-29T09:49:43.746Z,230643.68,1635459224,full,ni_sequenzen,NI_Sequenzen,,,,,,,,,,,,,,
,Screen_3,canvas.Screen,0_4_14_2,,skipped,15,230356,,,230346,,230356,2021-10-29T09:49:43.750Z,230643.68,1635459224,full,ni_sequenzen,NI_Sequenzen,,,,,,,,,,,,,,
,Sequence,flow.Sequence,0_4_14,,completion,15,230341,,,230346,,230357,2021-10-29T09:49:43.750Z,230643.68,1635459224,full,ni_sequenzen,NI_Sequenzen,,,,,,,,,,,,,,
,Screen_1,canvas.Screen,0_4_15_0,,skipped,16,230361,,,230361,,230361,2021-10-29T09:49:43.753Z,230643.68,1635459224,full,ni_sequenzen,NI_Sequenzen,,,,,,,,,,,,,,
,Screen_2,canvas.Screen,0_4_15_1,,skipped,16,230368,,,230361,,230368,2021-10-29T09:49:43.762Z,230643.68,1635459224,full,ni_sequenzen,NI_Sequenzen,,,,,,,,,,,,,,
,Screen_3,canvas.Screen,0_4_15_2,,skipped,16,230373,,,230361,,230373,2021-10-29T09:49:43.765Z,230643.68,1635459224,full,ni_sequenzen,NI_Sequenzen,,,,,,,,,,,,,,
,Sequence,flow.Sequence,0_4_15,,completion,16,230358,,,230361,,230373,2021-10-29T09:49:43.766Z,230643.68,1635459224,full,ni_sequenzen,NI_Sequenzen,,,,,,,,,,,,,,
,Screen_1,canvas.Screen,0_4_16_0,,skipped,17,230377,,,230377,,230377,2021-10-29T09:49:43.770Z,230643.68,1635459224,full,ni_sequenzen,NI_Sequenzen,,,,,,,,,,,,,,
,Screen_2,canvas.Screen,0_4_16_1,,skipped,17,230386,,,230377,,230386,2021-10-29T09:49:43.778Z,230643.68,1635459224,full,ni_sequenzen,NI_Sequenzen,,,,,,,,,,,,,,
,Screen_3,canvas.Screen,0_4_16_2,,skipped,17,230389,,,230377,,230389,2021-10-29T09:49:43.781Z,230643.68,1635459224,full,ni_sequenzen,NI_Sequenzen,,,,,,,,,,,,,,
,Sequence,flow.Sequence,0_4_16,,completion,17,230374,,,230377,,230389,2021-10-29T09:49:43.781Z,230643.68,1635459224,full,ni_sequenzen,NI_Sequenzen,,,,,,,,,,,,,,
,Screen_1,canvas.Screen,0_4_17_0,,skipped,18,230392,,,230392,,230392,2021-10-29T09:49:43.785Z,230643.68,1635459224,full,ni_sequenzen,NI_Sequenzen,,,,,,,,,,,,,,
,Screen_2,canvas.Screen,0_4_17_1,,skipped,18,230400,,,230392,,230400,2021-10-29T09:49:43.793Z,230643.68,1635459224,full,ni_sequenzen,NI_Sequenzen,,,,,,,,,,,,,,
,Screen_3,canvas.Screen,0_4_17_2,,skipped,18,230404,,,230392,,230404,2021-10-29T09:49:43.797Z,230643.68,1635459224,full,ni_sequenzen,NI_Sequenzen,,,,,,,,,,,,,,
,Sequence,flow.Sequence,0_4_17,,completion,18,230390,,,230392,,230404,2021-10-29T09:49:43.797Z,230643.68,1635459224,full,ni_sequenzen,NI_Sequenzen,,,,,,,,,,,,,,
,Screen_1,canvas.Screen,0_4_18_0,,skipped,19,230408,,,230408,,230408,2021-10-29T09:49:43.801Z,230643.68,1635459224,full,ni_sequenzen,NI_Sequenzen,,,,,,,,,,,,,,
,Screen_2,canvas.Screen,0_4_18_1,,skipped,19,230410,,,230408,,230410,2021-10-29T09:49:43.804Z,230643.68,1635459224,full,ni_sequenzen,NI_Sequenzen,,,,,,,,,,,,,,
,Screen_3,canvas.Screen,0_4_18_2,,skipped,19,230419,,,230408,,230419,2021-10-29T09:49:43.812Z,230643.68,1635459224,full,ni_sequenzen,NI_Sequenzen,,,,,,,,,,,,,,
,Sequence,flow.Sequence,0_4_18,,completion,19,230405,,,230408,,230419,2021-10-29T09:49:43.812Z,230643.68,1635459224,full,ni_sequenzen,NI_Sequenzen,,,,,,,,,,,,,,
,Screen_1,canvas.Screen,0_4_19_0,,skipped,20,230423,,,230423,,230423,2021-10-29T09:49:43.816Z,230643.68,1635459224,full,ni_sequenzen,NI_Sequenzen,,,,,,,,,,,,,,
,Screen_2,canvas.Screen,0_4_19_1,,skipped,20,230426,,,230423,,230426,2021-10-29T09:49:43.819Z,230643.68,1635459224,full,ni_sequenzen,NI_Sequenzen,,,,,,,,,,,,,,
