meta,sender,sender_type,sender_id,response,ended_on,instrCount,time_run,time_render,time_show,time_end,duration,time_commit,timestamp,time_switch,openLabId,type,task,project,move,trialN,blockN_Train,blockN,moveCount,currPP,points,movesTrial,visitedFields,diff,reward,Strategie,Zweck,Probleme
[object Object],Screen_1,canvas.Screen,0_0_0_0,cont,response,1,406,429.44,446.1,24753,24306.9,24771,2021-11-03T12:02:23.885Z,24831.8,1635940904,full,ni_sequenzen,NI_Sequenzen,,,,,,,,,,,,,,
,Screen_2,canvas.Screen,0_0_0_1,cont,response,1,24830,24829.34,24831.8,57956,33124.2,57968,2021-11-03T12:02:57.081Z,58013.28,1635940904,full,ni_sequenzen,NI_Sequenzen,,,,,,,,,,,,,,
,Screen_3,canvas.Screen,0_0_0_2,cont,response,1,58013,58012.96,58013.28,88098,30084.72,88106,2021-11-03T12:03:27.220Z,88110.36,1635940904,full,ni_sequenzen,NI_Sequenzen,,,,,,,,,,,,,,
,Screen_4,canvas.Screen,0_0_0_3,back,response,1,88111,88110.22,88110.36,95785,7674.639999999999,95803,2021-11-03T12:03:34.916Z,95810.78,1635940904,full,ni_sequenzen,NI_Sequenzen,,,,,,,,,,,,,,
,Sequence,flow.Sequence,0_0_0,,completion,1,369,429.44,446.1,95785,95338.9,95804,2021-11-03T12:03:34.917Z,95810.78,1635940904,full,ni_sequenzen,NI_Sequenzen,,,,,,,,,,,,,,
,Screen_1,canvas.Screen,0_0_1_0,,skipped,2,95808,,,95808,,95808,2021-11-03T12:03:34.921Z,95810.78,1635940904,full,ni_sequenzen,NI_Sequenzen,,,,,,,,,,,,,,
,Screen_2,canvas.Screen,0_0_1_1,,skipped,2,95809,,,95808,,95809,2021-11-03T12:03:34.923Z,95810.78,1635940904,full,ni_sequenzen,NI_Sequenzen,,,,,,,,,,,,,,
,Screen_3,canvas.Screen,0_0_1_2,cont,response,2,95810,95810.42,95810.78,97690,1879.2200000000012,97694,2021-11-03T12:03:36.808Z,97697,1635940904,full,ni_sequenzen,NI_Sequenzen,,,,,,,,,,,,,,
,Screen_4,canvas.Screen,0_0_1_3,cont,response,2,97696,97696.82,97697,101832,4135,101846,2021-11-03T12:03:40.960Z,101968.38,1635940904,full,ni_sequenzen,NI_Sequenzen,,,,,,,,,,,,,,
,Sequence,flow.Sequence,0_0_1,,completion,2,95806,95810.42,95810.78,101832,6021.220000000001,101846,2021-11-03T12:03:40.960Z,101968.38,1635940904,full,ni_sequenzen,NI_Sequenzen,,,,,,,,,,,,,,
,Screen_1,canvas.Screen,0_0_2_0,,skipped,3,101849,,,101849,,101849,2021-11-03T12:03:40.963Z,101968.38,1635940904,full,ni_sequenzen,NI_Sequenzen,,,,,,,,,,,,,,
,Screen_2,canvas.Screen,0_0_2_1,,skipped,3,101851,,,101849,,101851,2021-11-03T12:03:40.964Z,101968.38,1635940904,full,ni_sequenzen,NI_Sequenzen,,,,,,,,,,,,,,
,Screen_3,canvas.Screen,0_0_2_2,,skipped,3,101853,,,101849,,101853,2021-11-03T12:03:40.967Z,101968.38,1635940904,full,ni_sequenzen,NI_Sequenzen,,,,,,,,,,,,,,
,Screen_4,canvas.Screen,0_0_2_3,,skipped,3,101854,,,101849,,101854,2021-11-03T12:03:40.968Z,101968.38,1635940904,full,ni_sequenzen,NI_Sequenzen,,,,,,,,,,,,,,
,Sequence,flow.Sequence,0_0_2,,completion,3,101848,,,101849,,101855,2021-11-03T12:03:40.968Z,101968.38,1635940904,full,ni_sequenzen,NI_Sequenzen,,,,,,,,,,,,,,
,Screen_1,canvas.Screen,0_0_3_0,,skipped,4,101856,,,101856,,101856,2021-11-03T12:03:40.969Z,101968.38,1635940904,full,ni_sequenzen,NI_Sequenzen,,,,,,,,,,,,,,
,Screen_2,canvas.Screen,0_0_3_1,,skipped,4,101857,,,101856,,101857,2021-11-03T12:03:40.971Z,101968.38,1635940904,full,ni_sequenzen,NI_Sequenzen,,,,,,,,,,,,,,
,Screen_3,canvas.Screen,0_0_3_2,,skipped,4,101858,,,101856,,101858,2021-11-03T12:03:40.971Z,101968.38,1635940904,full,ni_sequenzen,NI_Sequenzen,,,,,,,,,,,,,,
,Screen_4,canvas.Screen,0_0_3_3,,skipped,4,101859,,,101856,,101860,2021-11-03T12:03:40.973Z,101968.38,1635940904,full,ni_sequenzen,NI_Sequenzen,,,,,,,,,,,,,,
,Sequence,flow.Sequence,0_0_3,,completion,4,101855,,,101856,,101860,2021-11-03T12:03:40.973Z,101968.38,1635940904,full,ni_sequenzen,NI_Sequenzen,,,,,,,,,,,,,,
,Screen_1,canvas.Screen,0_0_4_0,,skipped,5,101860,,,101860,,101860,2021-11-03T12:03:40.974Z,101968.38,1635940904,full,ni_sequenzen,NI_Sequenzen,,,,,,,,,,,,,,
,Screen_2,canvas.Screen,0_0_4_1,,skipped,5,101861,,,101860,,101861,2021-11-03T12:03:40.975Z,101968.38,1635940904,full,ni_sequenzen,NI_Sequenzen,,,,,,,,,,,,,,
,Screen_3,canvas.Screen,0_0_4_2,,skipped,5,101861,,,101860,,101861,2021-11-03T12:03:40.975Z,101968.38,1635940904,full,ni_sequenzen,NI_Sequenzen,,,,,,,,,,,,,,
,Screen_4,canvas.Screen,0_0_4_3,,skipped,5,101862,,,101860,,101862,2021-11-03T12:03:40.976Z,101968.38,1635940904,full,ni_sequenzen,NI_Sequenzen,,,,,,,,,,,,,,
,Sequence,flow.Sequence,0_0_4,,completion,5,101860,,,101860,,101862,2021-11-03T12:03:40.976Z,101968.38,1635940904,full,ni_sequenzen,NI_Sequenzen,,,,,,,,,,,,,,
,Screen_1,canvas.Screen,0_0_5_0,,skipped,6,101863,,,101863,,101863,2021-11-03T12:03:40.978Z,101968.38,1635940904,full,ni_sequenzen,NI_Sequenzen,,,,,,,,,,,,,,
,Screen_2,canvas.Screen,0_0_5_1,,skipped,6,101865,,,101863,,101865,2021-11-03T12:03:40.978Z,101968.38,1635940904,full,ni_sequenzen,NI_Sequenzen,,,,,,,,,,,,,,
,Screen_3,canvas.Screen,0_0_5_2,,skipped,6,101865,,,101863,,101865,2021-11-03T12:03:40.979Z,101968.38,1635940904,full,ni_sequenzen,NI_Sequenzen,,,,,,,,,,,,,,
,Screen_4,canvas.Screen,0_0_5_3,,skipped,6,101865,,,101863,,101865,2021-11-03T12:03:40.980Z,101968.38,1635940904,full,ni_sequenzen,NI_Sequenzen,,,,,,,,,,,,,,
,Sequence,flow.Sequence,0_0_5,,completion,6,101863,,,101863,,101866,2021-11-03T12:03:40.980Z,101968.38,1635940904,full,ni_sequenzen,NI_Sequenzen,,,,,,,,,,,,,,
,Screen_1,canvas.Screen,0_0_6_0,,skipped,7,101867,,,101867,,101867,2021-11-03T12:03:40.981Z,101968.38,1635940904,full,ni_sequenzen,NI_Sequenzen,,,,,,,,,,,,,,
,Screen_2,canvas.Screen,0_0_6_1,,skipped,7,101868,,,101867,,101868,2021-11-03T12:03:40.982Z,101968.38,1635940904,full,ni_sequenzen,NI_Sequenzen,,,,,,,,,,,,,,
,Screen_3,canvas.Screen,0_0_6_2,,skipped,7,101868,,,101867,,101868,2021-11-03T12:03:40.982Z,101968.38,1635940904,full,ni_sequenzen,NI_Sequenzen,,,,,,,,,,,,,,
,Screen_4,canvas.Screen,0_0_6_3,,skipped,7,101869,,,101867,,101869,2021-11-03T12:03:40.983Z,101968.38,1635940904,full,ni_sequenzen,NI_Sequenzen,,,,,,,,,,,,,,
,Sequence,flow.Sequence,0_0_6,,completion,7,101866,,,101867,,101869,2021-11-03T12:03:40.983Z,101968.38,1635940904,full,ni_sequenzen,NI_Sequenzen,,,,,,,,,,,,,,
,Screen_1,canvas.Screen,0_0_7_0,,skipped,8,101870,,,101870,,101871,2021-11-03T12:03:40.984Z,101968.38,1635940904,full,ni_sequenzen,NI_Sequenzen,,,,,,,,,,,,,,
,Screen_2,canvas.Screen,0_0_7_1,,skipped,8,101871,,,101870,,101871,2021-11-03T12:03:40.985Z,101968.38,1635940904,full,ni_sequenzen,NI_Sequenzen,,,,,,,,,,,,,,
,Screen_3,canvas.Screen,0_0_7_2,,skipped,8,101872,,,101870,,101872,2021-11-03T12:03:40.986Z,101968.38,1635940904,full,ni_sequenzen,NI_Sequenzen,,,,,,,,,,,,,,
,Screen_4,canvas.Screen,0_0_7_3,,skipped,8,101873,,,101870,,101873,2021-11-03T12:03:40.987Z,101968.38,1635940904,full,ni_sequenzen,NI_Sequenzen,,,,,,,,,,,,,,
,Sequence,flow.Sequence,0_0_7,,completion,8,101870,,,101870,,101873,2021-11-03T12:03:40.987Z,101968.38,1635940904,full,ni_sequenzen,NI_Sequenzen,,,,,,,,,,,,,,
,Screen_1,canvas.Screen,0_0_8_0,,skipped,9,101873,,,101873,,101873,2021-11-03T12:03:40.987Z,101968.38,1635940904,full,ni_sequenzen,NI_Sequenzen,,,,,,,,,,,,,,
,Screen_2,canvas.Screen,0_0_8_1,,skipped,9,101874,,,101873,,101874,2021-11-03T12:03:40.988Z,101968.38,1635940904,full,ni_sequenzen,NI_Sequenzen,,,,,,,,,,,,,,
,Screen_3,canvas.Screen,0_0_8_2,,skipped,9,101875,,,101873,,101875,2021-11-03T12:03:40.989Z,101968.38,1635940904,full,ni_sequenzen,NI_Sequenzen,,,,,,,,,,,,,,
,Screen_4,canvas.Screen,0_0_8_3,,skipped,9,101876,,,101873,,101876,2021-11-03T12:03:40.989Z,101968.38,1635940904,full,ni_sequenzen,NI_Sequenzen,,,,,,,,,,,,,,
,Sequence,flow.Sequence,0_0_8,,completion,9,101873,,,101873,,101876,2021-11-03T12:03:40.989Z,101968.38,1635940904,full,ni_sequenzen,NI_Sequenzen,,,,,,,,,,,,,,
,Screen_1,canvas.Screen,0_0_9_0,,skipped,10,101877,,,101877,,101877,2021-11-03T12:03:40.991Z,101968.38,1635940904,full,ni_sequenzen,NI_Sequenzen,,,,,,,,,,,,,,
,Screen_2,canvas.Screen,0_0_9_1,,skipped,10,101878,,,101877,,101878,2021-11-03T12:03:40.992Z,101968.38,1635940904,full,ni_sequenzen,NI_Sequenzen,,,,,,,,,,,,,,
,Screen_3,canvas.Screen,0_0_9_2,,skipped,10,101878,,,101877,,101878,2021-11-03T12:03:40.992Z,101968.38,1635940904,full,ni_sequenzen,NI_Sequenzen,,,,,,,,,,,,,,
,Screen_4,canvas.Screen,0_0_9_3,,skipped,10,101878,,,101877,,101879,2021-11-03T12:03:40.992Z,101968.38,1635940904,full,ni_sequenzen,NI_Sequenzen,,,,,,,,,,,,,,
,Sequence,flow.Sequence,0_0_9,,completion,10,101876,,,101877,,101879,2021-11-03T12:03:40.993Z,101968.38,1635940904,full,ni_sequenzen,NI_Sequenzen,,,,,,,,,,,,,,
,Screen_1,canvas.Screen,0_0_10_0,,skipped,11,101880,,,101880,,101880,2021-11-03T12:03:40.994Z,101968.38,1635940904,full,ni_sequenzen,NI_Sequenzen,,,,,,,,,,,,,,
,Screen_2,canvas.Screen,0_0_10_1,,skipped,11,101881,,,101880,,101881,2021-11-03T12:03:40.995Z,101968.38,1635940904,full,ni_sequenzen,NI_Sequenzen,,,,,,,,,,,,,,
,Screen_3,canvas.Screen,0_0_10_2,,skipped,11,101882,,,101880,,101882,2021-11-03T12:03:40.996Z,101968.38,1635940904,full,ni_sequenzen,NI_Sequenzen,,,,,,,,,,,,,,
,Screen_4,canvas.Screen,0_0_10_3,,skipped,11,101883,,,101880,,101883,2021-11-03T12:03:40.996Z,101968.38,1635940904,full,ni_sequenzen,NI_Sequenzen,,,,,,,,,,,,,,
,Sequence,flow.Sequence,0_0_10,,completion,11,101880,,,101880,,101883,2021-11-03T12:03:40.996Z,101968.38,1635940904,full,ni_sequenzen,NI_Sequenzen,,,,,,,,,,,,,,
,Screen_1,canvas.Screen,0_0_11_0,,skipped,12,101884,,,101884,,101884,2021-11-03T12:03:40.997Z,101968.38,1635940904,full,ni_sequenzen,NI_Sequenzen,,,,,,,,,,,,,,
,Screen_2,canvas.Screen,0_0_11_1,,skipped,12,101884,,,101884,,101884,2021-11-03T12:03:40.999Z,101968.38,1635940904,full,ni_sequenzen,NI_Sequenzen,,,,,,,,,,,,,,
,Screen_3,canvas.Screen,0_0_11_2,,skipped,12,101885,,,101884,,101885,2021-11-03T12:03:40.999Z,101968.38,1635940904,full,ni_sequenzen,NI_Sequenzen,,,,,,,,,,,,,,
,Screen_4,canvas.Screen,0_0_11_3,,skipped,12,101886,,,101884,,101886,2021-11-03T12:03:41.000Z,101968.38,1635940904,full,ni_sequenzen,NI_Sequenzen,,,,,,,,,,,,,,
,Sequence,flow.Sequence,0_0_11,,completion,12,101883,,,101884,,101886,2021-11-03T12:03:41.000Z,101968.38,1635940904,full,ni_sequenzen,NI_Sequenzen,,,,,,,,,,,,,,
,Screen_1,canvas.Screen,0_0_12_0,,skipped,13,101887,,,101887,,101887,2021-11-03T12:03:41.001Z,101968.38,1635940904,full,ni_sequenzen,NI_Sequenzen,,,,,,,,,,,,,,
,Screen_2,canvas.Screen,0_0_12_1,,skipped,13,101888,,,101887,,101888,2021-11-03T12:03:41.002Z,101968.38,1635940904,full,ni_sequenzen,NI_Sequenzen,,,,,,,,,,,,,,
,Screen_3,canvas.Screen,0_0_12_2,,skipped,13,101888,,,101887,,101888,2021-11-03T12:03:41.002Z,101968.38,1635940904,full,ni_sequenzen,NI_Sequenzen,,,,,,,,,,,,,,
,Screen_4,canvas.Screen,0_0_12_3,,skipped,13,101889,,,101887,,101889,2021-11-03T12:03:41.003Z,101968.38,1635940904,full,ni_sequenzen,NI_Sequenzen,,,,,,,,,,,,,,
,Sequence,flow.Sequence,0_0_12,,completion,13,101886,,,101887,,101889,2021-11-03T12:03:41.003Z,101968.38,1635940904,full,ni_sequenzen,NI_Sequenzen,,,,,,,,,,,,,,
,Screen_1,canvas.Screen,0_0_13_0,,skipped,14,101890,,,101890,,101890,2021-11-03T12:03:41.004Z,101968.38,1635940904,full,ni_sequenzen,NI_Sequenzen,,,,,,,,,,,,,,
,Screen_2,canvas.Screen,0_0_13_1,,skipped,14,101891,,,101890,,101891,2021-11-03T12:03:41.005Z,101968.38,1635940904,full,ni_sequenzen,NI_Sequenzen,,,,,,,,,,,,,,
,Screen_3,canvas.Screen,0_0_13_2,,skipped,14,101892,,,101890,,101892,2021-11-03T12:03:41.006Z,101968.38,1635940904,full,ni_sequenzen,NI_Sequenzen,,,,,,,,,,,,,,
,Screen_4,canvas.Screen,0_0_13_3,,skipped,14,101893,,,101890,,101893,2021-11-03T12:03:41.007Z,101968.38,1635940904,full,ni_sequenzen,NI_Sequenzen,,,,,,,,,,,,,,
,Sequence,flow.Sequence,0_0_13,,completion,14,101890,,,101890,,101893,2021-11-03T12:03:41.007Z,101968.38,1635940904,full,ni_sequenzen,NI_Sequenzen,,,,,,,,,,,,,,
,Screen_1,canvas.Screen,0_0_14_0,,skipped,15,101893,,,101893,,101893,2021-11-03T12:03:41.007Z,101968.38,1635940904,full,ni_sequenzen,NI_Sequenzen,,,,,,,,,,,,,,
,Screen_2,canvas.Screen,0_0_14_1,,skipped,15,101893,,,101893,,101893,2021-11-03T12:03:41.008Z,101968.38,1635940904,full,ni_sequenzen,NI_Sequenzen,,,,,,,,,,,,,,
,Screen_3,canvas.Screen,0_0_14_2,,skipped,15,101895,,,101893,,101895,2021-11-03T12:03:41.008Z,101968.38,1635940904,full,ni_sequenzen,NI_Sequenzen,,,,,,,,,,,,,,
,Screen_4,canvas.Screen,0_0_14_3,,skipped,15,101895,,,101893,,101895,2021-11-03T12:03:41.009Z,101968.38,1635940904,full,ni_sequenzen,NI_Sequenzen,,,,,,,,,,,,,,
,Sequence,flow.Sequence,0_0_14,,completion,15,101893,,,101893,,101895,2021-11-03T12:03:41.009Z,101968.38,1635940904,full,ni_sequenzen,NI_Sequenzen,,,,,,,,,,,,,,
,Screen_1,canvas.Screen,0_0_15_0,,skipped,16,101896,,,101896,,101896,2021-11-03T12:03:41.010Z,101968.38,1635940904,full,ni_sequenzen,NI_Sequenzen,,,,,,,,,,,,,,
,Screen_2,canvas.Screen,0_0_15_1,,skipped,16,101898,,,101896,,101898,2021-11-03T12:03:41.012Z,101968.38,1635940904,full,ni_sequenzen,NI_Sequenzen,,,,,,,,,,,,,,
,Screen_3,canvas.Screen,0_0_15_2,,skipped,16,101898,,,101896,,101898,2021-11-03T12:03:41.013Z,101968.38,1635940904,full,ni_sequenzen,NI_Sequenzen,,,,,,,,,,,,,,
,Screen_4,canvas.Screen,0_0_15_3,,skipped,16,101899,,,101896,,101899,2021-11-03T12:03:41.013Z,101968.38,1635940904,full,ni_sequenzen,NI_Sequenzen,,,,,,,,,,,,,,
,Sequence,flow.Sequence,0_0_15,,completion,16,101895,,,101896,,101899,2021-11-03T12:03:41.013Z,101968.38,1635940904,full,ni_sequenzen,NI_Sequenzen,,,,,,,,,,,,,,
,Screen_1,canvas.Screen,0_0_16_0,,skipped,17,101900,,,101900,,101900,2021-11-03T12:03:41.014Z,101968.38,1635940904,full,ni_sequenzen,NI_Sequenzen,,,,,,,,,,,,,,
,Screen_2,canvas.Screen,0_0_16_1,,skipped,17,101901,,,101900,,101901,2021-11-03T12:03:41.014Z,101968.38,1635940904,full,ni_sequenzen,NI_Sequenzen,,,,,,,,,,,,,,
,Screen_3,canvas.Screen,0_0_16_2,,skipped,17,101901,,,101900,,101901,2021-11-03T12:03:41.015Z,101968.38,1635940904,full,ni_sequenzen,NI_Sequenzen,,,,,,,,,,,,,,
,Screen_4,canvas.Screen,0_0_16_3,,skipped,17,101902,,,101900,,101902,2021-11-03T12:03:41.015Z,101968.38,1635940904,full,ni_sequenzen,NI_Sequenzen,,,,,,,,,,,,,,
,Sequence,flow.Sequence,0_0_16,,completion,17,101900,,,101900,,101902,2021-11-03T12:03:41.015Z,101968.38,1635940904,full,ni_sequenzen,NI_Sequenzen,,,,,,,,,,,,,,
,Screen_1,canvas.Screen,0_0_17_0,,skipped,18,101903,,,101903,,101903,2021-11-03T12:03:41.016Z,101968.38,1635940904,full,ni_sequenzen,NI_Sequenzen,,,,,,,,,,,,,,
,Screen_2,canvas.Screen,0_0_17_1,,skipped,18,101904,,,101903,,101904,2021-11-03T12:03:41.017Z,101968.38,1635940904,full,ni_sequenzen,NI_Sequenzen,,,,,,,,,,,,,,
,Screen_3,canvas.Screen,0_0_17_2,,skipped,18,101904,,,101903,,101904,2021-11-03T12:03:41.018Z,101968.38,1635940904,full,ni_sequenzen,NI_Sequenzen,,,,,,,,,,,,,,
,Screen_4,canvas.Screen,0_0_17_3,,skipped,18,101905,,,101903,,101905,2021-11-03T12:03:41.018Z,101968.38,1635940904,full,ni_sequenzen,NI_Sequenzen,,,,,,,,,,,,,,
,Sequence,flow.Sequence,0_0_17,,completion,18,101902,,,101903,,101905,2021-11-03T12:03:41.018Z,101968.38,1635940904,full,ni_sequenzen,NI_Sequenzen,,,,,,,,,,,,,,
,Screen_1,canvas.Screen,0_0_18_0,,skipped,19,101905,,,101905,,101905,2021-11-03T12:03:41.019Z,101968.38,1635940904,full,ni_sequenzen,NI_Sequenzen,,,,,,,,,,,,,,
,Screen_2,canvas.Screen,0_0_18_1,,skipped,19,101906,,,101905,,101906,2021-11-03T12:03:41.019Z,101968.38,1635940904,full,ni_sequenzen,NI_Sequenzen,,,,,,,,,,,,,,
,Screen_3,canvas.Screen,0_0_18_2,,skipped,19,101907,,,101905,,101907,2021-11-03T12:03:41.020Z,101968.38,1635940904,full,ni_sequenzen,NI_Sequenzen,,,,,,,,,,,,,,
,Screen_4,canvas.Screen,0_0_18_3,,skipped,19,101908,,,101905,,101908,2021-11-03T12:03:41.021Z,101968.38,1635940904,full,ni_sequenzen,NI_Sequenzen,,,,,,,,,,,,,,
,Sequence,flow.Sequence,0_0_18,,completion,19,101905,,,101905,,101908,2021-11-03T12:03:41.021Z,101968.38,1635940904,full,ni_sequenzen,NI_Sequenzen,,,,,,,,,,,,,,
,Screen_1,canvas.Screen,0_0_19_0,,skipped,20,101909,,,101909,,101909,2021-11-03T12:03:41.022Z,101968.38,1635940904,full,ni_sequenzen,NI_Sequenzen,,,,,,,,,,,,,,
,Screen_2,canvas.Screen,0_0_19_1,,skipped,20,101909,,,101909,,101909,2021-11-03T12:03:41.023Z,101968.38,1635940904,full,ni_sequenzen,NI_Sequenzen,,,,,,,,,,,,,,
,Screen_3,canvas.Screen,0_0_19_2,,skipped,20,101910,,,101909,,101910,2021-11-03T12:03:41.023Z,101968.38,1635940904,full,ni_sequenzen,NI_Sequenzen,,,,,,,,,,,,,,
,Screen_4,canvas.Screen,0_0_19_3,,skipped,20,101910,,,101909,,101910,2021-11-03T12:03:41.024Z,101968.38,1635940904,full,ni_sequenzen,NI_Sequenzen,,,,,,,,,,,,,,
,Sequence,flow.Sequence,0_0_19,,completion,20,101908,,,101909,,101910,2021-11-03T12:03:41.024Z,101968.38,1635940904,full,ni_sequenzen,NI_Sequenzen,,,,,,,,,,,,,,
,Instructions_I,flow.Loop,0_0,,completion,,369,429.44,446.1,101909,101462.9,101910,2021-11-03T12:03:41.024Z,101968.38,1635940904,full,ni_sequenzen,NI_Sequenzen,,,,,,,,,,,,,,
,Move,canvas.Screen,0_1_0_0,left,response,,101968,101967.84,101968.38,103363,1394.6199999999953,103380,2021-11-03T12:03:42.494Z,103385.9,1635940904,full,ni_sequenzen,NI_Sequenzen,1,,,,,,,,,,,,,
,Move,canvas.Screen,0_1_0_1,left,response,,103386,103385.7,103385.9,104003,617.1000000000058,104006,2021-11-03T12:03:43.119Z,104009.76,1635940904,full,ni_sequenzen,NI_Sequenzen,2,,,,,,,,,,,,,
,Move,canvas.Screen,0_1_0_2,right,response,,104010,104009.54,104009.76,105269,1259.2400000000052,105281,2021-11-03T12:03:44.395Z,105287.06,1635940904,full,ni_sequenzen,NI_Sequenzen,3,,,,,,,,,,,,,
,Move,canvas.Screen,0_1_0_3,down,response,,105287,105286.86,105287.06,107768,2480.9400000000023,107779,2021-11-03T12:03:46.893Z,107784.22,1635940904,full,ni_sequenzen,NI_Sequenzen,4,,,,,,,,,,,,,
,Move,canvas.Screen,0_1_0_4,down,response,,107784,107783.96,107784.22,108160,375.77999999999884,108166,2021-11-03T12:03:47.279Z,108169.52,1635940904,full,ni_sequenzen,NI_Sequenzen,5,,,,,,,,,,,,,
,Move,canvas.Screen,0_1_0_5,down,response,,108169,108169.3,108169.52,108441,271.4799999999959,108457,2021-11-03T12:03:47.571Z,108460.62,1635940904,full,ni_sequenzen,NI_Sequenzen,6,,,,,,,,,,,,,
,Move,canvas.Screen,0_1_0_6,right,response,,108460,108460.52,108460.62,108832,371.38000000000466,108847,2021-11-03T12:03:47.961Z,108852.54,1635940904,full,ni_sequenzen,NI_Sequenzen,7,,,,,,,,,,,,,
,Move,canvas.Screen,0_1_0_7,right,response,,108852,108852.34,108852.54,109222,369.4600000000064,109232,2021-11-03T12:03:48.345Z,109238.58,1635940904,full,ni_sequenzen,NI_Sequenzen,8,,,,,,,,,,,,,
,Move,canvas.Screen,0_1_0_8,right,response,,109238,109238.38,109238.58,109565,326.41999999999825,109583,2021-11-03T12:03:48.697Z,109589.72,1635940904,full,ni_sequenzen,NI_Sequenzen,9,,,,,,,,,,,,,
,Move,canvas.Screen,0_1_0_9,down,response,,109589,109589.42,109589.72,110785,1195.2799999999988,110793,2021-11-03T12:03:49.906Z,110800.66,1635940904,full,ni_sequenzen,NI_Sequenzen,10,,,,,,,,,,,,,
,Move,canvas.Screen,0_1_0_10,down,response,,110800,110800.48,110800.66,111035,234.3399999999965,111040,2021-11-03T12:03:50.154Z,111046.28,1635940904,full,ni_sequenzen,NI_Sequenzen,11,,,,,,,,,,,,,
,Move,canvas.Screen,0_1_0_11,down,response,,111046,111046.16,111046.28,111238,191.72000000000116,111252,2021-11-03T12:03:50.367Z,111265.56,1635940904,full,ni_sequenzen,NI_Sequenzen,12,,,,,,,,,,,,,
,Move,canvas.Screen,0_1_0_12,down,response,,111258,111258.38,111265.56,111473,207.44000000000233,111484,2021-11-03T12:03:50.598Z,111488.92,1635940904,full,ni_sequenzen,NI_Sequenzen,13,,,,,,,,,,,,,
,Move,canvas.Screen,0_1_0_13,right,response,,111489,111488.76,111488.92,111815,326.08000000000175,111835,2021-11-03T12:03:50.949Z,111838.56,1635940904,full,ni_sequenzen,NI_Sequenzen,14,,,,,,,,,,,,,
,Move,canvas.Screen,0_1_0_14,down,response,,111838,111838.34,111838.56,112676,837.4400000000023,112685,2021-11-03T12:03:51.799Z,112690.06,1635940904,full,ni_sequenzen,NI_Sequenzen,15,,,,,,,,,,,,,
,Move,canvas.Screen,0_1_0_15,left,response,,112690,112689.98,112690.06,114269,1578.9400000000023,114275,2021-11-03T12:03:53.388Z,114280.34,1635940904,full,ni_sequenzen,NI_Sequenzen,16,,,,,,,,,,,,,
,Move,canvas.Screen,0_1_0_16,left,response,,114280,114280.26,114280.34,114973,692.6600000000035,114987,2021-11-03T12:03:54.100Z,114990.66,1635940904,full,ni_sequenzen,NI_Sequenzen,17,,,,,,,,,,,,,
,Move,canvas.Screen,0_1_0_17,right,response,,114990,114990.58,114990.66,115769,778.3399999999965,115783,2021-11-03T12:03:54.897Z,115787.22,1635940904,full,ni_sequenzen,NI_Sequenzen,18,,,,,,,,,,,,,
,Move,canvas.Screen,0_1_0_18,right,response,,115787,115787.06,115787.22,116129,341.77999999999884,116134,2021-11-03T12:03:55.248Z,116138.16,1635940904,full,ni_sequenzen,NI_Sequenzen,19,,,,,,,,,,,,,
,Move,canvas.Screen,0_1_0_19,left,response,,116138,116138.06,116138.16,116972,833.8399999999965,116985,2021-11-03T12:03:56.099Z,116990.1,1635940904,full,ni_sequenzen,NI_Sequenzen,20,,,,,,,,,,,,,
,Move,canvas.Screen,0_1_0_20,left,response,,116990,116989.9,116990.1,117207,216.89999999999418,117213,2021-11-03T12:03:56.327Z,117218.74,1635940904,full,ni_sequenzen,NI_Sequenzen,21,,,,,,,,,,,,,
,Move,canvas.Screen,0_1_0_21,down,response,,117218,117218.4,117218.74,118144,925.2599999999948,118160,2021-11-03T12:03:57.274Z,118166.66,1635940904,full,ni_sequenzen,NI_Sequenzen,22,,,,,,,,,,,,,
,Move,canvas.Screen,0_1_0_22,down,response,,118166,118166.46,118166.66,118488,321.3399999999965,118503,2021-11-03T12:03:57.617Z,118506.74,1635940904,full,ni_sequenzen,NI_Sequenzen,23,,,,,,,,,,,,,
,Move,canvas.Screen,0_1_0_23,down,response,,118507,118506.64,118506.74,118768,261.25999999999476,118782,2021-11-03T12:03:57.896Z,118785.84,1635940904,full,ni_sequenzen,NI_Sequenzen,24,,,,,,,,,,,,,
,Move,canvas.Screen,0_1_0_24,left,response,,118785,118785.72,118785.84,119144,358.1600000000035,119152,2021-11-03T12:03:58.266Z,119156.82,1635940904,full,ni_sequenzen,NI_Sequenzen,25,,,,,,,,,,,,,
,Move,canvas.Screen,0_1_0_25,left,response,,119157,119156.68,119156.82,119723,566.179999999993,119726,2021-11-03T12:03:58.840Z,119730,1635940904,full,ni_sequenzen,NI_Sequenzen,26,,,,,,,,,,,,,
,Move,canvas.Screen,0_1_0_26,down,response,,119729,119729.78,119730,120440,710,120453,2021-11-03T12:03:59.567Z,120456.88,1635940904,full,ni_sequenzen,NI_Sequenzen,27,,,,,,,,,,,,,
,Move,canvas.Screen,0_1_0_27,down,response,,120457,120456.78,120456.88,121004,547.1199999999953,121008,2021-11-03T12:04:00.121Z,121012,1635940904,full,ni_sequenzen,NI_Sequenzen,28,,,,,,,,,,,,,
,Move,canvas.Screen,0_1_0_28,left,response,,121012,121011.84,121012,121629,617,121641,2021-11-03T12:04:00.756Z,121646.52,1635940904,full,ni_sequenzen,NI_Sequenzen,29,,,,,,,,,,,,,
,Move,canvas.Screen,0_1_0_29,left,response,,121646,121646.32,121646.52,122051,404.4799999999959,122054,2021-11-03T12:04:01.168Z,122086.14,1635940904,full,ni_sequenzen,NI_Sequenzen,30,,,,,,,,,,,,,
,Loop,flow.Loop,0_1_0,-999,completion,,101919,101967.84,101968.38,122051,20082.619999999995,122055,2021-11-03T12:04:01.169Z,122086.14,1635940904,full,ni_sequenzen,NI_Sequenzen,,,,,,,,,,,,,,
,Training_I,flow.Sequence,0_1,,completion,,101911,101967.84,101968.38,122051,20082.619999999995,122055,2021-11-03T12:04:01.169Z,122086.14,1635940904,full,ni_sequenzen,NI_Sequenzen,,,,,,,,,,,,,,
,Screen_1,canvas.Screen,0_2_0_0,cont,response,1,122086,122086.04,122086.14,133598,11511.86,133601,2021-11-03T12:04:12.714Z,133658.94,1635940904,full,ni_sequenzen,NI_Sequenzen,,,,,,,,,,,,,,
,Screen_2,canvas.Screen,0_2_0_1,cont,response,1,133659,133658.64,133658.94,153848,20189.059999999998,153862,2021-11-03T12:04:32.975Z,153864.42,1635940904,full,ni_sequenzen,NI_Sequenzen,,,,,,,,,,,,,,
,Screen_3,canvas.Screen,0_2_0_2,cont,response,1,153865,153864.34,153864.42,169284,15419.579999999987,169294,2021-11-03T12:04:48.407Z,169342.38,1635940904,full,ni_sequenzen,NI_Sequenzen,,,,,,,,,,,,,,
,Screen_4,canvas.Screen,0_2_0_3,cont,response,1,169342,169341.98,169342.38,181176,11833.619999999995,181190,2021-11-03T12:05:00.304Z,181195.04,1635940904,full,ni_sequenzen,NI_Sequenzen,,,,,,,,,,,,,,
,Screen_5,canvas.Screen,0_2_0_4,cont,response,1,181195,181194.86,181195.04,187519,6323.959999999992,187522,2021-11-03T12:05:06.636Z,187572.16,1635940904,full,ni_sequenzen,NI_Sequenzen,,,,,,,,,,,,,,
,Screen_6,canvas.Screen,0_2_0_5,cont,response,1,187571,187571.82,187572.16,198362,10789.839999999997,198372,2021-11-03T12:05:17.485Z,198513.54,1635940904,full,ni_sequenzen,NI_Sequenzen,,,,,,,,,,,,,,
,Sequence,flow.Sequence,0_2_0,,completion,1,122085,122086.04,122086.14,198362,76275.86,198373,2021-11-03T12:05:17.486Z,198513.54,1635940904,full,ni_sequenzen,NI_Sequenzen,,,,,,,,,,,,,,
,Screen_1,canvas.Screen,0_2_1_0,,skipped,2,198377,,,198377,,198377,2021-11-03T12:05:17.491Z,198513.54,1635940904,full,ni_sequenzen,NI_Sequenzen,,,,,,,,,,,,,,
,Screen_2,canvas.Screen,0_2_1_1,,skipped,2,198378,,,198377,,198378,2021-11-03T12:05:17.493Z,198513.54,1635940904,full,ni_sequenzen,NI_Sequenzen,,,,,,,,,,,,,,
,Screen_3,canvas.Screen,0_2_1_2,,skipped,2,198380,,,198377,,198380,2021-11-03T12:05:17.494Z,198513.54,1635940904,full,ni_sequenzen,NI_Sequenzen,,,,,,,,,,,,,,
,Screen_4,canvas.Screen,0_2_1_3,,skipped,2,198381,,,198377,,198381,2021-11-03T12:05:17.495Z,198513.54,1635940904,full,ni_sequenzen,NI_Sequenzen,,,,,,,,,,,,,,
,Screen_5,canvas.Screen,0_2_1_4,,skipped,2,198382,,,198377,,198382,2021-11-03T12:05:17.495Z,198513.54,1635940904,full,ni_sequenzen,NI_Sequenzen,,,,,,,,,,,,,,
,Screen_6,canvas.Screen,0_2_1_5,,skipped,2,198383,,,198377,,198383,2021-11-03T12:05:17.497Z,198513.54,1635940904,full,ni_sequenzen,NI_Sequenzen,,,,,,,,,,,,,,
,Sequence,flow.Sequence,0_2_1,,completion,2,198374,,,198377,,198383,2021-11-03T12:05:17.497Z,198513.54,1635940904,full,ni_sequenzen,NI_Sequenzen,,,,,,,,,,,,,,
,Screen_1,canvas.Screen,0_2_2_0,,skipped,3,198384,,,198384,,198384,2021-11-03T12:05:17.498Z,198513.54,1635940904,full,ni_sequenzen,NI_Sequenzen,,,,,,,,,,,,,,
,Screen_2,canvas.Screen,0_2_2_1,,skipped,3,198385,,,198384,,198385,2021-11-03T12:05:17.499Z,198513.54,1635940904,full,ni_sequenzen,NI_Sequenzen,,,,,,,,,,,,,,
,Screen_3,canvas.Screen,0_2_2_2,,skipped,3,198386,,,198384,,198386,2021-11-03T12:05:17.500Z,198513.54,1635940904,full,ni_sequenzen,NI_Sequenzen,,,,,,,,,,,,,,
,Screen_4,canvas.Screen,0_2_2_3,,skipped,3,198387,,,198384,,198387,2021-11-03T12:05:17.501Z,198513.54,1635940904,full,ni_sequenzen,NI_Sequenzen,,,,,,,,,,,,,,
,Screen_5,canvas.Screen,0_2_2_4,,skipped,3,198388,,,198384,,198388,2021-11-03T12:05:17.501Z,198513.54,1635940904,full,ni_sequenzen,NI_Sequenzen,,,,,,,,,,,,,,
,Screen_6,canvas.Screen,0_2_2_5,,skipped,3,198388,,,198384,,198388,2021-11-03T12:05:17.502Z,198513.54,1635940904,full,ni_sequenzen,NI_Sequenzen,,,,,,,,,,,,,,
,Sequence,flow.Sequence,0_2_2,,completion,3,198383,,,198384,,198389,2021-11-03T12:05:17.503Z,198513.54,1635940904,full,ni_sequenzen,NI_Sequenzen,,,,,,,,,,,,,,
,Screen_1,canvas.Screen,0_2_3_0,,skipped,4,198390,,,198390,,198390,2021-11-03T12:05:17.504Z,198513.54,1635940904,full,ni_sequenzen,NI_Sequenzen,,,,,,,,,,,,,,
,Screen_2,canvas.Screen,0_2_3_1,,skipped,4,198390,,,198390,,198390,2021-11-03T12:05:17.504Z,198513.54,1635940904,full,ni_sequenzen,NI_Sequenzen,,,,,,,,,,,,,,
,Screen_3,canvas.Screen,0_2_3_2,,skipped,4,198391,,,198390,,198391,2021-11-03T12:05:17.505Z,198513.54,1635940904,full,ni_sequenzen,NI_Sequenzen,,,,,,,,,,,,,,
,Screen_4,canvas.Screen,0_2_3_3,,skipped,4,198391,,,198390,,198391,2021-11-03T12:05:17.506Z,198513.54,1635940904,full,ni_sequenzen,NI_Sequenzen,,,,,,,,,,,,,,
,Screen_5,canvas.Screen,0_2_3_4,,skipped,4,198392,,,198390,,198392,2021-11-03T12:05:17.506Z,198513.54,1635940904,full,ni_sequenzen,NI_Sequenzen,,,,,,,,,,,,,,
,Screen_6,canvas.Screen,0_2_3_5,,skipped,4,198393,,,198390,,198393,2021-11-03T12:05:17.507Z,198513.54,1635940904,full,ni_sequenzen,NI_Sequenzen,,,,,,,,,,,,,,
,Sequence,flow.Sequence,0_2_3,,completion,4,198389,,,198390,,198393,2021-11-03T12:05:17.507Z,198513.54,1635940904,full,ni_sequenzen,NI_Sequenzen,,,,,,,,,,,,,,
,Screen_1,canvas.Screen,0_2_4_0,,skipped,5,198394,,,198394,,198394,2021-11-03T12:05:17.508Z,198513.54,1635940904,full,ni_sequenzen,NI_Sequenzen,,,,,,,,,,,,,,
,Screen_2,canvas.Screen,0_2_4_1,,skipped,5,198395,,,198394,,198395,2021-11-03T12:05:17.509Z,198513.54,1635940904,full,ni_sequenzen,NI_Sequenzen,,,,,,,,,,,,,,
,Screen_3,canvas.Screen,0_2_4_2,,skipped,5,198395,,,198394,,198395,2021-11-03T12:05:17.510Z,198513.54,1635940904,full,ni_sequenzen,NI_Sequenzen,,,,,,,,,,,,,,
,Screen_4,canvas.Screen,0_2_4_3,,skipped,5,198396,,,198394,,198396,2021-11-03T12:05:17.510Z,198513.54,1635940904,full,ni_sequenzen,NI_Sequenzen,,,,,,,,,,,,,,
,Screen_5,canvas.Screen,0_2_4_4,,skipped,5,198397,,,198394,,198397,2021-11-03T12:05:17.510Z,198513.54,1635940904,full,ni_sequenzen,NI_Sequenzen,,,,,,,,,,,,,,
,Screen_6,canvas.Screen,0_2_4_5,,skipped,5,198398,,,198394,,198398,2021-11-03T12:05:17.512Z,198513.54,1635940904,full,ni_sequenzen,NI_Sequenzen,,,,,,,,,,,,,,
,Sequence,flow.Sequence,0_2_4,,completion,5,198393,,,198394,,198398,2021-11-03T12:05:17.512Z,198513.54,1635940904,full,ni_sequenzen,NI_Sequenzen,,,,,,,,,,,,,,
,Screen_1,canvas.Screen,0_2_5_0,,skipped,6,198399,,,198399,,198399,2021-11-03T12:05:17.513Z,198513.54,1635940904,full,ni_sequenzen,NI_Sequenzen,,,,,,,,,,,,,,
,Screen_2,canvas.Screen,0_2_5_1,,skipped,6,198400,,,198399,,198400,2021-11-03T12:05:17.514Z,198513.54,1635940904,full,ni_sequenzen,NI_Sequenzen,,,,,,,,,,,,,,
,Screen_3,canvas.Screen,0_2_5_2,,skipped,6,198401,,,198399,,198401,2021-11-03T12:05:17.515Z,198513.54,1635940904,full,ni_sequenzen,NI_Sequenzen,,,,,,,,,,,,,,
,Screen_4,canvas.Screen,0_2_5_3,,skipped,6,198402,,,198399,,198402,2021-11-03T12:05:17.515Z,198513.54,1635940904,full,ni_sequenzen,NI_Sequenzen,,,,,,,,,,,,,,
,Screen_5,canvas.Screen,0_2_5_4,,skipped,6,198402,,,198399,,198402,2021-11-03T12:05:17.515Z,198513.54,1635940904,full,ni_sequenzen,NI_Sequenzen,,,,,,,,,,,,,,
,Screen_6,canvas.Screen,0_2_5_5,,skipped,6,198403,,,198399,,198403,2021-11-03T12:05:17.516Z,198513.54,1635940904,full,ni_sequenzen,NI_Sequenzen,,,,,,,,,,,,,,
,Sequence,flow.Sequence,0_2_5,,completion,6,198399,,,198399,,198403,2021-11-03T12:05:17.516Z,198513.54,1635940904,full,ni_sequenzen,NI_Sequenzen,,,,,,,,,,,,,,
,Screen_1,canvas.Screen,0_2_6_0,,skipped,7,198404,,,198404,,198404,2021-11-03T12:05:17.517Z,198513.54,1635940904,full,ni_sequenzen,NI_Sequenzen,,,,,,,,,,,,,,
,Screen_2,canvas.Screen,0_2_6_1,,skipped,7,198405,,,198404,,198405,2021-11-03T12:05:17.519Z,198513.54,1635940904,full,ni_sequenzen,NI_Sequenzen,,,,,,,,,,,,,,
,Screen_3,canvas.Screen,0_2_6_2,,skipped,7,198406,,,198404,,198406,2021-11-03T12:05:17.519Z,198513.54,1635940904,full,ni_sequenzen,NI_Sequenzen,,,,,,,,,,,,,,
,Screen_4,canvas.Screen,0_2_6_3,,skipped,7,198407,,,198404,,198407,2021-11-03T12:05:17.520Z,198513.54,1635940904,full,ni_sequenzen,NI_Sequenzen,,,,,,,,,,,,,,
,Screen_5,canvas.Screen,0_2_6_4,,skipped,7,198407,,,198404,,198407,2021-11-03T12:05:17.520Z,198513.54,1635940904,full,ni_sequenzen,NI_Sequenzen,,,,,,,,,,,,,,
,Screen_6,canvas.Screen,0_2_6_5,,skipped,7,198407,,,198404,,198408,2021-11-03T12:05:17.521Z,198513.54,1635940904,full,ni_sequenzen,NI_Sequenzen,,,,,,,,,,,,,,
,Sequence,flow.Sequence,0_2_6,,completion,7,198403,,,198404,,198408,2021-11-03T12:05:17.521Z,198513.54,1635940904,full,ni_sequenzen,NI_Sequenzen,,,,,,,,,,,,,,
,Screen_1,canvas.Screen,0_2_7_0,,skipped,8,198408,,,198408,,198408,2021-11-03T12:05:17.522Z,198513.54,1635940904,full,ni_sequenzen,NI_Sequenzen,,,,,,,,,,,,,,
,Screen_2,canvas.Screen,0_2_7_1,,skipped,8,198409,,,198408,,198409,2021-11-03T12:05:17.522Z,198513.54,1635940904,full,ni_sequenzen,NI_Sequenzen,,,,,,,,,,,,,,
,Screen_3,canvas.Screen,0_2_7_2,,skipped,8,198410,,,198408,,198410,2021-11-03T12:05:17.523Z,198513.54,1635940904,full,ni_sequenzen,NI_Sequenzen,,,,,,,,,,,,,,
,Screen_4,canvas.Screen,0_2_7_3,,skipped,8,198411,,,198408,,198411,2021-11-03T12:05:17.524Z,198513.54,1635940904,full,ni_sequenzen,NI_Sequenzen,,,,,,,,,,,,,,
,Screen_5,canvas.Screen,0_2_7_4,,skipped,8,198411,,,198408,,198411,2021-11-03T12:05:17.524Z,198513.54,1635940904,full,ni_sequenzen,NI_Sequenzen,,,,,,,,,,,,,,
,Screen_6,canvas.Screen,0_2_7_5,,skipped,8,198411,,,198408,,198411,2021-11-03T12:05:17.525Z,198513.54,1635940904,full,ni_sequenzen,NI_Sequenzen,,,,,,,,,,,,,,
,Sequence,flow.Sequence,0_2_7,,completion,8,198408,,,198408,,198411,2021-11-03T12:05:17.525Z,198513.54,1635940904,full,ni_sequenzen,NI_Sequenzen,,,,,,,,,,,,,,
,Screen_1,canvas.Screen,0_2_8_0,,skipped,9,198413,,,198413,,198413,2021-11-03T12:05:17.527Z,198513.54,1635940904,full,ni_sequenzen,NI_Sequenzen,,,,,,,,,,,,,,
,Screen_2,canvas.Screen,0_2_8_1,,skipped,9,198413,,,198413,,198413,2021-11-03T12:05:17.527Z,198513.54,1635940904,full,ni_sequenzen,NI_Sequenzen,,,,,,,,,,,,,,
,Screen_3,canvas.Screen,0_2_8_2,,skipped,9,198414,,,198413,,198414,2021-11-03T12:05:17.527Z,198513.54,1635940904,full,ni_sequenzen,NI_Sequenzen,,,,,,,,,,,,,,
,Screen_4,canvas.Screen,0_2_8_3,,skipped,9,198414,,,198413,,198415,2021-11-03T12:05:17.528Z,198513.54,1635940904,full,ni_sequenzen,NI_Sequenzen,,,,,,,,,,,,,,
,Screen_5,canvas.Screen,0_2_8_4,,skipped,9,198415,,,198413,,198415,2021-11-03T12:05:17.528Z,198513.54,1635940904,full,ni_sequenzen,NI_Sequenzen,,,,,,,,,,,,,,
,Screen_6,canvas.Screen,0_2_8_5,,skipped,9,198416,,,198413,,198416,2021-11-03T12:05:17.529Z,198513.54,1635940904,full,ni_sequenzen,NI_Sequenzen,,,,,,,,,,,,,,
,Sequence,flow.Sequence,0_2_8,,completion,9,198412,,,198413,,198416,2021-11-03T12:05:17.529Z,198513.54,1635940904,full,ni_sequenzen,NI_Sequenzen,,,,,,,,,,,,,,
,Screen_1,canvas.Screen,0_2_9_0,,skipped,10,198417,,,198417,,198417,2021-11-03T12:05:17.530Z,198513.54,1635940904,full,ni_sequenzen,NI_Sequenzen,,,,,,,,,,,,,,
,Screen_2,canvas.Screen,0_2_9_1,,skipped,10,198417,,,198417,,198417,2021-11-03T12:05:17.531Z,198513.54,1635940904,full,ni_sequenzen,NI_Sequenzen,,,,,,,,,,,,,,
,Screen_3,canvas.Screen,0_2_9_2,,skipped,10,198418,,,198417,,198418,2021-11-03T12:05:17.531Z,198513.54,1635940904,full,ni_sequenzen,NI_Sequenzen,,,,,,,,,,,,,,
,Screen_4,canvas.Screen,0_2_9_3,,skipped,10,198419,,,198417,,198419,2021-11-03T12:05:17.532Z,198513.54,1635940904,full,ni_sequenzen,NI_Sequenzen,,,,,,,,,,,,,,
,Screen_5,canvas.Screen,0_2_9_4,,skipped,10,198420,,,198417,,198420,2021-11-03T12:05:17.533Z,198513.54,1635940904,full,ni_sequenzen,NI_Sequenzen,,,,,,,,,,,,,,
,Screen_6,canvas.Screen,0_2_9_5,,skipped,10,198420,,,198417,,198420,2021-11-03T12:05:17.533Z,198513.54,1635940904,full,ni_sequenzen,NI_Sequenzen,,,,,,,,,,,,,,
,Sequence,flow.Sequence,0_2_9,,completion,10,198416,,,198417,,198420,2021-11-03T12:05:17.534Z,198513.54,1635940904,full,ni_sequenzen,NI_Sequenzen,,,,,,,,,,,,,,
,Screen_1,canvas.Screen,0_2_10_0,,skipped,11,198421,,,198421,,198421,2021-11-03T12:05:17.535Z,198513.54,1635940904,full,ni_sequenzen,NI_Sequenzen,,,,,,,,,,,,,,
,Screen_2,canvas.Screen,0_2_10_1,,skipped,11,198422,,,198421,,198422,2021-11-03T12:05:17.535Z,198513.54,1635940904,full,ni_sequenzen,NI_Sequenzen,,,,,,,,,,,,,,
,Screen_3,canvas.Screen,0_2_10_2,,skipped,11,198422,,,198421,,198422,2021-11-03T12:05:17.536Z,198513.54,1635940904,full,ni_sequenzen,NI_Sequenzen,,,,,,,,,,,,,,
,Screen_4,canvas.Screen,0_2_10_3,,skipped,11,198422,,,198421,,198422,2021-11-03T12:05:17.537Z,198513.54,1635940904,full,ni_sequenzen,NI_Sequenzen,,,,,,,,,,,,,,
,Screen_5,canvas.Screen,0_2_10_4,,skipped,11,198424,,,198421,,198424,2021-11-03T12:05:17.537Z,198513.54,1635940904,full,ni_sequenzen,NI_Sequenzen,,,,,,,,,,,,,,
,Screen_6,canvas.Screen,0_2_10_5,,skipped,11,198425,,,198421,,198425,2021-11-03T12:05:17.537Z,198513.54,1635940904,full,ni_sequenzen,NI_Sequenzen,,,,,,,,,,,,,,
,Sequence,flow.Sequence,0_2_10,,completion,11,198421,,,198421,,198425,2021-11-03T12:05:17.537Z,198513.54,1635940904,full,ni_sequenzen,NI_Sequenzen,,,,,,,,,,,,,,
,Screen_1,canvas.Screen,0_2_11_0,,skipped,12,198425,,,198425,,198425,2021-11-03T12:05:17.539Z,198513.54,1635940904,full,ni_sequenzen,NI_Sequenzen,,,,,,,,,,,,,,
,Screen_2,canvas.Screen,0_2_11_1,,skipped,12,198425,,,198425,,198425,2021-11-03T12:05:17.539Z,198513.54,1635940904,full,ni_sequenzen,NI_Sequenzen,,,,,,,,,,,,,,
,Screen_3,canvas.Screen,0_2_11_2,,skipped,12,198426,,,198425,,198426,2021-11-03T12:05:17.540Z,198513.54,1635940904,full,ni_sequenzen,NI_Sequenzen,,,,,,,,,,,,,,
,Screen_4,canvas.Screen,0_2_11_3,,skipped,12,198427,,,198425,,198427,2021-11-03T12:05:17.541Z,198513.54,1635940904,full,ni_sequenzen,NI_Sequenzen,,,,,,,,,,,,,,
,Screen_5,canvas.Screen,0_2_11_4,,skipped,12,198427,,,198425,,198427,2021-11-03T12:05:17.541Z,198513.54,1635940904,full,ni_sequenzen,NI_Sequenzen,,,,,,,,,,,,,,
,Screen_6,canvas.Screen,0_2_11_5,,skipped,12,198428,,,198425,,198428,2021-11-03T12:05:17.543Z,198513.54,1635940904,full,ni_sequenzen,NI_Sequenzen,,,,,,,,,,,,,,
,Sequence,flow.Sequence,0_2_11,,completion,12,198425,,,198425,,198429,2021-11-03T12:05:17.543Z,198513.54,1635940904,full,ni_sequenzen,NI_Sequenzen,,,,,,,,,,,,,,
,Screen_1,canvas.Screen,0_2_12_0,,skipped,13,198430,,,198430,,198430,2021-11-03T12:05:17.544Z,198513.54,1635940904,full,ni_sequenzen,NI_Sequenzen,,,,,,,,,,,,,,
,Screen_2,canvas.Screen,0_2_12_1,,skipped,13,198430,,,198430,,198430,2021-11-03T12:05:17.544Z,198513.54,1635940904,full,ni_sequenzen,NI_Sequenzen,,,,,,,,,,,,,,
,Screen_3,canvas.Screen,0_2_12_2,,skipped,13,198431,,,198430,,198431,2021-11-03T12:05:17.545Z,198513.54,1635940904,full,ni_sequenzen,NI_Sequenzen,,,,,,,,,,,,,,
,Screen_4,canvas.Screen,0_2_12_3,,skipped,13,198431,,,198430,,198431,2021-11-03T12:05:17.545Z,198513.54,1635940904,full,ni_sequenzen,NI_Sequenzen,,,,,,,,,,,,,,
,Screen_5,canvas.Screen,0_2_12_4,,skipped,13,198432,,,198430,,198432,2021-11-03T12:05:17.546Z,198513.54,1635940904,full,ni_sequenzen,NI_Sequenzen,,,,,,,,,,,,,,
,Screen_6,canvas.Screen,0_2_12_5,,skipped,13,198432,,,198430,,198432,2021-11-03T12:05:17.547Z,198513.54,1635940904,full,ni_sequenzen,NI_Sequenzen,,,,,,,,,,,,,,
,Sequence,flow.Sequence,0_2_12,,completion,13,198429,,,198430,,198432,2021-11-03T12:05:17.547Z,198513.54,1635940904,full,ni_sequenzen,NI_Sequenzen,,,,,,,,,,,,,,
,Screen_1,canvas.Screen,0_2_13_0,,skipped,14,198434,,,198434,,198434,2021-11-03T12:05:17.547Z,198513.54,1635940904,full,ni_sequenzen,NI_Sequenzen,,,,,,,,,,,,,,
,Screen_2,canvas.Screen,0_2_13_1,,skipped,14,198434,,,198434,,198434,2021-11-03T12:05:17.548Z,198513.54,1635940904,full,ni_sequenzen,NI_Sequenzen,,,,,,,,,,,,,,
,Screen_3,canvas.Screen,0_2_13_2,,skipped,14,198435,,,198434,,198435,2021-11-03T12:05:17.548Z,198513.54,1635940904,full,ni_sequenzen,NI_Sequenzen,,,,,,,,,,,,,,
,Screen_4,canvas.Screen,0_2_13_3,,skipped,14,198435,,,198434,,198435,2021-11-03T12:05:17.549Z,198513.54,1635940904,full,ni_sequenzen,NI_Sequenzen,,,,,,,,,,,,,,
,Screen_5,canvas.Screen,0_2_13_4,,skipped,14,198436,,,198434,,198436,2021-11-03T12:05:17.549Z,198513.54,1635940904,full,ni_sequenzen,NI_Sequenzen,,,,,,,,,,,,,,
,Screen_6,canvas.Screen,0_2_13_5,,skipped,14,198436,,,198434,,198436,2021-11-03T12:05:17.550Z,198513.54,1635940904,full,ni_sequenzen,NI_Sequenzen,,,,,,,,,,,,,,
,Sequence,flow.Sequence,0_2_13,,completion,14,198433,,,198434,,198436,2021-11-03T12:05:17.550Z,198513.54,1635940904,full,ni_sequenzen,NI_Sequenzen,,,,,,,,,,,,,,
,Screen_1,canvas.Screen,0_2_14_0,,skipped,15,198437,,,198437,,198437,2021-11-03T12:05:17.551Z,198513.54,1635940904,full,ni_sequenzen,NI_Sequenzen,,,,,,,,,,,,,,
,Screen_2,canvas.Screen,0_2_14_1,,skipped,15,198438,,,198437,,198438,2021-11-03T12:05:17.551Z,198513.54,1635940904,full,ni_sequenzen,NI_Sequenzen,,,,,,,,,,,,,,
,Screen_3,canvas.Screen,0_2_14_2,,skipped,15,198438,,,198437,,198438,2021-11-03T12:05:17.552Z,198513.54,1635940904,full,ni_sequenzen,NI_Sequenzen,,,,,,,,,,,,,,
,Screen_4,canvas.Screen,0_2_14_3,,skipped,15,198438,,,198437,,198439,2021-11-03T12:05:17.553Z,198513.54,1635940904,full,ni_sequenzen,NI_Sequenzen,,,,,,,,,,,,,,
,Screen_5,canvas.Screen,0_2_14_4,,skipped,15,198439,,,198437,,198439,2021-11-03T12:05:17.553Z,198513.54,1635940904,full,ni_sequenzen,NI_Sequenzen,,,,,,,,,,,,,,
,Screen_6,canvas.Screen,0_2_14_5,,skipped,15,198440,,,198437,,198440,2021-11-03T12:05:17.553Z,198513.54,1635940904,full,ni_sequenzen,NI_Sequenzen,,,,,,,,,,,,,,
,Sequence,flow.Sequence,0_2_14,,completion,15,198436,,,198437,,198440,2021-11-03T12:05:17.553Z,198513.54,1635940904,full,ni_sequenzen,NI_Sequenzen,,,,,,,,,,,,,,
,Screen_1,canvas.Screen,0_2_15_0,,skipped,16,198441,,,198441,,198441,2021-11-03T12:05:17.554Z,198513.54,1635940904,full,ni_sequenzen,NI_Sequenzen,,,,,,,,,,,,,,
,Screen_2,canvas.Screen,0_2_15_1,,skipped,16,198441,,,198441,,198441,2021-11-03T12:05:17.555Z,198513.54,1635940904,full,ni_sequenzen,NI_Sequenzen,,,,,,,,,,,,,,
,Screen_3,canvas.Screen,0_2_15_2,,skipped,16,198442,,,198441,,198442,2021-11-03T12:05:17.556Z,198513.54,1635940904,full,ni_sequenzen,NI_Sequenzen,,,,,,,,,,,,,,
,Screen_4,canvas.Screen,0_2_15_3,,skipped,16,198442,,,198441,,198442,2021-11-03T12:05:17.556Z,198513.54,1635940904,full,ni_sequenzen,NI_Sequenzen,,,,,,,,,,,,,,
,Screen_5,canvas.Screen,0_2_15_4,,skipped,16,198443,,,198441,,198443,2021-11-03T12:05:17.557Z,198513.54,1635940904,full,ni_sequenzen,NI_Sequenzen,,,,,,,,,,,,,,
,Screen_6,canvas.Screen,0_2_15_5,,skipped,16,198443,,,198441,,198443,2021-11-03T12:05:17.557Z,198513.54,1635940904,full,ni_sequenzen,NI_Sequenzen,,,,,,,,,,,,,,
,Sequence,flow.Sequence,0_2_15,,completion,16,198440,,,198441,,198443,2021-11-03T12:05:17.557Z,198513.54,1635940904,full,ni_sequenzen,NI_Sequenzen,,,,,,,,,,,,,,
,Screen_1,canvas.Screen,0_2_16_0,,skipped,17,198444,,,198444,,198444,2021-11-03T12:05:17.558Z,198513.54,1635940904,full,ni_sequenzen,NI_Sequenzen,,,,,,,,,,,,,,
,Screen_2,canvas.Screen,0_2_16_1,,skipped,17,198445,,,198444,,198445,2021-11-03T12:05:17.558Z,198513.54,1635940904,full,ni_sequenzen,NI_Sequenzen,,,,,,,,,,,,,,
,Screen_3,canvas.Screen,0_2_16_2,,skipped,17,198445,,,198444,,198445,2021-11-03T12:05:17.559Z,198513.54,1635940904,full,ni_sequenzen,NI_Sequenzen,,,,,,,,,,,,,,
,Screen_4,canvas.Screen,0_2_16_3,,skipped,17,198446,,,198444,,198446,2021-11-03T12:05:17.559Z,198513.54,1635940904,full,ni_sequenzen,NI_Sequenzen,,,,,,,,,,,,,,
,Screen_5,canvas.Screen,0_2_16_4,,skipped,17,198446,,,198444,,198446,2021-11-03T12:05:17.560Z,198513.54,1635940904,full,ni_sequenzen,NI_Sequenzen,,,,,,,,,,,,,,
,Screen_6,canvas.Screen,0_2_16_5,,skipped,17,198446,,,198444,,198446,2021-11-03T12:05:17.560Z,198513.54,1635940904,full,ni_sequenzen,NI_Sequenzen,,,,,,,,,,,,,,
,Sequence,flow.Sequence,0_2_16,,completion,17,198443,,,198444,,198446,2021-11-03T12:05:17.560Z,198513.54,1635940904,full,ni_sequenzen,NI_Sequenzen,,,,,,,,,,,,,,
,Screen_1,canvas.Screen,0_2_17_0,,skipped,18,198447,,,198447,,198447,2021-11-03T12:05:17.561Z,198513.54,1635940904,full,ni_sequenzen,NI_Sequenzen,,,,,,,,,,,,,,
,Screen_2,canvas.Screen,0_2_17_1,,skipped,18,198447,,,198447,,198447,2021-11-03T12:05:17.562Z,198513.54,1635940904,full,ni_sequenzen,NI_Sequenzen,,,,,,,,,,,,,,
,Screen_3,canvas.Screen,0_2_17_2,,skipped,18,198448,,,198447,,198448,2021-11-03T12:05:17.562Z,198513.54,1635940904,full,ni_sequenzen,NI_Sequenzen,,,,,,,,,,,,,,
,Screen_4,canvas.Screen,0_2_17_3,,skipped,18,198448,,,198447,,198448,2021-11-03T12:05:17.563Z,198513.54,1635940904,full,ni_sequenzen,NI_Sequenzen,,,,,,,,,,,,,,
,Screen_5,canvas.Screen,0_2_17_4,,skipped,18,198450,,,198447,,198450,2021-11-03T12:05:17.563Z,198513.54,1635940904,full,ni_sequenzen,NI_Sequenzen,,,,,,,,,,,,,,
,Screen_6,canvas.Screen,0_2_17_5,,skipped,18,198450,,,198447,,198450,2021-11-03T12:05:17.564Z,198513.54,1635940904,full,ni_sequenzen,NI_Sequenzen,,,,,,,,,,,,,,
,Sequence,flow.Sequence,0_2_17,,completion,18,198446,,,198447,,198450,2021-11-03T12:05:17.564Z,198513.54,1635940904,full,ni_sequenzen,NI_Sequenzen,,,,,,,,,,,,,,
,Screen_1,canvas.Screen,0_2_18_0,,skipped,19,198450,,,198450,,198450,2021-11-03T12:05:17.565Z,198513.54,1635940904,full,ni_sequenzen,NI_Sequenzen,,,,,,,,,,,,,,
,Screen_2,canvas.Screen,0_2_18_1,,skipped,19,198451,,,198450,,198451,2021-11-03T12:05:17.565Z,198513.54,1635940904,full,ni_sequenzen,NI_Sequenzen,,,,,,,,,,,,,,
,Screen_3,canvas.Screen,0_2_18_2,,skipped,19,198451,,,198450,,198451,2021-11-03T12:05:17.566Z,198513.54,1635940904,full,ni_sequenzen,NI_Sequenzen,,,,,,,,,,,,,,
,Screen_4,canvas.Screen,0_2_18_3,,skipped,19,198452,,,198450,,198452,2021-11-03T12:05:17.566Z,198513.54,1635940904,full,ni_sequenzen,NI_Sequenzen,,,,,,,,,,,,,,
,Screen_5,canvas.Screen,0_2_18_4,,skipped,19,198452,,,198450,,198452,2021-11-03T12:05:17.567Z,198513.54,1635940904,full,ni_sequenzen,NI_Sequenzen,,,,,,,,,,,,,,
,Screen_6,canvas.Screen,0_2_18_5,,skipped,19,198453,,,198450,,198453,2021-11-03T12:05:17.568Z,198513.54,1635940904,full,ni_sequenzen,NI_Sequenzen,,,,,,,,,,,,,,
,Sequence,flow.Sequence,0_2_18,,completion,19,198450,,,198450,,198453,2021-11-03T12:05:17.568Z,198513.54,1635940904,full,ni_sequenzen,NI_Sequenzen,,,,,,,,,,,,,,
,Screen_1,canvas.Screen,0_2_19_0,,skipped,20,198454,,,198454,,198454,2021-11-03T12:05:17.568Z,198513.54,1635940904,full,ni_sequenzen,NI_Sequenzen,,,,,,,,,,,,,,
,Screen_2,canvas.Screen,0_2_19_1,,skipped,20,198455,,,198454,,198455,2021-11-03T12:05:17.569Z,198513.54,1635940904,full,ni_sequenzen,NI_Sequenzen,,,,,,,,,,,,,,
,Screen_3,canvas.Screen,0_2_19_2,,skipped,20,198455,,,198454,,198455,2021-11-03T12:05:17.569Z,198513.54,1635940904,full,ni_sequenzen,NI_Sequenzen,,,,,,,,,,,,,,
,Screen_4,canvas.Screen,0_2_19_3,,skipped,20,198456,,,198454,,198456,2021-11-03T12:05:17.570Z,198513.54,1635940904,full,ni_sequenzen,NI_Sequenzen,,,,,,,,,,,,,,
,Screen_5,canvas.Screen,0_2_19_4,,skipped,20,198456,,,198454,,198456,2021-11-03T12:05:17.570Z,198513.54,1635940904,full,ni_sequenzen,NI_Sequenzen,,,,,,,,,,,,,,
,Screen_6,canvas.Screen,0_2_19_5,,skipped,20,198457,,,198454,,198457,2021-11-03T12:05:17.571Z,198513.54,1635940904,full,ni_sequenzen,NI_Sequenzen,,,,,,,,,,,,,,
,Sequence,flow.Sequence,0_2_19,,completion,20,198453,,,198454,,198457,2021-11-03T12:05:17.571Z,198513.54,1635940904,full,ni_sequenzen,NI_Sequenzen,,,,,,,,,,,,,,
,Screen_1,canvas.Screen,0_2_20_0,,skipped,21,198458,,,198458,,198458,2021-11-03T12:05:17.572Z,198513.54,1635940904,full,ni_sequenzen,NI_Sequenzen,,,,,,,,,,,,,,
,Screen_2,canvas.Screen,0_2_20_1,,skipped,21,198458,,,198458,,198458,2021-11-03T12:05:17.572Z,198513.54,1635940904,full,ni_sequenzen,NI_Sequenzen,,,,,,,,,,,,,,
,Screen_3,canvas.Screen,0_2_20_2,,skipped,21,198459,,,198458,,198459,2021-11-03T12:05:17.573Z,198513.54,1635940904,full,ni_sequenzen,NI_Sequenzen,,,,,,,,,,,,,,
,Screen_4,canvas.Screen,0_2_20_3,,skipped,21,198459,,,198458,,198459,2021-11-03T12:05:17.573Z,198513.54,1635940904,full,ni_sequenzen,NI_Sequenzen,,,,,,,,,,,,,,
,Screen_5,canvas.Screen,0_2_20_4,,skipped,21,198460,,,198458,,198460,2021-11-03T12:05:17.574Z,198513.54,1635940904,full,ni_sequenzen,NI_Sequenzen,,,,,,,,,,,,,,
,Screen_6,canvas.Screen,0_2_20_5,,skipped,21,198461,,,198458,,198461,2021-11-03T12:05:17.574Z,198513.54,1635940904,full,ni_sequenzen,NI_Sequenzen,,,,,,,,,,,,,,
,Sequence,flow.Sequence,0_2_20,,completion,21,198457,,,198458,,198461,2021-11-03T12:05:17.574Z,198513.54,1635940904,full,ni_sequenzen,NI_Sequenzen,,,,,,,,,,,,,,
,Screen_1,canvas.Screen,0_2_21_0,,skipped,22,198462,,,198462,,198462,2021-11-03T12:05:17.575Z,198513.54,1635940904,full,ni_sequenzen,NI_Sequenzen,,,,,,,,,,,,,,
,Screen_2,canvas.Screen,0_2_21_1,,skipped,22,198462,,,198462,,198462,2021-11-03T12:05:17.576Z,198513.54,1635940904,full,ni_sequenzen,NI_Sequenzen,,,,,,,,,,,,,,
,Screen_3,canvas.Screen,0_2_21_2,,skipped,22,198463,,,198462,,198463,2021-11-03T12:05:17.576Z,198513.54,1635940904,full,ni_sequenzen,NI_Sequenzen,,,,,,,,,,,,,,
,Screen_4,canvas.Screen,0_2_21_3,,skipped,22,198463,,,198462,,198463,2021-11-03T12:05:17.576Z,198513.54,1635940904,full,ni_sequenzen,NI_Sequenzen,,,,,,,,,,,,,,
,Screen_5,canvas.Screen,0_2_21_4,,skipped,22,198464,,,198462,,198464,2021-11-03T12:05:17.577Z,198513.54,1635940904,full,ni_sequenzen,NI_Sequenzen,,,,,,,,,,,,,,
,Screen_6,canvas.Screen,0_2_21_5,,skipped,22,198464,,,198462,,198464,2021-11-03T12:05:17.578Z,198513.54,1635940904,full,ni_sequenzen,NI_Sequenzen,,,,,,,,,,,,,,
,Sequence,flow.Sequence,0_2_21,,completion,22,198461,,,198462,,198464,2021-11-03T12:05:17.578Z,198513.54,1635940904,full,ni_sequenzen,NI_Sequenzen,,,,,,,,,,,,,,
,Screen_1,canvas.Screen,0_2_22_0,,skipped,23,198465,,,198465,,198465,2021-11-03T12:05:17.578Z,198513.54,1635940904,full,ni_sequenzen,NI_Sequenzen,,,,,,,,,,,,,,
,Screen_2,canvas.Screen,0_2_22_1,,skipped,23,198465,,,198465,,198465,2021-11-03T12:05:17.579Z,198513.54,1635940904,full,ni_sequenzen,NI_Sequenzen,,,,,,,,,,,,,,
,Screen_3,canvas.Screen,0_2_22_2,,skipped,23,198466,,,198465,,198466,2021-11-03T12:05:17.580Z,198513.54,1635940904,full,ni_sequenzen,NI_Sequenzen,,,,,,,,,,,,,,
,Screen_4,canvas.Screen,0_2_22_3,,skipped,23,198466,,,198465,,198466,2021-11-03T12:05:17.580Z,198513.54,1635940904,full,ni_sequenzen,NI_Sequenzen,,,,,,,,,,,,,,
,Screen_5,canvas.Screen,0_2_22_4,,skipped,23,198467,,,198465,,198467,2021-11-03T12:05:17.580Z,198513.54,1635940904,full,ni_sequenzen,NI_Sequenzen,,,,,,,,,,,,,,
,Screen_6,canvas.Screen,0_2_22_5,,skipped,23,198467,,,198465,,198467,2021-11-03T12:05:17.581Z,198513.54,1635940904,full,ni_sequenzen,NI_Sequenzen,,,,,,,,,,,,,,
,Sequence,flow.Sequence,0_2_22,,completion,23,198465,,,198465,,198467,2021-11-03T12:05:17.581Z,198513.54,1635940904,full,ni_sequenzen,NI_Sequenzen,,,,,,,,,,,,,,
,Screen_1,canvas.Screen,0_2_23_0,,skipped,24,198468,,,198468,,198468,2021-11-03T12:05:17.582Z,198513.54,1635940904,full,ni_sequenzen,NI_Sequenzen,,,,,,,,,,,,,,
,Screen_2,canvas.Screen,0_2_23_1,,skipped,24,198469,,,198468,,198469,2021-11-03T12:05:17.582Z,198513.54,1635940904,full,ni_sequenzen,NI_Sequenzen,,,,,,,,,,,,,,
,Screen_3,canvas.Screen,0_2_23_2,,skipped,24,198469,,,198468,,198469,2021-11-03T12:05:17.583Z,198513.54,1635940904,full,ni_sequenzen,NI_Sequenzen,,,,,,,,,,,,,,
,Screen_4,canvas.Screen,0_2_23_3,,skipped,24,198470,,,198468,,198470,2021-11-03T12:05:17.583Z,198513.54,1635940904,full,ni_sequenzen,NI_Sequenzen,,,,,,,,,,,,,,
,Screen_5,canvas.Screen,0_2_23_4,,skipped,24,198470,,,198468,,198470,2021-11-03T12:05:17.584Z,198513.54,1635940904,full,ni_sequenzen,NI_Sequenzen,,,,,,,,,,,,,,
,Screen_6,canvas.Screen,0_2_23_5,,skipped,24,198471,,,198468,,198471,2021-11-03T12:05:17.585Z,198513.54,1635940904,full,ni_sequenzen,NI_Sequenzen,,,,,,,,,,,,,,
,Sequence,flow.Sequence,0_2_23,,completion,24,198468,,,198468,,198471,2021-11-03T12:05:17.585Z,198513.54,1635940904,full,ni_sequenzen,NI_Sequenzen,,,,,,,,,,,,,,
,Screen_1,canvas.Screen,0_2_24_0,,skipped,25,198473,,,198473,,198473,2021-11-03T12:05:17.587Z,198513.54,1635940904,full,ni_sequenzen,NI_Sequenzen,,,,,,,,,,,,,,
,Screen_2,canvas.Screen,0_2_24_1,,skipped,25,198473,,,198473,,198473,2021-11-03T12:05:17.587Z,198513.54,1635940904,full,ni_sequenzen,NI_Sequenzen,,,,,,,,,,,,,,
,Screen_3,canvas.Screen,0_2_24_2,,skipped,25,198474,,,198473,,198474,2021-11-03T12:05:17.587Z,198513.54,1635940904,full,ni_sequenzen,NI_Sequenzen,,,,,,,,,,,,,,
,Screen_4,canvas.Screen,0_2_24_3,,skipped,25,198475,,,198473,,198475,2021-11-03T12:05:17.588Z,198513.54,1635940904,full,ni_sequenzen,NI_Sequenzen,,,,,,,,,,,,,,
,Screen_5,canvas.Screen,0_2_24_4,,skipped,25,198475,,,198473,,198475,2021-11-03T12:05:17.589Z,198513.54,1635940904,full,ni_sequenzen,NI_Sequenzen,,,,,,,,,,,,,,
,Screen_6,canvas.Screen,0_2_24_5,,skipped,25,198476,,,198473,,198476,2021-11-03T12:05:17.589Z,198513.54,1635940904,full,ni_sequenzen,NI_Sequenzen,,,,,,,,,,,,,,
,Sequence,flow.Sequence,0_2_24,,completion,25,198471,,,198473,,198476,2021-11-03T12:05:17.589Z,198513.54,1635940904,full,ni_sequenzen,NI_Sequenzen,,,,,,,,,,,,,,
,Screen_1,canvas.Screen,0_2_25_0,,skipped,26,198477,,,198477,,198477,2021-11-03T12:05:17.591Z,198513.54,1635940904,full,ni_sequenzen,NI_Sequenzen,,,,,,,,,,,,,,
,Screen_2,canvas.Screen,0_2_25_1,,skipped,26,198477,,,198477,,198477,2021-11-03T12:05:17.591Z,198513.54,1635940904,full,ni_sequenzen,NI_Sequenzen,,,,,,,,,,,,,,
,Screen_3,canvas.Screen,0_2_25_2,,skipped,26,198478,,,198477,,198478,2021-11-03T12:05:17.592Z,198513.54,1635940904,full,ni_sequenzen,NI_Sequenzen,,,,,,,,,,,,,,
,Screen_4,canvas.Screen,0_2_25_3,,skipped,26,198478,,,198477,,198478,2021-11-03T12:05:17.592Z,198513.54,1635940904,full,ni_sequenzen,NI_Sequenzen,,,,,,,,,,,,,,
,Screen_5,canvas.Screen,0_2_25_4,,skipped,26,198478,,,198477,,198478,2021-11-03T12:05:17.592Z,198513.54,1635940904,full,ni_sequenzen,NI_Sequenzen,,,,,,,,,,,,,,
,Screen_6,canvas.Screen,0_2_25_5,,skipped,26,198479,,,198477,,198479,2021-11-03T12:05:17.593Z,198513.54,1635940904,full,ni_sequenzen,NI_Sequenzen,,,,,,,,,,,,,,
,Sequence,flow.Sequence,0_2_25,,completion,26,198476,,,198477,,198479,2021-11-03T12:05:17.593Z,198513.54,1635940904,full,ni_sequenzen,NI_Sequenzen,,,,,,,,,,,,,,
,Screen_1,canvas.Screen,0_2_26_0,,skipped,27,198479,,,198479,,198479,2021-11-03T12:05:17.594Z,198513.54,1635940904,full,ni_sequenzen,NI_Sequenzen,,,,,,,,,,,,,,
,Screen_2,canvas.Screen,0_2_26_1,,skipped,27,198480,,,198479,,198480,2021-11-03T12:05:17.594Z,198513.54,1635940904,full,ni_sequenzen,NI_Sequenzen,,,,,,,,,,,,,,
,Screen_3,canvas.Screen,0_2_26_2,,skipped,27,198481,,,198479,,198481,2021-11-03T12:05:17.595Z,198513.54,1635940904,full,ni_sequenzen,NI_Sequenzen,,,,,,,,,,,,,,
,Screen_4,canvas.Screen,0_2_26_3,,skipped,27,198482,,,198479,,198482,2021-11-03T12:05:17.595Z,198513.54,1635940904,full,ni_sequenzen,NI_Sequenzen,,,,,,,,,,,,,,
,Screen_5,canvas.Screen,0_2_26_4,,skipped,27,198482,,,198479,,198482,2021-11-03T12:05:17.596Z,198513.54,1635940904,full,ni_sequenzen,NI_Sequenzen,,,,,,,,,,,,,,
,Screen_6,canvas.Screen,0_2_26_5,,skipped,27,198482,,,198479,,198482,2021-11-03T12:05:17.596Z,198513.54,1635940904,full,ni_sequenzen,NI_Sequenzen,,,,,,,,,,,,,,
,Sequence,flow.Sequence,0_2_26,,completion,27,198479,,,198479,,198482,2021-11-03T12:05:17.596Z,198513.54,1635940904,full,ni_sequenzen,NI_Sequenzen,,,,,,,,,,,,,,
,Screen_1,canvas.Screen,0_2_27_0,,skipped,28,198483,,,198483,,198483,2021-11-03T12:05:17.597Z,198513.54,1635940904,full,ni_sequenzen,NI_Sequenzen,,,,,,,,,,,,,,
,Screen_2,canvas.Screen,0_2_27_1,,skipped,28,198483,,,198483,,198483,2021-11-03T12:05:17.598Z,198513.54,1635940904,full,ni_sequenzen,NI_Sequenzen,,,,,,,,,,,,,,
,Screen_3,canvas.Screen,0_2_27_2,,skipped,28,198484,,,198483,,198484,2021-11-03T12:05:17.598Z,198513.54,1635940904,full,ni_sequenzen,NI_Sequenzen,,,,,,,,,,,,,,
,Screen_4,canvas.Screen,0_2_27_3,,skipped,28,198484,,,198483,,198484,2021-11-03T12:05:17.599Z,198513.54,1635940904,full,ni_sequenzen,NI_Sequenzen,,,,,,,,,,,,,,
,Screen_5,canvas.Screen,0_2_27_4,,skipped,28,198485,,,198483,,198485,2021-11-03T12:05:17.600Z,198513.54,1635940904,full,ni_sequenzen,NI_Sequenzen,,,,,,,,,,,,,,
,Screen_6,canvas.Screen,0_2_27_5,,skipped,28,198486,,,198483,,198486,2021-11-03T12:05:17.600Z,198513.54,1635940904,full,ni_sequenzen,NI_Sequenzen,,,,,,,,,,,,,,
,Sequence,flow.Sequence,0_2_27,,completion,28,198482,,,198483,,198486,2021-11-03T12:05:17.600Z,198513.54,1635940904,full,ni_sequenzen,NI_Sequenzen,,,,,,,,,,,,,,
,Screen_1,canvas.Screen,0_2_28_0,,skipped,29,198487,,,198487,,198487,2021-11-03T12:05:17.601Z,198513.54,1635940904,full,ni_sequenzen,NI_Sequenzen,,,,,,,,,,,,,,
,Screen_2,canvas.Screen,0_2_28_1,,skipped,29,198488,,,198487,,198488,2021-11-03T12:05:17.601Z,198513.54,1635940904,full,ni_sequenzen,NI_Sequenzen,,,,,,,,,,,,,,
,Screen_3,canvas.Screen,0_2_28_2,,skipped,29,198488,,,198487,,198488,2021-11-03T12:05:17.602Z,198513.54,1635940904,full,ni_sequenzen,NI_Sequenzen,,,,,,,,,,,,,,
,Screen_4,canvas.Screen,0_2_28_3,,skipped,29,198489,,,198487,,198489,2021-11-03T12:05:17.602Z,198513.54,1635940904,full,ni_sequenzen,NI_Sequenzen,,,,,,,,,,,,,,
,Screen_5,canvas.Screen,0_2_28_4,,skipped,29,198489,,,198487,,198489,2021-11-03T12:05:17.603Z,198513.54,1635940904,full,ni_sequenzen,NI_Sequenzen,,,,,,,,,,,,,,
,Screen_6,canvas.Screen,0_2_28_5,,skipped,29,198490,,,198487,,198490,2021-11-03T12:05:17.603Z,198513.54,1635940904,full,ni_sequenzen,NI_Sequenzen,,,,,,,,,,,,,,
,Sequence,flow.Sequence,0_2_28,,completion,29,198487,,,198487,,198490,2021-11-03T12:05:17.603Z,198513.54,1635940904,full,ni_sequenzen,NI_Sequenzen,,,,,,,,,,,,,,
,Screen_1,canvas.Screen,0_2_29_0,,skipped,30,198490,,,198490,,198490,2021-11-03T12:05:17.604Z,198513.54,1635940904,full,ni_sequenzen,NI_Sequenzen,,,,,,,,,,,,,,
,Screen_2,canvas.Screen,0_2_29_1,,skipped,30,198491,,,198490,,198491,2021-11-03T12:05:17.605Z,198513.54,1635940904,full,ni_sequenzen,NI_Sequenzen,,,,,,,,,,,,,,
,Screen_3,canvas.Screen,0_2_29_2,,skipped,30,198491,,,198490,,198491,2021-11-03T12:05:17.605Z,198513.54,1635940904,full,ni_sequenzen,NI_Sequenzen,,,,,,,,,,,,,,
,Screen_4,canvas.Screen,0_2_29_3,,skipped,30,198492,,,198490,,198492,2021-11-03T12:05:17.606Z,198513.54,1635940904,full,ni_sequenzen,NI_Sequenzen,,,,,,,,,,,,,,
,Screen_5,canvas.Screen,0_2_29_4,,skipped,30,198492,,,198490,,198492,2021-11-03T12:05:17.606Z,198513.54,1635940904,full,ni_sequenzen,NI_Sequenzen,,,,,,,,,,,,,,
,Screen_6,canvas.Screen,0_2_29_5,,skipped,30,198493,,,198490,,198493,2021-11-03T12:05:17.606Z,198513.54,1635940904,full,ni_sequenzen,NI_Sequenzen,,,,,,,,,,,,,,
,Sequence,flow.Sequence,0_2_29,,completion,30,198490,,,198490,,198493,2021-11-03T12:05:17.607Z,198513.54,1635940904,full,ni_sequenzen,NI_Sequenzen,,,,,,,,,,,,,,
,Instructions_II,flow.Loop,0_2,,completion,,122084,122086.04,122086.14,198490,76403.86,198493,2021-11-03T12:05:17.607Z,198513.54,1635940904,full,ni_sequenzen,NI_Sequenzen,,,,,,,,,,,,,,
,Move,canvas.Screen,0_3_0_0_0_0,down,response,,198513,198513.24,198513.54,207348,8834.459999999992,207360,2021-11-03T12:05:26.473Z,207369.7,1635940904,full,ni_sequenzen,NI_Sequenzen,1,0,,,,,,,,,,,,
,Move,canvas.Screen,0_3_0_0_0_1,right,response,,207369,207369.44,207369.7,209112,1742.2999999999884,209119,2021-11-03T12:05:28.234Z,209125.72,1635940904,full,ni_sequenzen,NI_Sequenzen,2,0,,,,,,,,,,,,
,Move,canvas.Screen,0_3_0_0_0_2,right,response,,209126,209125.46,209125.72,215019,5893.279999999999,215036,2021-11-03T12:05:34.150Z,215043.26,1635940904,full,ni_sequenzen,NI_Sequenzen,3,0,,,,,,,,,,,,
,Move,canvas.Screen,0_3_0_0_0_3,down,response,,215043,215042.98,215043.26,216707,1663.7399999999907,216721,2021-11-03T12:05:35.835Z,216753.2,1635940904,full,ni_sequenzen,NI_Sequenzen,4,0,,,,,,,,,,,,
,Move,canvas.Screen,0_3_0_0_0_4,-999,skipped,,216726,,,216707,,216727,2021-11-03T12:05:35.841Z,216753.2,1635940904,full,ni_sequenzen,NI_Sequenzen,5,0,,,,,,,,,,,,
,Move,canvas.Screen,0_3_0_0_0_5,-999,skipped,,216730,,,216707,,216730,2021-11-03T12:05:35.844Z,216753.2,1635940904,full,ni_sequenzen,NI_Sequenzen,6,0,,,,,,,,,,,,
,Move,canvas.Screen,0_3_0_0_0_6,-999,skipped,,216733,,,216707,,216733,2021-11-03T12:05:35.846Z,216753.2,1635940904,full,ni_sequenzen,NI_Sequenzen,7,0,,,,,,,,,,,,
,Move,canvas.Screen,0_3_0_0_0_7,-999,skipped,,216735,,,216707,,216735,2021-11-03T12:05:35.849Z,216753.2,1635940904,full,ni_sequenzen,NI_Sequenzen,8,0,,,,,,,,,,,,
,Move,canvas.Screen,0_3_0_0_0_8,-999,skipped,,216737,,,216707,,216737,2021-11-03T12:05:35.851Z,216753.2,1635940904,full,ni_sequenzen,NI_Sequenzen,9,0,,,,,,,,,,,,
,Move,canvas.Screen,0_3_0_0_0_9,-999,skipped,,216739,,,216707,,216739,2021-11-03T12:05:35.853Z,216753.2,1635940904,full,ni_sequenzen,NI_Sequenzen,10,0,,,,,,,,,,,,
,Move,canvas.Screen,0_3_0_0_0_10,-999,skipped,,216741,,,216707,,216741,2021-11-03T12:05:35.856Z,216753.2,1635940904,full,ni_sequenzen,NI_Sequenzen,11,0,,,,,,,,,,,,
,Move,canvas.Screen,0_3_0_0_0_11,-999,skipped,,216744,,,216707,,216744,2021-11-03T12:05:35.858Z,216753.2,1635940904,full,ni_sequenzen,NI_Sequenzen,12,0,,,,,,,,,,,,
,Move,canvas.Screen,0_3_0_0_0_12,-999,skipped,,216746,,,216707,,216746,2021-11-03T12:05:35.860Z,216753.2,1635940904,full,ni_sequenzen,NI_Sequenzen,13,0,,,,,,,,,,,,
,Move,canvas.Screen,0_3_0_0_0_13,-999,skipped,,216749,,,216707,,216749,2021-11-03T12:05:35.863Z,216753.2,1635940904,full,ni_sequenzen,NI_Sequenzen,14,0,,,,,,,,,,,,
,Move,canvas.Screen,0_3_0_0_0_14,-999,skipped,,216751,,,216707,,216751,2021-11-03T12:05:35.864Z,216753.2,1635940904,full,ni_sequenzen,NI_Sequenzen,15,0,,,,,,,,,,,,
,Loop,flow.Loop,0_3_0_0_0,-999,completion,,198509,198513.24,198513.54,216707,18193.459999999992,216751,2021-11-03T12:05:35.864Z,216753.2,1635940904,full,ni_sequenzen,NI_Sequenzen,,0,,,,,,,,,,,,
,Feedback,canvas.Screen,0_3_0_0_1,,timeout,,216753,216752.78,216753.2,220742.2,4005.6599999999744,220743,2021-11-03T12:05:39.857Z,220758.86,1635940904,full,ni_sequenzen,NI_Sequenzen,,0,,,,,,,,,,,,
,Trial,flow.Sequence,0_3_0_0,,completion,,198505,198513.24,198513.54,220742.2,22228.660000000003,220743,2021-11-03T12:05:39.857Z,220775.52,1635940904,full,ni_sequenzen,NI_Sequenzen,,0,,,,,,,,,,,,
,Move,canvas.Screen,0_3_0_1_0_0,down,response,,220752,220758.86,220775.52,225801,5025.4800000000105,225803,2021-11-03T12:05:44.917Z,225807.2,1635940904,full,ni_sequenzen,NI_Sequenzen,1,1,,,,,,,,,,,,
,Move,canvas.Screen,0_3_0_1_0_1,left,response,,225807,225807.1,225807.2,226457,649.7999999999884,226472,2021-11-03T12:05:45.586Z,226478.08,1635940904,full,ni_sequenzen,NI_Sequenzen,2,1,,,,,,,,,,,,
,Move,canvas.Screen,0_3_0_1_0_2,down,response,,226477,226477.8,226478.08,230238,3759.920000000013,230245,2021-11-03T12:05:49.359Z,230249.14,1635940904,full,ni_sequenzen,NI_Sequenzen,3,1,,,,,,,,,,,,
,Move,canvas.Screen,0_3_0_1_0_3,left,response,,230249,230248.96,230249.14,231254,1004.859999999986,231262,2021-11-03T12:05:50.376Z,231295.64,1635940904,full,ni_sequenzen,NI_Sequenzen,4,1,,,,,,,,,,,,
,Move,canvas.Screen,0_3_0_1_0_4,-999,skipped,,231269,,,231254,,231269,2021-11-03T12:05:50.383Z,231295.64,1635940904,full,ni_sequenzen,NI_Sequenzen,5,1,,,,,,,,,,,,
,Move,canvas.Screen,0_3_0_1_0_5,-999,skipped,,231272,,,231254,,231272,2021-11-03T12:05:50.386Z,231295.64,1635940904,full,ni_sequenzen,NI_Sequenzen,6,1,,,,,,,,,,,,
,Move,canvas.Screen,0_3_0_1_0_6,-999,skipped,,231275,,,231254,,231275,2021-11-03T12:05:50.389Z,231295.64,1635940904,full,ni_sequenzen,NI_Sequenzen,7,1,,,,,,,,,,,,
,Move,canvas.Screen,0_3_0_1_0_7,-999,skipped,,231276,,,231254,,231276,2021-11-03T12:05:50.390Z,231295.64,1635940904,full,ni_sequenzen,NI_Sequenzen,8,1,,,,,,,,,,,,
,Move,canvas.Screen,0_3_0_1_0_8,-999,skipped,,231279,,,231254,,231279,2021-11-03T12:05:50.393Z,231295.64,1635940904,full,ni_sequenzen,NI_Sequenzen,9,1,,,,,,,,,,,,
,Move,canvas.Screen,0_3_0_1_0_9,-999,skipped,,231281,,,231254,,231281,2021-11-03T12:05:50.395Z,231295.64,1635940904,full,ni_sequenzen,NI_Sequenzen,10,1,,,,,,,,,,,,
,Move,canvas.Screen,0_3_0_1_0_10,-999,skipped,,231284,,,231254,,231284,2021-11-03T12:05:50.398Z,231295.64,1635940904,full,ni_sequenzen,NI_Sequenzen,11,1,,,,,,,,,,,,
,Move,canvas.Screen,0_3_0_1_0_11,-999,skipped,,231287,,,231254,,231287,2021-11-03T12:05:50.400Z,231295.64,1635940904,full,ni_sequenzen,NI_Sequenzen,12,1,,,,,,,,,,,,
,Move,canvas.Screen,0_3_0_1_0_12,-999,skipped,,231289,,,231254,,231289,2021-11-03T12:05:50.403Z,231295.64,1635940904,full,ni_sequenzen,NI_Sequenzen,13,1,,,,,,,,,,,,
,Move,canvas.Screen,0_3_0_1_0_13,-999,skipped,,231292,,,231254,,231292,2021-11-03T12:05:50.405Z,231295.64,1635940904,full,ni_sequenzen,NI_Sequenzen,14,1,,,,,,,,,,,,
,Move,canvas.Screen,0_3_0_1_0_14,-999,skipped,,231293,,,231254,,231293,2021-11-03T12:05:50.407Z,231295.64,1635940904,full,ni_sequenzen,NI_Sequenzen,15,1,,,,,,,,,,,,
,Loop,flow.Loop,0_3_0_1_0,-999,completion,,220750,220758.86,220775.52,231254,10478.48000000001,231293,2021-11-03T12:05:50.407Z,231295.64,1635940904,full,ni_sequenzen,NI_Sequenzen,,1,,,,,,,,,,,,
,Feedback,canvas.Screen,0_3_0_1_1,,timeout,,231295,231295.36,231295.64,235285.92,4006.959999999992,235286,2021-11-03T12:05:54.401Z,235302.6,1635940904,full,ni_sequenzen,NI_Sequenzen,,1,,,,,,,,,,,,
,Trial,flow.Sequence,0_3_0_1,,completion,,220744,220758.86,220775.52,235285.92,14510.400000000023,235286,2021-11-03T12:05:54.401Z,235319.26,1635940904,full,ni_sequenzen,NI_Sequenzen,,1,,,,,,,,,,,,
,Move,canvas.Screen,0_3_0_2_0_0,right,response,,235295,235302.6,235319.26,237815,2495.7399999999907,237832,2021-11-03T12:05:56.945Z,237837.08,1635940904,full,ni_sequenzen,NI_Sequenzen,1,2,,,,,,,,,,,,
,Move,canvas.Screen,0_3_0_2_0_1,down,response,,237837,237837,237837.08,238769,931.9200000000128,238774,2021-11-03T12:05:57.888Z,238783.42,1635940904,full,ni_sequenzen,NI_Sequenzen,2,2,,,,,,,,,,,,
,Move,canvas.Screen,0_3_0_2_0_2,down,response,,238783,238783.3,238783.42,239488,704.5799999999872,239503,2021-11-03T12:05:58.617Z,239511.5,1635940904,full,ni_sequenzen,NI_Sequenzen,3,2,,,,,,,,,,,,
,Move,canvas.Screen,0_3_0_2_0_3,right,response,,239512,239511.38,239511.5,240722,1210.5,240725,2021-11-03T12:05:59.839Z,240764.84,1635940904,full,ni_sequenzen,NI_Sequenzen,4,2,,,,,,,,,,,,
,Move,canvas.Screen,0_3_0_2_0_4,-999,skipped,,240733,,,240722,,240733,2021-11-03T12:05:59.847Z,240764.84,1635940904,full,ni_sequenzen,NI_Sequenzen,5,2,,,,,,,,,,,,
,Move,canvas.Screen,0_3_0_2_0_5,-999,skipped,,240737,,,240722,,240737,2021-11-03T12:05:59.850Z,240764.84,1635940904,full,ni_sequenzen,NI_Sequenzen,6,2,,,,,,,,,,,,
,Move,canvas.Screen,0_3_0_2_0_6,-999,skipped,,240741,,,240722,,240741,2021-11-03T12:05:59.855Z,240764.84,1635940904,full,ni_sequenzen,NI_Sequenzen,7,2,,,,,,,,,,,,
,Move,canvas.Screen,0_3_0_2_0_7,-999,skipped,,240744,,,240722,,240744,2021-11-03T12:05:59.858Z,240764.84,1635940904,full,ni_sequenzen,NI_Sequenzen,8,2,,,,,,,,,,,,
,Move,canvas.Screen,0_3_0_2_0_8,-999,skipped,,240747,,,240722,,240747,2021-11-03T12:05:59.861Z,240764.84,1635940904,full,ni_sequenzen,NI_Sequenzen,9,2,,,,,,,,,,,,
,Move,canvas.Screen,0_3_0_2_0_9,-999,skipped,,240749,,,240722,,240749,2021-11-03T12:05:59.864Z,240764.84,1635940904,full,ni_sequenzen,NI_Sequenzen,10,2,,,,,,,,,,,,
,Move,canvas.Screen,0_3_0_2_0_10,-999,skipped,,240752,,,240722,,240752,2021-11-03T12:05:59.866Z,240764.84,1635940904,full,ni_sequenzen,NI_Sequenzen,11,2,,,,,,,,,,,,
,Move,canvas.Screen,0_3_0_2_0_11,-999,skipped,,240754,,,240722,,240754,2021-11-03T12:05:59.869Z,240764.84,1635940904,full,ni_sequenzen,NI_Sequenzen,12,2,,,,,,,,,,,,
,Move,canvas.Screen,0_3_0_2_0_12,-999,skipped,,240757,,,240722,,240757,2021-11-03T12:05:59.871Z,240764.84,1635940904,full,ni_sequenzen,NI_Sequenzen,13,2,,,,,,,,,,,,
,Move,canvas.Screen,0_3_0_2_0_13,-999,skipped,,240760,,,240722,,240760,2021-11-03T12:05:59.874Z,240764.84,1635940904,full,ni_sequenzen,NI_Sequenzen,14,2,,,,,,,,,,,,
,Move,canvas.Screen,0_3_0_2_0_14,-999,skipped,,240763,,,240722,,240763,2021-11-03T12:05:59.876Z,240764.84,1635940904,full,ni_sequenzen,NI_Sequenzen,15,2,,,,,,,,,,,,
,Loop,flow.Loop,0_3_0_2_0,-999,completion,,235293,235302.6,235319.26,240722,5402.739999999991,240763,2021-11-03T12:05:59.876Z,240764.84,1635940904,full,ni_sequenzen,NI_Sequenzen,,2,,,,,,,,,,,,
,Feedback,canvas.Screen,0_3_0_2_1,,timeout,,240765,240764.48,240764.84,244751.82,4003.640000000014,244754,2021-11-03T12:06:03.867Z,244768.48,1635940904,full,ni_sequenzen,NI_Sequenzen,,2,,,,,,,,,,,,
,Trial,flow.Sequence,0_3_0_2,,completion,,235288,235302.6,235319.26,244751.82,9432.559999999998,244755,2021-11-03T12:06:03.868Z,244785.14,1635940904,full,ni_sequenzen,NI_Sequenzen,,2,,,,,,,,,,,,
,Move,canvas.Screen,0_3_0_3_0_0,left,response,,244770,244768.48,244785.14,250613,5827.859999999986,250631,2021-11-03T12:06:09.744Z,250638.2,1635940904,full,ni_sequenzen,NI_Sequenzen,1,3,,,,,,,,,,,,
,Move,canvas.Screen,0_3_0_3_0_1,down,response,,250638,250638.06,250638.2,251004,365.79999999998836,251015,2021-11-03T12:06:10.130Z,251023.5,1635940904,full,ni_sequenzen,NI_Sequenzen,2,3,,,,,,,,,,,,
,Move,canvas.Screen,0_3_0_3_0_2,right,response,,251023,251023.32,251023.5,251598,574.5,251615,2021-11-03T12:06:10.729Z,251621.36,1635940904,full,ni_sequenzen,NI_Sequenzen,3,3,,,,,,,,,,,,
,Move,canvas.Screen,0_3_0_3_0_3,down,response,,251621,251621.16,251621.36,254113,2491.640000000014,254122,2021-11-03T12:06:13.236Z,254134.52,1635940904,full,ni_sequenzen,NI_Sequenzen,4,3,,,,,,,,,,,,
,Move,canvas.Screen,0_3_0_3_0_4,right,response,,254134,254134.32,254134.52,257018,2883.4800000000105,257028,2021-11-03T12:06:16.141Z,257066.9,1635940904,full,ni_sequenzen,NI_Sequenzen,5,3,,,,,,,,,,,,
,Move,canvas.Screen,0_3_0_3_0_5,-999,skipped,,257036,,,257018,,257036,2021-11-03T12:06:16.151Z,257066.9,1635940904,full,ni_sequenzen,NI_Sequenzen,6,3,,,,,,,,,,,,
,Move,canvas.Screen,0_3_0_3_0_6,-999,skipped,,257040,,,257018,,257040,2021-11-03T12:06:16.154Z,257066.9,1635940904,full,ni_sequenzen,NI_Sequenzen,7,3,,,,,,,,,,,,
,Move,canvas.Screen,0_3_0_3_0_7,-999,skipped,,257043,,,257018,,257043,2021-11-03T12:06:16.158Z,257066.9,1635940904,full,ni_sequenzen,NI_Sequenzen,8,3,,,,,,,,,,,,
,Move,canvas.Screen,0_3_0_3_0_8,-999,skipped,,257045,,,257018,,257046,2021-11-03T12:06:16.159Z,257066.9,1635940904,full,ni_sequenzen,NI_Sequenzen,9,3,,,,,,,,,,,,
,Move,canvas.Screen,0_3_0_3_0_9,-999,skipped,,257048,,,257018,,257048,2021-11-03T12:06:16.162Z,257066.9,1635940904,full,ni_sequenzen,NI_Sequenzen,10,3,,,,,,,,,,,,
,Move,canvas.Screen,0_3_0_3_0_10,-999,skipped,,257050,,,257018,,257050,2021-11-03T12:06:16.164Z,257066.9,1635940904,full,ni_sequenzen,NI_Sequenzen,11,3,,,,,,,,,,,,
,Move,canvas.Screen,0_3_0_3_0_11,-999,skipped,,257054,,,257018,,257054,2021-11-03T12:06:16.168Z,257066.9,1635940904,full,ni_sequenzen,NI_Sequenzen,12,3,,,,,,,,,,,,
,Move,canvas.Screen,0_3_0_3_0_12,-999,skipped,,257058,,,257018,,257058,2021-11-03T12:06:16.172Z,257066.9,1635940904,full,ni_sequenzen,NI_Sequenzen,13,3,,,,,,,,,,,,
,Move,canvas.Screen,0_3_0_3_0_13,-999,skipped,,257061,,,257018,,257061,2021-11-03T12:06:16.175Z,257066.9,1635940904,full,ni_sequenzen,NI_Sequenzen,14,3,,,,,,,,,,,,
,Move,canvas.Screen,0_3_0_3_0_14,-999,skipped,,257064,,,257018,,257064,2021-11-03T12:06:16.178Z,257066.9,1635940904,full,ni_sequenzen,NI_Sequenzen,15,3,,,,,,,,,,,,
,Loop,flow.Loop,0_3_0_3_0,-999,completion,,244765,244768.48,244785.14,257018,12232.859999999986,257064,2021-11-03T12:06:16.178Z,257066.9,1635940904,full,ni_sequenzen,NI_Sequenzen,,3,,,,,,,,,,,,
,Feedback,canvas.Screen,0_3_0_3_1,,timeout,,257067,257066.66,257066.9,261048.22,3997.8800000000047,261049,2021-11-03T12:06:20.163Z,261064.78,1635940904,full,ni_sequenzen,NI_Sequenzen,,3,,,,,,,,,,,,
,Trial,flow.Sequence,0_3_0_3,,completion,,244756,244768.48,244785.14,261048.22,16263.079999999987,261050,2021-11-03T12:06:20.163Z,261081.46,1635940904,full,ni_sequenzen,NI_Sequenzen,,3,,,,,,,,,,,,
,Move,canvas.Screen,0_3_0_4_0_0,down,response,,261061,261064.78,261081.46,264223,3141.540000000008,264236,2021-11-03T12:06:23.350Z,264242.82,1635940904,full,ni_sequenzen,NI_Sequenzen,1,4,,,,,,,,,,,,
,Move,canvas.Screen,0_3_0_4_0_1,right,response,,264242,264242.64,264242.82,264988,745.179999999993,264992,2021-11-03T12:06:24.105Z,264997.24,1635940904,full,ni_sequenzen,NI_Sequenzen,2,4,,,,,,,,,,,,
,Move,canvas.Screen,0_3_0_4_0_2,right,response,,264997,264997.04,264997.24,265519,521.7600000000093,265528,2021-11-03T12:06:24.642Z,265532.94,1635940904,full,ni_sequenzen,NI_Sequenzen,3,4,,,,,,,,,,,,
,Move,canvas.Screen,0_3_0_4_0_3,down,response,,265533,265532.78,265532.94,265956,423.0599999999977,265964,2021-11-03T12:06:25.078Z,265992.78,1635940904,full,ni_sequenzen,NI_Sequenzen,4,4,,,,,,,,,,,,
,Move,canvas.Screen,0_3_0_4_0_4,-999,skipped,,265968,,,265956,,265968,2021-11-03T12:06:25.082Z,265992.78,1635940904,full,ni_sequenzen,NI_Sequenzen,5,4,,,,,,,,,,,,
,Move,canvas.Screen,0_3_0_4_0_5,-999,skipped,,265971,,,265956,,265971,2021-11-03T12:06:25.085Z,265992.78,1635940904,full,ni_sequenzen,NI_Sequenzen,6,4,,,,,,,,,,,,
,Move,canvas.Screen,0_3_0_4_0_6,-999,skipped,,265973,,,265956,,265973,2021-11-03T12:06:25.087Z,265992.78,1635940904,full,ni_sequenzen,NI_Sequenzen,7,4,,,,,,,,,,,,
,Move,canvas.Screen,0_3_0_4_0_7,-999,skipped,,265975,,,265956,,265975,2021-11-03T12:06:25.088Z,265992.78,1635940904,full,ni_sequenzen,NI_Sequenzen,8,4,,,,,,,,,,,,
,Move,canvas.Screen,0_3_0_4_0_8,-999,skipped,,265977,,,265956,,265977,2021-11-03T12:06:25.092Z,265992.78,1635940904,full,ni_sequenzen,NI_Sequenzen,9,4,,,,,,,,,,,,
,Move,canvas.Screen,0_3_0_4_0_9,-999,skipped,,265980,,,265956,,265980,2021-11-03T12:06:25.094Z,265992.78,1635940904,full,ni_sequenzen,NI_Sequenzen,10,4,,,,,,,,,,,,
,Move,canvas.Screen,0_3_0_4_0_10,-999,skipped,,265982,,,265956,,265982,2021-11-03T12:06:25.096Z,265992.78,1635940904,full,ni_sequenzen,NI_Sequenzen,11,4,,,,,,,,,,,,
,Move,canvas.Screen,0_3_0_4_0_11,-999,skipped,,265984,,,265956,,265985,2021-11-03T12:06:25.098Z,265992.78,1635940904,full,ni_sequenzen,NI_Sequenzen,12,4,,,,,,,,,,,,
,Move,canvas.Screen,0_3_0_4_0_12,-999,skipped,,265987,,,265956,,265987,2021-11-03T12:06:25.100Z,265992.78,1635940904,full,ni_sequenzen,NI_Sequenzen,13,4,,,,,,,,,,,,
,Move,canvas.Screen,0_3_0_4_0_13,-999,skipped,,265989,,,265956,,265989,2021-11-03T12:06:25.102Z,265992.78,1635940904,full,ni_sequenzen,NI_Sequenzen,14,4,,,,,,,,,,,,
,Move,canvas.Screen,0_3_0_4_0_14,-999,skipped,,265991,,,265956,,265991,2021-11-03T12:06:25.104Z,265992.78,1635940904,full,ni_sequenzen,NI_Sequenzen,15,4,,,,,,,,,,,,
,Loop,flow.Loop,0_3_0_4_0,-999,completion,,261058,261064.78,261081.46,265956,4874.540000000008,265991,2021-11-03T12:06:25.104Z,265992.78,1635940904,full,ni_sequenzen,NI_Sequenzen,,4,,,,,,,,,,,,
,Feedback,canvas.Screen,0_3_0_4_1,,timeout,,265993,265992.36,265992.78,269980.38,4004.219999999972,269981,2021-11-03T12:06:29.095Z,269997,1635940904,full,ni_sequenzen,NI_Sequenzen,,4,,,,,,,,,,,,
,Trial,flow.Sequence,0_3_0_4,,completion,,261050,261064.78,261081.46,269980.38,8898.920000000013,269981,2021-11-03T12:06:29.095Z,270013.68,1635940904,full,ni_sequenzen,NI_Sequenzen,,4,,,,,,,,,,,,
,Move,canvas.Screen,0_3_0_5_0_0,right,response,,269992,269997,270013.68,281129,11115.320000000007,281133,2021-11-03T12:06:40.246Z,281138.14,1635940904,full,ni_sequenzen,NI_Sequenzen,1,5,,,,,,,,,,,,
,Move,canvas.Screen,0_3_0_5_0_1,down,response,,281138,281138.08,281138.14,281504,365.85999999998603,281508,2021-11-03T12:06:40.622Z,281515.52,1635940904,full,ni_sequenzen,NI_Sequenzen,2,5,,,,,,,,,,,,
,Move,canvas.Screen,0_3_0_5_0_2,right,response,,281515,281515.34,281515.52,281941,425.4799999999814,281948,2021-11-03T12:06:41.062Z,281953.3,1635940904,full,ni_sequenzen,NI_Sequenzen,3,5,,,,,,,,,,,,
,Move,canvas.Screen,0_3_0_5_0_3,down,response,,281954,281953.24,281953.3,282332,378.70000000001164,282335,2021-11-03T12:06:41.449Z,282364.86,1635940904,full,ni_sequenzen,NI_Sequenzen,4,5,,,,,,,,,,,,
,Move,canvas.Screen,0_3_0_5_0_4,-999,skipped,,282340,,,282332,,282340,2021-11-03T12:06:41.453Z,282364.86,1635940904,full,ni_sequenzen,NI_Sequenzen,5,5,,,,,,,,,,,,
,Move,canvas.Screen,0_3_0_5_0_5,-999,skipped,,282343,,,282332,,282343,2021-11-03T12:06:41.457Z,282364.86,1635940904,full,ni_sequenzen,NI_Sequenzen,6,5,,,,,,,,,,,,
,Move,canvas.Screen,0_3_0_5_0_6,-999,skipped,,282346,,,282332,,282346,2021-11-03T12:06:41.459Z,282364.86,1635940904,full,ni_sequenzen,NI_Sequenzen,7,5,,,,,,,,,,,,
,Move,canvas.Screen,0_3_0_5_0_7,-999,skipped,,282347,,,282332,,282347,2021-11-03T12:06:41.461Z,282364.86,1635940904,full,ni_sequenzen,NI_Sequenzen,8,5,,,,,,,,,,,,
,Move,canvas.Screen,0_3_0_5_0_8,-999,skipped,,282349,,,282332,,282349,2021-11-03T12:06:41.463Z,282364.86,1635940904,full,ni_sequenzen,NI_Sequenzen,9,5,,,,,,,,,,,,
,Move,canvas.Screen,0_3_0_5_0_9,-999,skipped,,282352,,,282332,,282352,2021-11-03T12:06:41.466Z,282364.86,1635940904,full,ni_sequenzen,NI_Sequenzen,10,5,,,,,,,,,,,,
,Move,canvas.Screen,0_3_0_5_0_10,-999,skipped,,282354,,,282332,,282354,2021-11-03T12:06:41.468Z,282364.86,1635940904,full,ni_sequenzen,NI_Sequenzen,11,5,,,,,,,,,,,,
,Move,canvas.Screen,0_3_0_5_0_11,-999,skipped,,282356,,,282332,,282356,2021-11-03T12:06:41.470Z,282364.86,1635940904,full,ni_sequenzen,NI_Sequenzen,12,5,,,,,,,,,,,,
,Move,canvas.Screen,0_3_0_5_0_12,-999,skipped,,282359,,,282332,,282359,2021-11-03T12:06:41.473Z,282364.86,1635940904,full,ni_sequenzen,NI_Sequenzen,13,5,,,,,,,,,,,,
,Move,canvas.Screen,0_3_0_5_0_13,-999,skipped,,282361,,,282332,,282361,2021-11-03T12:06:41.475Z,282364.86,1635940904,full,ni_sequenzen,NI_Sequenzen,14,5,,,,,,,,,,,,
,Move,canvas.Screen,0_3_0_5_0_14,-999,skipped,,282362,,,282332,,282362,2021-11-03T12:06:41.477Z,282364.86,1635940904,full,ni_sequenzen,NI_Sequenzen,15,5,,,,,,,,,,,,
,Loop,flow.Loop,0_3_0_5_0,-999,completion,,269989,269997,270013.68,282332,12318.320000000007,282362,2021-11-03T12:06:41.477Z,282364.86,1635940904,full,ni_sequenzen,NI_Sequenzen,,5,,,,,,,,,,,,
,Feedback,canvas.Screen,0_3_0_5_1,,timeout,,282364,282364.52,282364.86,286355.2,4007.0200000000186,286356,2021-11-03T12:06:45.470Z,286371.88,1635940904,full,ni_sequenzen,NI_Sequenzen,,5,,,,,,,,,,,,
,Trial,flow.Sequence,0_3_0_5,,completion,,269982,269997,270013.68,286355.2,16341.520000000019,286356,2021-11-03T12:06:45.470Z,286388.54,1635940904,full,ni_sequenzen,NI_Sequenzen,,5,,,,,,,,,,,,
,Move,canvas.Screen,0_3_0_6_0_0,down,response,,286364,286371.88,286388.54,289566,3177.460000000021,289577,2021-11-03T12:06:48.691Z,289583.8,1635940904,full,ni_sequenzen,NI_Sequenzen,1,6,,,,,,,,,,,,
,Move,canvas.Screen,0_3_0_6_0_1,right,response,,289583,289583.66,289583.8,290065,481.20000000001164,290076,2021-11-03T12:06:49.190Z,290080.8,1635940904,full,ni_sequenzen,NI_Sequenzen,2,6,,,,,,,,,,,,
,Move,canvas.Screen,0_3_0_6_0_2,right,response,,290080,290080.56,290080.8,290643,562.2000000000116,290648,2021-11-03T12:06:49.763Z,290652.64,1635940904,full,ni_sequenzen,NI_Sequenzen,3,6,,,,,,,,,,,,
,Move,canvas.Screen,0_3_0_6_0_3,down,response,,290652,290652.52,290652.64,291316,663.359999999986,291319,2021-11-03T12:06:50.432Z,291349.1,1635940904,full,ni_sequenzen,NI_Sequenzen,4,6,,,,,,,,,,,,
,Move,canvas.Screen,0_3_0_6_0_4,-999,skipped,,291324,,,291316,,291324,2021-11-03T12:06:50.438Z,291349.1,1635940904,full,ni_sequenzen,NI_Sequenzen,5,6,,,,,,,,,,,,
,Move,canvas.Screen,0_3_0_6_0_5,-999,skipped,,291327,,,291316,,291327,2021-11-03T12:06:50.441Z,291349.1,1635940904,full,ni_sequenzen,NI_Sequenzen,6,6,,,,,,,,,,,,
,Move,canvas.Screen,0_3_0_6_0_6,-999,skipped,,291330,,,291316,,291330,2021-11-03T12:06:50.443Z,291349.1,1635940904,full,ni_sequenzen,NI_Sequenzen,7,6,,,,,,,,,,,,
,Move,canvas.Screen,0_3_0_6_0_7,-999,skipped,,291332,,,291316,,291332,2021-11-03T12:06:50.445Z,291349.1,1635940904,full,ni_sequenzen,NI_Sequenzen,8,6,,,,,,,,,,,,
,Move,canvas.Screen,0_3_0_6_0_8,-999,skipped,,291334,,,291316,,291334,2021-11-03T12:06:50.448Z,291349.1,1635940904,full,ni_sequenzen,NI_Sequenzen,9,6,,,,,,,,,,,,
,Move,canvas.Screen,0_3_0_6_0_9,-999,skipped,,291336,,,291316,,291336,2021-11-03T12:06:50.450Z,291349.1,1635940904,full,ni_sequenzen,NI_Sequenzen,10,6,,,,,,,,,,,,
,Move,canvas.Screen,0_3_0_6_0_10,-999,skipped,,291338,,,291316,,291338,2021-11-03T12:06:50.452Z,291349.1,1635940904,full,ni_sequenzen,NI_Sequenzen,11,6,,,,,,,,,,,,
,Move,canvas.Screen,0_3_0_6_0_11,-999,skipped,,291340,,,291316,,291340,2021-11-03T12:06:50.454Z,291349.1,1635940904,full,ni_sequenzen,NI_Sequenzen,12,6,,,,,,,,,,,,
,Move,canvas.Screen,0_3_0_6_0_12,-999,skipped,,291343,,,291316,,291343,2021-11-03T12:06:50.456Z,291349.1,1635940904,full,ni_sequenzen,NI_Sequenzen,13,6,,,,,,,,,,,,
,Move,canvas.Screen,0_3_0_6_0_13,-999,skipped,,291345,,,291316,,291345,2021-11-03T12:06:50.459Z,291349.1,1635940904,full,ni_sequenzen,NI_Sequenzen,14,6,,,,,,,,,,,,
,Move,canvas.Screen,0_3_0_6_0_14,-999,skipped,,291347,,,291316,,291347,2021-11-03T12:06:50.460Z,291349.1,1635940904,full,ni_sequenzen,NI_Sequenzen,15,6,,,,,,,,,,,,
,Loop,flow.Loop,0_3_0_6_0,-999,completion,,286361,286371.88,286388.54,291316,4927.460000000021,291347,2021-11-03T12:06:50.460Z,291349.1,1635940904,full,ni_sequenzen,NI_Sequenzen,,6,,,,,,,,,,,,
,Feedback,canvas.Screen,0_3_0_6_1,,timeout,,291349,291348.72,291349.1,295337.18,4004.7600000000093,295338,2021-11-03T12:06:54.452Z,295353.86,1635940904,full,ni_sequenzen,NI_Sequenzen,,6,,,,,,,,,,,,
,Trial,flow.Sequence,0_3_0_6,,completion,,286357,286371.88,286388.54,295337.18,8948.640000000014,295338,2021-11-03T12:06:54.452Z,295370.52,1635940904,full,ni_sequenzen,NI_Sequenzen,,6,,,,,,,,,,,,
,Move,canvas.Screen,0_3_0_7_0_0,down,response,,295347,295353.86,295370.52,304988,9617.479999999981,305000,2021-11-03T12:07:04.114Z,305008.1,1635940904,full,ni_sequenzen,NI_Sequenzen,1,7,,,,,,,,,,,,
,Move,canvas.Screen,0_3_0_7_0_1,left,response,,305008,305007.88,305008.1,305410,401.9000000000233,305425,2021-11-03T12:07:04.539Z,305434.26,1635940904,full,ni_sequenzen,NI_Sequenzen,2,7,,,,,,,,,,,,
,Move,canvas.Screen,0_3_0_7_0_2,down,response,,305434,305434.1,305434.26,305941,506.7399999999907,305946,2021-11-03T12:07:05.060Z,305952,1635940904,full,ni_sequenzen,NI_Sequenzen,3,7,,,,,,,,,,,,
,Move,canvas.Screen,0_3_0_7_0_3,left,response,,305952,305951.94,305952,306379,427,306394,2021-11-03T12:07:05.507Z,306430.92,1635940904,full,ni_sequenzen,NI_Sequenzen,4,7,,,,,,,,,,,,
,Move,canvas.Screen,0_3_0_7_0_4,-999,skipped,,306400,,,306379,,306400,2021-11-03T12:07:05.514Z,306430.92,1635940904,full,ni_sequenzen,NI_Sequenzen,5,7,,,,,,,,,,,,
,Move,canvas.Screen,0_3_0_7_0_5,-999,skipped,,306404,,,306379,,306404,2021-11-03T12:07:05.518Z,306430.92,1635940904,full,ni_sequenzen,NI_Sequenzen,6,7,,,,,,,,,,,,
,Move,canvas.Screen,0_3_0_7_0_6,-999,skipped,,306407,,,306379,,306407,2021-11-03T12:07:05.521Z,306430.92,1635940904,full,ni_sequenzen,NI_Sequenzen,7,7,,,,,,,,,,,,
,Move,canvas.Screen,0_3_0_7_0_7,-999,skipped,,306411,,,306379,,306411,2021-11-03T12:07:05.524Z,306430.92,1635940904,full,ni_sequenzen,NI_Sequenzen,8,7,,,,,,,,,,,,
,Move,canvas.Screen,0_3_0_7_0_8,-999,skipped,,306413,,,306379,,306413,2021-11-03T12:07:05.527Z,306430.92,1635940904,full,ni_sequenzen,NI_Sequenzen,9,7,,,,,,,,,,,,
,Move,canvas.Screen,0_3_0_7_0_9,-999,skipped,,306415,,,306379,,306415,2021-11-03T12:07:05.529Z,306430.92,1635940904,full,ni_sequenzen,NI_Sequenzen,10,7,,,,,,,,,,,,
,Move,canvas.Screen,0_3_0_7_0_10,-999,skipped,,306418,,,306379,,306418,2021-11-03T12:07:05.532Z,306430.92,1635940904,full,ni_sequenzen,NI_Sequenzen,11,7,,,,,,,,,,,,
,Move,canvas.Screen,0_3_0_7_0_11,-999,skipped,,306421,,,306379,,306421,2021-11-03T12:07:05.535Z,306430.92,1635940904,full,ni_sequenzen,NI_Sequenzen,12,7,,,,,,,,,,,,
,Move,canvas.Screen,0_3_0_7_0_12,-999,skipped,,306423,,,306379,,306423,2021-11-03T12:07:05.537Z,306430.92,1635940904,full,ni_sequenzen,NI_Sequenzen,13,7,,,,,,,,,,,,
,Move,canvas.Screen,0_3_0_7_0_13,-999,skipped,,306426,,,306379,,306426,2021-11-03T12:07:05.540Z,306430.92,1635940904,full,ni_sequenzen,NI_Sequenzen,14,7,,,,,,,,,,,,
,Move,canvas.Screen,0_3_0_7_0_14,-999,skipped,,306429,,,306379,,306429,2021-11-03T12:07:05.542Z,306430.92,1635940904,full,ni_sequenzen,NI_Sequenzen,15,7,,,,,,,,,,,,
,Loop,flow.Loop,0_3_0_7_0,-999,completion,,295345,295353.86,295370.52,306379,11008.479999999981,306429,2021-11-03T12:07:05.542Z,306430.92,1635940904,full,ni_sequenzen,NI_Sequenzen,,7,,,,,,,,,,,,
,Feedback,canvas.Screen,0_3_0_7_1,,timeout,,306430,306430.64,306430.92,310420,4005.7000000000116,310421,2021-11-03T12:07:09.534Z,310436.62,1635940904,full,ni_sequenzen,NI_Sequenzen,,7,,,,,,,,,,,,
,Trial,flow.Sequence,0_3_0_7,,completion,,295338,295353.86,295370.52,310420,15049.479999999981,310422,2021-11-03T12:07:09.535Z,310453.28,1635940904,full,ni_sequenzen,NI_Sequenzen,,7,,,,,,,,,,,,
,Move,canvas.Screen,0_3_0_8_0_0,down,response,,310438,310436.62,310453.28,312082,1628.719999999972,312092,2021-11-03T12:07:11.206Z,312097.32,1635940904,full,ni_sequenzen,NI_Sequenzen,1,8,,,,,,,,,,,,
,Move,canvas.Screen,0_3_0_8_0_1,right,response,,312097,312097.18,312097.32,312519,421.679999999993,312533,2021-11-03T12:07:11.647Z,312541.86,1635940904,full,ni_sequenzen,NI_Sequenzen,2,8,,,,,,,,,,,,
,Move,canvas.Screen,0_3_0_8_0_2,right,response,,312542,312541.56,312541.86,313598,1056.140000000014,313605,2021-11-03T12:07:12.719Z,313611.96,1635940904,full,ni_sequenzen,NI_Sequenzen,3,8,,,,,,,,,,,,
,Move,canvas.Screen,0_3_0_8_0_3,down,response,,313612,313611.72,313611.96,313832,220.03999999997905,313841,2021-11-03T12:07:12.955Z,313874.5,1635940904,full,ni_sequenzen,NI_Sequenzen,4,8,,,,,,,,,,,,
,Move,canvas.Screen,0_3_0_8_0_4,-999,skipped,,313847,,,313832,,313848,2021-11-03T12:07:12.961Z,313874.5,1635940904,full,ni_sequenzen,NI_Sequenzen,5,8,,,,,,,,,,,,
,Move,canvas.Screen,0_3_0_8_0_5,-999,skipped,,313850,,,313832,,313850,2021-11-03T12:07:12.964Z,313874.5,1635940904,full,ni_sequenzen,NI_Sequenzen,6,8,,,,,,,,,,,,
,Move,canvas.Screen,0_3_0_8_0_6,-999,skipped,,313854,,,313832,,313854,2021-11-03T12:07:12.968Z,313874.5,1635940904,full,ni_sequenzen,NI_Sequenzen,7,8,,,,,,,,,,,,
,Move,canvas.Screen,0_3_0_8_0_7,-999,skipped,,313856,,,313832,,313856,2021-11-03T12:07:12.971Z,313874.5,1635940904,full,ni_sequenzen,NI_Sequenzen,8,8,,,,,,,,,,,,
,Move,canvas.Screen,0_3_0_8_0_8,-999,skipped,,313859,,,313832,,313859,2021-11-03T12:07:12.972Z,313874.5,1635940904,full,ni_sequenzen,NI_Sequenzen,9,8,,,,,,,,,,,,
,Move,canvas.Screen,0_3_0_8_0_9,-999,skipped,,313861,,,313832,,313861,2021-11-03T12:07:12.975Z,313874.5,1635940904,full,ni_sequenzen,NI_Sequenzen,10,8,,,,,,,,,,,,
,Move,canvas.Screen,0_3_0_8_0_10,-999,skipped,,313863,,,313832,,313863,2021-11-03T12:07:12.976Z,313874.5,1635940904,full,ni_sequenzen,NI_Sequenzen,11,8,,,,,,,,,,,,
,Move,canvas.Screen,0_3_0_8_0_11,-999,skipped,,313865,,,313832,,313865,2021-11-03T12:07:12.979Z,313874.5,1635940904,full,ni_sequenzen,NI_Sequenzen,12,8,,,,,,,,,,,,
,Move,canvas.Screen,0_3_0_8_0_12,-999,skipped,,313867,,,313832,,313867,2021-11-03T12:07:12.982Z,313874.5,1635940904,full,ni_sequenzen,NI_Sequenzen,13,8,,,,,,,,,,,,
,Move,canvas.Screen,0_3_0_8_0_13,-999,skipped,,313869,,,313832,,313869,2021-11-03T12:07:12.983Z,313874.5,1635940904,full,ni_sequenzen,NI_Sequenzen,14,8,,,,,,,,,,,,
,Move,canvas.Screen,0_3_0_8_0_14,-999,skipped,,313872,,,313832,,313872,2021-11-03T12:07:12.986Z,313874.5,1635940904,full,ni_sequenzen,NI_Sequenzen,15,8,,,,,,,,,,,,
,Loop,flow.Loop,0_3_0_8_0,-999,completion,,310435,310436.62,310453.28,313832,3378.719999999972,313873,2021-11-03T12:07:12.986Z,313874.5,1635940904,full,ni_sequenzen,NI_Sequenzen,,8,,,,,,,,,,,,
,Feedback,canvas.Screen,0_3_0_8_1,,timeout,,313874,313874.12,313874.5,317855.02,3997.179999999993,317856,2021-11-03T12:07:16.970Z,317871.68,1635940904,full,ni_sequenzen,NI_Sequenzen,,8,,,,,,,,,,,,
,Trial,flow.Sequence,0_3_0_8,,completion,,310422,310436.62,310453.28,317855.02,7401.739999999991,317856,2021-11-03T12:07:16.970Z,317888.34,1635940904,full,ni_sequenzen,NI_Sequenzen,,8,,,,,,,,,,,,
,Move,canvas.Screen,0_3_0_9_0_0,right,response,,317868,317871.68,317888.34,320065,2176.6599999999744,320083,2021-11-03T12:07:19.197Z,320088.58,1635940904,full,ni_sequenzen,NI_Sequenzen,1,9,,,,,,,,,,,,
,Move,canvas.Screen,0_3_0_9_0_1,down,response,,320089,320088.36,320088.58,320581,492.4199999999837,320595,2021-11-03T12:07:19.709Z,320598.34,1635940904,full,ni_sequenzen,NI_Sequenzen,2,9,,,,,,,,,,,,
,Move,canvas.Screen,0_3_0_9_0_2,right,response,,320598,320598.26,320598.34,321316,717.6599999999744,321324,2021-11-03T12:07:20.438Z,321329.54,1635940904,full,ni_sequenzen,NI_Sequenzen,3,9,,,,,,,,,,,,
,Move,canvas.Screen,0_3_0_9_0_3,down,response,,321329,321329.34,321329.54,321800,470.46000000002095,321806,2021-11-03T12:07:20.919Z,321837.42,1635940904,full,ni_sequenzen,NI_Sequenzen,4,9,,,,,,,,,,,,
,Move,canvas.Screen,0_3_0_9_0_4,-999,skipped,,321812,,,321800,,321812,2021-11-03T12:07:20.925Z,321837.42,1635940904,full,ni_sequenzen,NI_Sequenzen,5,9,,,,,,,,,,,,
,Move,canvas.Screen,0_3_0_9_0_5,-999,skipped,,321814,,,321800,,321814,2021-11-03T12:07:20.928Z,321837.42,1635940904,full,ni_sequenzen,NI_Sequenzen,6,9,,,,,,,,,,,,
,Move,canvas.Screen,0_3_0_9_0_6,-999,skipped,,321817,,,321800,,321817,2021-11-03T12:07:20.930Z,321837.42,1635940904,full,ni_sequenzen,NI_Sequenzen,7,9,,,,,,,,,,,,
,Move,canvas.Screen,0_3_0_9_0_7,-999,skipped,,321819,,,321800,,321819,2021-11-03T12:07:20.932Z,321837.42,1635940904,full,ni_sequenzen,NI_Sequenzen,8,9,,,,,,,,,,,,
,Move,canvas.Screen,0_3_0_9_0_8,-999,skipped,,321821,,,321800,,321821,2021-11-03T12:07:20.934Z,321837.42,1635940904,full,ni_sequenzen,NI_Sequenzen,9,9,,,,,,,,,,,,
,Move,canvas.Screen,0_3_0_9_0_9,-999,skipped,,321823,,,321800,,321823,2021-11-03T12:07:20.937Z,321837.42,1635940904,full,ni_sequenzen,NI_Sequenzen,10,9,,,,,,,,,,,,
,Move,canvas.Screen,0_3_0_9_0_10,-999,skipped,,321825,,,321800,,321825,2021-11-03T12:07:20.939Z,321837.42,1635940904,full,ni_sequenzen,NI_Sequenzen,11,9,,,,,,,,,,,,
,Move,canvas.Screen,0_3_0_9_0_11,-999,skipped,,321827,,,321800,,321827,2021-11-03T12:07:20.941Z,321837.42,1635940904,full,ni_sequenzen,NI_Sequenzen,12,9,,,,,,,,,,,,
,Move,canvas.Screen,0_3_0_9_0_12,-999,skipped,,321829,,,321800,,321829,2021-11-03T12:07:20.943Z,321837.42,1635940904,full,ni_sequenzen,NI_Sequenzen,13,9,,,,,,,,,,,,
,Move,canvas.Screen,0_3_0_9_0_13,-999,skipped,,321832,,,321800,,321832,2021-11-03T12:07:20.945Z,321837.42,1635940904,full,ni_sequenzen,NI_Sequenzen,14,9,,,,,,,,,,,,
,Move,canvas.Screen,0_3_0_9_0_14,-999,skipped,,321835,,,321800,,321835,2021-11-03T12:07:20.949Z,321837.42,1635940904,full,ni_sequenzen,NI_Sequenzen,15,9,,,,,,,,,,,,
,Loop,flow.Loop,0_3_0_9_0,-999,completion,,317865,317871.68,317888.34,321800,3911.6599999999744,321835,2021-11-03T12:07:20.950Z,321837.42,1635940904,full,ni_sequenzen,NI_Sequenzen,,9,,,,,,,,,,,,
,Feedback,canvas.Screen,0_3_0_9_1,,timeout,,321837,321837.04,321837.42,325814.08,4091.8400000000256,325815,2021-11-03T12:07:24.929Z,325929.26,1635940904,full,ni_sequenzen,NI_Sequenzen,,9,,,,,,,,,,,,
,Trial,flow.Sequence,0_3_0_9,,completion,,317857,317871.68,317888.34,325814.08,7925.739999999991,325816,2021-11-03T12:07:24.929Z,325929.92,1635940904,full,ni_sequenzen,NI_Sequenzen,,9,,,,,,,,,,,,
,Block,flow.Loop,0_3_0,,completion,,198505,198513.24,198513.54,325814.08,127300.54000000001,325816,2021-11-03T12:07:24.930Z,325929.92,1635940904,full,ni_sequenzen,NI_Sequenzen,,,,,,,,,,,,,,
,Training_II,flow.Sequence,0_3,,completion,,198493,198513.24,198513.54,325814.08,127300.54000000001,325817,2021-11-03T12:07:24.930Z,325929.92,1635940904,full,ni_sequenzen,NI_Sequenzen,,,,,,,,,,,,,,
,Screen_1,canvas.Screen,0_4_0_0,cont,response,1,325929,325929.26,325929.92,346518,20588.080000000016,346526,2021-11-03T12:07:45.639Z,346529.68,1635940904,full,ni_sequenzen,NI_Sequenzen,,,,,,,,,,,,,,
,Screen_2,canvas.Screen,0_4_0_1,cont,response,1,346530,346529.6,346529.68,358363,11833.320000000007,358371,2021-11-03T12:07:57.486Z,358420.52,1635940904,full,ni_sequenzen,NI_Sequenzen,,,,,,,,,,,,,,
,Screen_3,canvas.Screen,0_4_0_2,cont,response,1,358420,358420.26,358420.52,372144,13723.479999999981,372146,2021-11-03T12:08:11.261Z,372220.12,1635940904,full,ni_sequenzen,NI_Sequenzen,,,,,,,,,,,,,,
,Sequence,flow.Sequence,0_4_0,,completion,1,325831,325929.26,325929.92,372144,46214.080000000016,372147,2021-11-03T12:08:11.261Z,372220.12,1635940904,full,ni_sequenzen,NI_Sequenzen,,,,,,,,,,,,,,
,Screen_1,canvas.Screen,0_4_1_0,,skipped,2,372150,,,372150,,372150,2021-11-03T12:08:11.264Z,372220.12,1635940904,full,ni_sequenzen,NI_Sequenzen,,,,,,,,,,,,,,
,Screen_2,canvas.Screen,0_4_1_1,,skipped,2,372153,,,372150,,372153,2021-11-03T12:08:11.267Z,372220.12,1635940904,full,ni_sequenzen,NI_Sequenzen,,,,,,,,,,,,,,
,Screen_3,canvas.Screen,0_4_1_2,,skipped,2,372154,,,372150,,372154,2021-11-03T12:08:11.268Z,372220.12,1635940904,full,ni_sequenzen,NI_Sequenzen,,,,,,,,,,,,,,
,Sequence,flow.Sequence,0_4_1,,completion,2,372148,,,372150,,372154,2021-11-03T12:08:11.268Z,372220.12,1635940904,full,ni_sequenzen,NI_Sequenzen,,,,,,,,,,,,,,
,Screen_1,canvas.Screen,0_4_2_0,,skipped,3,372156,,,372156,,372156,2021-11-03T12:08:11.269Z,372220.12,1635940904,full,ni_sequenzen,NI_Sequenzen,,,,,,,,,,,,,,
,Screen_2,canvas.Screen,0_4_2_1,,skipped,3,372157,,,372156,,372157,2021-11-03T12:08:11.270Z,372220.12,1635940904,full,ni_sequenzen,NI_Sequenzen,,,,,,,,,,,,,,
,Screen_3,canvas.Screen,0_4_2_2,,skipped,3,372157,,,372156,,372157,2021-11-03T12:08:11.271Z,372220.12,1635940904,full,ni_sequenzen,NI_Sequenzen,,,,,,,,,,,,,,
,Sequence,flow.Sequence,0_4_2,,completion,3,372154,,,372156,,372157,2021-11-03T12:08:11.271Z,372220.12,1635940904,full,ni_sequenzen,NI_Sequenzen,,,,,,,,,,,,,,
,Screen_1,canvas.Screen,0_4_3_0,,skipped,4,372157,,,372157,,372158,2021-11-03T12:08:11.273Z,372220.12,1635940904,full,ni_sequenzen,NI_Sequenzen,,,,,,,,,,,,,,
,Screen_2,canvas.Screen,0_4_3_1,,skipped,4,372159,,,372157,,372159,2021-11-03T12:08:11.273Z,372220.12,1635940904,full,ni_sequenzen,NI_Sequenzen,,,,,,,,,,,,,,
,Screen_3,canvas.Screen,0_4_3_2,,skipped,4,372159,,,372157,,372159,2021-11-03T12:08:11.273Z,372220.12,1635940904,full,ni_sequenzen,NI_Sequenzen,,,,,,,,,,,,,,
,Sequence,flow.Sequence,0_4_3,,completion,4,372157,,,372157,,372159,2021-11-03T12:08:11.273Z,372220.12,1635940904,full,ni_sequenzen,NI_Sequenzen,,,,,,,,,,,,,,
,Screen_1,canvas.Screen,0_4_4_0,,skipped,5,372160,,,372160,,372160,2021-11-03T12:08:11.274Z,372220.12,1635940904,full,ni_sequenzen,NI_Sequenzen,,,,,,,,,,,,,,
,Screen_2,canvas.Screen,0_4_4_1,,skipped,5,372161,,,372160,,372161,2021-11-03T12:08:11.275Z,372220.12,1635940904,full,ni_sequenzen,NI_Sequenzen,,,,,,,,,,,,,,
,Screen_3,canvas.Screen,0_4_4_2,,skipped,5,372162,,,372160,,372162,2021-11-03T12:08:11.276Z,372220.12,1635940904,full,ni_sequenzen,NI_Sequenzen,,,,,,,,,,,,,,
,Sequence,flow.Sequence,0_4_4,,completion,5,372160,,,372160,,372162,2021-11-03T12:08:11.276Z,372220.12,1635940904,full,ni_sequenzen,NI_Sequenzen,,,,,,,,,,,,,,
,Screen_1,canvas.Screen,0_4_5_0,,skipped,6,372163,,,372163,,372163,2021-11-03T12:08:11.277Z,372220.12,1635940904,full,ni_sequenzen,NI_Sequenzen,,,,,,,,,,,,,,
,Screen_2,canvas.Screen,0_4_5_1,,skipped,6,372163,,,372163,,372163,2021-11-03T12:08:11.277Z,372220.12,1635940904,full,ni_sequenzen,NI_Sequenzen,,,,,,,,,,,,,,
,Screen_3,canvas.Screen,0_4_5_2,,skipped,6,372164,,,372163,,372164,2021-11-03T12:08:11.278Z,372220.12,1635940904,full,ni_sequenzen,NI_Sequenzen,,,,,,,,,,,,,,
,Sequence,flow.Sequence,0_4_5,,completion,6,372162,,,372163,,372164,2021-11-03T12:08:11.278Z,372220.12,1635940904,full,ni_sequenzen,NI_Sequenzen,,,,,,,,,,,,,,
,Screen_1,canvas.Screen,0_4_6_0,,skipped,7,372165,,,372165,,372165,2021-11-03T12:08:11.278Z,372220.12,1635940904,full,ni_sequenzen,NI_Sequenzen,,,,,,,,,,,,,,
,Screen_2,canvas.Screen,0_4_6_1,,skipped,7,372165,,,372165,,372165,2021-11-03T12:08:11.278Z,372220.12,1635940904,full,ni_sequenzen,NI_Sequenzen,,,,,,,,,,,,,,
,Screen_3,canvas.Screen,0_4_6_2,,skipped,7,372166,,,372165,,372166,2021-11-03T12:08:11.279Z,372220.12,1635940904,full,ni_sequenzen,NI_Sequenzen,,,,,,,,,,,,,,
,Sequence,flow.Sequence,0_4_6,,completion,7,372164,,,372165,,372166,2021-11-03T12:08:11.279Z,372220.12,1635940904,full,ni_sequenzen,NI_Sequenzen,,,,,,,,,,,,,,
,Screen_1,canvas.Screen,0_4_7_0,,skipped,8,372166,,,372166,,372166,2021-11-03T12:08:11.280Z,372220.12,1635940904,full,ni_sequenzen,NI_Sequenzen,,,,,,,,,,,,,,
,Screen_2,canvas.Screen,0_4_7_1,,skipped,8,372167,,,372166,,372167,2021-11-03T12:08:11.281Z,372220.12,1635940904,full,ni_sequenzen,NI_Sequenzen,,,,,,,,,,,,,,
,Screen_3,canvas.Screen,0_4_7_2,,skipped,8,372167,,,372166,,372168,2021-11-03T12:08:11.281Z,372220.12,1635940904,full,ni_sequenzen,NI_Sequenzen,,,,,,,,,,,,,,
,Sequence,flow.Sequence,0_4_7,,completion,8,372166,,,372166,,372168,2021-11-03T12:08:11.281Z,372220.12,1635940904,full,ni_sequenzen,NI_Sequenzen,,,,,,,,,,,,,,
,Screen_1,canvas.Screen,0_4_8_0,,skipped,9,372168,,,372168,,372168,2021-11-03T12:08:11.282Z,372220.12,1635940904,full,ni_sequenzen,NI_Sequenzen,,,,,,,,,,,,,,
,Screen_2,canvas.Screen,0_4_8_1,,skipped,9,372169,,,372168,,372169,2021-11-03T12:08:11.282Z,372220.12,1635940904,full,ni_sequenzen,NI_Sequenzen,,,,,,,,,,,,,,
,Screen_3,canvas.Screen,0_4_8_2,,skipped,9,372170,,,372168,,372170,2021-11-03T12:08:11.283Z,372220.12,1635940904,full,ni_sequenzen,NI_Sequenzen,,,,,,,,,,,,,,
,Sequence,flow.Sequence,0_4_8,,completion,9,372168,,,372168,,372170,2021-11-03T12:08:11.283Z,372220.12,1635940904,full,ni_sequenzen,NI_Sequenzen,,,,,,,,,,,,,,
,Screen_1,canvas.Screen,0_4_9_0,,skipped,10,372170,,,372170,,372170,2021-11-03T12:08:11.284Z,372220.12,1635940904,full,ni_sequenzen,NI_Sequenzen,,,,,,,,,,,,,,
,Screen_2,canvas.Screen,0_4_9_1,,skipped,10,372171,,,372170,,372171,2021-11-03T12:08:11.284Z,372220.12,1635940904,full,ni_sequenzen,NI_Sequenzen,,,,,,,,,,,,,,
,Screen_3,canvas.Screen,0_4_9_2,,skipped,10,372171,,,372170,,372171,2021-11-03T12:08:11.285Z,372220.12,1635940904,full,ni_sequenzen,NI_Sequenzen,,,,,,,,,,,,,,
,Sequence,flow.Sequence,0_4_9,,completion,10,372170,,,372170,,372171,2021-11-03T12:08:11.285Z,372220.12,1635940904,full,ni_sequenzen,NI_Sequenzen,,,,,,,,,,,,,,
,Screen_1,canvas.Screen,0_4_10_0,,skipped,11,372172,,,372172,,372172,2021-11-03T12:08:11.286Z,372220.12,1635940904,full,ni_sequenzen,NI_Sequenzen,,,,,,,,,,,,,,
,Screen_2,canvas.Screen,0_4_10_1,,skipped,11,372172,,,372172,,372172,2021-11-03T12:08:11.286Z,372220.12,1635940904,full,ni_sequenzen,NI_Sequenzen,,,,,,,,,,,,,,
,Screen_3,canvas.Screen,0_4_10_2,,skipped,11,372173,,,372172,,372173,2021-11-03T12:08:11.287Z,372220.12,1635940904,full,ni_sequenzen,NI_Sequenzen,,,,,,,,,,,,,,
,Sequence,flow.Sequence,0_4_10,,completion,11,372171,,,372172,,372173,2021-11-03T12:08:11.287Z,372220.12,1635940904,full,ni_sequenzen,NI_Sequenzen,,,,,,,,,,,,,,
,Screen_1,canvas.Screen,0_4_11_0,,skipped,12,372174,,,372174,,372174,2021-11-03T12:08:11.288Z,372220.12,1635940904,full,ni_sequenzen,NI_Sequenzen,,,,,,,,,,,,,,
,Screen_2,canvas.Screen,0_4_11_1,,skipped,12,372174,,,372174,,372174,2021-11-03T12:08:11.288Z,372220.12,1635940904,full,ni_sequenzen,NI_Sequenzen,,,,,,,,,,,,,,
,Screen_3,canvas.Screen,0_4_11_2,,skipped,12,372175,,,372174,,372175,2021-11-03T12:08:11.289Z,372220.12,1635940904,full,ni_sequenzen,NI_Sequenzen,,,,,,,,,,,,,,
,Sequence,flow.Sequence,0_4_11,,completion,12,372173,,,372174,,372175,2021-11-03T12:08:11.289Z,372220.12,1635940904,full,ni_sequenzen,NI_Sequenzen,,,,,,,,,,,,,,
,Screen_1,canvas.Screen,0_4_12_0,,skipped,13,372176,,,372176,,372176,2021-11-03T12:08:11.290Z,372220.12,1635940904,full,ni_sequenzen,NI_Sequenzen,,,,,,,,,,,,,,
,Screen_2,canvas.Screen,0_4_12_1,,skipped,13,372176,,,372176,,372176,2021-11-03T12:08:11.290Z,372220.12,1635940904,full,ni_sequenzen,NI_Sequenzen,,,,,,,,,,,,,,
,Screen_3,canvas.Screen,0_4_12_2,,skipped,13,372177,,,372176,,372177,2021-11-03T12:08:11.291Z,372220.12,1635940904,full,ni_sequenzen,NI_Sequenzen,,,,,,,,,,,,,,
,Sequence,flow.Sequence,0_4_12,,completion,13,372175,,,372176,,372177,2021-11-03T12:08:11.291Z,372220.12,1635940904,full,ni_sequenzen,NI_Sequenzen,,,,,,,,,,,,,,
,Screen_1,canvas.Screen,0_4_13_0,,skipped,14,372177,,,372177,,372177,2021-11-03T12:08:11.291Z,372220.12,1635940904,full,ni_sequenzen,NI_Sequenzen,,,,,,,,,,,,,,
,Screen_2,canvas.Screen,0_4_13_1,,skipped,14,372178,,,372177,,372178,2021-11-03T12:08:11.292Z,372220.12,1635940904,full,ni_sequenzen,NI_Sequenzen,,,,,,,,,,,,,,
,Screen_3,canvas.Screen,0_4_13_2,,skipped,14,372178,,,372177,,372178,2021-11-03T12:08:11.292Z,372220.12,1635940904,full,ni_sequenzen,NI_Sequenzen,,,,,,,,,,,,,,
,Sequence,flow.Sequence,0_4_13,,completion,14,372177,,,372177,,372178,2021-11-03T12:08:11.292Z,372220.12,1635940904,full,ni_sequenzen,NI_Sequenzen,,,,,,,,,,,,,,
,Screen_1,canvas.Screen,0_4_14_0,,skipped,15,372179,,,372179,,372179,2021-11-03T12:08:11.293Z,372220.12,1635940904,full,ni_sequenzen,NI_Sequenzen,,,,,,,,,,,,,,
,Screen_2,canvas.Screen,0_4_14_1,,skipped,15,372180,,,372179,,372180,2021-11-03T12:08:11.294Z,372220.12,1635940904,full,ni_sequenzen,NI_Sequenzen,,,,,,,,,,,,,,
,Screen_3,canvas.Screen,0_4_14_2,,skipped,15,372180,,,372179,,372180,2021-11-03T12:08:11.294Z,372220.12,1635940904,full,ni_sequenzen,NI_Sequenzen,,,,,,,,,,,,,,
,Sequence,flow.Sequence,0_4_14,,completion,15,372179,,,372179,,372181,2021-11-03T12:08:11.294Z,372220.12,1635940904,full,ni_sequenzen,NI_Sequenzen,,,,,,,,,,,,,,
,Screen_1,canvas.Screen,0_4_15_0,,skipped,16,372181,,,372181,,372181,2021-11-03T12:08:11.295Z,372220.12,1635940904,full,ni_sequenzen,NI_Sequenzen,,,,,,,,,,,,,,
,Screen_2,canvas.Screen,0_4_15_1,,skipped,16,372182,,,372181,,372182,2021-11-03T12:08:11.296Z,372220.12,1635940904,full,ni_sequenzen,NI_Sequenzen,,,,,,,,,,,,,,
,Screen_3,canvas.Screen,0_4_15_2,,skipped,16,372182,,,372181,,372182,2021-11-03T12:08:11.296Z,372220.12,1635940904,full,ni_sequenzen,NI_Sequenzen,,,,,,,,,,,,,,
,Sequence,flow.Sequence,0_4_15,,completion,16,372181,,,372181,,372182,2021-11-03T12:08:11.296Z,372220.12,1635940904,full,ni_sequenzen,NI_Sequenzen,,,,,,,,,,,,,,
