meta,sender,sender_type,sender_id,response,ended_on,instrCount,time_run,time_render,time_show,time_end,duration,time_commit,timestamp,time_switch,openLabId,type,task,project,move,trialN,blockN_Train,blockN,moveCount,currPP,points,movesTrial,visitedFields,diff,reward,Strategie,Zweck,Probleme
[object Object],Screen_1,canvas.Screen,0_0_0_0,cont,response,1,953,959.44,1159.3,14637,13477.7,14642,2021-10-26T19:51:26.972Z,14765.54,1635277868,full,ni_sequenzen,NI_Sequenzen,,,,,,,,,,,,,,
,Screen_2,canvas.Screen,0_0_0_1,cont,response,1,14750,14750.76,14765.54,42108,27342.46,42114,2021-10-26T19:51:54.445Z,42261.22,1635277868,full,ni_sequenzen,NI_Sequenzen,,,,,,,,,,,,,,
,Screen_3,canvas.Screen,0_0_0_2,cont,response,1,42206,42205.72,42261.22,62936,20674.78,62945,2021-10-26T19:52:15.275Z,62962.04,1635277868,full,ni_sequenzen,NI_Sequenzen,,,,,,,,,,,,,,
,Screen_4,canvas.Screen,0_0_0_3,back,response,1,62949,62948.84,62962.04,71936,8973.96,71937,2021-10-26T19:52:24.268Z,71988.46,1635277868,full,ni_sequenzen,NI_Sequenzen,,,,,,,,,,,,,,
,Sequence,flow.Sequence,0_0_0,,completion,1,887,959.44,1159.3,71936,70776.7,71938,2021-10-26T19:52:24.268Z,71988.46,1635277868,full,ni_sequenzen,NI_Sequenzen,,,,,,,,,,,,,,
,Screen_1,canvas.Screen,0_0_1_0,,skipped,2,71943,,,71943,,71943,2021-10-26T19:52:24.273Z,71988.46,1635277868,full,ni_sequenzen,NI_Sequenzen,,,,,,,,,,,,,,
,Screen_2,canvas.Screen,0_0_1_1,,skipped,2,71946,,,71943,,71946,2021-10-26T19:52:24.276Z,71988.46,1635277868,full,ni_sequenzen,NI_Sequenzen,,,,,,,,,,,,,,
,Screen_3,canvas.Screen,0_0_1_2,cont,response,2,71950,71950.58,71988.46,73608,1619.5399999999936,73608,2021-10-26T19:52:25.939Z,73620.54,1635277868,full,ni_sequenzen,NI_Sequenzen,,,,,,,,,,,,,,
,Screen_4,canvas.Screen,0_0_1_3,cont,response,2,73612,73612.32,73620.54,76216,2595.4600000000064,76218,2021-10-26T19:52:28.548Z,76418.4,1635277868,full,ni_sequenzen,NI_Sequenzen,,,,,,,,,,,,,,
,Sequence,flow.Sequence,0_0_1,,completion,2,71940,71950.58,71988.46,76216,4227.539999999994,76218,2021-10-26T19:52:28.548Z,76418.4,1635277868,full,ni_sequenzen,NI_Sequenzen,,,,,,,,,,,,,,
,Screen_1,canvas.Screen,0_0_2_0,,skipped,3,76221,,,76221,,76221,2021-10-26T19:52:28.552Z,76418.4,1635277868,full,ni_sequenzen,NI_Sequenzen,,,,,,,,,,,,,,
,Screen_2,canvas.Screen,0_0_2_1,,skipped,3,76224,,,76221,,76224,2021-10-26T19:52:28.555Z,76418.4,1635277868,full,ni_sequenzen,NI_Sequenzen,,,,,,,,,,,,,,
,Screen_3,canvas.Screen,0_0_2_2,,skipped,3,76227,,,76221,,76227,2021-10-26T19:52:28.558Z,76418.4,1635277868,full,ni_sequenzen,NI_Sequenzen,,,,,,,,,,,,,,
,Screen_4,canvas.Screen,0_0_2_3,,skipped,3,76230,,,76221,,76230,2021-10-26T19:52:28.561Z,76418.4,1635277868,full,ni_sequenzen,NI_Sequenzen,,,,,,,,,,,,,,
,Sequence,flow.Sequence,0_0_2,,completion,3,76219,,,76221,,76230,2021-10-26T19:52:28.561Z,76418.4,1635277868,full,ni_sequenzen,NI_Sequenzen,,,,,,,,,,,,,,
,Screen_1,canvas.Screen,0_0_3_0,,skipped,4,76232,,,76232,,76233,2021-10-26T19:52:28.564Z,76418.4,1635277868,full,ni_sequenzen,NI_Sequenzen,,,,,,,,,,,,,,
,Screen_2,canvas.Screen,0_0_3_1,,skipped,4,76234,,,76232,,76234,2021-10-26T19:52:28.566Z,76418.4,1635277868,full,ni_sequenzen,NI_Sequenzen,,,,,,,,,,,,,,
,Screen_3,canvas.Screen,0_0_3_2,,skipped,4,76237,,,76232,,76237,2021-10-26T19:52:28.568Z,76418.4,1635277868,full,ni_sequenzen,NI_Sequenzen,,,,,,,,,,,,,,
,Screen_4,canvas.Screen,0_0_3_3,,skipped,4,76239,,,76232,,76239,2021-10-26T19:52:28.569Z,76418.4,1635277868,full,ni_sequenzen,NI_Sequenzen,,,,,,,,,,,,,,
,Sequence,flow.Sequence,0_0_3,,completion,4,76231,,,76232,,76239,2021-10-26T19:52:28.569Z,76418.4,1635277868,full,ni_sequenzen,NI_Sequenzen,,,,,,,,,,,,,,
,Screen_1,canvas.Screen,0_0_4_0,,skipped,5,76241,,,76241,,76241,2021-10-26T19:52:28.572Z,76418.4,1635277868,full,ni_sequenzen,NI_Sequenzen,,,,,,,,,,,,,,
,Screen_2,canvas.Screen,0_0_4_1,,skipped,5,76244,,,76241,,76244,2021-10-26T19:52:28.575Z,76418.4,1635277868,full,ni_sequenzen,NI_Sequenzen,,,,,,,,,,,,,,
,Screen_3,canvas.Screen,0_0_4_2,,skipped,5,76247,,,76241,,76248,2021-10-26T19:52:28.577Z,76418.4,1635277868,full,ni_sequenzen,NI_Sequenzen,,,,,,,,,,,,,,
,Screen_4,canvas.Screen,0_0_4_3,,skipped,5,76249,,,76241,,76249,2021-10-26T19:52:28.579Z,76418.4,1635277868,full,ni_sequenzen,NI_Sequenzen,,,,,,,,,,,,,,
,Sequence,flow.Sequence,0_0_4,,completion,5,76240,,,76241,,76249,2021-10-26T19:52:28.580Z,76418.4,1635277868,full,ni_sequenzen,NI_Sequenzen,,,,,,,,,,,,,,
,Screen_1,canvas.Screen,0_0_5_0,,skipped,6,76252,,,76252,,76252,2021-10-26T19:52:28.583Z,76418.4,1635277868,full,ni_sequenzen,NI_Sequenzen,,,,,,,,,,,,,,
,Screen_2,canvas.Screen,0_0_5_1,,skipped,6,76254,,,76252,,76254,2021-10-26T19:52:28.585Z,76418.4,1635277868,full,ni_sequenzen,NI_Sequenzen,,,,,,,,,,,,,,
,Screen_3,canvas.Screen,0_0_5_2,,skipped,6,76255,,,76252,,76255,2021-10-26T19:52:28.586Z,76418.4,1635277868,full,ni_sequenzen,NI_Sequenzen,,,,,,,,,,,,,,
,Screen_4,canvas.Screen,0_0_5_3,,skipped,6,76257,,,76252,,76257,2021-10-26T19:52:28.588Z,76418.4,1635277868,full,ni_sequenzen,NI_Sequenzen,,,,,,,,,,,,,,
,Sequence,flow.Sequence,0_0_5,,completion,6,76250,,,76252,,76257,2021-10-26T19:52:28.588Z,76418.4,1635277868,full,ni_sequenzen,NI_Sequenzen,,,,,,,,,,,,,,
,Screen_1,canvas.Screen,0_0_6_0,,skipped,7,76259,,,76259,,76259,2021-10-26T19:52:28.590Z,76418.4,1635277868,full,ni_sequenzen,NI_Sequenzen,,,,,,,,,,,,,,
,Screen_2,canvas.Screen,0_0_6_1,,skipped,7,76261,,,76259,,76261,2021-10-26T19:52:28.592Z,76418.4,1635277868,full,ni_sequenzen,NI_Sequenzen,,,,,,,,,,,,,,
,Screen_3,canvas.Screen,0_0_6_2,,skipped,7,76263,,,76259,,76263,2021-10-26T19:52:28.594Z,76418.4,1635277868,full,ni_sequenzen,NI_Sequenzen,,,,,,,,,,,,,,
,Screen_4,canvas.Screen,0_0_6_3,,skipped,7,76264,,,76259,,76264,2021-10-26T19:52:28.595Z,76418.4,1635277868,full,ni_sequenzen,NI_Sequenzen,,,,,,,,,,,,,,
,Sequence,flow.Sequence,0_0_6,,completion,7,76258,,,76259,,76265,2021-10-26T19:52:28.595Z,76418.4,1635277868,full,ni_sequenzen,NI_Sequenzen,,,,,,,,,,,,,,
,Screen_1,canvas.Screen,0_0_7_0,,skipped,8,76267,,,76267,,76267,2021-10-26T19:52:28.598Z,76418.4,1635277868,full,ni_sequenzen,NI_Sequenzen,,,,,,,,,,,,,,
,Screen_2,canvas.Screen,0_0_7_1,,skipped,8,76270,,,76267,,76270,2021-10-26T19:52:28.600Z,76418.4,1635277868,full,ni_sequenzen,NI_Sequenzen,,,,,,,,,,,,,,
,Screen_3,canvas.Screen,0_0_7_2,,skipped,8,76272,,,76267,,76272,2021-10-26T19:52:28.602Z,76418.4,1635277868,full,ni_sequenzen,NI_Sequenzen,,,,,,,,,,,,,,
,Screen_4,canvas.Screen,0_0_7_3,,skipped,8,76273,,,76267,,76273,2021-10-26T19:52:28.604Z,76418.4,1635277868,full,ni_sequenzen,NI_Sequenzen,,,,,,,,,,,,,,
,Sequence,flow.Sequence,0_0_7,,completion,8,76265,,,76267,,76273,2021-10-26T19:52:28.604Z,76418.4,1635277868,full,ni_sequenzen,NI_Sequenzen,,,,,,,,,,,,,,
,Screen_1,canvas.Screen,0_0_8_0,,skipped,9,76275,,,76275,,76275,2021-10-26T19:52:28.606Z,76418.4,1635277868,full,ni_sequenzen,NI_Sequenzen,,,,,,,,,,,,,,
,Screen_2,canvas.Screen,0_0_8_1,,skipped,9,76277,,,76275,,76277,2021-10-26T19:52:28.608Z,76418.4,1635277868,full,ni_sequenzen,NI_Sequenzen,,,,,,,,,,,,,,
,Screen_3,canvas.Screen,0_0_8_2,,skipped,9,76279,,,76275,,76279,2021-10-26T19:52:28.609Z,76418.4,1635277868,full,ni_sequenzen,NI_Sequenzen,,,,,,,,,,,,,,
,Screen_4,canvas.Screen,0_0_8_3,,skipped,9,76280,,,76275,,76280,2021-10-26T19:52:28.611Z,76418.4,1635277868,full,ni_sequenzen,NI_Sequenzen,,,,,,,,,,,,,,
,Sequence,flow.Sequence,0_0_8,,completion,9,76274,,,76275,,76281,2021-10-26T19:52:28.611Z,76418.4,1635277868,full,ni_sequenzen,NI_Sequenzen,,,,,,,,,,,,,,
,Screen_1,canvas.Screen,0_0_9_0,,skipped,10,76283,,,76283,,76283,2021-10-26T19:52:28.613Z,76418.4,1635277868,full,ni_sequenzen,NI_Sequenzen,,,,,,,,,,,,,,
,Screen_2,canvas.Screen,0_0_9_1,,skipped,10,76284,,,76283,,76284,2021-10-26T19:52:28.615Z,76418.4,1635277868,full,ni_sequenzen,NI_Sequenzen,,,,,,,,,,,,,,
,Screen_3,canvas.Screen,0_0_9_2,,skipped,10,76286,,,76283,,76286,2021-10-26T19:52:28.617Z,76418.4,1635277868,full,ni_sequenzen,NI_Sequenzen,,,,,,,,,,,,,,
,Screen_4,canvas.Screen,0_0_9_3,,skipped,10,76287,,,76283,,76288,2021-10-26T19:52:28.619Z,76418.4,1635277868,full,ni_sequenzen,NI_Sequenzen,,,,,,,,,,,,,,
,Sequence,flow.Sequence,0_0_9,,completion,10,76281,,,76283,,76288,2021-10-26T19:52:28.619Z,76418.4,1635277868,full,ni_sequenzen,NI_Sequenzen,,,,,,,,,,,,,,
,Screen_1,canvas.Screen,0_0_10_0,,skipped,11,76289,,,76289,,76289,2021-10-26T19:52:28.620Z,76418.4,1635277868,full,ni_sequenzen,NI_Sequenzen,,,,,,,,,,,,,,
,Screen_2,canvas.Screen,0_0_10_1,,skipped,11,76291,,,76289,,76291,2021-10-26T19:52:28.622Z,76418.4,1635277868,full,ni_sequenzen,NI_Sequenzen,,,,,,,,,,,,,,
,Screen_3,canvas.Screen,0_0_10_2,,skipped,11,76292,,,76289,,76292,2021-10-26T19:52:28.623Z,76418.4,1635277868,full,ni_sequenzen,NI_Sequenzen,,,,,,,,,,,,,,
,Screen_4,canvas.Screen,0_0_10_3,,skipped,11,76294,,,76289,,76294,2021-10-26T19:52:28.625Z,76418.4,1635277868,full,ni_sequenzen,NI_Sequenzen,,,,,,,,,,,,,,
,Sequence,flow.Sequence,0_0_10,,completion,11,76288,,,76289,,76294,2021-10-26T19:52:28.625Z,76418.4,1635277868,full,ni_sequenzen,NI_Sequenzen,,,,,,,,,,,,,,
,Screen_1,canvas.Screen,0_0_11_0,,skipped,12,76296,,,76296,,76296,2021-10-26T19:52:28.627Z,76418.4,1635277868,full,ni_sequenzen,NI_Sequenzen,,,,,,,,,,,,,,
,Screen_2,canvas.Screen,0_0_11_1,,skipped,12,76297,,,76296,,76297,2021-10-26T19:52:28.629Z,76418.4,1635277868,full,ni_sequenzen,NI_Sequenzen,,,,,,,,,,,,,,
,Screen_3,canvas.Screen,0_0_11_2,,skipped,12,76300,,,76296,,76300,2021-10-26T19:52:28.631Z,76418.4,1635277868,full,ni_sequenzen,NI_Sequenzen,,,,,,,,,,,,,,
,Screen_4,canvas.Screen,0_0_11_3,,skipped,12,76303,,,76296,,76303,2021-10-26T19:52:28.634Z,76418.4,1635277868,full,ni_sequenzen,NI_Sequenzen,,,,,,,,,,,,,,
,Sequence,flow.Sequence,0_0_11,,completion,12,76295,,,76296,,76303,2021-10-26T19:52:28.634Z,76418.4,1635277868,full,ni_sequenzen,NI_Sequenzen,,,,,,,,,,,,,,
,Screen_1,canvas.Screen,0_0_12_0,,skipped,13,76305,,,76305,,76305,2021-10-26T19:52:28.635Z,76418.4,1635277868,full,ni_sequenzen,NI_Sequenzen,,,,,,,,,,,,,,
,Screen_2,canvas.Screen,0_0_12_1,,skipped,13,76306,,,76305,,76306,2021-10-26T19:52:28.637Z,76418.4,1635277868,full,ni_sequenzen,NI_Sequenzen,,,,,,,,,,,,,,
,Screen_3,canvas.Screen,0_0_12_2,,skipped,13,76308,,,76305,,76308,2021-10-26T19:52:28.638Z,76418.4,1635277868,full,ni_sequenzen,NI_Sequenzen,,,,,,,,,,,,,,
,Screen_4,canvas.Screen,0_0_12_3,,skipped,13,76311,,,76305,,76311,2021-10-26T19:52:28.641Z,76418.4,1635277868,full,ni_sequenzen,NI_Sequenzen,,,,,,,,,,,,,,
,Sequence,flow.Sequence,0_0_12,,completion,13,76304,,,76305,,76312,2021-10-26T19:52:28.641Z,76418.4,1635277868,full,ni_sequenzen,NI_Sequenzen,,,,,,,,,,,,,,
,Screen_1,canvas.Screen,0_0_13_0,,skipped,14,76314,,,76314,,76314,2021-10-26T19:52:28.644Z,76418.4,1635277868,full,ni_sequenzen,NI_Sequenzen,,,,,,,,,,,,,,
,Screen_2,canvas.Screen,0_0_13_1,,skipped,14,76315,,,76314,,76315,2021-10-26T19:52:28.646Z,76418.4,1635277868,full,ni_sequenzen,NI_Sequenzen,,,,,,,,,,,,,,
,Screen_3,canvas.Screen,0_0_13_2,,skipped,14,76317,,,76314,,76317,2021-10-26T19:52:28.647Z,76418.4,1635277868,full,ni_sequenzen,NI_Sequenzen,,,,,,,,,,,,,,
,Screen_4,canvas.Screen,0_0_13_3,,skipped,14,76319,,,76314,,76320,2021-10-26T19:52:28.650Z,76418.4,1635277868,full,ni_sequenzen,NI_Sequenzen,,,,,,,,,,,,,,
,Sequence,flow.Sequence,0_0_13,,completion,14,76313,,,76314,,76320,2021-10-26T19:52:28.650Z,76418.4,1635277868,full,ni_sequenzen,NI_Sequenzen,,,,,,,,,,,,,,
,Screen_1,canvas.Screen,0_0_14_0,,skipped,15,76323,,,76323,,76323,2021-10-26T19:52:28.653Z,76418.4,1635277868,full,ni_sequenzen,NI_Sequenzen,,,,,,,,,,,,,,
,Screen_2,canvas.Screen,0_0_14_1,,skipped,15,76325,,,76323,,76325,2021-10-26T19:52:28.656Z,76418.4,1635277868,full,ni_sequenzen,NI_Sequenzen,,,,,,,,,,,,,,
,Screen_3,canvas.Screen,0_0_14_2,,skipped,15,76327,,,76323,,76327,2021-10-26T19:52:28.658Z,76418.4,1635277868,full,ni_sequenzen,NI_Sequenzen,,,,,,,,,,,,,,
,Screen_4,canvas.Screen,0_0_14_3,,skipped,15,76329,,,76323,,76329,2021-10-26T19:52:28.659Z,76418.4,1635277868,full,ni_sequenzen,NI_Sequenzen,,,,,,,,,,,,,,
,Sequence,flow.Sequence,0_0_14,,completion,15,76321,,,76323,,76329,2021-10-26T19:52:28.659Z,76418.4,1635277868,full,ni_sequenzen,NI_Sequenzen,,,,,,,,,,,,,,
,Screen_1,canvas.Screen,0_0_15_0,,skipped,16,76330,,,76330,,76330,2021-10-26T19:52:28.661Z,76418.4,1635277868,full,ni_sequenzen,NI_Sequenzen,,,,,,,,,,,,,,
,Screen_2,canvas.Screen,0_0_15_1,,skipped,16,76333,,,76330,,76333,2021-10-26T19:52:28.663Z,76418.4,1635277868,full,ni_sequenzen,NI_Sequenzen,,,,,,,,,,,,,,
,Screen_3,canvas.Screen,0_0_15_2,,skipped,16,76334,,,76330,,76335,2021-10-26T19:52:28.665Z,76418.4,1635277868,full,ni_sequenzen,NI_Sequenzen,,,,,,,,,,,,,,
,Screen_4,canvas.Screen,0_0_15_3,,skipped,16,76337,,,76330,,76337,2021-10-26T19:52:28.667Z,76418.4,1635277868,full,ni_sequenzen,NI_Sequenzen,,,,,,,,,,,,,,
,Sequence,flow.Sequence,0_0_15,,completion,16,76329,,,76330,,76337,2021-10-26T19:52:28.667Z,76418.4,1635277868,full,ni_sequenzen,NI_Sequenzen,,,,,,,,,,,,,,
,Screen_1,canvas.Screen,0_0_16_0,,skipped,17,76339,,,76339,,76339,2021-10-26T19:52:28.669Z,76418.4,1635277868,full,ni_sequenzen,NI_Sequenzen,,,,,,,,,,,,,,
,Screen_2,canvas.Screen,0_0_16_1,,skipped,17,76340,,,76339,,76340,2021-10-26T19:52:28.670Z,76418.4,1635277868,full,ni_sequenzen,NI_Sequenzen,,,,,,,,,,,,,,
,Screen_3,canvas.Screen,0_0_16_2,,skipped,17,76342,,,76339,,76343,2021-10-26T19:52:28.673Z,76418.4,1635277868,full,ni_sequenzen,NI_Sequenzen,,,,,,,,,,,,,,
,Screen_4,canvas.Screen,0_0_16_3,,skipped,17,76345,,,76339,,76345,2021-10-26T19:52:28.675Z,76418.4,1635277868,full,ni_sequenzen,NI_Sequenzen,,,,,,,,,,,,,,
,Sequence,flow.Sequence,0_0_16,,completion,17,76337,,,76339,,76345,2021-10-26T19:52:28.675Z,76418.4,1635277868,full,ni_sequenzen,NI_Sequenzen,,,,,,,,,,,,,,
,Screen_1,canvas.Screen,0_0_17_0,,skipped,18,76347,,,76347,,76347,2021-10-26T19:52:28.678Z,76418.4,1635277868,full,ni_sequenzen,NI_Sequenzen,,,,,,,,,,,,,,
,Screen_2,canvas.Screen,0_0_17_1,,skipped,18,76348,,,76347,,76348,2021-10-26T19:52:28.679Z,76418.4,1635277868,full,ni_sequenzen,NI_Sequenzen,,,,,,,,,,,,,,
,Screen_3,canvas.Screen,0_0_17_2,,skipped,18,76350,,,76347,,76350,2021-10-26T19:52:28.680Z,76418.4,1635277868,full,ni_sequenzen,NI_Sequenzen,,,,,,,,,,,,,,
,Screen_4,canvas.Screen,0_0_17_3,,skipped,18,76351,,,76347,,76351,2021-10-26T19:52:28.682Z,76418.4,1635277868,full,ni_sequenzen,NI_Sequenzen,,,,,,,,,,,,,,
,Sequence,flow.Sequence,0_0_17,,completion,18,76346,,,76347,,76351,2021-10-26T19:52:28.682Z,76418.4,1635277868,full,ni_sequenzen,NI_Sequenzen,,,,,,,,,,,,,,
,Screen_1,canvas.Screen,0_0_18_0,,skipped,19,76353,,,76353,,76353,2021-10-26T19:52:28.684Z,76418.4,1635277868,full,ni_sequenzen,NI_Sequenzen,,,,,,,,,,,,,,
,Screen_2,canvas.Screen,0_0_18_1,,skipped,19,76355,,,76353,,76355,2021-10-26T19:52:28.686Z,76418.4,1635277868,full,ni_sequenzen,NI_Sequenzen,,,,,,,,,,,,,,
,Screen_3,canvas.Screen,0_0_18_2,,skipped,19,76357,,,76353,,76357,2021-10-26T19:52:28.688Z,76418.4,1635277868,full,ni_sequenzen,NI_Sequenzen,,,,,,,,,,,,,,
,Screen_4,canvas.Screen,0_0_18_3,,skipped,19,76359,,,76353,,76359,2021-10-26T19:52:28.690Z,76418.4,1635277868,full,ni_sequenzen,NI_Sequenzen,,,,,,,,,,,,,,
,Sequence,flow.Sequence,0_0_18,,completion,19,76352,,,76353,,76359,2021-10-26T19:52:28.690Z,76418.4,1635277868,full,ni_sequenzen,NI_Sequenzen,,,,,,,,,,,,,,
,Screen_1,canvas.Screen,0_0_19_0,,skipped,20,76361,,,76361,,76361,2021-10-26T19:52:28.692Z,76418.4,1635277868,full,ni_sequenzen,NI_Sequenzen,,,,,,,,,,,,,,
,Screen_2,canvas.Screen,0_0_19_1,,skipped,20,76363,,,76361,,76363,2021-10-26T19:52:28.694Z,76418.4,1635277868,full,ni_sequenzen,NI_Sequenzen,,,,,,,,,,,,,,
,Screen_3,canvas.Screen,0_0_19_2,,skipped,20,76364,,,76361,,76364,2021-10-26T19:52:28.695Z,76418.4,1635277868,full,ni_sequenzen,NI_Sequenzen,,,,,,,,,,,,,,
,Screen_4,canvas.Screen,0_0_19_3,,skipped,20,76366,,,76361,,76366,2021-10-26T19:52:28.697Z,76418.4,1635277868,full,ni_sequenzen,NI_Sequenzen,,,,,,,,,,,,,,
,Sequence,flow.Sequence,0_0_19,,completion,20,76360,,,76361,,76367,2021-10-26T19:52:28.698Z,76418.4,1635277868,full,ni_sequenzen,NI_Sequenzen,,,,,,,,,,,,,,
,Instructions_I,flow.Loop,0_0,,completion,,886,959.44,1159.3,76361,75201.7,76367,2021-10-26T19:52:28.698Z,76418.4,1635277868,full,ni_sequenzen,NI_Sequenzen,,,,,,,,,,,,,,
,Move,canvas.Screen,0_1_0_0,down,response,,76387,76387.64,76418.4,78044,1625.6000000000058,78049,2021-10-26T19:52:30.379Z,78067.14,1635277868,full,ni_sequenzen,NI_Sequenzen,1,,,,,,,,,,,,,
,Move,canvas.Screen,0_1_0_1,left,response,,78055,78054.58,78067.14,78857,789.8600000000006,78866,2021-10-26T19:52:31.195Z,78883.18,1635277868,full,ni_sequenzen,NI_Sequenzen,2,,,,,,,,,,,,,
,Move,canvas.Screen,0_1_0_2,down,response,,78871,78870.46,78883.18,80778,1894.820000000007,80793,2021-10-26T19:52:33.123Z,80798.38,1635277868,full,ni_sequenzen,NI_Sequenzen,3,,,,,,,,,,,,,
,Move,canvas.Screen,0_1_0_3,right,response,,80797,80797.16,80798.38,81419,620.6199999999953,81433,2021-10-26T19:52:33.763Z,81447.88,1635277868,full,ni_sequenzen,NI_Sequenzen,4,,,,,,,,,,,,,
,Move,canvas.Screen,0_1_0_4,right,response,,81437,81436.96,81447.88,81903,455.11999999999534,81905,2021-10-26T19:52:34.235Z,81914.2,1635277868,full,ni_sequenzen,NI_Sequenzen,5,,,,,,,,,,,,,
,Move,canvas.Screen,0_1_0_5,right,response,,81908,81908.4,81914.2,82247,332.8000000000029,82249,2021-10-26T19:52:34.580Z,82263.92,1635277868,full,ni_sequenzen,NI_Sequenzen,6,,,,,,,,,,,,,
,Move,canvas.Screen,0_1_0_6,down,response,,82253,82253.48,82263.92,83216,952.0800000000017,83225,2021-10-26T19:52:35.555Z,83229.86,1635277868,full,ni_sequenzen,NI_Sequenzen,7,,,,,,,,,,,,,
,Move,canvas.Screen,0_1_0_7,down,response,,83228,83228.36,83229.86,83544,314.1399999999994,83545,2021-10-26T19:52:35.876Z,83562.94,1635277868,full,ni_sequenzen,NI_Sequenzen,8,,,,,,,,,,,,,
,Move,canvas.Screen,0_1_0_8,down,response,,83550,83550.76,83562.94,83872,309.0599999999977,83882,2021-10-26T19:52:36.212Z,83896,1635277868,full,ni_sequenzen,NI_Sequenzen,9,,,,,,,,,,,,,
,Move,canvas.Screen,0_1_0_9,down,response,,83885,83885.02,83896,84450,554,84465,2021-10-26T19:52:36.796Z,84478.9,1635277868,full,ni_sequenzen,NI_Sequenzen,10,,,,,,,,,,,,,
,Move,canvas.Screen,0_1_0_10,left,response,,84475,84475.78,84478.9,84763,284.1000000000058,84770,2021-10-26T19:52:37.100Z,84778.66,1635277868,full,ni_sequenzen,NI_Sequenzen,11,,,,,,,,,,,,,
,Move,canvas.Screen,0_1_0_11,left,response,,84775,84775.04,84778.66,85107,328.3399999999965,85121,2021-10-26T19:52:37.451Z,85128.4,1635277868,full,ni_sequenzen,NI_Sequenzen,12,,,,,,,,,,,,,
,Move,canvas.Screen,0_1_0_12,left,response,,85127,85127.08,85128.4,85419,290.6000000000058,85434,2021-10-26T19:52:37.764Z,85444.82,1635277868,full,ni_sequenzen,NI_Sequenzen,13,,,,,,,,,,,,,
,Move,canvas.Screen,0_1_0_13,left,response,,85438,85437.86,85444.82,85763,318.179999999993,85769,2021-10-26T19:52:38.099Z,85777.9,1635277868,full,ni_sequenzen,NI_Sequenzen,14,,,,,,,,,,,,,
,Move,canvas.Screen,0_1_0_14,down,response,,85775,85774.84,85777.9,86044,266.1000000000058,86057,2021-10-26T19:52:38.388Z,86077.68,1635277868,full,ni_sequenzen,NI_Sequenzen,15,,,,,,,,,,,,,
,Move,canvas.Screen,0_1_0_15,down,response,,86062,86061.86,86077.68,86388,310.320000000007,86402,2021-10-26T19:52:38.732Z,86410.74,1635277868,full,ni_sequenzen,NI_Sequenzen,16,,,,,,,,,,,,,
,Move,canvas.Screen,0_1_0_16,down,response,,86406,86405.82,86410.74,86669,258.25999999999476,86673,2021-10-26T19:52:39.003Z,86677.22,1635277868,full,ni_sequenzen,NI_Sequenzen,17,,,,,,,,,,,,,
,Move,canvas.Screen,0_1_0_17,down,response,,86678,86677.12,86677.22,86903,225.77999999999884,86913,2021-10-26T19:52:39.244Z,86927.02,1635277868,full,ni_sequenzen,NI_Sequenzen,18,,,,,,,,,,,,,
,Move,canvas.Screen,0_1_0_18,right,response,,86918,86918.24,86927.02,87153,225.97999999999593,87161,2021-10-26T19:52:39.492Z,87176.82,1635277868,full,ni_sequenzen,NI_Sequenzen,19,,,,,,,,,,,,,
,Move,canvas.Screen,0_1_0_19,right,response,,87167,87166.98,87176.82,87388,211.17999999999302,87402,2021-10-26T19:52:39.733Z,87409.98,1635277868,full,ni_sequenzen,NI_Sequenzen,20,,,,,,,,,,,,,
,Move,canvas.Screen,0_1_0_20,right,response,,87409,87408.6,87409.98,87591,181.02000000000407,87594,2021-10-26T19:52:39.924Z,87609.84,1635277868,full,ni_sequenzen,NI_Sequenzen,21,,,,,,,,,,,,,
,Move,canvas.Screen,0_1_0_21,right,response,,87598,87598.6,87609.84,87778,168.1600000000035,87785,2021-10-26T19:52:40.115Z,87793.02,1635277868,full,ni_sequenzen,NI_Sequenzen,22,,,,,,,,,,,,,
,Move,canvas.Screen,0_1_0_22,down,response,,87789,87788.98,87793.02,88138,344.9799999999959,88145,2021-10-26T19:52:40.476Z,88159.4,1635277868,full,ni_sequenzen,NI_Sequenzen,23,,,,,,,,,,,,,
,Move,canvas.Screen,0_1_0_23,down,response,,88150,88150.2,88159.4,88341,181.60000000000582,88353,2021-10-26T19:52:40.683Z,88359.26,1635277868,full,ni_sequenzen,NI_Sequenzen,24,,,,,,,,,,,,,
,Move,canvas.Screen,0_1_0_24,down,response,,88356,88356.64,88359.26,88591,231.74000000000524,88593,2021-10-26T19:52:40.925Z,88609.06,1635277868,full,ni_sequenzen,NI_Sequenzen,25,,,,,,,,,,,,,
,Move,canvas.Screen,0_1_0_25,down,response,,88597,88597.36,88609.06,88825,215.94000000000233,88833,2021-10-26T19:52:41.163Z,88842.22,1635277868,full,ni_sequenzen,NI_Sequenzen,26,,,,,,,,,,,,,
,Move,canvas.Screen,0_1_0_26,left,response,,88837,88836.76,88842.22,89216,373.77999999999884,89216,2021-10-26T19:52:41.547Z,89225.26,1635277868,full,ni_sequenzen,NI_Sequenzen,27,,,,,,,,,,,,,
,Move,canvas.Screen,0_1_0_27,left,response,,89221,89220.82,89225.26,90028,802.7400000000052,90033,2021-10-26T19:52:42.363Z,90041.3,1635277868,full,ni_sequenzen,NI_Sequenzen,28,,,,,,,,,,,,,
,Move,canvas.Screen,0_1_0_28,right,response,,90036,90035.9,90041.3,90794,752.6999999999971,90809,2021-10-26T19:52:43.139Z,90824.04,1635277868,full,ni_sequenzen,NI_Sequenzen,29,,,,,,,,,,,,,
,Move,canvas.Screen,0_1_0_29,left,response,,90813,90813.04,90824.04,91810,985.9600000000064,91825,2021-10-26T19:52:44.156Z,91889.88,1635277868,full,ni_sequenzen,NI_Sequenzen,30,,,,,,,,,,,,,
,Loop,flow.Loop,0_1_0,-999,completion,,76382,76387.64,76418.4,91810,15391.600000000006,91825,2021-10-26T19:52:44.156Z,91889.88,1635277868,full,ni_sequenzen,NI_Sequenzen,,,,,,,,,,,,,,
,Training_I,flow.Sequence,0_1,,completion,,76368,76387.64,76418.4,91810,15391.600000000006,91826,2021-10-26T19:52:44.156Z,91889.88,1635277868,full,ni_sequenzen,NI_Sequenzen,,,,,,,,,,,,,,
,Screen_1,canvas.Screen,0_2_0_0,cont,response,1,91874,91874.42,91889.88,105997,14107.119999999995,106002,2021-10-26T19:52:58.333Z,106145.64,1635277868,full,ni_sequenzen,NI_Sequenzen,,,,,,,,,,,,,,
,Screen_2,canvas.Screen,0_2_0_1,cont,response,1,106125,106124.84,106145.64,122778,16632.36,122793,2021-10-26T19:53:15.124Z,122799.54,1635277868,full,ni_sequenzen,NI_Sequenzen,,,,,,,,,,,,,,
,Screen_3,canvas.Screen,0_2_0_2,cont,response,1,122795,122795.4,122799.54,136903,14103.460000000006,136905,2021-10-26T19:53:29.235Z,137005.34,1635277868,full,ni_sequenzen,NI_Sequenzen,,,,,,,,,,,,,,
,Screen_4,canvas.Screen,0_2_0_3,cont,response,1,136991,136990.66,137005.34,144903,7897.6600000000035,144913,2021-10-26T19:53:37.244Z,144932.6,1635277868,full,ni_sequenzen,NI_Sequenzen,,,,,,,,,,,,,,
,Screen_5,canvas.Screen,0_2_0_4,cont,response,1,144916,144916.44,144932.6,161013,16080.399999999994,161017,2021-10-26T19:53:53.348Z,161120.2,1635277868,full,ni_sequenzen,NI_Sequenzen,,,,,,,,,,,,,,
,Screen_6,canvas.Screen,0_2_0_5,cont,response,1,161106,161105.48,161120.2,170466,9345.799999999988,170481,2021-10-26T19:54:02.812Z,171645.46,1635277868,full,ni_sequenzen,NI_Sequenzen,,,,,,,,,,,,,,
,Sequence,flow.Sequence,0_2_0,,completion,1,91873,91874.42,91889.88,170466,78576.12,170481,2021-10-26T19:54:02.812Z,171645.46,1635277868,full,ni_sequenzen,NI_Sequenzen,,,,,,,,,,,,,,
,Screen_1,canvas.Screen,0_2_1_0,,skipped,2,170484,,,170484,,170484,2021-10-26T19:54:02.815Z,171645.46,1635277868,full,ni_sequenzen,NI_Sequenzen,,,,,,,,,,,,,,
,Screen_2,canvas.Screen,0_2_1_1,,skipped,2,170486,,,170484,,170487,2021-10-26T19:54:02.817Z,171645.46,1635277868,full,ni_sequenzen,NI_Sequenzen,,,,,,,,,,,,,,
,Screen_3,canvas.Screen,0_2_1_2,,skipped,2,170488,,,170484,,170488,2021-10-26T19:54:02.819Z,171645.46,1635277868,full,ni_sequenzen,NI_Sequenzen,,,,,,,,,,,,,,
,Screen_4,canvas.Screen,0_2_1_3,,skipped,2,170489,,,170484,,170489,2021-10-26T19:54:02.820Z,171645.46,1635277868,full,ni_sequenzen,NI_Sequenzen,,,,,,,,,,,,,,
,Screen_5,canvas.Screen,0_2_1_4,,skipped,2,170491,,,170484,,170491,2021-10-26T19:54:02.821Z,171645.46,1635277868,full,ni_sequenzen,NI_Sequenzen,,,,,,,,,,,,,,
,Screen_6,canvas.Screen,0_2_1_5,,skipped,2,170491,,,170484,,170491,2021-10-26T19:54:02.822Z,171645.46,1635277868,full,ni_sequenzen,NI_Sequenzen,,,,,,,,,,,,,,
,Sequence,flow.Sequence,0_2_1,,completion,2,170482,,,170484,,170492,2021-10-26T19:54:02.822Z,171645.46,1635277868,full,ni_sequenzen,NI_Sequenzen,,,,,,,,,,,,,,
,Screen_1,canvas.Screen,0_2_2_0,,skipped,3,170493,,,170493,,170493,2021-10-26T19:54:02.824Z,171645.46,1635277868,full,ni_sequenzen,NI_Sequenzen,,,,,,,,,,,,,,
,Screen_2,canvas.Screen,0_2_2_1,,skipped,3,170495,,,170493,,170495,2021-10-26T19:54:02.826Z,171645.46,1635277868,full,ni_sequenzen,NI_Sequenzen,,,,,,,,,,,,,,
,Screen_3,canvas.Screen,0_2_2_2,,skipped,3,170496,,,170493,,170496,2021-10-26T19:54:02.827Z,171645.46,1635277868,full,ni_sequenzen,NI_Sequenzen,,,,,,,,,,,,,,
,Screen_4,canvas.Screen,0_2_2_3,,skipped,3,170498,,,170493,,170498,2021-10-26T19:54:02.828Z,171645.46,1635277868,full,ni_sequenzen,NI_Sequenzen,,,,,,,,,,,,,,
,Screen_5,canvas.Screen,0_2_2_4,,skipped,3,170499,,,170493,,170499,2021-10-26T19:54:02.830Z,171645.46,1635277868,full,ni_sequenzen,NI_Sequenzen,,,,,,,,,,,,,,
,Screen_6,canvas.Screen,0_2_2_5,,skipped,3,170501,,,170493,,170501,2021-10-26T19:54:02.831Z,171645.46,1635277868,full,ni_sequenzen,NI_Sequenzen,,,,,,,,,,,,,,
,Sequence,flow.Sequence,0_2_2,,completion,3,170492,,,170493,,170501,2021-10-26T19:54:02.831Z,171645.46,1635277868,full,ni_sequenzen,NI_Sequenzen,,,,,,,,,,,,,,
,Screen_1,canvas.Screen,0_2_3_0,,skipped,4,170502,,,170502,,170503,2021-10-26T19:54:02.834Z,171645.46,1635277868,full,ni_sequenzen,NI_Sequenzen,,,,,,,,,,,,,,
,Screen_2,canvas.Screen,0_2_3_1,,skipped,4,170504,,,170502,,170504,2021-10-26T19:54:02.835Z,171645.46,1635277868,full,ni_sequenzen,NI_Sequenzen,,,,,,,,,,,,,,
,Screen_3,canvas.Screen,0_2_3_2,,skipped,4,170505,,,170502,,170505,2021-10-26T19:54:02.836Z,171645.46,1635277868,full,ni_sequenzen,NI_Sequenzen,,,,,,,,,,,,,,
,Screen_4,canvas.Screen,0_2_3_3,,skipped,4,170507,,,170502,,170507,2021-10-26T19:54:02.838Z,171645.46,1635277868,full,ni_sequenzen,NI_Sequenzen,,,,,,,,,,,,,,
,Screen_5,canvas.Screen,0_2_3_4,,skipped,4,170508,,,170502,,170508,2021-10-26T19:54:02.839Z,171645.46,1635277868,full,ni_sequenzen,NI_Sequenzen,,,,,,,,,,,,,,
,Screen_6,canvas.Screen,0_2_3_5,,skipped,4,170511,,,170502,,170511,2021-10-26T19:54:02.842Z,171645.46,1635277868,full,ni_sequenzen,NI_Sequenzen,,,,,,,,,,,,,,
,Sequence,flow.Sequence,0_2_3,,completion,4,170502,,,170502,,170512,2021-10-26T19:54:02.842Z,171645.46,1635277868,full,ni_sequenzen,NI_Sequenzen,,,,,,,,,,,,,,
,Screen_1,canvas.Screen,0_2_4_0,,skipped,5,170513,,,170513,,170513,2021-10-26T19:54:02.843Z,171645.46,1635277868,full,ni_sequenzen,NI_Sequenzen,,,,,,,,,,,,,,
,Screen_2,canvas.Screen,0_2_4_1,,skipped,5,170514,,,170513,,170515,2021-10-26T19:54:02.845Z,171645.46,1635277868,full,ni_sequenzen,NI_Sequenzen,,,,,,,,,,,,,,
,Screen_3,canvas.Screen,0_2_4_2,,skipped,5,170516,,,170513,,170516,2021-10-26T19:54:02.846Z,171645.46,1635277868,full,ni_sequenzen,NI_Sequenzen,,,,,,,,,,,,,,
,Screen_4,canvas.Screen,0_2_4_3,,skipped,5,170518,,,170513,,170518,2021-10-26T19:54:02.848Z,171645.46,1635277868,full,ni_sequenzen,NI_Sequenzen,,,,,,,,,,,,,,
,Screen_5,canvas.Screen,0_2_4_4,,skipped,5,170519,,,170513,,170519,2021-10-26T19:54:02.849Z,171645.46,1635277868,full,ni_sequenzen,NI_Sequenzen,,,,,,,,,,,,,,
,Screen_6,canvas.Screen,0_2_4_5,,skipped,5,170520,,,170513,,170520,2021-10-26T19:54:02.850Z,171645.46,1635277868,full,ni_sequenzen,NI_Sequenzen,,,,,,,,,,,,,,
,Sequence,flow.Sequence,0_2_4,,completion,5,170512,,,170513,,170521,2021-10-26T19:54:02.850Z,171645.46,1635277868,full,ni_sequenzen,NI_Sequenzen,,,,,,,,,,,,,,
,Screen_1,canvas.Screen,0_2_5_0,,skipped,6,170522,,,170522,,170522,2021-10-26T19:54:02.852Z,171645.46,1635277868,full,ni_sequenzen,NI_Sequenzen,,,,,,,,,,,,,,
,Screen_2,canvas.Screen,0_2_5_1,,skipped,6,170524,,,170522,,170524,2021-10-26T19:54:02.854Z,171645.46,1635277868,full,ni_sequenzen,NI_Sequenzen,,,,,,,,,,,,,,
,Screen_3,canvas.Screen,0_2_5_2,,skipped,6,170525,,,170522,,170525,2021-10-26T19:54:02.856Z,171645.46,1635277868,full,ni_sequenzen,NI_Sequenzen,,,,,,,,,,,,,,
,Screen_4,canvas.Screen,0_2_5_3,,skipped,6,170526,,,170522,,170526,2021-10-26T19:54:02.857Z,171645.46,1635277868,full,ni_sequenzen,NI_Sequenzen,,,,,,,,,,,,,,
,Screen_5,canvas.Screen,0_2_5_4,,skipped,6,170528,,,170522,,170528,2021-10-26T19:54:02.858Z,171645.46,1635277868,full,ni_sequenzen,NI_Sequenzen,,,,,,,,,,,,,,
,Screen_6,canvas.Screen,0_2_5_5,,skipped,6,170529,,,170522,,170529,2021-10-26T19:54:02.859Z,171645.46,1635277868,full,ni_sequenzen,NI_Sequenzen,,,,,,,,,,,,,,
,Sequence,flow.Sequence,0_2_5,,completion,6,170521,,,170522,,170530,2021-10-26T19:54:02.860Z,171645.46,1635277868,full,ni_sequenzen,NI_Sequenzen,,,,,,,,,,,,,,
,Screen_1,canvas.Screen,0_2_6_0,,skipped,7,170532,,,170532,,170532,2021-10-26T19:54:02.862Z,171645.46,1635277868,full,ni_sequenzen,NI_Sequenzen,,,,,,,,,,,,,,
,Screen_2,canvas.Screen,0_2_6_1,,skipped,7,170533,,,170532,,170533,2021-10-26T19:54:02.863Z,171645.46,1635277868,full,ni_sequenzen,NI_Sequenzen,,,,,,,,,,,,,,
,Screen_3,canvas.Screen,0_2_6_2,,skipped,7,170534,,,170532,,170534,2021-10-26T19:54:02.865Z,171645.46,1635277868,full,ni_sequenzen,NI_Sequenzen,,,,,,,,,,,,,,
,Screen_4,canvas.Screen,0_2_6_3,,skipped,7,170535,,,170532,,170535,2021-10-26T19:54:02.866Z,171645.46,1635277868,full,ni_sequenzen,NI_Sequenzen,,,,,,,,,,,,,,
,Screen_5,canvas.Screen,0_2_6_4,,skipped,7,170536,,,170532,,170536,2021-10-26T19:54:02.867Z,171645.46,1635277868,full,ni_sequenzen,NI_Sequenzen,,,,,,,,,,,,,,
,Screen_6,canvas.Screen,0_2_6_5,,skipped,7,170537,,,170532,,170537,2021-10-26T19:54:02.868Z,171645.46,1635277868,full,ni_sequenzen,NI_Sequenzen,,,,,,,,,,,,,,
,Sequence,flow.Sequence,0_2_6,,completion,7,170531,,,170532,,170538,2021-10-26T19:54:02.868Z,171645.46,1635277868,full,ni_sequenzen,NI_Sequenzen,,,,,,,,,,,,,,
,Screen_1,canvas.Screen,0_2_7_0,,skipped,8,170539,,,170539,,170540,2021-10-26T19:54:02.870Z,171645.46,1635277868,full,ni_sequenzen,NI_Sequenzen,,,,,,,,,,,,,,
,Screen_2,canvas.Screen,0_2_7_1,,skipped,8,170541,,,170539,,170541,2021-10-26T19:54:02.871Z,171645.46,1635277868,full,ni_sequenzen,NI_Sequenzen,,,,,,,,,,,,,,
,Screen_3,canvas.Screen,0_2_7_2,,skipped,8,170542,,,170539,,170543,2021-10-26T19:54:02.873Z,171645.46,1635277868,full,ni_sequenzen,NI_Sequenzen,,,,,,,,,,,,,,
,Screen_4,canvas.Screen,0_2_7_3,,skipped,8,170544,,,170539,,170544,2021-10-26T19:54:02.875Z,171645.46,1635277868,full,ni_sequenzen,NI_Sequenzen,,,,,,,,,,,,,,
,Screen_5,canvas.Screen,0_2_7_4,,skipped,8,170545,,,170539,,170545,2021-10-26T19:54:02.876Z,171645.46,1635277868,full,ni_sequenzen,NI_Sequenzen,,,,,,,,,,,,,,
,Screen_6,canvas.Screen,0_2_7_5,,skipped,8,170546,,,170539,,170547,2021-10-26T19:54:02.877Z,171645.46,1635277868,full,ni_sequenzen,NI_Sequenzen,,,,,,,,,,,,,,
,Sequence,flow.Sequence,0_2_7,,completion,8,170538,,,170539,,170547,2021-10-26T19:54:02.878Z,171645.46,1635277868,full,ni_sequenzen,NI_Sequenzen,,,,,,,,,,,,,,
,Screen_1,canvas.Screen,0_2_8_0,,skipped,9,170549,,,170549,,170549,2021-10-26T19:54:02.879Z,171645.46,1635277868,full,ni_sequenzen,NI_Sequenzen,,,,,,,,,,,,,,
,Screen_2,canvas.Screen,0_2_8_1,,skipped,9,170550,,,170549,,170550,2021-10-26T19:54:02.881Z,171645.46,1635277868,full,ni_sequenzen,NI_Sequenzen,,,,,,,,,,,,,,
,Screen_3,canvas.Screen,0_2_8_2,,skipped,9,170551,,,170549,,170551,2021-10-26T19:54:02.882Z,171645.46,1635277868,full,ni_sequenzen,NI_Sequenzen,,,,,,,,,,,,,,
,Screen_4,canvas.Screen,0_2_8_3,,skipped,9,170552,,,170549,,170552,2021-10-26T19:54:02.883Z,171645.46,1635277868,full,ni_sequenzen,NI_Sequenzen,,,,,,,,,,,,,,
,Screen_5,canvas.Screen,0_2_8_4,,skipped,9,170553,,,170549,,170553,2021-10-26T19:54:02.884Z,171645.46,1635277868,full,ni_sequenzen,NI_Sequenzen,,,,,,,,,,,,,,
,Screen_6,canvas.Screen,0_2_8_5,,skipped,9,170555,,,170549,,170555,2021-10-26T19:54:02.886Z,171645.46,1635277868,full,ni_sequenzen,NI_Sequenzen,,,,,,,,,,,,,,
,Sequence,flow.Sequence,0_2_8,,completion,9,170547,,,170549,,170555,2021-10-26T19:54:02.886Z,171645.46,1635277868,full,ni_sequenzen,NI_Sequenzen,,,,,,,,,,,,,,
,Screen_1,canvas.Screen,0_2_9_0,,skipped,10,170558,,,170558,,170558,2021-10-26T19:54:02.888Z,171645.46,1635277868,full,ni_sequenzen,NI_Sequenzen,,,,,,,,,,,,,,
,Screen_2,canvas.Screen,0_2_9_1,,skipped,10,170558,,,170558,,170559,2021-10-26T19:54:02.889Z,171645.46,1635277868,full,ni_sequenzen,NI_Sequenzen,,,,,,,,,,,,,,
,Screen_3,canvas.Screen,0_2_9_2,,skipped,10,170560,,,170558,,170560,2021-10-26T19:54:02.891Z,171645.46,1635277868,full,ni_sequenzen,NI_Sequenzen,,,,,,,,,,,,,,
,Screen_4,canvas.Screen,0_2_9_3,,skipped,10,170561,,,170558,,170561,2021-10-26T19:54:02.892Z,171645.46,1635277868,full,ni_sequenzen,NI_Sequenzen,,,,,,,,,,,,,,
,Screen_5,canvas.Screen,0_2_9_4,,skipped,10,170563,,,170558,,170563,2021-10-26T19:54:02.893Z,171645.46,1635277868,full,ni_sequenzen,NI_Sequenzen,,,,,,,,,,,,,,
,Screen_6,canvas.Screen,0_2_9_5,,skipped,10,170565,,,170558,,170565,2021-10-26T19:54:02.896Z,171645.46,1635277868,full,ni_sequenzen,NI_Sequenzen,,,,,,,,,,,,,,
,Sequence,flow.Sequence,0_2_9,,completion,10,170556,,,170558,,170565,2021-10-26T19:54:02.896Z,171645.46,1635277868,full,ni_sequenzen,NI_Sequenzen,,,,,,,,,,,,,,
,Screen_1,canvas.Screen,0_2_10_0,,skipped,11,170566,,,170566,,170566,2021-10-26T19:54:02.898Z,171645.46,1635277868,full,ni_sequenzen,NI_Sequenzen,,,,,,,,,,,,,,
,Screen_2,canvas.Screen,0_2_10_1,,skipped,11,170568,,,170566,,170568,2021-10-26T19:54:02.898Z,171645.46,1635277868,full,ni_sequenzen,NI_Sequenzen,,,,,,,,,,,,,,
,Screen_3,canvas.Screen,0_2_10_2,,skipped,11,170569,,,170566,,170569,2021-10-26T19:54:02.900Z,171645.46,1635277868,full,ni_sequenzen,NI_Sequenzen,,,,,,,,,,,,,,
,Screen_4,canvas.Screen,0_2_10_3,,skipped,11,170571,,,170566,,170571,2021-10-26T19:54:02.901Z,171645.46,1635277868,full,ni_sequenzen,NI_Sequenzen,,,,,,,,,,,,,,
,Screen_5,canvas.Screen,0_2_10_4,,skipped,11,170573,,,170566,,170573,2021-10-26T19:54:02.904Z,171645.46,1635277868,full,ni_sequenzen,NI_Sequenzen,,,,,,,,,,,,,,
,Screen_6,canvas.Screen,0_2_10_5,,skipped,11,170575,,,170566,,170575,2021-10-26T19:54:02.906Z,171645.46,1635277868,full,ni_sequenzen,NI_Sequenzen,,,,,,,,,,,,,,
,Sequence,flow.Sequence,0_2_10,,completion,11,170566,,,170566,,170575,2021-10-26T19:54:02.906Z,171645.46,1635277868,full,ni_sequenzen,NI_Sequenzen,,,,,,,,,,,,,,
,Screen_1,canvas.Screen,0_2_11_0,,skipped,12,170577,,,170577,,170577,2021-10-26T19:54:02.907Z,171645.46,1635277868,full,ni_sequenzen,NI_Sequenzen,,,,,,,,,,,,,,
,Screen_2,canvas.Screen,0_2_11_1,,skipped,12,170578,,,170577,,170578,2021-10-26T19:54:02.908Z,171645.46,1635277868,full,ni_sequenzen,NI_Sequenzen,,,,,,,,,,,,,,
,Screen_3,canvas.Screen,0_2_11_2,,skipped,12,170579,,,170577,,170579,2021-10-26T19:54:02.910Z,171645.46,1635277868,full,ni_sequenzen,NI_Sequenzen,,,,,,,,,,,,,,
,Screen_4,canvas.Screen,0_2_11_3,,skipped,12,170581,,,170577,,170581,2021-10-26T19:54:02.911Z,171645.46,1635277868,full,ni_sequenzen,NI_Sequenzen,,,,,,,,,,,,,,
,Screen_5,canvas.Screen,0_2_11_4,,skipped,12,170583,,,170577,,170583,2021-10-26T19:54:02.913Z,171645.46,1635277868,full,ni_sequenzen,NI_Sequenzen,,,,,,,,,,,,,,
,Screen_6,canvas.Screen,0_2_11_5,,skipped,12,170585,,,170577,,170585,2021-10-26T19:54:02.915Z,171645.46,1635277868,full,ni_sequenzen,NI_Sequenzen,,,,,,,,,,,,,,
,Sequence,flow.Sequence,0_2_11,,completion,12,170576,,,170577,,170585,2021-10-26T19:54:02.915Z,171645.46,1635277868,full,ni_sequenzen,NI_Sequenzen,,,,,,,,,,,,,,
,Screen_1,canvas.Screen,0_2_12_0,,skipped,13,170587,,,170587,,170587,2021-10-26T19:54:02.918Z,171645.46,1635277868,full,ni_sequenzen,NI_Sequenzen,,,,,,,,,,,,,,
,Screen_2,canvas.Screen,0_2_12_1,,skipped,13,170589,,,170587,,170589,2021-10-26T19:54:02.919Z,171645.46,1635277868,full,ni_sequenzen,NI_Sequenzen,,,,,,,,,,,,,,
,Screen_3,canvas.Screen,0_2_12_2,,skipped,13,170590,,,170587,,170590,2021-10-26T19:54:02.920Z,171645.46,1635277868,full,ni_sequenzen,NI_Sequenzen,,,,,,,,,,,,,,
,Screen_4,canvas.Screen,0_2_12_3,,skipped,13,170591,,,170587,,170591,2021-10-26T19:54:02.921Z,171645.46,1635277868,full,ni_sequenzen,NI_Sequenzen,,,,,,,,,,,,,,
,Screen_5,canvas.Screen,0_2_12_4,,skipped,13,170592,,,170587,,170592,2021-10-26T19:54:02.922Z,171645.46,1635277868,full,ni_sequenzen,NI_Sequenzen,,,,,,,,,,,,,,
,Screen_6,canvas.Screen,0_2_12_5,,skipped,13,170593,,,170587,,170593,2021-10-26T19:54:02.924Z,171645.46,1635277868,full,ni_sequenzen,NI_Sequenzen,,,,,,,,,,,,,,
,Sequence,flow.Sequence,0_2_12,,completion,13,170586,,,170587,,170593,2021-10-26T19:54:02.924Z,171645.46,1635277868,full,ni_sequenzen,NI_Sequenzen,,,,,,,,,,,,,,
,Screen_1,canvas.Screen,0_2_13_0,,skipped,14,170595,,,170595,,170595,2021-10-26T19:54:02.925Z,171645.46,1635277868,full,ni_sequenzen,NI_Sequenzen,,,,,,,,,,,,,,
,Screen_2,canvas.Screen,0_2_13_1,,skipped,14,170596,,,170595,,170596,2021-10-26T19:54:02.927Z,171645.46,1635277868,full,ni_sequenzen,NI_Sequenzen,,,,,,,,,,,,,,
,Screen_3,canvas.Screen,0_2_13_2,,skipped,14,170598,,,170595,,170598,2021-10-26T19:54:02.928Z,171645.46,1635277868,full,ni_sequenzen,NI_Sequenzen,,,,,,,,,,,,,,
,Screen_4,canvas.Screen,0_2_13_3,,skipped,14,170599,,,170595,,170599,2021-10-26T19:54:02.929Z,171645.46,1635277868,full,ni_sequenzen,NI_Sequenzen,,,,,,,,,,,,,,
,Screen_5,canvas.Screen,0_2_13_4,,skipped,14,170600,,,170595,,170600,2021-10-26T19:54:02.931Z,171645.46,1635277868,full,ni_sequenzen,NI_Sequenzen,,,,,,,,,,,,,,
,Screen_6,canvas.Screen,0_2_13_5,,skipped,14,170601,,,170595,,170602,2021-10-26T19:54:02.932Z,171645.46,1635277868,full,ni_sequenzen,NI_Sequenzen,,,,,,,,,,,,,,
,Sequence,flow.Sequence,0_2_13,,completion,14,170594,,,170595,,170602,2021-10-26T19:54:02.932Z,171645.46,1635277868,full,ni_sequenzen,NI_Sequenzen,,,,,,,,,,,,,,
,Screen_1,canvas.Screen,0_2_14_0,,skipped,15,170604,,,170604,,170604,2021-10-26T19:54:02.935Z,171645.46,1635277868,full,ni_sequenzen,NI_Sequenzen,,,,,,,,,,,,,,
,Screen_2,canvas.Screen,0_2_14_1,,skipped,15,170607,,,170604,,170607,2021-10-26T19:54:02.937Z,171645.46,1635277868,full,ni_sequenzen,NI_Sequenzen,,,,,,,,,,,,,,
,Screen_3,canvas.Screen,0_2_14_2,,skipped,15,170608,,,170604,,170608,2021-10-26T19:54:02.938Z,171645.46,1635277868,full,ni_sequenzen,NI_Sequenzen,,,,,,,,,,,,,,
,Screen_4,canvas.Screen,0_2_14_3,,skipped,15,170609,,,170604,,170609,2021-10-26T19:54:02.939Z,171645.46,1635277868,full,ni_sequenzen,NI_Sequenzen,,,,,,,,,,,,,,
,Screen_5,canvas.Screen,0_2_14_4,,skipped,15,170610,,,170604,,170610,2021-10-26T19:54:02.941Z,171645.46,1635277868,full,ni_sequenzen,NI_Sequenzen,,,,,,,,,,,,,,
,Screen_6,canvas.Screen,0_2_14_5,,skipped,15,170611,,,170604,,170611,2021-10-26T19:54:02.942Z,171645.46,1635277868,full,ni_sequenzen,NI_Sequenzen,,,,,,,,,,,,,,
,Sequence,flow.Sequence,0_2_14,,completion,15,170602,,,170604,,170611,2021-10-26T19:54:02.942Z,171645.46,1635277868,full,ni_sequenzen,NI_Sequenzen,,,,,,,,,,,,,,
,Screen_1,canvas.Screen,0_2_15_0,,skipped,16,170612,,,170612,,170612,2021-10-26T19:54:02.943Z,171645.46,1635277868,full,ni_sequenzen,NI_Sequenzen,,,,,,,,,,,,,,
,Screen_2,canvas.Screen,0_2_15_1,,skipped,16,170614,,,170612,,170614,2021-10-26T19:54:02.945Z,171645.46,1635277868,full,ni_sequenzen,NI_Sequenzen,,,,,,,,,,,,,,
,Screen_3,canvas.Screen,0_2_15_2,,skipped,16,170616,,,170612,,170616,2021-10-26T19:54:02.946Z,171645.46,1635277868,full,ni_sequenzen,NI_Sequenzen,,,,,,,,,,,,,,
,Screen_4,canvas.Screen,0_2_15_3,,skipped,16,170617,,,170612,,170617,2021-10-26T19:54:02.947Z,171645.46,1635277868,full,ni_sequenzen,NI_Sequenzen,,,,,,,,,,,,,,
,Screen_5,canvas.Screen,0_2_15_4,,skipped,16,170618,,,170612,,170618,2021-10-26T19:54:02.948Z,171645.46,1635277868,full,ni_sequenzen,NI_Sequenzen,,,,,,,,,,,,,,
,Screen_6,canvas.Screen,0_2_15_5,,skipped,16,170619,,,170612,,170619,2021-10-26T19:54:02.950Z,171645.46,1635277868,full,ni_sequenzen,NI_Sequenzen,,,,,,,,,,,,,,
,Sequence,flow.Sequence,0_2_15,,completion,16,170611,,,170612,,170619,2021-10-26T19:54:02.950Z,171645.46,1635277868,full,ni_sequenzen,NI_Sequenzen,,,,,,,,,,,,,,
,Screen_1,canvas.Screen,0_2_16_0,,skipped,17,170621,,,170621,,170621,2021-10-26T19:54:02.952Z,171645.46,1635277868,full,ni_sequenzen,NI_Sequenzen,,,,,,,,,,,,,,
,Screen_2,canvas.Screen,0_2_16_1,,skipped,17,170622,,,170621,,170622,2021-10-26T19:54:02.953Z,171645.46,1635277868,full,ni_sequenzen,NI_Sequenzen,,,,,,,,,,,,,,
,Screen_3,canvas.Screen,0_2_16_2,,skipped,17,170623,,,170621,,170623,2021-10-26T19:54:02.954Z,171645.46,1635277868,full,ni_sequenzen,NI_Sequenzen,,,,,,,,,,,,,,
,Screen_4,canvas.Screen,0_2_16_3,,skipped,17,170624,,,170621,,170624,2021-10-26T19:54:02.955Z,171645.46,1635277868,full,ni_sequenzen,NI_Sequenzen,,,,,,,,,,,,,,
,Screen_5,canvas.Screen,0_2_16_4,,skipped,17,170625,,,170621,,170626,2021-10-26T19:54:02.957Z,171645.46,1635277868,full,ni_sequenzen,NI_Sequenzen,,,,,,,,,,,,,,
,Screen_6,canvas.Screen,0_2_16_5,,skipped,17,170627,,,170621,,170627,2021-10-26T19:54:02.958Z,171645.46,1635277868,full,ni_sequenzen,NI_Sequenzen,,,,,,,,,,,,,,
,Sequence,flow.Sequence,0_2_16,,completion,17,170620,,,170621,,170627,2021-10-26T19:54:02.958Z,171645.46,1635277868,full,ni_sequenzen,NI_Sequenzen,,,,,,,,,,,,,,
,Screen_1,canvas.Screen,0_2_17_0,,skipped,18,170628,,,170628,,170628,2021-10-26T19:54:02.958Z,171645.46,1635277868,full,ni_sequenzen,NI_Sequenzen,,,,,,,,,,,,,,
,Screen_2,canvas.Screen,0_2_17_1,,skipped,18,170629,,,170628,,170629,2021-10-26T19:54:02.960Z,171645.46,1635277868,full,ni_sequenzen,NI_Sequenzen,,,,,,,,,,,,,,
,Screen_3,canvas.Screen,0_2_17_2,,skipped,18,170631,,,170628,,170631,2021-10-26T19:54:02.962Z,171645.46,1635277868,full,ni_sequenzen,NI_Sequenzen,,,,,,,,,,,,,,
,Screen_4,canvas.Screen,0_2_17_3,,skipped,18,170632,,,170628,,170632,2021-10-26T19:54:02.962Z,171645.46,1635277868,full,ni_sequenzen,NI_Sequenzen,,,,,,,,,,,,,,
,Screen_5,canvas.Screen,0_2_17_4,,skipped,18,170633,,,170628,,170633,2021-10-26T19:54:02.964Z,171645.46,1635277868,full,ni_sequenzen,NI_Sequenzen,,,,,,,,,,,,,,
,Screen_6,canvas.Screen,0_2_17_5,,skipped,18,170635,,,170628,,170635,2021-10-26T19:54:02.966Z,171645.46,1635277868,full,ni_sequenzen,NI_Sequenzen,,,,,,,,,,,,,,
,Sequence,flow.Sequence,0_2_17,,completion,18,170627,,,170628,,170635,2021-10-26T19:54:02.966Z,171645.46,1635277868,full,ni_sequenzen,NI_Sequenzen,,,,,,,,,,,,,,
,Screen_1,canvas.Screen,0_2_18_0,,skipped,19,170637,,,170637,,170637,2021-10-26T19:54:02.967Z,171645.46,1635277868,full,ni_sequenzen,NI_Sequenzen,,,,,,,,,,,,,,
,Screen_2,canvas.Screen,0_2_18_1,,skipped,19,170638,,,170637,,170638,2021-10-26T19:54:02.968Z,171645.46,1635277868,full,ni_sequenzen,NI_Sequenzen,,,,,,,,,,,,,,
,Screen_3,canvas.Screen,0_2_18_2,,skipped,19,170639,,,170637,,170639,2021-10-26T19:54:02.970Z,171645.46,1635277868,full,ni_sequenzen,NI_Sequenzen,,,,,,,,,,,,,,
,Screen_4,canvas.Screen,0_2_18_3,,skipped,19,170641,,,170637,,170641,2021-10-26T19:54:02.971Z,171645.46,1635277868,full,ni_sequenzen,NI_Sequenzen,,,,,,,,,,,,,,
,Screen_5,canvas.Screen,0_2_18_4,,skipped,19,170641,,,170637,,170641,2021-10-26T19:54:02.973Z,171645.46,1635277868,full,ni_sequenzen,NI_Sequenzen,,,,,,,,,,,,,,
,Screen_6,canvas.Screen,0_2_18_5,,skipped,19,170643,,,170637,,170643,2021-10-26T19:54:02.973Z,171645.46,1635277868,full,ni_sequenzen,NI_Sequenzen,,,,,,,,,,,,,,
,Sequence,flow.Sequence,0_2_18,,completion,19,170636,,,170637,,170643,2021-10-26T19:54:02.973Z,171645.46,1635277868,full,ni_sequenzen,NI_Sequenzen,,,,,,,,,,,,,,
,Screen_1,canvas.Screen,0_2_19_0,,skipped,20,170644,,,170644,,170644,2021-10-26T19:54:02.975Z,171645.46,1635277868,full,ni_sequenzen,NI_Sequenzen,,,,,,,,,,,,,,
,Screen_2,canvas.Screen,0_2_19_1,,skipped,20,170646,,,170644,,170646,2021-10-26T19:54:02.976Z,171645.46,1635277868,full,ni_sequenzen,NI_Sequenzen,,,,,,,,,,,,,,
,Screen_3,canvas.Screen,0_2_19_2,,skipped,20,170647,,,170644,,170647,2021-10-26T19:54:02.977Z,171645.46,1635277868,full,ni_sequenzen,NI_Sequenzen,,,,,,,,,,,,,,
,Screen_4,canvas.Screen,0_2_19_3,,skipped,20,170649,,,170644,,170649,2021-10-26T19:54:02.979Z,171645.46,1635277868,full,ni_sequenzen,NI_Sequenzen,,,,,,,,,,,,,,
,Screen_5,canvas.Screen,0_2_19_4,,skipped,20,170650,,,170644,,170650,2021-10-26T19:54:02.980Z,171645.46,1635277868,full,ni_sequenzen,NI_Sequenzen,,,,,,,,,,,,,,
,Screen_6,canvas.Screen,0_2_19_5,,skipped,20,170651,,,170644,,170651,2021-10-26T19:54:02.981Z,171645.46,1635277868,full,ni_sequenzen,NI_Sequenzen,,,,,,,,,,,,,,
,Sequence,flow.Sequence,0_2_19,,completion,20,170643,,,170644,,170651,2021-10-26T19:54:02.982Z,171645.46,1635277868,full,ni_sequenzen,NI_Sequenzen,,,,,,,,,,,,,,
,Screen_1,canvas.Screen,0_2_20_0,,skipped,21,170653,,,170653,,170653,2021-10-26T19:54:02.984Z,171645.46,1635277868,full,ni_sequenzen,NI_Sequenzen,,,,,,,,,,,,,,
,Screen_2,canvas.Screen,0_2_20_1,,skipped,21,170655,,,170653,,170655,2021-10-26T19:54:02.985Z,171645.46,1635277868,full,ni_sequenzen,NI_Sequenzen,,,,,,,,,,,,,,
,Screen_3,canvas.Screen,0_2_20_2,,skipped,21,170656,,,170653,,170656,2021-10-26T19:54:02.986Z,171645.46,1635277868,full,ni_sequenzen,NI_Sequenzen,,,,,,,,,,,,,,
,Screen_4,canvas.Screen,0_2_20_3,,skipped,21,170657,,,170653,,170657,2021-10-26T19:54:02.988Z,171645.46,1635277868,full,ni_sequenzen,NI_Sequenzen,,,,,,,,,,,,,,
,Screen_5,canvas.Screen,0_2_20_4,,skipped,21,170659,,,170653,,170659,2021-10-26T19:54:02.989Z,171645.46,1635277868,full,ni_sequenzen,NI_Sequenzen,,,,,,,,,,,,,,
,Screen_6,canvas.Screen,0_2_20_5,,skipped,21,170660,,,170653,,170660,2021-10-26T19:54:02.990Z,171645.46,1635277868,full,ni_sequenzen,NI_Sequenzen,,,,,,,,,,,,,,
,Sequence,flow.Sequence,0_2_20,,completion,21,170652,,,170653,,170660,2021-10-26T19:54:02.990Z,171645.46,1635277868,full,ni_sequenzen,NI_Sequenzen,,,,,,,,,,,,,,
,Screen_1,canvas.Screen,0_2_21_0,,skipped,22,170662,,,170662,,170662,2021-10-26T19:54:02.992Z,171645.46,1635277868,full,ni_sequenzen,NI_Sequenzen,,,,,,,,,,,,,,
,Screen_2,canvas.Screen,0_2_21_1,,skipped,22,170663,,,170662,,170663,2021-10-26T19:54:02.993Z,171645.46,1635277868,full,ni_sequenzen,NI_Sequenzen,,,,,,,,,,,,,,
,Screen_3,canvas.Screen,0_2_21_2,,skipped,22,170664,,,170662,,170664,2021-10-26T19:54:02.995Z,171645.46,1635277868,full,ni_sequenzen,NI_Sequenzen,,,,,,,,,,,,,,
,Screen_4,canvas.Screen,0_2_21_3,,skipped,22,170666,,,170662,,170666,2021-10-26T19:54:02.997Z,171645.46,1635277868,full,ni_sequenzen,NI_Sequenzen,,,,,,,,,,,,,,
,Screen_5,canvas.Screen,0_2_21_4,,skipped,22,170667,,,170662,,170668,2021-10-26T19:54:02.998Z,171645.46,1635277868,full,ni_sequenzen,NI_Sequenzen,,,,,,,,,,,,,,
,Screen_6,canvas.Screen,0_2_21_5,,skipped,22,170669,,,170662,,170669,2021-10-26T19:54:02.999Z,171645.46,1635277868,full,ni_sequenzen,NI_Sequenzen,,,,,,,,,,,,,,
,Sequence,flow.Sequence,0_2_21,,completion,22,170661,,,170662,,170669,2021-10-26T19:54:02.999Z,171645.46,1635277868,full,ni_sequenzen,NI_Sequenzen,,,,,,,,,,,,,,
,Screen_1,canvas.Screen,0_2_22_0,,skipped,23,170670,,,170670,,170670,2021-10-26T19:54:03.001Z,171645.46,1635277868,full,ni_sequenzen,NI_Sequenzen,,,,,,,,,,,,,,
,Screen_2,canvas.Screen,0_2_22_1,,skipped,23,170672,,,170670,,170672,2021-10-26T19:54:03.002Z,171645.46,1635277868,full,ni_sequenzen,NI_Sequenzen,,,,,,,,,,,,,,
,Screen_3,canvas.Screen,0_2_22_2,,skipped,23,170673,,,170670,,170673,2021-10-26T19:54:03.003Z,171645.46,1635277868,full,ni_sequenzen,NI_Sequenzen,,,,,,,,,,,,,,
,Screen_4,canvas.Screen,0_2_22_3,,skipped,23,170674,,,170670,,170675,2021-10-26T19:54:03.005Z,171645.46,1635277868,full,ni_sequenzen,NI_Sequenzen,,,,,,,,,,,,,,
,Screen_5,canvas.Screen,0_2_22_4,,skipped,23,170676,,,170670,,170676,2021-10-26T19:54:03.007Z,171645.46,1635277868,full,ni_sequenzen,NI_Sequenzen,,,,,,,,,,,,,,
,Screen_6,canvas.Screen,0_2_22_5,,skipped,23,170677,,,170670,,170677,2021-10-26T19:54:03.008Z,171645.46,1635277868,full,ni_sequenzen,NI_Sequenzen,,,,,,,,,,,,,,
,Sequence,flow.Sequence,0_2_22,,completion,23,170669,,,170670,,170677,2021-10-26T19:54:03.008Z,171645.46,1635277868,full,ni_sequenzen,NI_Sequenzen,,,,,,,,,,,,,,
,Screen_1,canvas.Screen,0_2_23_0,,skipped,24,170679,,,170679,,170679,2021-10-26T19:54:03.010Z,171645.46,1635277868,full,ni_sequenzen,NI_Sequenzen,,,,,,,,,,,,,,
,Screen_2,canvas.Screen,0_2_23_1,,skipped,24,170681,,,170679,,170681,2021-10-26T19:54:03.011Z,171645.46,1635277868,full,ni_sequenzen,NI_Sequenzen,,,,,,,,,,,,,,
,Screen_3,canvas.Screen,0_2_23_2,,skipped,24,170682,,,170679,,170683,2021-10-26T19:54:03.013Z,171645.46,1635277868,full,ni_sequenzen,NI_Sequenzen,,,,,,,,,,,,,,
,Screen_4,canvas.Screen,0_2_23_3,,skipped,24,170684,,,170679,,170684,2021-10-26T19:54:03.014Z,171645.46,1635277868,full,ni_sequenzen,NI_Sequenzen,,,,,,,,,,,,,,
,Screen_5,canvas.Screen,0_2_23_4,,skipped,24,170685,,,170679,,170685,2021-10-26T19:54:03.016Z,171645.46,1635277868,full,ni_sequenzen,NI_Sequenzen,,,,,,,,,,,,,,
,Screen_6,canvas.Screen,0_2_23_5,,skipped,24,170686,,,170679,,170686,2021-10-26T19:54:03.017Z,171645.46,1635277868,full,ni_sequenzen,NI_Sequenzen,,,,,,,,,,,,,,
,Sequence,flow.Sequence,0_2_23,,completion,24,170678,,,170679,,170687,2021-10-26T19:54:03.017Z,171645.46,1635277868,full,ni_sequenzen,NI_Sequenzen,,,,,,,,,,,,,,
,Screen_1,canvas.Screen,0_2_24_0,,skipped,25,170690,,,170690,,170690,2021-10-26T19:54:03.021Z,171645.46,1635277868,full,ni_sequenzen,NI_Sequenzen,,,,,,,,,,,,,,
,Screen_2,canvas.Screen,0_2_24_1,,skipped,25,170691,,,170690,,170692,2021-10-26T19:54:03.022Z,171645.46,1635277868,full,ni_sequenzen,NI_Sequenzen,,,,,,,,,,,,,,
,Screen_3,canvas.Screen,0_2_24_2,,skipped,25,170693,,,170690,,170693,2021-10-26T19:54:03.024Z,171645.46,1635277868,full,ni_sequenzen,NI_Sequenzen,,,,,,,,,,,,,,
,Screen_4,canvas.Screen,0_2_24_3,,skipped,25,170694,,,170690,,170694,2021-10-26T19:54:03.024Z,171645.46,1635277868,full,ni_sequenzen,NI_Sequenzen,,,,,,,,,,,,,,
,Screen_5,canvas.Screen,0_2_24_4,,skipped,25,170695,,,170690,,170695,2021-10-26T19:54:03.026Z,171645.46,1635277868,full,ni_sequenzen,NI_Sequenzen,,,,,,,,,,,,,,
,Screen_6,canvas.Screen,0_2_24_5,,skipped,25,170696,,,170690,,170696,2021-10-26T19:54:03.027Z,171645.46,1635277868,full,ni_sequenzen,NI_Sequenzen,,,,,,,,,,,,,,
,Sequence,flow.Sequence,0_2_24,,completion,25,170687,,,170690,,170696,2021-10-26T19:54:03.027Z,171645.46,1635277868,full,ni_sequenzen,NI_Sequenzen,,,,,,,,,,,,,,
,Screen_1,canvas.Screen,0_2_25_0,,skipped,26,170698,,,170698,,170699,2021-10-26T19:54:03.029Z,171645.46,1635277868,full,ni_sequenzen,NI_Sequenzen,,,,,,,,,,,,,,
,Screen_2,canvas.Screen,0_2_25_1,,skipped,26,170700,,,170698,,170700,2021-10-26T19:54:03.031Z,171645.46,1635277868,full,ni_sequenzen,NI_Sequenzen,,,,,,,,,,,,,,
,Screen_3,canvas.Screen,0_2_25_2,,skipped,26,170701,,,170698,,170701,2021-10-26T19:54:03.032Z,171645.46,1635277868,full,ni_sequenzen,NI_Sequenzen,,,,,,,,,,,,,,
,Screen_4,canvas.Screen,0_2_25_3,,skipped,26,170702,,,170698,,170702,2021-10-26T19:54:03.032Z,171645.46,1635277868,full,ni_sequenzen,NI_Sequenzen,,,,,,,,,,,,,,
,Screen_5,canvas.Screen,0_2_25_4,,skipped,26,170703,,,170698,,170703,2021-10-26T19:54:03.034Z,171645.46,1635277868,full,ni_sequenzen,NI_Sequenzen,,,,,,,,,,,,,,
,Screen_6,canvas.Screen,0_2_25_5,,skipped,26,170704,,,170698,,170704,2021-10-26T19:54:03.035Z,171645.46,1635277868,full,ni_sequenzen,NI_Sequenzen,,,,,,,,,,,,,,
,Sequence,flow.Sequence,0_2_25,,completion,26,170697,,,170698,,170705,2021-10-26T19:54:03.035Z,171645.46,1635277868,full,ni_sequenzen,NI_Sequenzen,,,,,,,,,,,,,,
,Screen_1,canvas.Screen,0_2_26_0,,skipped,27,170706,,,170706,,170706,2021-10-26T19:54:03.036Z,171645.46,1635277868,full,ni_sequenzen,NI_Sequenzen,,,,,,,,,,,,,,
,Screen_2,canvas.Screen,0_2_26_1,,skipped,27,170707,,,170706,,170707,2021-10-26T19:54:03.037Z,171645.46,1635277868,full,ni_sequenzen,NI_Sequenzen,,,,,,,,,,,,,,
,Screen_3,canvas.Screen,0_2_26_2,,skipped,27,170708,,,170706,,170708,2021-10-26T19:54:03.038Z,171645.46,1635277868,full,ni_sequenzen,NI_Sequenzen,,,,,,,,,,,,,,
,Screen_4,canvas.Screen,0_2_26_3,,skipped,27,170709,,,170706,,170709,2021-10-26T19:54:03.039Z,171645.46,1635277868,full,ni_sequenzen,NI_Sequenzen,,,,,,,,,,,,,,
,Screen_5,canvas.Screen,0_2_26_4,,skipped,27,170710,,,170706,,170710,2021-10-26T19:54:03.041Z,171645.46,1635277868,full,ni_sequenzen,NI_Sequenzen,,,,,,,,,,,,,,
,Screen_6,canvas.Screen,0_2_26_5,,skipped,27,170711,,,170706,,170712,2021-10-26T19:54:03.042Z,171645.46,1635277868,full,ni_sequenzen,NI_Sequenzen,,,,,,,,,,,,,,
,Sequence,flow.Sequence,0_2_26,,completion,27,170705,,,170706,,170712,2021-10-26T19:54:03.042Z,171645.46,1635277868,full,ni_sequenzen,NI_Sequenzen,,,,,,,,,,,,,,
,Screen_1,canvas.Screen,0_2_27_0,,skipped,28,170713,,,170713,,170713,2021-10-26T19:54:03.043Z,171645.46,1635277868,full,ni_sequenzen,NI_Sequenzen,,,,,,,,,,,,,,
,Screen_2,canvas.Screen,0_2_27_1,,skipped,28,170715,,,170713,,170715,2021-10-26T19:54:03.045Z,171645.46,1635277868,full,ni_sequenzen,NI_Sequenzen,,,,,,,,,,,,,,
,Screen_3,canvas.Screen,0_2_27_2,,skipped,28,170715,,,170713,,170716,2021-10-26T19:54:03.046Z,171645.46,1635277868,full,ni_sequenzen,NI_Sequenzen,,,,,,,,,,,,,,
,Screen_4,canvas.Screen,0_2_27_3,,skipped,28,170717,,,170713,,170717,2021-10-26T19:54:03.047Z,171645.46,1635277868,full,ni_sequenzen,NI_Sequenzen,,,,,,,,,,,,,,
,Screen_5,canvas.Screen,0_2_27_4,,skipped,28,170718,,,170713,,170718,2021-10-26T19:54:03.048Z,171645.46,1635277868,full,ni_sequenzen,NI_Sequenzen,,,,,,,,,,,,,,
,Screen_6,canvas.Screen,0_2_27_5,,skipped,28,170719,,,170713,,170719,2021-10-26T19:54:03.049Z,171645.46,1635277868,full,ni_sequenzen,NI_Sequenzen,,,,,,,,,,,,,,
,Sequence,flow.Sequence,0_2_27,,completion,28,170712,,,170713,,170719,2021-10-26T19:54:03.050Z,171645.46,1635277868,full,ni_sequenzen,NI_Sequenzen,,,,,,,,,,,,,,
,Screen_1,canvas.Screen,0_2_28_0,,skipped,29,170721,,,170721,,170721,2021-10-26T19:54:03.051Z,171645.46,1635277868,full,ni_sequenzen,NI_Sequenzen,,,,,,,,,,,,,,
,Screen_2,canvas.Screen,0_2_28_1,,skipped,29,170722,,,170721,,170722,2021-10-26T19:54:03.052Z,171645.46,1635277868,full,ni_sequenzen,NI_Sequenzen,,,,,,,,,,,,,,
,Screen_3,canvas.Screen,0_2_28_2,,skipped,29,170723,,,170721,,170723,2021-10-26T19:54:03.053Z,171645.46,1635277868,full,ni_sequenzen,NI_Sequenzen,,,,,,,,,,,,,,
,Screen_4,canvas.Screen,0_2_28_3,,skipped,29,170724,,,170721,,170724,2021-10-26T19:54:03.054Z,171645.46,1635277868,full,ni_sequenzen,NI_Sequenzen,,,,,,,,,,,,,,
,Screen_5,canvas.Screen,0_2_28_4,,skipped,29,170725,,,170721,,170725,2021-10-26T19:54:03.056Z,171645.46,1635277868,full,ni_sequenzen,NI_Sequenzen,,,,,,,,,,,,,,
,Screen_6,canvas.Screen,0_2_28_5,,skipped,29,170726,,,170721,,170726,2021-10-26T19:54:03.057Z,171645.46,1635277868,full,ni_sequenzen,NI_Sequenzen,,,,,,,,,,,,,,
,Sequence,flow.Sequence,0_2_28,,completion,29,170720,,,170721,,170726,2021-10-26T19:54:03.057Z,171645.46,1635277868,full,ni_sequenzen,NI_Sequenzen,,,,,,,,,,,,,,
,Screen_1,canvas.Screen,0_2_29_0,,skipped,30,170728,,,170728,,170728,2021-10-26T19:54:03.059Z,171645.46,1635277868,full,ni_sequenzen,NI_Sequenzen,,,,,,,,,,,,,,
,Screen_2,canvas.Screen,0_2_29_1,,skipped,30,170730,,,170728,,170730,2021-10-26T19:54:03.061Z,171645.46,1635277868,full,ni_sequenzen,NI_Sequenzen,,,,,,,,,,,,,,
,Screen_3,canvas.Screen,0_2_29_2,,skipped,30,170732,,,170728,,170732,2021-10-26T19:54:03.062Z,171645.46,1635277868,full,ni_sequenzen,NI_Sequenzen,,,,,,,,,,,,,,
,Screen_4,canvas.Screen,0_2_29_3,,skipped,30,170733,,,170728,,170733,2021-10-26T19:54:03.063Z,171645.46,1635277868,full,ni_sequenzen,NI_Sequenzen,,,,,,,,,,,,,,
,Screen_5,canvas.Screen,0_2_29_4,,skipped,30,170734,,,170728,,170734,2021-10-26T19:54:03.065Z,171645.46,1635277868,full,ni_sequenzen,NI_Sequenzen,,,,,,,,,,,,,,
,Screen_6,canvas.Screen,0_2_29_5,,skipped,30,170735,,,170728,,170736,2021-10-26T19:54:03.066Z,171645.46,1635277868,full,ni_sequenzen,NI_Sequenzen,,,,,,,,,,,,,,
,Sequence,flow.Sequence,0_2_29,,completion,30,170727,,,170728,,170736,2021-10-26T19:54:03.066Z,171645.46,1635277868,full,ni_sequenzen,NI_Sequenzen,,,,,,,,,,,,,,
,Instructions_II,flow.Loop,0_2,,completion,,91872,91874.42,91889.88,170728,78838.12,170736,2021-10-26T19:54:03.066Z,171645.46,1635277868,full,ni_sequenzen,NI_Sequenzen,,,,,,,,,,,,,,
,Move,canvas.Screen,0_3_0_0_0_0,right,response,,170762,170762.42,171645.46,182591,10945.540000000008,182594,2021-10-26T19:54:14.924Z,182603.74,1635277868,full,ni_sequenzen,NI_Sequenzen,1,0,,,,,,,,,,,,
,Move,canvas.Screen,0_3_0_0_0_1,down,response,,182603,182602.12,182603.74,183013,409.2600000000093,183017,2021-10-26T19:54:15.348Z,183036.74,1635277868,full,ni_sequenzen,NI_Sequenzen,2,0,,,,,,,,,,,,
,Move,canvas.Screen,0_3_0_0_0_2,right,response,,183025,183025.56,183036.74,183372,335.2600000000093,183385,2021-10-26T19:54:15.715Z,183403.12,1635277868,full,ni_sequenzen,NI_Sequenzen,3,0,,,,,,,,,,,,
,Move,canvas.Screen,0_3_0_0_0_3,down,response,,183392,183392.5,183403.12,183700,296.88000000000466,183714,2021-10-26T19:54:16.044Z,183819.48,1635277868,full,ni_sequenzen,NI_Sequenzen,4,0,,,,,,,,,,,,
,Move,canvas.Screen,0_3_0_0_0_4,-999,skipped,,183721,,,183700,,183721,2021-10-26T19:54:16.052Z,183819.48,1635277868,full,ni_sequenzen,NI_Sequenzen,5,0,,,,,,,,,,,,
,Move,canvas.Screen,0_3_0_0_0_5,-999,skipped,,183731,,,183700,,183731,2021-10-26T19:54:16.061Z,183819.48,1635277868,full,ni_sequenzen,NI_Sequenzen,6,0,,,,,,,,,,,,
,Move,canvas.Screen,0_3_0_0_0_6,-999,skipped,,183739,,,183700,,183739,2021-10-26T19:54:16.070Z,183819.48,1635277868,full,ni_sequenzen,NI_Sequenzen,7,0,,,,,,,,,,,,
,Move,canvas.Screen,0_3_0_0_0_7,-999,skipped,,183748,,,183700,,183748,2021-10-26T19:54:16.078Z,183819.48,1635277868,full,ni_sequenzen,NI_Sequenzen,8,0,,,,,,,,,,,,
,Move,canvas.Screen,0_3_0_0_0_8,-999,skipped,,183753,,,183700,,183753,2021-10-26T19:54:16.083Z,183819.48,1635277868,full,ni_sequenzen,NI_Sequenzen,9,0,,,,,,,,,,,,
,Move,canvas.Screen,0_3_0_0_0_9,-999,skipped,,183761,,,183700,,183761,2021-10-26T19:54:16.091Z,183819.48,1635277868,full,ni_sequenzen,NI_Sequenzen,10,0,,,,,,,,,,,,
,Move,canvas.Screen,0_3_0_0_0_10,-999,skipped,,183771,,,183700,,183771,2021-10-26T19:54:16.101Z,183819.48,1635277868,full,ni_sequenzen,NI_Sequenzen,11,0,,,,,,,,,,,,
,Move,canvas.Screen,0_3_0_0_0_11,-999,skipped,,183780,,,183700,,183780,2021-10-26T19:54:16.110Z,183819.48,1635277868,full,ni_sequenzen,NI_Sequenzen,12,0,,,,,,,,,,,,
,Move,canvas.Screen,0_3_0_0_0_12,-999,skipped,,183785,,,183700,,183785,2021-10-26T19:54:16.116Z,183819.48,1635277868,full,ni_sequenzen,NI_Sequenzen,13,0,,,,,,,,,,,,
,Move,canvas.Screen,0_3_0_0_0_13,-999,skipped,,183796,,,183700,,183796,2021-10-26T19:54:16.126Z,183819.48,1635277868,full,ni_sequenzen,NI_Sequenzen,14,0,,,,,,,,,,,,
,Move,canvas.Screen,0_3_0_0_0_14,-999,skipped,,183806,,,183700,,183806,2021-10-26T19:54:16.137Z,183819.48,1635277868,full,ni_sequenzen,NI_Sequenzen,15,0,,,,,,,,,,,,
,Loop,flow.Loop,0_3_0_0_0,-999,completion,,170756,170762.42,171645.46,183700,12054.540000000008,183807,2021-10-26T19:54:16.137Z,183819.48,1635277868,full,ni_sequenzen,NI_Sequenzen,,0,,,,,,,,,,,,
,Feedback,canvas.Screen,0_3_0_0_1,,timeout,,183812,183811.88,183819.48,187799.76,3996.9400000000023,187801,2021-10-26T19:54:20.132Z,187816.42,1635277868,full,ni_sequenzen,NI_Sequenzen,,0,,,,,,,,,,,,
,Trial,flow.Sequence,0_3_0_0,,completion,,170749,170762.42,171645.46,187799.76,16154.300000000017,187802,2021-10-26T19:54:20.132Z,187833.08,1635277868,full,ni_sequenzen,NI_Sequenzen,,0,,,,,,,,,,,,
,Move,canvas.Screen,0_3_0_1_0_0,right,response,,187815,187816.42,187833.08,200793,12959.920000000013,200801,2021-10-26T19:54:33.133Z,200823.12,1635277868,full,ni_sequenzen,NI_Sequenzen,1,1,,,,,,,,,,,,
,Move,canvas.Screen,0_3_0_1_0_1,down,response,,200808,200808.62,200823.12,200935,111.88000000000466,200945,2021-10-26T19:54:33.276Z,200956.36,1635277868,full,ni_sequenzen,NI_Sequenzen,2,1,,,,,,,,,,,,
,Move,canvas.Screen,0_3_0_1_0_2,right,response,,200952,200951.64,200956.36,201449,492.64000000001397,201457,2021-10-26T19:54:33.787Z,201472.62,1635277868,full,ni_sequenzen,NI_Sequenzen,3,1,,,,,,,,,,,,
,Move,canvas.Screen,0_3_0_1_0_3,down,response,,201468,201467.56,201472.62,201669,196.38000000000466,201680,2021-10-26T19:54:34.011Z,201755.74,1635277868,full,ni_sequenzen,NI_Sequenzen,4,1,,,,,,,,,,,,
,Move,canvas.Screen,0_3_0_1_0_4,-999,skipped,,201686,,,201669,,201686,2021-10-26T19:54:34.017Z,201755.74,1635277868,full,ni_sequenzen,NI_Sequenzen,5,1,,,,,,,,,,,,
,Move,canvas.Screen,0_3_0_1_0_5,-999,skipped,,201693,,,201669,,201693,2021-10-26T19:54:34.023Z,201755.74,1635277868,full,ni_sequenzen,NI_Sequenzen,6,1,,,,,,,,,,,,
,Move,canvas.Screen,0_3_0_1_0_6,-999,skipped,,201697,,,201669,,201697,2021-10-26T19:54:34.027Z,201755.74,1635277868,full,ni_sequenzen,NI_Sequenzen,7,1,,,,,,,,,,,,
,Move,canvas.Screen,0_3_0_1_0_7,-999,skipped,,201701,,,201669,,201701,2021-10-26T19:54:34.032Z,201755.74,1635277868,full,ni_sequenzen,NI_Sequenzen,8,1,,,,,,,,,,,,
,Move,canvas.Screen,0_3_0_1_0_8,-999,skipped,,201707,,,201669,,201707,2021-10-26T19:54:34.038Z,201755.74,1635277868,full,ni_sequenzen,NI_Sequenzen,9,1,,,,,,,,,,,,
,Move,canvas.Screen,0_3_0_1_0_9,-999,skipped,,201713,,,201669,,201713,2021-10-26T19:54:34.044Z,201755.74,1635277868,full,ni_sequenzen,NI_Sequenzen,10,1,,,,,,,,,,,,
,Move,canvas.Screen,0_3_0_1_0_10,-999,skipped,,201718,,,201669,,201718,2021-10-26T19:54:34.048Z,201755.74,1635277868,full,ni_sequenzen,NI_Sequenzen,11,1,,,,,,,,,,,,
,Move,canvas.Screen,0_3_0_1_0_11,-999,skipped,,201722,,,201669,,201722,2021-10-26T19:54:34.054Z,201755.74,1635277868,full,ni_sequenzen,NI_Sequenzen,12,1,,,,,,,,,,,,
,Move,canvas.Screen,0_3_0_1_0_12,-999,skipped,,201728,,,201669,,201728,2021-10-26T19:54:34.058Z,201755.74,1635277868,full,ni_sequenzen,NI_Sequenzen,13,1,,,,,,,,,,,,
,Move,canvas.Screen,0_3_0_1_0_13,-999,skipped,,201732,,,201669,,201732,2021-10-26T19:54:34.063Z,201755.74,1635277868,full,ni_sequenzen,NI_Sequenzen,14,1,,,,,,,,,,,,
,Move,canvas.Screen,0_3_0_1_0_14,-999,skipped,,201737,,,201669,,201737,2021-10-26T19:54:34.067Z,201755.74,1635277868,full,ni_sequenzen,NI_Sequenzen,15,1,,,,,,,,,,,,
,Loop,flow.Loop,0_3_0_1_0,-999,completion,,187808,187816.42,187833.08,201669,13835.920000000013,201737,2021-10-26T19:54:34.068Z,201755.74,1635277868,full,ni_sequenzen,NI_Sequenzen,,1,,,,,,,,,,,,
,Feedback,canvas.Screen,0_3_0_1_1,,timeout,,201742,201741.72,201755.74,205736.02,3996.9400000000023,205737,2021-10-26T19:54:38.067Z,205752.68,1635277868,full,ni_sequenzen,NI_Sequenzen,,1,,,,,,,,,,,,
,Trial,flow.Sequence,0_3_0_1,,completion,,187802,187816.42,187833.08,205736.02,17902.940000000002,205737,2021-10-26T19:54:38.067Z,205769.34,1635277868,full,ni_sequenzen,NI_Sequenzen,,1,,,,,,,,,,,,
,Move,canvas.Screen,0_3_0_2_0_0,down,response,,205751,205752.68,205769.34,224919,19149.660000000003,224921,2021-10-26T19:54:57.252Z,224937.98,1635277868,full,ni_sequenzen,NI_Sequenzen,1,2,,,,,,,,,,,,
,Move,canvas.Screen,0_3_0_2_0_1,left,response,,224927,224927.26,224937.98,225341,403.0199999999895,225353,2021-10-26T19:54:57.684Z,225370.98,1635277868,full,ni_sequenzen,NI_Sequenzen,2,2,,,,,,,,,,,,
,Move,canvas.Screen,0_3_0_2_0_2,down,response,,225359,225359.72,225370.98,227403,2032.0199999999895,227408,2021-10-26T19:54:59.739Z,227419.42,1635277868,full,ni_sequenzen,NI_Sequenzen,3,2,,,,,,,,,,,,
,Move,canvas.Screen,0_3_0_2_0_3,left,response,,227415,227414.48,227419.42,227794,374.5799999999872,227809,2021-10-26T19:55:00.140Z,227885.72,1635277868,full,ni_sequenzen,NI_Sequenzen,4,2,,,,,,,,,,,,
,Move,canvas.Screen,0_3_0_2_0_4,-999,skipped,,227816,,,227794,,227816,2021-10-26T19:55:00.147Z,227885.72,1635277868,full,ni_sequenzen,NI_Sequenzen,5,2,,,,,,,,,,,,
,Move,canvas.Screen,0_3_0_2_0_5,-999,skipped,,227823,,,227794,,227823,2021-10-26T19:55:00.154Z,227885.72,1635277868,full,ni_sequenzen,NI_Sequenzen,6,2,,,,,,,,,,,,
,Move,canvas.Screen,0_3_0_2_0_6,-999,skipped,,227831,,,227794,,227831,2021-10-26T19:55:00.161Z,227885.72,1635277868,full,ni_sequenzen,NI_Sequenzen,7,2,,,,,,,,,,,,
,Move,canvas.Screen,0_3_0_2_0_7,-999,skipped,,227835,,,227794,,227835,2021-10-26T19:55:00.166Z,227885.72,1635277868,full,ni_sequenzen,NI_Sequenzen,8,2,,,,,,,,,,,,
,Move,canvas.Screen,0_3_0_2_0_8,-999,skipped,,227841,,,227794,,227841,2021-10-26T19:55:00.173Z,227885.72,1635277868,full,ni_sequenzen,NI_Sequenzen,9,2,,,,,,,,,,,,
,Move,canvas.Screen,0_3_0_2_0_9,-999,skipped,,227846,,,227794,,227846,2021-10-26T19:55:00.177Z,227885.72,1635277868,full,ni_sequenzen,NI_Sequenzen,10,2,,,,,,,,,,,,
,Move,canvas.Screen,0_3_0_2_0_10,-999,skipped,,227850,,,227794,,227851,2021-10-26T19:55:00.182Z,227885.72,1635277868,full,ni_sequenzen,NI_Sequenzen,11,2,,,,,,,,,,,,
,Move,canvas.Screen,0_3_0_2_0_11,-999,skipped,,227856,,,227794,,227856,2021-10-26T19:55:00.186Z,227885.72,1635277868,full,ni_sequenzen,NI_Sequenzen,12,2,,,,,,,,,,,,
,Move,canvas.Screen,0_3_0_2_0_12,-999,skipped,,227862,,,227794,,227862,2021-10-26T19:55:00.193Z,227885.72,1635277868,full,ni_sequenzen,NI_Sequenzen,13,2,,,,,,,,,,,,
,Move,canvas.Screen,0_3_0_2_0_13,-999,skipped,,227869,,,227794,,227870,2021-10-26T19:55:00.200Z,227885.72,1635277868,full,ni_sequenzen,NI_Sequenzen,14,2,,,,,,,,,,,,
,Move,canvas.Screen,0_3_0_2_0_14,-999,skipped,,227877,,,227794,,227877,2021-10-26T19:55:00.208Z,227885.72,1635277868,full,ni_sequenzen,NI_Sequenzen,15,2,,,,,,,,,,,,
,Loop,flow.Loop,0_3_0_2_0,-999,completion,,205745,205752.68,205769.34,227794,22024.660000000003,227877,2021-10-26T19:55:00.208Z,227885.72,1635277868,full,ni_sequenzen,NI_Sequenzen,,2,,,,,,,,,,,,
,Feedback,canvas.Screen,0_3_0_2_1,,timeout,,227884,227884.26,227885.72,231866.02,4014.600000000006,231867,2021-10-26T19:55:04.198Z,231900.32,1635277868,full,ni_sequenzen,NI_Sequenzen,,2,,,,,,,,,,,,
,Trial,flow.Sequence,0_3_0_2,,completion,,205738,205752.68,205769.34,231866.02,26096.679999999993,231868,2021-10-26T19:55:04.198Z,231915.98,1635277868,full,ni_sequenzen,NI_Sequenzen,,2,,,,,,,,,,,,
,Move,canvas.Screen,0_3_0_3_0_0,right,response,,231900,231900.32,231915.98,235591,3675.0199999999895,235593,2021-10-26T19:55:07.924Z,235613.14,1635277868,full,ni_sequenzen,NI_Sequenzen,1,3,,,,,,,,,,,,
,Move,canvas.Screen,0_3_0_3_0_1,down,response,,235605,235605.58,235613.14,235732,118.85999999998603,235737,2021-10-26T19:55:08.068Z,235746.38,1635277868,full,ni_sequenzen,NI_Sequenzen,2,3,,,,,,,,,,,,
,Move,canvas.Screen,0_3_0_3_0_2,right,response,,235744,235744.64,235746.38,235950,203.61999999999534,235961,2021-10-26T19:55:08.292Z,235979.52,1635277868,full,ni_sequenzen,NI_Sequenzen,3,3,,,,,,,,,,,,
,Move,canvas.Screen,0_3_0_3_0_3,down,response,,235972,235971.56,235979.52,236122,142.48000000001048,236129,2021-10-26T19:55:08.459Z,236212.68,1635277868,full,ni_sequenzen,NI_Sequenzen,4,3,,,,,,,,,,,,
,Move,canvas.Screen,0_3_0_3_0_4,-999,skipped,,236139,,,236122,,236139,2021-10-26T19:55:08.469Z,236212.68,1635277868,full,ni_sequenzen,NI_Sequenzen,5,3,,,,,,,,,,,,
,Move,canvas.Screen,0_3_0_3_0_5,-999,skipped,,236146,,,236122,,236146,2021-10-26T19:55:08.477Z,236212.68,1635277868,full,ni_sequenzen,NI_Sequenzen,6,3,,,,,,,,,,,,
,Move,canvas.Screen,0_3_0_3_0_6,-999,skipped,,236152,,,236122,,236152,2021-10-26T19:55:08.484Z,236212.68,1635277868,full,ni_sequenzen,NI_Sequenzen,7,3,,,,,,,,,,,,
,Move,canvas.Screen,0_3_0_3_0_7,-999,skipped,,236159,,,236122,,236159,2021-10-26T19:55:08.489Z,236212.68,1635277868,full,ni_sequenzen,NI_Sequenzen,8,3,,,,,,,,,,,,
,Move,canvas.Screen,0_3_0_3_0_8,-999,skipped,,236165,,,236122,,236165,2021-10-26T19:55:08.495Z,236212.68,1635277868,full,ni_sequenzen,NI_Sequenzen,9,3,,,,,,,,,,,,
,Move,canvas.Screen,0_3_0_3_0_9,-999,skipped,,236170,,,236122,,236170,2021-10-26T19:55:08.500Z,236212.68,1635277868,full,ni_sequenzen,NI_Sequenzen,10,3,,,,,,,,,,,,
,Move,canvas.Screen,0_3_0_3_0_10,-999,skipped,,236176,,,236122,,236176,2021-10-26T19:55:08.507Z,236212.68,1635277868,full,ni_sequenzen,NI_Sequenzen,11,3,,,,,,,,,,,,
,Move,canvas.Screen,0_3_0_3_0_11,-999,skipped,,236183,,,236122,,236183,2021-10-26T19:55:08.514Z,236212.68,1635277868,full,ni_sequenzen,NI_Sequenzen,12,3,,,,,,,,,,,,
,Move,canvas.Screen,0_3_0_3_0_12,-999,skipped,,236189,,,236122,,236190,2021-10-26T19:55:08.520Z,236212.68,1635277868,full,ni_sequenzen,NI_Sequenzen,13,3,,,,,,,,,,,,
,Move,canvas.Screen,0_3_0_3_0_13,-999,skipped,,236196,,,236122,,236196,2021-10-26T19:55:08.526Z,236212.68,1635277868,full,ni_sequenzen,NI_Sequenzen,14,3,,,,,,,,,,,,
,Move,canvas.Screen,0_3_0_3_0_14,-999,skipped,,236201,,,236122,,236201,2021-10-26T19:55:08.532Z,236212.68,1635277868,full,ni_sequenzen,NI_Sequenzen,15,3,,,,,,,,,,,,
,Loop,flow.Loop,0_3_0_3_0,-999,completion,,231886,231900.32,231915.98,236122,4206.0199999999895,236201,2021-10-26T19:55:08.532Z,236212.68,1635277868,full,ni_sequenzen,NI_Sequenzen,,3,,,,,,,,,,,,
,Feedback,canvas.Screen,0_3_0_3_1,,timeout,,236207,236206.56,236212.68,240192.96,3997.920000000013,240194,2021-10-26T19:55:12.525Z,240210.6,1635277868,full,ni_sequenzen,NI_Sequenzen,,3,,,,,,,,,,,,
,Trial,flow.Sequence,0_3_0_3,,completion,,231869,231900.32,231915.98,240192.96,8276.979999999981,240194,2021-10-26T19:55:12.525Z,240226.28,1635277868,full,ni_sequenzen,NI_Sequenzen,,3,,,,,,,,,,,,
,Move,canvas.Screen,0_3_0_4_0_0,left,response,,240211,240210.6,240226.28,243560,3333.720000000001,243561,2021-10-26T19:55:15.892Z,243573.72,1635277868,full,ni_sequenzen,NI_Sequenzen,1,4,,,,,,,,,,,,
,Move,canvas.Screen,0_3_0_4_0_1,down,response,,243568,243567.96,243573.72,244778,1204.2799999999988,244793,2021-10-26T19:55:17.125Z,244806.1,1635277868,full,ni_sequenzen,NI_Sequenzen,2,4,,,,,,,,,,,,
,Move,canvas.Screen,0_3_0_4_0_2,down,response,,244801,244801.32,244806.1,244965,158.89999999999418,244977,2021-10-26T19:55:17.308Z,244989.3,1635277868,full,ni_sequenzen,NI_Sequenzen,3,4,,,,,,,,,,,,
,Move,canvas.Screen,0_3_0_4_0_3,left,response,,244984,244983.76,244989.3,245200,210.70000000001164,245209,2021-10-26T19:55:17.539Z,245289.06,1635277868,full,ni_sequenzen,NI_Sequenzen,4,4,,,,,,,,,,,,
,Move,canvas.Screen,0_3_0_4_0_4,-999,skipped,,245216,,,245200,,245216,2021-10-26T19:55:17.546Z,245289.06,1635277868,full,ni_sequenzen,NI_Sequenzen,5,4,,,,,,,,,,,,
,Move,canvas.Screen,0_3_0_4_0_5,-999,skipped,,245222,,,245200,,245222,2021-10-26T19:55:17.552Z,245289.06,1635277868,full,ni_sequenzen,NI_Sequenzen,6,4,,,,,,,,,,,,
,Move,canvas.Screen,0_3_0_4_0_6,-999,skipped,,245227,,,245200,,245227,2021-10-26T19:55:17.558Z,245289.06,1635277868,full,ni_sequenzen,NI_Sequenzen,7,4,,,,,,,,,,,,
,Move,canvas.Screen,0_3_0_4_0_7,-999,skipped,,245231,,,245200,,245231,2021-10-26T19:55:17.563Z,245289.06,1635277868,full,ni_sequenzen,NI_Sequenzen,8,4,,,,,,,,,,,,
,Move,canvas.Screen,0_3_0_4_0_8,-999,skipped,,245237,,,245200,,245237,2021-10-26T19:55:17.568Z,245289.06,1635277868,full,ni_sequenzen,NI_Sequenzen,9,4,,,,,,,,,,,,
,Move,canvas.Screen,0_3_0_4_0_9,-999,skipped,,245244,,,245200,,245245,2021-10-26T19:55:17.575Z,245289.06,1635277868,full,ni_sequenzen,NI_Sequenzen,10,4,,,,,,,,,,,,
,Move,canvas.Screen,0_3_0_4_0_10,-999,skipped,,245250,,,245200,,245250,2021-10-26T19:55:17.579Z,245289.06,1635277868,full,ni_sequenzen,NI_Sequenzen,11,4,,,,,,,,,,,,
,Move,canvas.Screen,0_3_0_4_0_11,-999,skipped,,245255,,,245200,,245255,2021-10-26T19:55:17.585Z,245289.06,1635277868,full,ni_sequenzen,NI_Sequenzen,12,4,,,,,,,,,,,,
,Move,canvas.Screen,0_3_0_4_0_12,-999,skipped,,245260,,,245200,,245260,2021-10-26T19:55:17.590Z,245289.06,1635277868,full,ni_sequenzen,NI_Sequenzen,13,4,,,,,,,,,,,,
,Move,canvas.Screen,0_3_0_4_0_13,-999,skipped,,245264,,,245200,,245265,2021-10-26T19:55:17.595Z,245289.06,1635277868,full,ni_sequenzen,NI_Sequenzen,14,4,,,,,,,,,,,,
,Move,canvas.Screen,0_3_0_4_0_14,-999,skipped,,245271,,,245200,,245271,2021-10-26T19:55:17.601Z,245289.06,1635277868,full,ni_sequenzen,NI_Sequenzen,15,4,,,,,,,,,,,,
,Loop,flow.Loop,0_3_0_4_0,-999,completion,,240205,240210.6,240226.28,245200,4973.720000000001,245271,2021-10-26T19:55:17.601Z,245289.06,1635277868,full,ni_sequenzen,NI_Sequenzen,,4,,,,,,,,,,,,
,Feedback,canvas.Screen,0_3_0_4_1,,timeout,,245275,245275.04,245289.06,249269.34,3996.9400000000023,249270,2021-10-26T19:55:21.601Z,249286,1635277868,full,ni_sequenzen,NI_Sequenzen,,4,,,,,,,,,,,,
,Trial,flow.Sequence,0_3_0_4,,completion,,240195,240210.6,240226.28,249269.34,9043.059999999998,249270,2021-10-26T19:55:21.601Z,249302.66,1635277868,full,ni_sequenzen,NI_Sequenzen,,4,,,,,,,,,,,,
,Move,canvas.Screen,0_3_0_5_0_0,down,response,,249285,249286,249302.66,254263,4960.3399999999965,254273,2021-10-26T19:55:26.604Z,254282.18,1635277868,full,ni_sequenzen,NI_Sequenzen,1,5,,,,,,,,,,,,
,Move,canvas.Screen,0_3_0_5_0_1,right,response,,254280,254279.38,254282.18,255544,1261.820000000007,255546,2021-10-26T19:55:27.876Z,255564.52,1635277868,full,ni_sequenzen,NI_Sequenzen,2,5,,,,,,,,,,,,
,Move,canvas.Screen,0_3_0_5_0_2,right,response,,255554,255553.7,255564.52,255716,151.48000000001048,255721,2021-10-26T19:55:28.051Z,255731.06,1635277868,full,ni_sequenzen,NI_Sequenzen,3,5,,,,,,,,,,,,
,Move,canvas.Screen,0_3_0_5_0_3,down,response,,255731,255730.76,255731.06,255966,234.94000000000233,255979,2021-10-26T19:55:28.309Z,256047.5,1635277868,full,ni_sequenzen,NI_Sequenzen,4,5,,,,,,,,,,,,
,Move,canvas.Screen,0_3_0_5_0_4,-999,skipped,,255985,,,255966,,255985,2021-10-26T19:55:28.315Z,256047.5,1635277868,full,ni_sequenzen,NI_Sequenzen,5,5,,,,,,,,,,,,
,Move,canvas.Screen,0_3_0_5_0_5,-999,skipped,,255989,,,255966,,255989,2021-10-26T19:55:28.320Z,256047.5,1635277868,full,ni_sequenzen,NI_Sequenzen,6,5,,,,,,,,,,,,
,Move,canvas.Screen,0_3_0_5_0_6,-999,skipped,,255995,,,255966,,255995,2021-10-26T19:55:28.326Z,256047.5,1635277868,full,ni_sequenzen,NI_Sequenzen,7,5,,,,,,,,,,,,
,Move,canvas.Screen,0_3_0_5_0_7,-999,skipped,,256000,,,255966,,256000,2021-10-26T19:55:28.331Z,256047.5,1635277868,full,ni_sequenzen,NI_Sequenzen,8,5,,,,,,,,,,,,
,Move,canvas.Screen,0_3_0_5_0_8,-999,skipped,,256006,,,255966,,256006,2021-10-26T19:55:28.336Z,256047.5,1635277868,full,ni_sequenzen,NI_Sequenzen,9,5,,,,,,,,,,,,
,Move,canvas.Screen,0_3_0_5_0_9,-999,skipped,,256011,,,255966,,256011,2021-10-26T19:55:28.342Z,256047.5,1635277868,full,ni_sequenzen,NI_Sequenzen,10,5,,,,,,,,,,,,
,Move,canvas.Screen,0_3_0_5_0_10,-999,skipped,,256016,,,255966,,256017,2021-10-26T19:55:28.347Z,256047.5,1635277868,full,ni_sequenzen,NI_Sequenzen,11,5,,,,,,,,,,,,
,Move,canvas.Screen,0_3_0_5_0_11,-999,skipped,,256021,,,255966,,256021,2021-10-26T19:55:28.352Z,256047.5,1635277868,full,ni_sequenzen,NI_Sequenzen,12,5,,,,,,,,,,,,
,Move,canvas.Screen,0_3_0_5_0_12,-999,skipped,,256026,,,255966,,256027,2021-10-26T19:55:28.357Z,256047.5,1635277868,full,ni_sequenzen,NI_Sequenzen,13,5,,,,,,,,,,,,
,Move,canvas.Screen,0_3_0_5_0_13,-999,skipped,,256031,,,255966,,256031,2021-10-26T19:55:28.361Z,256047.5,1635277868,full,ni_sequenzen,NI_Sequenzen,14,5,,,,,,,,,,,,
,Move,canvas.Screen,0_3_0_5_0_14,-999,skipped,,256036,,,255966,,256036,2021-10-26T19:55:28.366Z,256047.5,1635277868,full,ni_sequenzen,NI_Sequenzen,15,5,,,,,,,,,,,,
,Loop,flow.Loop,0_3_0_5_0,-999,completion,,249279,249286,249302.66,255966,6663.3399999999965,256037,2021-10-26T19:55:28.366Z,256047.5,1635277868,full,ni_sequenzen,NI_Sequenzen,,5,,,,,,,,,,,,
,Feedback,canvas.Screen,0_3_0_5_1,,timeout,,256041,256040.94,256047.5,260027.78,3996.9400000000023,260029,2021-10-26T19:55:32.359Z,260044.44,1635277868,full,ni_sequenzen,NI_Sequenzen,,5,,,,,,,,,,,,
,Trial,flow.Sequence,0_3_0_5,,completion,,249271,249286,249302.66,260027.78,10725.119999999995,260029,2021-10-26T19:55:32.359Z,260061.08,1635277868,full,ni_sequenzen,NI_Sequenzen,,5,,,,,,,,,,,,
,Move,canvas.Screen,0_3_0_6_0_0,down,response,,260040,260044.44,260061.08,268357,8295.920000000013,268361,2021-10-26T19:55:40.692Z,268371.38,1635277868,full,ni_sequenzen,NI_Sequenzen,1,6,,,,,,,,,,,,
,Move,canvas.Screen,0_3_0_6_0_1,down,response,,268366,268365.72,268371.38,269513,1141.6199999999953,269529,2021-10-26T19:55:41.859Z,269537.16,1635277868,full,ni_sequenzen,NI_Sequenzen,2,6,,,,,,,,,,,,
,Move,canvas.Screen,0_3_0_6_0_2,right,response,,269537,269536.32,269537.16,270638,1100.8400000000256,270641,2021-10-26T19:55:42.971Z,270652.98,1635277868,full,ni_sequenzen,NI_Sequenzen,3,6,,,,,,,,,,,,
,Move,canvas.Screen,0_3_0_6_0_3,right,response,,270646,270646,270652.98,270810,157.02000000001863,270817,2021-10-26T19:55:43.147Z,270886.12,1635277868,full,ni_sequenzen,NI_Sequenzen,4,6,,,,,,,,,,,,
,Move,canvas.Screen,0_3_0_6_0_4,-999,skipped,,270824,,,270810,,270825,2021-10-26T19:55:43.155Z,270886.12,1635277868,full,ni_sequenzen,NI_Sequenzen,5,6,,,,,,,,,,,,
,Move,canvas.Screen,0_3_0_6_0_5,-999,skipped,,270830,,,270810,,270830,2021-10-26T19:55:43.160Z,270886.12,1635277868,full,ni_sequenzen,NI_Sequenzen,6,6,,,,,,,,,,,,
,Move,canvas.Screen,0_3_0_6_0_6,-999,skipped,,270835,,,270810,,270835,2021-10-26T19:55:43.165Z,270886.12,1635277868,full,ni_sequenzen,NI_Sequenzen,7,6,,,,,,,,,,,,
,Move,canvas.Screen,0_3_0_6_0_7,-999,skipped,,270842,,,270810,,270842,2021-10-26T19:55:43.173Z,270886.12,1635277868,full,ni_sequenzen,NI_Sequenzen,8,6,,,,,,,,,,,,
,Move,canvas.Screen,0_3_0_6_0_8,-999,skipped,,270848,,,270810,,270848,2021-10-26T19:55:43.178Z,270886.12,1635277868,full,ni_sequenzen,NI_Sequenzen,9,6,,,,,,,,,,,,
,Move,canvas.Screen,0_3_0_6_0_9,-999,skipped,,270853,,,270810,,270854,2021-10-26T19:55:43.184Z,270886.12,1635277868,full,ni_sequenzen,NI_Sequenzen,10,6,,,,,,,,,,,,
,Move,canvas.Screen,0_3_0_6_0_10,-999,skipped,,270860,,,270810,,270860,2021-10-26T19:55:43.190Z,270886.12,1635277868,full,ni_sequenzen,NI_Sequenzen,11,6,,,,,,,,,,,,
,Move,canvas.Screen,0_3_0_6_0_11,-999,skipped,,270865,,,270810,,270865,2021-10-26T19:55:43.195Z,270886.12,1635277868,full,ni_sequenzen,NI_Sequenzen,12,6,,,,,,,,,,,,
,Move,canvas.Screen,0_3_0_6_0_12,-999,skipped,,270870,,,270810,,270870,2021-10-26T19:55:43.200Z,270886.12,1635277868,full,ni_sequenzen,NI_Sequenzen,13,6,,,,,,,,,,,,
,Move,canvas.Screen,0_3_0_6_0_13,-999,skipped,,270875,,,270810,,270875,2021-10-26T19:55:43.205Z,270886.12,1635277868,full,ni_sequenzen,NI_Sequenzen,14,6,,,,,,,,,,,,
,Move,canvas.Screen,0_3_0_6_0_14,-999,skipped,,270880,,,270810,,270880,2021-10-26T19:55:43.210Z,270886.12,1635277868,full,ni_sequenzen,NI_Sequenzen,15,6,,,,,,,,,,,,
,Loop,flow.Loop,0_3_0_6_0,-999,completion,,260035,260044.44,260061.08,270810,10748.920000000013,270880,2021-10-26T19:55:43.210Z,270886.12,1635277868,full,ni_sequenzen,NI_Sequenzen,,6,,,,,,,,,,,,
,Feedback,canvas.Screen,0_3_0_6_1,,timeout,,270884,270883.5,270886.12,274866.42,4001.359999999986,274868,2021-10-26T19:55:47.198Z,274887.48,1635277868,full,ni_sequenzen,NI_Sequenzen,,6,,,,,,,,,,,,
,Trial,flow.Sequence,0_3_0_6,,completion,,260030,260044.44,260061.08,274866.42,14805.339999999997,274868,2021-10-26T19:55:47.198Z,274899.72,1635277868,full,ni_sequenzen,NI_Sequenzen,,6,,,,,,,,,,,,
,Move,canvas.Screen,0_3_0_7_0_0,right,response,,274887,274887.48,274899.72,277294,2394.280000000028,277304,2021-10-26T19:55:49.635Z,277314.54,1635277868,full,ni_sequenzen,NI_Sequenzen,1,7,,,,,,,,,,,,
,Move,canvas.Screen,0_3_0_7_0_1,down,response,,277313,277312.38,277314.54,277372,57.460000000020955,277384,2021-10-26T19:55:49.715Z,277397.8,1635277868,full,ni_sequenzen,NI_Sequenzen,2,7,,,,,,,,,,,,
,Move,canvas.Screen,0_3_0_7_0_2,right,response,,277389,277389.5,277397.8,277560,162.20000000001164,277560,2021-10-26T19:55:49.891Z,277581,1635277868,full,ni_sequenzen,NI_Sequenzen,3,7,,,,,,,,,,,,
,Move,canvas.Screen,0_3_0_7_0_3,down,response,,277566,277566.64,277581,277841,260,277849,2021-10-26T19:55:50.180Z,277914.08,1635277868,full,ni_sequenzen,NI_Sequenzen,4,7,,,,,,,,,,,,
,Move,canvas.Screen,0_3_0_7_0_4,-999,skipped,,277855,,,277841,,277855,2021-10-26T19:55:50.186Z,277914.08,1635277868,full,ni_sequenzen,NI_Sequenzen,5,7,,,,,,,,,,,,
,Move,canvas.Screen,0_3_0_7_0_5,-999,skipped,,277860,,,277841,,277860,2021-10-26T19:55:50.191Z,277914.08,1635277868,full,ni_sequenzen,NI_Sequenzen,6,7,,,,,,,,,,,,
,Move,canvas.Screen,0_3_0_7_0_6,-999,skipped,,277865,,,277841,,277865,2021-10-26T19:55:50.196Z,277914.08,1635277868,full,ni_sequenzen,NI_Sequenzen,7,7,,,,,,,,,,,,
,Move,canvas.Screen,0_3_0_7_0_7,-999,skipped,,277872,,,277841,,277872,2021-10-26T19:55:50.203Z,277914.08,1635277868,full,ni_sequenzen,NI_Sequenzen,8,7,,,,,,,,,,,,
,Move,canvas.Screen,0_3_0_7_0_8,-999,skipped,,277877,,,277841,,277877,2021-10-26T19:55:50.207Z,277914.08,1635277868,full,ni_sequenzen,NI_Sequenzen,9,7,,,,,,,,,,,,
,Move,canvas.Screen,0_3_0_7_0_9,-999,skipped,,277882,,,277841,,277882,2021-10-26T19:55:50.212Z,277914.08,1635277868,full,ni_sequenzen,NI_Sequenzen,10,7,,,,,,,,,,,,
,Move,canvas.Screen,0_3_0_7_0_10,-999,skipped,,277888,,,277841,,277888,2021-10-26T19:55:50.218Z,277914.08,1635277868,full,ni_sequenzen,NI_Sequenzen,11,7,,,,,,,,,,,,
,Move,canvas.Screen,0_3_0_7_0_11,-999,skipped,,277891,,,277841,,277891,2021-10-26T19:55:50.222Z,277914.08,1635277868,full,ni_sequenzen,NI_Sequenzen,12,7,,,,,,,,,,,,
,Move,canvas.Screen,0_3_0_7_0_12,-999,skipped,,277897,,,277841,,277897,2021-10-26T19:55:50.227Z,277914.08,1635277868,full,ni_sequenzen,NI_Sequenzen,13,7,,,,,,,,,,,,
,Move,canvas.Screen,0_3_0_7_0_13,-999,skipped,,277902,,,277841,,277902,2021-10-26T19:55:50.233Z,277914.08,1635277868,full,ni_sequenzen,NI_Sequenzen,14,7,,,,,,,,,,,,
,Move,canvas.Screen,0_3_0_7_0_14,-999,skipped,,277908,,,277841,,277908,2021-10-26T19:55:50.238Z,277914.08,1635277868,full,ni_sequenzen,NI_Sequenzen,15,7,,,,,,,,,,,,
,Loop,flow.Loop,0_3_0_7_0,-999,completion,,274878,274887.48,274899.72,277841,2941.280000000028,277908,2021-10-26T19:55:50.238Z,277914.08,1635277868,full,ni_sequenzen,NI_Sequenzen,,7,,,,,,,,,,,,
,Feedback,canvas.Screen,0_3_0_7_1,,timeout,,277912,277912.76,277914.08,281894.36,3999.5599999999977,281896,2021-10-26T19:55:54.226Z,281913.64,1635277868,full,ni_sequenzen,NI_Sequenzen,,7,,,,,,,,,,,,
,Trial,flow.Sequence,0_3_0_7,,completion,,274868,274887.48,274899.72,281894.36,6994.640000000014,281896,2021-10-26T19:55:54.226Z,281927.68,1635277868,full,ni_sequenzen,NI_Sequenzen,,7,,,,,,,,,,,,
,Move,canvas.Screen,0_3_0_8_0_0,right,response,,281914,281913.64,281927.68,282716,788.320000000007,282729,2021-10-26T19:55:55.059Z,282743.72,1635277868,full,ni_sequenzen,NI_Sequenzen,1,8,,,,,,,,,,,,
,Move,canvas.Screen,0_3_0_8_0_1,down,response,,282734,282733.86,282743.72,282809,65.28000000002794,282825,2021-10-26T19:55:55.156Z,282843.64,1635277868,full,ni_sequenzen,NI_Sequenzen,2,8,,,,,,,,,,,,
,Move,canvas.Screen,0_3_0_8_0_2,right,response,,282831,282830.3,282843.64,282981,137.35999999998603,282984,2021-10-26T19:55:55.315Z,282993.52,1635277868,full,ni_sequenzen,NI_Sequenzen,3,8,,,,,,,,,,,,
,Move,canvas.Screen,0_3_0_8_0_3,down,response,,282991,282991.08,282993.52,283091,97.47999999998137,283105,2021-10-26T19:55:55.435Z,283193.36,1635277868,full,ni_sequenzen,NI_Sequenzen,4,8,,,,,,,,,,,,
,Move,canvas.Screen,0_3_0_8_0_4,-999,skipped,,283111,,,283091,,283111,2021-10-26T19:55:55.441Z,283193.36,1635277868,full,ni_sequenzen,NI_Sequenzen,5,8,,,,,,,,,,,,
,Move,canvas.Screen,0_3_0_8_0_5,-999,skipped,,283118,,,283091,,283118,2021-10-26T19:55:55.448Z,283193.36,1635277868,full,ni_sequenzen,NI_Sequenzen,6,8,,,,,,,,,,,,
,Move,canvas.Screen,0_3_0_8_0_6,-999,skipped,,283125,,,283091,,283126,2021-10-26T19:55:55.456Z,283193.36,1635277868,full,ni_sequenzen,NI_Sequenzen,7,8,,,,,,,,,,,,
,Move,canvas.Screen,0_3_0_8_0_7,-999,skipped,,283134,,,283091,,283134,2021-10-26T19:55:55.465Z,283193.36,1635277868,full,ni_sequenzen,NI_Sequenzen,8,8,,,,,,,,,,,,
,Move,canvas.Screen,0_3_0_8_0_8,-999,skipped,,283139,,,283091,,283139,2021-10-26T19:55:55.470Z,283193.36,1635277868,full,ni_sequenzen,NI_Sequenzen,9,8,,,,,,,,,,,,
,Move,canvas.Screen,0_3_0_8_0_9,-999,skipped,,283148,,,283091,,283149,2021-10-26T19:55:55.479Z,283193.36,1635277868,full,ni_sequenzen,NI_Sequenzen,10,8,,,,,,,,,,,,
,Move,canvas.Screen,0_3_0_8_0_10,-999,skipped,,283153,,,283091,,283153,2021-10-26T19:55:55.484Z,283193.36,1635277868,full,ni_sequenzen,NI_Sequenzen,11,8,,,,,,,,,,,,
,Move,canvas.Screen,0_3_0_8_0_11,-999,skipped,,283158,,,283091,,283158,2021-10-26T19:55:55.490Z,283193.36,1635277868,full,ni_sequenzen,NI_Sequenzen,12,8,,,,,,,,,,,,
,Move,canvas.Screen,0_3_0_8_0_12,-999,skipped,,283166,,,283091,,283167,2021-10-26T19:55:55.498Z,283193.36,1635277868,full,ni_sequenzen,NI_Sequenzen,13,8,,,,,,,,,,,,
,Move,canvas.Screen,0_3_0_8_0_13,-999,skipped,,283172,,,283091,,283172,2021-10-26T19:55:55.502Z,283193.36,1635277868,full,ni_sequenzen,NI_Sequenzen,14,8,,,,,,,,,,,,
,Move,canvas.Screen,0_3_0_8_0_14,-999,skipped,,283177,,,283091,,283177,2021-10-26T19:55:55.507Z,283193.36,1635277868,full,ni_sequenzen,NI_Sequenzen,15,8,,,,,,,,,,,,
,Loop,flow.Loop,0_3_0_8_0,-999,completion,,281906,281913.64,281927.68,283091,1163.320000000007,283177,2021-10-26T19:55:55.507Z,283193.36,1635277868,full,ni_sequenzen,NI_Sequenzen,,8,,,,,,,,,,,,
,Feedback,canvas.Screen,0_3_0_8_1,,timeout,,283182,283181.7,283193.36,287173.66,3996.9400000000023,287174,2021-10-26T19:55:59.505Z,287190.3,1635277868,full,ni_sequenzen,NI_Sequenzen,,8,,,,,,,,,,,,
,Trial,flow.Sequence,0_3_0_8,,completion,,281896,281913.64,281927.68,287173.66,5245.979999999981,287174,2021-10-26T19:55:59.505Z,287206.96,1635277868,full,ni_sequenzen,NI_Sequenzen,,8,,,,,,,,,,,,
,Move,canvas.Screen,0_3_0_9_0_0,down,response,,287189,287190.3,287206.96,289106,1899.039999999979,289121,2021-10-26T19:56:01.451Z,289138.82,1635277868,full,ni_sequenzen,NI_Sequenzen,1,9,,,,,,,,,,,,
,Move,canvas.Screen,0_3_0_9_0_1,left,response,,289127,289127.9,289138.82,289340,201.17999999999302,289345,2021-10-26T19:56:01.676Z,289355.32,1635277868,full,ni_sequenzen,NI_Sequenzen,2,9,,,,,,,,,,,,
,Move,canvas.Screen,0_3_0_9_0_2,down,response,,289351,289350.4,289355.32,289653,297.679999999993,289664,2021-10-26T19:56:01.995Z,289671.74,1635277868,full,ni_sequenzen,NI_Sequenzen,3,9,,,,,,,,,,,,
,Move,canvas.Screen,0_3_0_9_0_3,left,response,,289670,289669.56,289671.74,289982,310.2600000000093,289994,2021-10-26T19:56:02.324Z,290054.78,1635277868,full,ni_sequenzen,NI_Sequenzen,4,9,,,,,,,,,,,,
,Move,canvas.Screen,0_3_0_9_0_4,-999,skipped,,290000,,,289982,,290000,2021-10-26T19:56:02.330Z,290054.78,1635277868,full,ni_sequenzen,NI_Sequenzen,5,9,,,,,,,,,,,,
,Move,canvas.Screen,0_3_0_9_0_5,-999,skipped,,290004,,,289982,,290004,2021-10-26T19:56:02.335Z,290054.78,1635277868,full,ni_sequenzen,NI_Sequenzen,6,9,,,,,,,,,,,,
,Move,canvas.Screen,0_3_0_9_0_6,-999,skipped,,290009,,,289982,,290009,2021-10-26T19:56:02.340Z,290054.78,1635277868,full,ni_sequenzen,NI_Sequenzen,7,9,,,,,,,,,,,,
,Move,canvas.Screen,0_3_0_9_0_7,-999,skipped,,290014,,,289982,,290014,2021-10-26T19:56:02.344Z,290054.78,1635277868,full,ni_sequenzen,NI_Sequenzen,8,9,,,,,,,,,,,,
,Move,canvas.Screen,0_3_0_9_0_8,-999,skipped,,290018,,,289982,,290018,2021-10-26T19:56:02.349Z,290054.78,1635277868,full,ni_sequenzen,NI_Sequenzen,9,9,,,,,,,,,,,,
,Move,canvas.Screen,0_3_0_9_0_9,-999,skipped,,290023,,,289982,,290023,2021-10-26T19:56:02.353Z,290054.78,1635277868,full,ni_sequenzen,NI_Sequenzen,10,9,,,,,,,,,,,,
,Move,canvas.Screen,0_3_0_9_0_10,-999,skipped,,290028,,,289982,,290028,2021-10-26T19:56:02.358Z,290054.78,1635277868,full,ni_sequenzen,NI_Sequenzen,11,9,,,,,,,,,,,,
,Move,canvas.Screen,0_3_0_9_0_11,-999,skipped,,290033,,,289982,,290033,2021-10-26T19:56:02.363Z,290054.78,1635277868,full,ni_sequenzen,NI_Sequenzen,12,9,,,,,,,,,,,,
,Move,canvas.Screen,0_3_0_9_0_12,-999,skipped,,290037,,,289982,,290037,2021-10-26T19:56:02.367Z,290054.78,1635277868,full,ni_sequenzen,NI_Sequenzen,13,9,,,,,,,,,,,,
,Move,canvas.Screen,0_3_0_9_0_13,-999,skipped,,290042,,,289982,,290043,2021-10-26T19:56:02.372Z,290054.78,1635277868,full,ni_sequenzen,NI_Sequenzen,14,9,,,,,,,,,,,,
,Move,canvas.Screen,0_3_0_9_0_14,-999,skipped,,290047,,,289982,,290047,2021-10-26T19:56:02.377Z,290054.78,1635277868,full,ni_sequenzen,NI_Sequenzen,15,9,,,,,,,,,,,,
,Loop,flow.Loop,0_3_0_9_0,-999,completion,,287184,287190.3,287206.96,289982,2775.039999999979,290047,2021-10-26T19:56:02.377Z,290054.78,1635277868,full,ni_sequenzen,NI_Sequenzen,,9,,,,,,,,,,,,
,Feedback,canvas.Screen,0_3_0_9_1,,timeout,,290050,290050.46,290054.78,294035.06,4048.2999999999884,294036,2021-10-26T19:56:06.366Z,294103.08,1635277868,full,ni_sequenzen,NI_Sequenzen,,9,,,,,,,,,,,,
,Trial,flow.Sequence,0_3_0_9,,completion,,287175,287190.3,287206.96,294035.06,6828.099999999977,294036,2021-10-26T19:56:06.367Z,294118.34,1635277868,full,ni_sequenzen,NI_Sequenzen,,9,,,,,,,,,,,,
,Block,flow.Loop,0_3_0,,completion,,170748,170762.42,171645.46,294035.06,122389.6,294036,2021-10-26T19:56:06.367Z,294118.34,1635277868,full,ni_sequenzen,NI_Sequenzen,,,,,,,,,,,,,,
,Training_II,flow.Sequence,0_3,,completion,,170737,170762.42,171645.46,294035.06,122389.6,294037,2021-10-26T19:56:06.367Z,294118.34,1635277868,full,ni_sequenzen,NI_Sequenzen,,,,,,,,,,,,,,
,Screen_1,canvas.Screen,0_4_0_0,cont,response,1,294103,294103.08,294118.34,310996,16877.659999999974,311009,2021-10-26T19:56:23.340Z,311022.06,1635277868,full,ni_sequenzen,NI_Sequenzen,,,,,,,,,,,,,,
,Screen_2,canvas.Screen,0_4_0_1,cont,response,1,311011,311011.3,311022.06,318278,7255.940000000002,318289,2021-10-26T19:56:30.619Z,318383.08,1635277868,full,ni_sequenzen,NI_Sequenzen,,,,,,,,,,,,,,
,Screen_3,canvas.Screen,0_4_0_2,cont,response,1,318373,318373.72,318383.08,330513,12129.919999999984,330529,2021-10-26T19:56:42.859Z,330740.28,1635277868,full,ni_sequenzen,NI_Sequenzen,,,,,,,,,,,,,,
,Sequence,flow.Sequence,0_4_0,,completion,1,294056,294103.08,294118.34,330513,36394.659999999974,330529,2021-10-26T19:56:42.859Z,330740.28,1635277868,full,ni_sequenzen,NI_Sequenzen,,,,,,,,,,,,,,
,Screen_1,canvas.Screen,0_4_1_0,,skipped,2,330531,,,330531,,330531,2021-10-26T19:56:42.862Z,330740.28,1635277868,full,ni_sequenzen,NI_Sequenzen,,,,,,,,,,,,,,
,Screen_2,canvas.Screen,0_4_1_1,,skipped,2,330533,,,330531,,330533,2021-10-26T19:56:42.863Z,330740.28,1635277868,full,ni_sequenzen,NI_Sequenzen,,,,,,,,,,,,,,
,Screen_3,canvas.Screen,0_4_1_2,,skipped,2,330534,,,330531,,330534,2021-10-26T19:56:42.865Z,330740.28,1635277868,full,ni_sequenzen,NI_Sequenzen,,,,,,,,,,,,,,
,Sequence,flow.Sequence,0_4_1,,completion,2,330530,,,330531,,330534,2021-10-26T19:56:42.865Z,330740.28,1635277868,full,ni_sequenzen,NI_Sequenzen,,,,,,,,,,,,,,
,Screen_1,canvas.Screen,0_4_2_0,,skipped,3,330536,,,330536,,330536,2021-10-26T19:56:42.867Z,330740.28,1635277868,full,ni_sequenzen,NI_Sequenzen,,,,,,,,,,,,,,
,Screen_2,canvas.Screen,0_4_2_1,,skipped,3,330537,,,330536,,330537,2021-10-26T19:56:42.868Z,330740.28,1635277868,full,ni_sequenzen,NI_Sequenzen,,,,,,,,,,,,,,
,Screen_3,canvas.Screen,0_4_2_2,,skipped,3,330539,,,330536,,330539,2021-10-26T19:56:42.870Z,330740.28,1635277868,full,ni_sequenzen,NI_Sequenzen,,,,,,,,,,,,,,
,Sequence,flow.Sequence,0_4_2,,completion,3,330535,,,330536,,330539,2021-10-26T19:56:42.870Z,330740.28,1635277868,full,ni_sequenzen,NI_Sequenzen,,,,,,,,,,,,,,
,Screen_1,canvas.Screen,0_4_3_0,,skipped,4,330542,,,330542,,330543,2021-10-26T19:56:42.873Z,330740.28,1635277868,full,ni_sequenzen,NI_Sequenzen,,,,,,,,,,,,,,
,Screen_2,canvas.Screen,0_4_3_1,,skipped,4,330545,,,330542,,330545,2021-10-26T19:56:42.876Z,330740.28,1635277868,full,ni_sequenzen,NI_Sequenzen,,,,,,,,,,,,,,
,Screen_3,canvas.Screen,0_4_3_2,,skipped,4,330547,,,330542,,330547,2021-10-26T19:56:42.878Z,330740.28,1635277868,full,ni_sequenzen,NI_Sequenzen,,,,,,,,,,,,,,
,Sequence,flow.Sequence,0_4_3,,completion,4,330540,,,330542,,330547,2021-10-26T19:56:42.878Z,330740.28,1635277868,full,ni_sequenzen,NI_Sequenzen,,,,,,,,,,,,,,
,Screen_1,canvas.Screen,0_4_4_0,,skipped,5,330551,,,330551,,330551,2021-10-26T19:56:42.881Z,330740.28,1635277868,full,ni_sequenzen,NI_Sequenzen,,,,,,,,,,,,,,
,Screen_2,canvas.Screen,0_4_4_1,,skipped,5,330553,,,330551,,330553,2021-10-26T19:56:42.884Z,330740.28,1635277868,full,ni_sequenzen,NI_Sequenzen,,,,,,,,,,,,,,
,Screen_3,canvas.Screen,0_4_4_2,,skipped,5,330554,,,330551,,330554,2021-10-26T19:56:42.885Z,330740.28,1635277868,full,ni_sequenzen,NI_Sequenzen,,,,,,,,,,,,,,
,Sequence,flow.Sequence,0_4_4,,completion,5,330549,,,330551,,330554,2021-10-26T19:56:42.886Z,330740.28,1635277868,full,ni_sequenzen,NI_Sequenzen,,,,,,,,,,,,,,
,Screen_1,canvas.Screen,0_4_5_0,,skipped,6,330557,,,330557,,330557,2021-10-26T19:56:42.887Z,330740.28,1635277868,full,ni_sequenzen,NI_Sequenzen,,,,,,,,,,,,,,
,Screen_2,canvas.Screen,0_4_5_1,,skipped,6,330560,,,330557,,330560,2021-10-26T19:56:42.890Z,330740.28,1635277868,full,ni_sequenzen,NI_Sequenzen,,,,,,,,,,,,,,
,Screen_3,canvas.Screen,0_4_5_2,,skipped,6,330561,,,330557,,330561,2021-10-26T19:56:42.892Z,330740.28,1635277868,full,ni_sequenzen,NI_Sequenzen,,,,,,,,,,,,,,
,Sequence,flow.Sequence,0_4_5,,completion,6,330556,,,330557,,330562,2021-10-26T19:56:42.892Z,330740.28,1635277868,full,ni_sequenzen,NI_Sequenzen,,,,,,,,,,,,,,
,Screen_1,canvas.Screen,0_4_6_0,,skipped,7,330563,,,330563,,330563,2021-10-26T19:56:42.894Z,330740.28,1635277868,full,ni_sequenzen,NI_Sequenzen,,,,,,,,,,,,,,
,Screen_2,canvas.Screen,0_4_6_1,,skipped,7,330565,,,330563,,330565,2021-10-26T19:56:42.895Z,330740.28,1635277868,full,ni_sequenzen,NI_Sequenzen,,,,,,,,,,,,,,
,Screen_3,canvas.Screen,0_4_6_2,,skipped,7,330566,,,330563,,330566,2021-10-26T19:56:42.896Z,330740.28,1635277868,full,ni_sequenzen,NI_Sequenzen,,,,,,,,,,,,,,
,Sequence,flow.Sequence,0_4_6,,completion,7,330562,,,330563,,330567,2021-10-26T19:56:42.896Z,330740.28,1635277868,full,ni_sequenzen,NI_Sequenzen,,,,,,,,,,,,,,
,Screen_1,canvas.Screen,0_4_7_0,,skipped,8,330568,,,330568,,330568,2021-10-26T19:56:42.899Z,330740.28,1635277868,full,ni_sequenzen,NI_Sequenzen,,,,,,,,,,,,,,
,Screen_2,canvas.Screen,0_4_7_1,,skipped,8,330570,,,330568,,330570,2021-10-26T19:56:42.900Z,330740.28,1635277868,full,ni_sequenzen,NI_Sequenzen,,,,,,,,,,,,,,
,Screen_3,canvas.Screen,0_4_7_2,,skipped,8,330572,,,330568,,330572,2021-10-26T19:56:42.902Z,330740.28,1635277868,full,ni_sequenzen,NI_Sequenzen,,,,,,,,,,,,,,
,Sequence,flow.Sequence,0_4_7,,completion,8,330567,,,330568,,330573,2021-10-26T19:56:42.903Z,330740.28,1635277868,full,ni_sequenzen,NI_Sequenzen,,,,,,,,,,,,,,
,Screen_1,canvas.Screen,0_4_8_0,,skipped,9,330576,,,330576,,330576,2021-10-26T19:56:42.906Z,330740.28,1635277868,full,ni_sequenzen,NI_Sequenzen,,,,,,,,,,,,,,
,Screen_2,canvas.Screen,0_4_8_1,,skipped,9,330578,,,330576,,330578,2021-10-26T19:56:42.908Z,330740.28,1635277868,full,ni_sequenzen,NI_Sequenzen,,,,,,,,,,,,,,
,Screen_3,canvas.Screen,0_4_8_2,,skipped,9,330580,,,330576,,330581,2021-10-26T19:56:42.911Z,330740.28,1635277868,full,ni_sequenzen,NI_Sequenzen,,,,,,,,,,,,,,
,Sequence,flow.Sequence,0_4_8,,completion,9,330574,,,330576,,330581,2021-10-26T19:56:42.911Z,330740.28,1635277868,full,ni_sequenzen,NI_Sequenzen,,,,,,,,,,,,,,
,Screen_1,canvas.Screen,0_4_9_0,,skipped,10,330584,,,330584,,330584,2021-10-26T19:56:42.915Z,330740.28,1635277868,full,ni_sequenzen,NI_Sequenzen,,,,,,,,,,,,,,
,Screen_2,canvas.Screen,0_4_9_1,,skipped,10,330587,,,330584,,330587,2021-10-26T19:56:42.917Z,330740.28,1635277868,full,ni_sequenzen,NI_Sequenzen,,,,,,,,,,,,,,
,Screen_3,canvas.Screen,0_4_9_2,,skipped,10,330588,,,330584,,330588,2021-10-26T19:56:42.918Z,330740.28,1635277868,full,ni_sequenzen,NI_Sequenzen,,,,,,,,,,,,,,
,Sequence,flow.Sequence,0_4_9,,completion,10,330583,,,330584,,330588,2021-10-26T19:56:42.918Z,330740.28,1635277868,full,ni_sequenzen,NI_Sequenzen,,,,,,,,,,,,,,
,Screen_1,canvas.Screen,0_4_10_0,,skipped,11,330590,,,330590,,330590,2021-10-26T19:56:42.920Z,330740.28,1635277868,full,ni_sequenzen,NI_Sequenzen,,,,,,,,,,,,,,
,Screen_2,canvas.Screen,0_4_10_1,,skipped,11,330591,,,330590,,330592,2021-10-26T19:56:42.922Z,330740.28,1635277868,full,ni_sequenzen,NI_Sequenzen,,,,,,,,,,,,,,
,Screen_3,canvas.Screen,0_4_10_2,,skipped,11,330594,,,330590,,330594,2021-10-26T19:56:42.924Z,330740.28,1635277868,full,ni_sequenzen,NI_Sequenzen,,,,,,,,,,,,,,
,Sequence,flow.Sequence,0_4_10,,completion,11,330589,,,330590,,330594,2021-10-26T19:56:42.924Z,330740.28,1635277868,full,ni_sequenzen,NI_Sequenzen,,,,,,,,,,,,,,
,Screen_1,canvas.Screen,0_4_11_0,,skipped,12,330597,,,330597,,330597,2021-10-26T19:56:42.927Z,330740.28,1635277868,full,ni_sequenzen,NI_Sequenzen,,,,,,,,,,,,,,
,Screen_2,canvas.Screen,0_4_11_1,,skipped,12,330598,,,330597,,330599,2021-10-26T19:56:42.929Z,330740.28,1635277868,full,ni_sequenzen,NI_Sequenzen,,,,,,,,,,,,,,
,Screen_3,canvas.Screen,0_4_11_2,,skipped,12,330601,,,330597,,330601,2021-10-26T19:56:42.931Z,330740.28,1635277868,full,ni_sequenzen,NI_Sequenzen,,,,,,,,,,,,,,
,Sequence,flow.Sequence,0_4_11,,completion,12,330595,,,330597,,330601,2021-10-26T19:56:42.932Z,330740.28,1635277868,full,ni_sequenzen,NI_Sequenzen,,,,,,,,,,,,,,
,Screen_1,canvas.Screen,0_4_12_0,,skipped,13,330604,,,330604,,330604,2021-10-26T19:56:42.934Z,330740.28,1635277868,full,ni_sequenzen,NI_Sequenzen,,,,,,,,,,,,,,
,Screen_2,canvas.Screen,0_4_12_1,,skipped,13,330605,,,330604,,330605,2021-10-26T19:56:42.935Z,330740.28,1635277868,full,ni_sequenzen,NI_Sequenzen,,,,,,,,,,,,,,
,Screen_3,canvas.Screen,0_4_12_2,,skipped,13,330606,,,330604,,330606,2021-10-26T19:56:42.937Z,330740.28,1635277868,full,ni_sequenzen,NI_Sequenzen,,,,,,,,,,,,,,
,Sequence,flow.Sequence,0_4_12,,completion,13,330602,,,330604,,330606,2021-10-26T19:56:42.937Z,330740.28,1635277868,full,ni_sequenzen,NI_Sequenzen,,,,,,,,,,,,,,
,Screen_1,canvas.Screen,0_4_13_0,,skipped,14,330609,,,330609,,330609,2021-10-26T19:56:42.939Z,330740.28,1635277868,full,ni_sequenzen,NI_Sequenzen,,,,,,,,,,,,,,
,Screen_2,canvas.Screen,0_4_13_1,,skipped,14,330610,,,330609,,330610,2021-10-26T19:56:42.940Z,330740.28,1635277868,full,ni_sequenzen,NI_Sequenzen,,,,,,,,,,,,,,
,Screen_3,canvas.Screen,0_4_13_2,,skipped,14,330611,,,330609,,330611,2021-10-26T19:56:42.942Z,330740.28,1635277868,full,ni_sequenzen,NI_Sequenzen,,,,,,,,,,,,,,
,Sequence,flow.Sequence,0_4_13,,completion,14,330607,,,330609,,330611,2021-10-26T19:56:42.942Z,330740.28,1635277868,full,ni_sequenzen,NI_Sequenzen,,,,,,,,,,,,,,
,Screen_1,canvas.Screen,0_4_14_0,,skipped,15,330613,,,330613,,330613,2021-10-26T19:56:42.944Z,330740.28,1635277868,full,ni_sequenzen,NI_Sequenzen,,,,,,,,,,,,,,
,Screen_2,canvas.Screen,0_4_14_1,,skipped,15,330615,,,330613,,330615,2021-10-26T19:56:42.945Z,330740.28,1635277868,full,ni_sequenzen,NI_Sequenzen,,,,,,,,,,,,,,
,Screen_3,canvas.Screen,0_4_14_2,,skipped,15,330616,,,330613,,330616,2021-10-26T19:56:42.947Z,330740.28,1635277868,full,ni_sequenzen,NI_Sequenzen,,,,,,,,,,,,,,
,Sequence,flow.Sequence,0_4_14,,completion,15,330612,,,330613,,330616,2021-10-26T19:56:42.947Z,330740.28,1635277868,full,ni_sequenzen,NI_Sequenzen,,,,,,,,,,,,,,
,Screen_1,canvas.Screen,0_4_15_0,,skipped,16,330619,,,330619,,330619,2021-10-26T19:56:42.949Z,330740.28,1635277868,full,ni_sequenzen,NI_Sequenzen,,,,,,,,,,,,,,
,Screen_2,canvas.Screen,0_4_15_1,,skipped,16,330620,,,330619,,330620,2021-10-26T19:56:42.951Z,330740.28,1635277868,full,ni_sequenzen,NI_Sequenzen,,,,,,,,,,,,,,
,Screen_3,canvas.Screen,0_4_15_2,,skipped,16,330622,,,330619,,330622,2021-10-26T19:56:42.952Z,330740.28,1635277868,full,ni_sequenzen,NI_Sequenzen,,,,,,,,,,,,,,
,Sequence,flow.Sequence,0_4_15,,completion,16,330618,,,330619,,330622,2021-10-26T19:56:42.952Z,330740.28,1635277868,full,ni_sequenzen,NI_Sequenzen,,,,,,,,,,,,,,
,Screen_1,canvas.Screen,0_4_16_0,,skipped,17,330624,,,330624,,330624,2021-10-26T19:56:42.955Z,330740.28,1635277868,full,ni_sequenzen,NI_Sequenzen,,,,,,,,,,,,,,
,Screen_2,canvas.Screen,0_4_16_1,,skipped,17,330626,,,330624,,330626,2021-10-26T19:56:42.957Z,330740.28,1635277868,full,ni_sequenzen,NI_Sequenzen,,,,,,,,,,,,,,
,Screen_3,canvas.Screen,0_4_16_2,,skipped,17,330628,,,330624,,330628,2021-10-26T19:56:42.958Z,330740.28,1635277868,full,ni_sequenzen,NI_Sequenzen,,,,,,,,,,,,,,
,Sequence,flow.Sequence,0_4_16,,completion,17,330623,,,330624,,330628,2021-10-26T19:56:42.959Z,330740.28,1635277868,full,ni_sequenzen,NI_Sequenzen,,,,,,,,,,,,,,
