meta,sender,sender_type,sender_id,response,ended_on,instrCount,time_run,time_render,time_show,time_end,duration,time_commit,timestamp,time_switch,openLabId,type,task,project,move,trialN,blockN_Train,blockN,moveCount,currPP,points,movesTrial,visitedFields,diff,reward,Strategie,Zweck,Probleme
[object Object],Screen_1,canvas.Screen,0_0_0_0,cont,response,1,628.8999999761581,616.721,683.131,11668.5,10985.369,11672.59999999404,2021-10-28T07:01:48.609Z,11787.241,1635404490,full,ni_sequenzen,NI_Sequenzen,,,,,,,,,,,,,,
,Screen_2,canvas.Screen,0_0_0_1,cont,response,1,11780.5,11770.89,11787.241,26488.5,14701.259,26489.5,2021-10-28T07:02:03.425Z,26590.843,1635404490,full,ni_sequenzen,NI_Sequenzen,,,,,,,,,,,,,,
,Screen_3,canvas.Screen,0_0_0_2,cont,response,1,26572.69999998808,26568.879,26590.843,42688.59999999404,16097.756999994039,42689.79999998212,2021-10-28T07:02:19.626Z,42719.642,1635404490,full,ni_sequenzen,NI_Sequenzen,,,,,,,,,,,,,,
,Screen_4,canvas.Screen,0_0_0_3,cont,response,1,42695.29999998212,42685.46,42719.642,48618.29999998212,5898.657999982119,48619.39999997616,2021-10-28T07:02:25.555Z,48773.157,1635404490,full,ni_sequenzen,NI_Sequenzen,,,,,,,,,,,,,,
,Sequence,flow.Sequence,0_0_0,,completion,1,580.7999999821186,616.721,683.131,48618.29999998212,47935.16899998212,48623.59999999404,2021-10-28T07:02:25.560Z,48773.157,1635404490,full,ni_sequenzen,NI_Sequenzen,,,,,,,,,,,,,,
,Screen_1,canvas.Screen,0_0_1_0,,skipped,2,48626.89999997616,,,48626.89999997616,,48627.09999999404,2021-10-28T07:02:25.563Z,48773.157,1635404490,full,ni_sequenzen,NI_Sequenzen,,,,,,,,,,,,,,
,Screen_2,canvas.Screen,0_0_1_1,,skipped,2,48628.59999999404,,,48626.89999997616,,48628.59999999404,2021-10-28T07:02:25.565Z,48773.157,1635404490,full,ni_sequenzen,NI_Sequenzen,,,,,,,,,,,,,,
,Screen_3,canvas.Screen,0_0_1_2,,skipped,2,48630.19999998808,,,48626.89999997616,,48630.39999997616,2021-10-28T07:02:25.566Z,48773.157,1635404490,full,ni_sequenzen,NI_Sequenzen,,,,,,,,,,,,,,
,Screen_4,canvas.Screen,0_0_1_3,,skipped,2,48631.89999997616,,,48626.89999997616,,48632.29999998212,2021-10-28T07:02:25.568Z,48773.157,1635404490,full,ni_sequenzen,NI_Sequenzen,,,,,,,,,,,,,,
,Sequence,flow.Sequence,0_0_1,,completion,2,48624.79999998212,,,48626.89999997616,,48632.5,2021-10-28T07:02:25.569Z,48773.157,1635404490,full,ni_sequenzen,NI_Sequenzen,,,,,,,,,,,,,,
,Screen_1,canvas.Screen,0_0_2_0,,skipped,3,48634.59999999404,,,48634.59999999404,,48634.69999998808,2021-10-28T07:02:25.571Z,48773.157,1635404490,full,ni_sequenzen,NI_Sequenzen,,,,,,,,,,,,,,
,Screen_2,canvas.Screen,0_0_2_1,,skipped,3,48635.79999998212,,,48634.59999999404,,48635.89999997616,2021-10-28T07:02:25.572Z,48773.157,1635404490,full,ni_sequenzen,NI_Sequenzen,,,,,,,,,,,,,,
,Screen_3,canvas.Screen,0_0_2_2,,skipped,3,48637.19999998808,,,48634.59999999404,,48637.29999998212,2021-10-28T07:02:25.573Z,48773.157,1635404490,full,ni_sequenzen,NI_Sequenzen,,,,,,,,,,,,,,
,Screen_4,canvas.Screen,0_0_2_3,,skipped,3,48638.39999997616,,,48634.59999999404,,48638.5,2021-10-28T07:02:25.575Z,48773.157,1635404490,full,ni_sequenzen,NI_Sequenzen,,,,,,,,,,,,,,
,Sequence,flow.Sequence,0_0_2,,completion,3,48633.29999998212,,,48634.59999999404,,48638.69999998808,2021-10-28T07:02:25.575Z,48773.157,1635404490,full,ni_sequenzen,NI_Sequenzen,,,,,,,,,,,,,,
,Screen_1,canvas.Screen,0_0_3_0,,skipped,4,48640.39999997616,,,48640.39999997616,,48640.39999997616,2021-10-28T07:02:25.577Z,48773.157,1635404490,full,ni_sequenzen,NI_Sequenzen,,,,,,,,,,,,,,
,Screen_2,canvas.Screen,0_0_3_1,,skipped,4,48641.5,,,48640.39999997616,,48641.69999998808,2021-10-28T07:02:25.578Z,48773.157,1635404490,full,ni_sequenzen,NI_Sequenzen,,,,,,,,,,,,,,
,Screen_3,canvas.Screen,0_0_3_2,,skipped,4,48642.69999998808,,,48640.39999997616,,48642.79999998212,2021-10-28T07:02:25.579Z,48773.157,1635404490,full,ni_sequenzen,NI_Sequenzen,,,,,,,,,,,,,,
,Screen_4,canvas.Screen,0_0_3_3,,skipped,4,48644.09999999404,,,48640.39999997616,,48644.19999998808,2021-10-28T07:02:25.580Z,48773.157,1635404490,full,ni_sequenzen,NI_Sequenzen,,,,,,,,,,,,,,
,Sequence,flow.Sequence,0_0_3,,completion,4,48639.29999998212,,,48640.39999997616,,48644.29999998212,2021-10-28T07:02:25.580Z,48773.157,1635404490,full,ni_sequenzen,NI_Sequenzen,,,,,,,,,,,,,,
,Screen_1,canvas.Screen,0_0_4_0,,skipped,5,48645.89999997616,,,48645.89999997616,,48645.89999997616,2021-10-28T07:02:25.582Z,48773.157,1635404490,full,ni_sequenzen,NI_Sequenzen,,,,,,,,,,,,,,
,Screen_2,canvas.Screen,0_0_4_1,,skipped,5,48648.09999999404,,,48645.89999997616,,48648.19999998808,2021-10-28T07:02:25.584Z,48773.157,1635404490,full,ni_sequenzen,NI_Sequenzen,,,,,,,,,,,,,,
,Screen_3,canvas.Screen,0_0_4_2,,skipped,5,48649.29999998212,,,48645.89999997616,,48649.39999997616,2021-10-28T07:02:25.585Z,48773.157,1635404490,full,ni_sequenzen,NI_Sequenzen,,,,,,,,,,,,,,
,Screen_4,canvas.Screen,0_0_4_3,,skipped,5,48650.5,,,48645.89999997616,,48650.59999999404,2021-10-28T07:02:25.587Z,48773.157,1635404490,full,ni_sequenzen,NI_Sequenzen,,,,,,,,,,,,,,
,Sequence,flow.Sequence,0_0_4,,completion,5,48644.79999998212,,,48645.89999997616,,48650.79999998212,2021-10-28T07:02:25.587Z,48773.157,1635404490,full,ni_sequenzen,NI_Sequenzen,,,,,,,,,,,,,,
,Screen_1,canvas.Screen,0_0_5_0,,skipped,6,48652.29999998212,,,48652.29999998212,,48652.5,2021-10-28T07:02:25.588Z,48773.157,1635404490,full,ni_sequenzen,NI_Sequenzen,,,,,,,,,,,,,,
,Screen_2,canvas.Screen,0_0_5_1,,skipped,6,48653.39999997616,,,48652.29999998212,,48653.5,2021-10-28T07:02:25.590Z,48773.157,1635404490,full,ni_sequenzen,NI_Sequenzen,,,,,,,,,,,,,,
,Screen_3,canvas.Screen,0_0_5_2,,skipped,6,48654.79999998212,,,48652.29999998212,,48654.89999997616,2021-10-28T07:02:25.591Z,48773.157,1635404490,full,ni_sequenzen,NI_Sequenzen,,,,,,,,,,,,,,
,Screen_4,canvas.Screen,0_0_5_3,,skipped,6,48655.89999997616,,,48652.29999998212,,48656,2021-10-28T07:02:25.592Z,48773.157,1635404490,full,ni_sequenzen,NI_Sequenzen,,,,,,,,,,,,,,
,Sequence,flow.Sequence,0_0_5,,completion,6,48651.19999998808,,,48652.29999998212,,48656.19999998808,2021-10-28T07:02:25.592Z,48773.157,1635404490,full,ni_sequenzen,NI_Sequenzen,,,,,,,,,,,,,,
,Screen_1,canvas.Screen,0_0_6_0,,skipped,7,48657.79999998212,,,48657.79999998212,,48657.89999997616,2021-10-28T07:02:25.594Z,48773.157,1635404490,full,ni_sequenzen,NI_Sequenzen,,,,,,,,,,,,,,
,Screen_2,canvas.Screen,0_0_6_1,,skipped,7,48658.79999998212,,,48657.79999998212,,48658.89999997616,2021-10-28T07:02:25.595Z,48773.157,1635404490,full,ni_sequenzen,NI_Sequenzen,,,,,,,,,,,,,,
,Screen_3,canvas.Screen,0_0_6_2,,skipped,7,48659.89999997616,,,48657.79999998212,,48660,2021-10-28T07:02:25.596Z,48773.157,1635404490,full,ni_sequenzen,NI_Sequenzen,,,,,,,,,,,,,,
,Screen_4,canvas.Screen,0_0_6_3,,skipped,7,48660.89999997616,,,48657.79999998212,,48661.09999999404,2021-10-28T07:02:25.597Z,48773.157,1635404490,full,ni_sequenzen,NI_Sequenzen,,,,,,,,,,,,,,
,Sequence,flow.Sequence,0_0_6,,completion,7,48656.69999998808,,,48657.79999998212,,48661.19999998808,2021-10-28T07:02:25.597Z,48773.157,1635404490,full,ni_sequenzen,NI_Sequenzen,,,,,,,,,,,,,,
,Screen_1,canvas.Screen,0_0_7_0,,skipped,8,48662.59999999404,,,48662.59999999404,,48662.79999998212,2021-10-28T07:02:25.599Z,48773.157,1635404490,full,ni_sequenzen,NI_Sequenzen,,,,,,,,,,,,,,
,Screen_2,canvas.Screen,0_0_7_1,,skipped,8,48663.69999998808,,,48662.59999999404,,48663.69999998808,2021-10-28T07:02:25.600Z,48773.157,1635404490,full,ni_sequenzen,NI_Sequenzen,,,,,,,,,,,,,,
,Screen_3,canvas.Screen,0_0_7_2,,skipped,8,48666.5,,,48662.59999999404,,48666.59999999404,2021-10-28T07:02:25.603Z,48773.157,1635404490,full,ni_sequenzen,NI_Sequenzen,,,,,,,,,,,,,,
,Screen_4,canvas.Screen,0_0_7_3,,skipped,8,48667.79999998212,,,48662.59999999404,,48667.89999997616,2021-10-28T07:02:25.604Z,48773.157,1635404490,full,ni_sequenzen,NI_Sequenzen,,,,,,,,,,,,,,
,Sequence,flow.Sequence,0_0_7,,completion,8,48661.59999999404,,,48662.59999999404,,48668,2021-10-28T07:02:25.604Z,48773.157,1635404490,full,ni_sequenzen,NI_Sequenzen,,,,,,,,,,,,,,
,Screen_1,canvas.Screen,0_0_8_0,,skipped,9,48669.59999999404,,,48669.59999999404,,48669.69999998808,2021-10-28T07:02:25.606Z,48773.157,1635404490,full,ni_sequenzen,NI_Sequenzen,,,,,,,,,,,,,,
,Screen_2,canvas.Screen,0_0_8_1,,skipped,9,48670.59999999404,,,48669.59999999404,,48670.69999998808,2021-10-28T07:02:25.607Z,48773.157,1635404490,full,ni_sequenzen,NI_Sequenzen,,,,,,,,,,,,,,
,Screen_3,canvas.Screen,0_0_8_2,,skipped,9,48671.69999998808,,,48669.59999999404,,48671.79999998212,2021-10-28T07:02:25.608Z,48773.157,1635404490,full,ni_sequenzen,NI_Sequenzen,,,,,,,,,,,,,,
,Screen_4,canvas.Screen,0_0_8_3,,skipped,9,48672.89999997616,,,48669.59999999404,,48673,2021-10-28T07:02:25.609Z,48773.157,1635404490,full,ni_sequenzen,NI_Sequenzen,,,,,,,,,,,,,,
,Sequence,flow.Sequence,0_0_8,,completion,9,48668.59999999404,,,48669.59999999404,,48673.09999999404,2021-10-28T07:02:25.609Z,48773.157,1635404490,full,ni_sequenzen,NI_Sequenzen,,,,,,,,,,,,,,
,Screen_1,canvas.Screen,0_0_9_0,,skipped,10,48674.79999998212,,,48674.79999998212,,48674.79999998212,2021-10-28T07:02:25.611Z,48773.157,1635404490,full,ni_sequenzen,NI_Sequenzen,,,,,,,,,,,,,,
,Screen_2,canvas.Screen,0_0_9_1,,skipped,10,48675.89999997616,,,48674.79999998212,,48676.09999999404,2021-10-28T07:02:25.612Z,48773.157,1635404490,full,ni_sequenzen,NI_Sequenzen,,,,,,,,,,,,,,
,Screen_3,canvas.Screen,0_0_9_2,,skipped,10,48677.09999999404,,,48674.79999998212,,48677.09999999404,2021-10-28T07:02:25.613Z,48773.157,1635404490,full,ni_sequenzen,NI_Sequenzen,,,,,,,,,,,,,,
,Screen_4,canvas.Screen,0_0_9_3,,skipped,10,48678.29999998212,,,48674.79999998212,,48678.39999997616,2021-10-28T07:02:25.614Z,48773.157,1635404490,full,ni_sequenzen,NI_Sequenzen,,,,,,,,,,,,,,
,Sequence,flow.Sequence,0_0_9,,completion,10,48673.5,,,48674.79999998212,,48678.5,2021-10-28T07:02:25.615Z,48773.157,1635404490,full,ni_sequenzen,NI_Sequenzen,,,,,,,,,,,,,,
,Screen_1,canvas.Screen,0_0_10_0,,skipped,11,48680.19999998808,,,48680.19999998808,,48680.19999998808,2021-10-28T07:02:25.616Z,48773.157,1635404490,full,ni_sequenzen,NI_Sequenzen,,,,,,,,,,,,,,
,Screen_2,canvas.Screen,0_0_10_1,,skipped,11,48681.19999998808,,,48680.19999998808,,48681.29999998212,2021-10-28T07:02:25.617Z,48773.157,1635404490,full,ni_sequenzen,NI_Sequenzen,,,,,,,,,,,,,,
,Screen_3,canvas.Screen,0_0_10_2,,skipped,11,48682.19999998808,,,48680.19999998808,,48682.39999997616,2021-10-28T07:02:25.618Z,48773.157,1635404490,full,ni_sequenzen,NI_Sequenzen,,,,,,,,,,,,,,
,Screen_4,canvas.Screen,0_0_10_3,,skipped,11,48684.39999997616,,,48680.19999998808,,48684.39999997616,2021-10-28T07:02:25.621Z,48773.157,1635404490,full,ni_sequenzen,NI_Sequenzen,,,,,,,,,,,,,,
,Sequence,flow.Sequence,0_0_10,,completion,11,48679,,,48680.19999998808,,48684.59999999404,2021-10-28T07:02:25.621Z,48773.157,1635404490,full,ni_sequenzen,NI_Sequenzen,,,,,,,,,,,,,,
,Screen_1,canvas.Screen,0_0_11_0,,skipped,12,48689,,,48689,,48689.09999999404,2021-10-28T07:02:25.625Z,48773.157,1635404490,full,ni_sequenzen,NI_Sequenzen,,,,,,,,,,,,,,
,Screen_2,canvas.Screen,0_0_11_1,,skipped,12,48690.59999999404,,,48689,,48690.79999998212,2021-10-28T07:02:25.627Z,48773.157,1635404490,full,ni_sequenzen,NI_Sequenzen,,,,,,,,,,,,,,
,Screen_3,canvas.Screen,0_0_11_2,,skipped,12,48692.09999999404,,,48689,,48692.29999998212,2021-10-28T07:02:25.628Z,48773.157,1635404490,full,ni_sequenzen,NI_Sequenzen,,,,,,,,,,,,,,
,Screen_4,canvas.Screen,0_0_11_3,,skipped,12,48693.59999999404,,,48689,,48693.69999998808,2021-10-28T07:02:25.630Z,48773.157,1635404490,full,ni_sequenzen,NI_Sequenzen,,,,,,,,,,,,,,
,Sequence,flow.Sequence,0_0_11,,completion,12,48685.89999997616,,,48689,,48693.79999998212,2021-10-28T07:02:25.630Z,48773.157,1635404490,full,ni_sequenzen,NI_Sequenzen,,,,,,,,,,,,,,
,Screen_1,canvas.Screen,0_0_12_0,,skipped,13,48695.59999999404,,,48695.59999999404,,48695.69999998808,2021-10-28T07:02:25.632Z,48773.157,1635404490,full,ni_sequenzen,NI_Sequenzen,,,,,,,,,,,,,,
,Screen_2,canvas.Screen,0_0_12_1,,skipped,13,48696.59999999404,,,48695.59999999404,,48696.69999998808,2021-10-28T07:02:25.633Z,48773.157,1635404490,full,ni_sequenzen,NI_Sequenzen,,,,,,,,,,,,,,
,Screen_3,canvas.Screen,0_0_12_2,,skipped,13,48697.69999998808,,,48695.59999999404,,48697.89999997616,2021-10-28T07:02:25.634Z,48773.157,1635404490,full,ni_sequenzen,NI_Sequenzen,,,,,,,,,,,,,,
,Screen_4,canvas.Screen,0_0_12_3,,skipped,13,48698.89999997616,,,48695.59999999404,,48699,2021-10-28T07:02:25.635Z,48773.157,1635404490,full,ni_sequenzen,NI_Sequenzen,,,,,,,,,,,,,,
,Sequence,flow.Sequence,0_0_12,,completion,13,48694.39999997616,,,48695.59999999404,,48699.09999999404,2021-10-28T07:02:25.635Z,48773.157,1635404490,full,ni_sequenzen,NI_Sequenzen,,,,,,,,,,,,,,
,Screen_1,canvas.Screen,0_0_13_0,,skipped,14,48700.39999997616,,,48700.39999997616,,48700.5,2021-10-28T07:02:25.637Z,48773.157,1635404490,full,ni_sequenzen,NI_Sequenzen,,,,,,,,,,,,,,
,Screen_2,canvas.Screen,0_0_13_1,,skipped,14,48701,,,48700.39999997616,,48701.09999999404,2021-10-28T07:02:25.637Z,48773.157,1635404490,full,ni_sequenzen,NI_Sequenzen,,,,,,,,,,,,,,
,Screen_3,canvas.Screen,0_0_13_2,,skipped,14,48701.69999998808,,,48700.39999997616,,48701.69999998808,2021-10-28T07:02:25.638Z,48773.157,1635404490,full,ni_sequenzen,NI_Sequenzen,,,,,,,,,,,,,,
,Screen_4,canvas.Screen,0_0_13_3,,skipped,14,48702.29999998212,,,48700.39999997616,,48702.39999997616,2021-10-28T07:02:25.638Z,48773.157,1635404490,full,ni_sequenzen,NI_Sequenzen,,,,,,,,,,,,,,
,Sequence,flow.Sequence,0_0_13,,completion,14,48699.69999998808,,,48700.39999997616,,48702.5,2021-10-28T07:02:25.638Z,48773.157,1635404490,full,ni_sequenzen,NI_Sequenzen,,,,,,,,,,,,,,
,Screen_1,canvas.Screen,0_0_14_0,,skipped,15,48703.89999997616,,,48703.89999997616,,48703.89999997616,2021-10-28T07:02:25.640Z,48773.157,1635404490,full,ni_sequenzen,NI_Sequenzen,,,,,,,,,,,,,,
,Screen_2,canvas.Screen,0_0_14_1,,skipped,15,48704.69999998808,,,48703.89999997616,,48704.69999998808,2021-10-28T07:02:25.641Z,48773.157,1635404490,full,ni_sequenzen,NI_Sequenzen,,,,,,,,,,,,,,
,Screen_3,canvas.Screen,0_0_14_2,,skipped,15,48705.29999998212,,,48703.89999997616,,48705.29999998212,2021-10-28T07:02:25.641Z,48773.157,1635404490,full,ni_sequenzen,NI_Sequenzen,,,,,,,,,,,,,,
,Screen_4,canvas.Screen,0_0_14_3,,skipped,15,48705.89999997616,,,48703.89999997616,,48705.89999997616,2021-10-28T07:02:25.642Z,48773.157,1635404490,full,ni_sequenzen,NI_Sequenzen,,,,,,,,,,,,,,
,Sequence,flow.Sequence,0_0_14,,completion,15,48702.59999999404,,,48703.89999997616,,48706.09999999404,2021-10-28T07:02:25.642Z,48773.157,1635404490,full,ni_sequenzen,NI_Sequenzen,,,,,,,,,,,,,,
,Screen_1,canvas.Screen,0_0_15_0,,skipped,16,48706.89999997616,,,48706.89999997616,,48706.89999997616,2021-10-28T07:02:25.643Z,48773.157,1635404490,full,ni_sequenzen,NI_Sequenzen,,,,,,,,,,,,,,
,Screen_2,canvas.Screen,0_0_15_1,,skipped,16,48707.89999997616,,,48706.89999997616,,48708,2021-10-28T07:02:25.644Z,48773.157,1635404490,full,ni_sequenzen,NI_Sequenzen,,,,,,,,,,,,,,
,Screen_3,canvas.Screen,0_0_15_2,,skipped,16,48711.5,,,48706.89999997616,,48711.5,2021-10-28T07:02:25.648Z,48773.157,1635404490,full,ni_sequenzen,NI_Sequenzen,,,,,,,,,,,,,,
,Screen_4,canvas.Screen,0_0_15_3,,skipped,16,48712.39999997616,,,48706.89999997616,,48712.5,2021-10-28T07:02:25.649Z,48773.157,1635404490,full,ni_sequenzen,NI_Sequenzen,,,,,,,,,,,,,,
,Sequence,flow.Sequence,0_0_15,,completion,16,48706.29999998212,,,48706.89999997616,,48712.59999999404,2021-10-28T07:02:25.649Z,48773.157,1635404490,full,ni_sequenzen,NI_Sequenzen,,,,,,,,,,,,,,
,Screen_1,canvas.Screen,0_0_16_0,,skipped,17,48713.79999998212,,,48713.79999998212,,48713.79999998212,2021-10-28T07:02:25.650Z,48773.157,1635404490,full,ni_sequenzen,NI_Sequenzen,,,,,,,,,,,,,,
,Screen_2,canvas.Screen,0_0_16_1,,skipped,17,48714.69999998808,,,48713.79999998212,,48714.69999998808,2021-10-28T07:02:25.651Z,48773.157,1635404490,full,ni_sequenzen,NI_Sequenzen,,,,,,,,,,,,,,
,Screen_3,canvas.Screen,0_0_16_2,,skipped,17,48715.59999999404,,,48713.79999998212,,48715.69999998808,2021-10-28T07:02:25.652Z,48773.157,1635404490,full,ni_sequenzen,NI_Sequenzen,,,,,,,,,,,,,,
,Screen_4,canvas.Screen,0_0_16_3,,skipped,17,48716.5,,,48713.79999998212,,48716.5,2021-10-28T07:02:25.653Z,48773.157,1635404490,full,ni_sequenzen,NI_Sequenzen,,,,,,,,,,,,,,
,Sequence,flow.Sequence,0_0_16,,completion,17,48713.09999999404,,,48713.79999998212,,48716.59999999404,2021-10-28T07:02:25.653Z,48773.157,1635404490,full,ni_sequenzen,NI_Sequenzen,,,,,,,,,,,,,,
,Screen_1,canvas.Screen,0_0_17_0,,skipped,18,48717.79999998212,,,48717.79999998212,,48717.89999997616,2021-10-28T07:02:25.654Z,48773.157,1635404490,full,ni_sequenzen,NI_Sequenzen,,,,,,,,,,,,,,
,Screen_2,canvas.Screen,0_0_17_1,,skipped,18,48718.69999998808,,,48717.79999998212,,48718.79999998212,2021-10-28T07:02:25.655Z,48773.157,1635404490,full,ni_sequenzen,NI_Sequenzen,,,,,,,,,,,,,,
,Screen_3,canvas.Screen,0_0_17_2,,skipped,18,48721.09999999404,,,48717.79999998212,,48721.19999998808,2021-10-28T07:02:25.657Z,48773.157,1635404490,full,ni_sequenzen,NI_Sequenzen,,,,,,,,,,,,,,
,Screen_4,canvas.Screen,0_0_17_3,,skipped,18,48721.79999998212,,,48717.79999998212,,48721.89999997616,2021-10-28T07:02:25.658Z,48773.157,1635404490,full,ni_sequenzen,NI_Sequenzen,,,,,,,,,,,,,,
,Sequence,flow.Sequence,0_0_17,,completion,18,48717,,,48717.79999998212,,48722,2021-10-28T07:02:25.658Z,48773.157,1635404490,full,ni_sequenzen,NI_Sequenzen,,,,,,,,,,,,,,
,Screen_1,canvas.Screen,0_0_18_0,,skipped,19,48722.79999998212,,,48722.79999998212,,48722.89999997616,2021-10-28T07:02:25.659Z,48773.157,1635404490,full,ni_sequenzen,NI_Sequenzen,,,,,,,,,,,,,,
,Screen_2,canvas.Screen,0_0_18_1,,skipped,19,48723.29999998212,,,48722.79999998212,,48723.29999998212,2021-10-28T07:02:25.659Z,48773.157,1635404490,full,ni_sequenzen,NI_Sequenzen,,,,,,,,,,,,,,
,Screen_3,canvas.Screen,0_0_18_2,,skipped,19,48723.79999998212,,,48722.79999998212,,48723.89999997616,2021-10-28T07:02:25.660Z,48773.157,1635404490,full,ni_sequenzen,NI_Sequenzen,,,,,,,,,,,,,,
,Screen_4,canvas.Screen,0_0_18_3,,skipped,19,48724.29999998212,,,48722.79999998212,,48724.39999997616,2021-10-28T07:02:25.660Z,48773.157,1635404490,full,ni_sequenzen,NI_Sequenzen,,,,,,,,,,,,,,
,Sequence,flow.Sequence,0_0_18,,completion,19,48722.19999998808,,,48722.79999998212,,48724.5,2021-10-28T07:02:25.661Z,48773.157,1635404490,full,ni_sequenzen,NI_Sequenzen,,,,,,,,,,,,,,
,Screen_1,canvas.Screen,0_0_19_0,,skipped,20,48725.19999998808,,,48725.19999998808,,48725.29999998212,2021-10-28T07:02:25.661Z,48773.157,1635404490,full,ni_sequenzen,NI_Sequenzen,,,,,,,,,,,,,,
,Screen_2,canvas.Screen,0_0_19_1,,skipped,20,48725.69999998808,,,48725.19999998808,,48725.79999998212,2021-10-28T07:02:25.662Z,48773.157,1635404490,full,ni_sequenzen,NI_Sequenzen,,,,,,,,,,,,,,
,Screen_3,canvas.Screen,0_0_19_2,,skipped,20,48726.19999998808,,,48725.19999998808,,48726.29999998212,2021-10-28T07:02:25.662Z,48773.157,1635404490,full,ni_sequenzen,NI_Sequenzen,,,,,,,,,,,,,,
,Screen_4,canvas.Screen,0_0_19_3,,skipped,20,48726.79999998212,,,48725.19999998808,,48726.79999998212,2021-10-28T07:02:25.663Z,48773.157,1635404490,full,ni_sequenzen,NI_Sequenzen,,,,,,,,,,,,,,
,Sequence,flow.Sequence,0_0_19,,completion,20,48724.59999999404,,,48725.19999998808,,48726.89999997616,2021-10-28T07:02:25.663Z,48773.157,1635404490,full,ni_sequenzen,NI_Sequenzen,,,,,,,,,,,,,,
,Instructions_I,flow.Loop,0_0,,completion,,579.3999999761581,616.721,683.131,48725.19999998808,48042.06899998808,48726.89999997616,2021-10-28T07:02:25.663Z,48773.157,1635404490,full,ni_sequenzen,NI_Sequenzen,,,,,,,,,,,,,,
,Move,canvas.Screen,0_1_0_0,down,response,,48740,48734.449,48773.157,50298,1524.8430000000008,50299.29999998212,2021-10-28T07:02:27.235Z,50331.259,1635404490,full,ni_sequenzen,NI_Sequenzen,1,,,,,,,,,,,,,
,Move,canvas.Screen,0_1_0_1,down,response,,50303,50292.808,50331.259,50698.09999999404,366.84099999404134,50699.29999998212,2021-10-28T07:02:27.635Z,50706.293,1635404490,full,ni_sequenzen,NI_Sequenzen,2,,,,,,,,,,,,,
,Move,canvas.Screen,0_1_0_2,left,response,,50704.59999999404,50704.81,50706.293,51988.19999998808,1281.9069999880812,51989.19999998808,2021-10-28T07:02:28.925Z,51993.23,1635404490,full,ni_sequenzen,NI_Sequenzen,3,,,,,,,,,,,,,
,Move,canvas.Screen,0_1_0_3,left,response,,51991.69999998808,51990.893,51993.23,52368.19999998808,374.96999998807587,52369.19999998808,2021-10-28T07:02:29.305Z,52372.716,1635404490,full,ni_sequenzen,NI_Sequenzen,4,,,,,,,,,,,,,
,Move,canvas.Screen,0_1_0_4,right,response,,52371.19999998808,52360.524,52372.716,52868.59999999404,495.8839999940392,52869.79999998212,2021-10-28T07:02:29.806Z,52900.698,1635404490,full,ni_sequenzen,NI_Sequenzen,5,,,,,,,,,,,,,
,Move,canvas.Screen,0_1_0_5,right,response,,52872.19999998808,52856.644,52900.698,53158.09999999404,257.40199999404285,53159.19999998808,2021-10-28T07:02:30.095Z,53162.876,1635404490,full,ni_sequenzen,NI_Sequenzen,6,,,,,,,,,,,,,
,Move,canvas.Screen,0_1_0_6,down,response,,53161.29999998212,53157.635,53162.876,53787.69999998808,624.8239999880825,53788.39999997616,2021-10-28T07:02:30.725Z,53815.268,1635404490,full,ni_sequenzen,NI_Sequenzen,7,,,,,,,,,,,,,
,Move,canvas.Screen,0_1_0_7,down,response,,53790.59999999404,53780.336,53815.268,54138.09999999404,322.83199999404314,54139.19999998808,2021-10-28T07:02:31.075Z,54176.372,1635404490,full,ni_sequenzen,NI_Sequenzen,8,,,,,,,,,,,,,
,Move,canvas.Screen,0_1_0_8,down,response,,54141.39999997616,54162.087,54176.372,54437.69999998808,261.32799998807604,54438.79999998212,2021-10-28T07:02:31.375Z,54468.404,1635404490,full,ni_sequenzen,NI_Sequenzen,9,,,,,,,,,,,,,
,Move,canvas.Screen,0_1_0_9,left,response,,54441.29999998212,54426.832,54468.404,54747.89999997616,279.4959999761559,54749,2021-10-28T07:02:31.685Z,54775.967,1635404490,full,ni_sequenzen,NI_Sequenzen,10,,,,,,,,,,,,,
,Move,canvas.Screen,0_1_0_10,left,response,,54751,54742.988,54775.967,54988,212.03300000000309,54989.09999999404,2021-10-28T07:02:31.925Z,55025.14,1635404490,full,ni_sequenzen,NI_Sequenzen,11,,,,,,,,,,,,,
,Move,canvas.Screen,0_1_0_11,left,response,,54991.39999997616,54986.62,55025.14,55188,162.86000000000058,55189.09999999404,2021-10-28T07:02:32.125Z,55211.764,1635404490,full,ni_sequenzen,NI_Sequenzen,12,,,,,,,,,,,,,
,Move,canvas.Screen,0_1_0_12,right,response,,55191.5,55176.635,55211.764,55868.09999999404,656.3359999940367,55869.19999998808,2021-10-28T07:02:32.805Z,55894.621,1635404490,full,ni_sequenzen,NI_Sequenzen,13,,,,,,,,,,,,,
,Move,canvas.Screen,0_1_0_13,down,response,,55871.19999998808,55860.921,55894.621,56408.09999999404,513.4789999940404,56409.09999999404,2021-10-28T07:02:33.345Z,56413.952,1635404490,full,ni_sequenzen,NI_Sequenzen,14,,,,,,,,,,,,,
,Move,canvas.Screen,0_1_0_14,down,response,,56412.39999997616,56406.845,56413.952,56748,334.0480000000025,56749.09999999404,2021-10-28T07:02:33.685Z,56784.881,1635404490,full,ni_sequenzen,NI_Sequenzen,15,,,,,,,,,,,,,
,Move,canvas.Screen,0_1_0_15,down,response,,56751.5,56747.921,56784.881,57058.09999999404,273.2189999940383,57059.29999998212,2021-10-28T07:02:33.995Z,57087.209,1635404490,full,ni_sequenzen,NI_Sequenzen,16,,,,,,,,,,,,,
,Move,canvas.Screen,0_1_0_16,right,response,,57062,57053.601,57087.209,57568.09999999404,480.890999994037,57569.09999999404,2021-10-28T07:02:34.505Z,57598.765,1635404490,full,ni_sequenzen,NI_Sequenzen,17,,,,,,,,,,,,,
,Move,canvas.Screen,0_1_0_17,right,response,,57571.09999999404,57564.26,57598.765,57858.19999998808,259.43499998807965,57859.09999999404,2021-10-28T07:02:34.795Z,57894.925,1635404490,full,ni_sequenzen,NI_Sequenzen,18,,,,,,,,,,,,,
,Move,canvas.Screen,0_1_0_18,right,response,,57861.79999998212,57856.345,57894.925,58278.29999998212,383.3749999821157,58279.29999998212,2021-10-28T07:02:35.215Z,58314.665,1635404490,full,ni_sequenzen,NI_Sequenzen,19,,,,,,,,,,,,,
,Move,canvas.Screen,0_1_0_19,down,response,,58281.59999999404,58280.534,58314.665,58508.09999999404,193.43499999403866,58509.19999998808,2021-10-28T07:02:35.445Z,58536.56,1635404490,full,ni_sequenzen,NI_Sequenzen,20,,,,,,,,,,,,,
,Move,canvas.Screen,0_1_0_20,down,response,,58511.69999998808,58500.242,58536.56,58828.09999999404,291.53999999404186,58829.29999998212,2021-10-28T07:02:35.765Z,58833.241,1635404490,full,ni_sequenzen,NI_Sequenzen,21,,,,,,,,,,,,,
,Move,canvas.Screen,0_1_0_21,down,response,,58831.59999999404,58830.524,58833.241,59058.19999998808,224.95899998807727,59059.29999998212,2021-10-28T07:02:35.995Z,59087.042,1635404490,full,ni_sequenzen,NI_Sequenzen,22,,,,,,,,,,,,,
,Move,canvas.Screen,0_1_0_22,down,response,,59062,59050.505,59087.042,59318.09999999404,231.05799999403825,59319,2021-10-28T07:02:36.255Z,59354.003,1635404490,full,ni_sequenzen,NI_Sequenzen,23,,,,,,,,,,,,,
,Move,canvas.Screen,0_1_0_23,left,response,,59321,59314.209,59354.003,59648,293.997000000003,59649.09999999404,2021-10-28T07:02:36.585Z,59676.109,1635404490,full,ni_sequenzen,NI_Sequenzen,24,,,,,,,,,,,,,
,Move,canvas.Screen,0_1_0_24,left,response,,59651.39999997616,59639.803,59676.109,59898.09999999404,221.9909999940428,59899.19999998808,2021-10-28T07:02:36.835Z,59924.993,1635404490,full,ni_sequenzen,NI_Sequenzen,25,,,,,,,,,,,,,
,Move,canvas.Screen,0_1_0_25,left,response,,59901.19999998808,59886.734,59924.993,60108.19999998808,183.20699998807686,60109.29999998212,2021-10-28T07:02:37.045Z,60140.235,1635404490,full,ni_sequenzen,NI_Sequenzen,26,,,,,,,,,,,,,
,Move,canvas.Screen,0_1_0_26,left,response,,60114.19999998808,60103.254,60140.235,60348.19999998808,207.9649999880785,60349.19999998808,2021-10-28T07:02:37.285Z,60384.452,1635404490,full,ni_sequenzen,NI_Sequenzen,27,,,,,,,,,,,,,
,Move,canvas.Screen,0_1_0_27,right,response,,60351.39999997616,60349.482,60384.452,60958.09999999404,573.647999994042,60959.29999998212,2021-10-28T07:02:37.895Z,60987.032,1635404490,full,ni_sequenzen,NI_Sequenzen,28,,,,,,,,,,,,,
,Move,canvas.Screen,0_1_0_28,down,response,,60961.89999997616,60953.517,60987.032,61238.09999999404,251.0679999940403,61239.09999999404,2021-10-28T07:02:38.175Z,61280.587,1635404490,full,ni_sequenzen,NI_Sequenzen,29,,,,,,,,,,,,,
,Move,canvas.Screen,0_1_0_29,right,response,,61247.29999998212,61247.238,61280.587,61737.89999997616,457.3129999761586,61738.79999998212,2021-10-28T07:02:38.675Z,61812.145,1635404490,full,ni_sequenzen,NI_Sequenzen,30,,,,,,,,,,,,,
,Loop,flow.Loop,0_1_0,-999,completion,,48737.39999997616,48734.449,48773.157,61737.89999997616,12964.742999976159,61739.09999999404,2021-10-28T07:02:38.675Z,61812.145,1635404490,full,ni_sequenzen,NI_Sequenzen,,,,,,,,,,,,,,
,Training_I,flow.Sequence,0_1,,completion,,48727.19999998808,48734.449,48773.157,61737.89999997616,12964.742999976159,61739.29999998212,2021-10-28T07:02:38.675Z,61812.145,1635404490,full,ni_sequenzen,NI_Sequenzen,,,,,,,,,,,,,,
,Screen_1,canvas.Screen,0_2_0_0,cont,response,1,61810.59999999404,61799.571,61812.145,61998.09999999404,185.95499999404274,61999,2021-10-28T07:02:38.935Z,62113.154,1635404490,full,ni_sequenzen,NI_Sequenzen,,,,,,,,,,,,,,
,Screen_2,canvas.Screen,0_2_0_1,back,response,1,62111.5,62096.131,62113.154,63888.59999999404,1775.4459999940373,63889.69999998808,2021-10-28T07:02:40.826Z,64054.271,1635404490,full,ni_sequenzen,NI_Sequenzen,,,,,,,,,,,,,,
,Screen_3,canvas.Screen,0_2_0_2,,skipped,1,63891.69999998808,,,63888.59999999404,,63892,2021-10-28T07:02:40.828Z,64054.271,1635404490,full,ni_sequenzen,NI_Sequenzen,,,,,,,,,,,,,,
,Screen_4,canvas.Screen,0_2_0_3,,skipped,1,63968.5,,,63888.59999999404,,63968.69999998808,2021-10-28T07:02:40.905Z,64054.271,1635404490,full,ni_sequenzen,NI_Sequenzen,,,,,,,,,,,,,,
,Screen_5,canvas.Screen,0_2_0_4,,skipped,1,63972.09999999404,,,63888.59999999404,,63972.19999998808,2021-10-28T07:02:40.908Z,64054.271,1635404490,full,ni_sequenzen,NI_Sequenzen,,,,,,,,,,,,,,
,Screen_6,canvas.Screen,0_2_0_5,,skipped,1,64018,,,63888.59999999404,,64018.19999998808,2021-10-28T07:02:40.954Z,64054.271,1635404490,full,ni_sequenzen,NI_Sequenzen,,,,,,,,,,,,,,
,Sequence,flow.Sequence,0_2_0,,completion,1,61809.19999998808,61799.571,61812.145,63888.59999999404,2076.4549999940427,64018.5,2021-10-28T07:02:40.955Z,64054.271,1635404490,full,ni_sequenzen,NI_Sequenzen,,,,,,,,,,,,,,
,Screen_1,canvas.Screen,0_2_1_0,cont,response,2,64021.5,64014.876,64054.271,75598.5,11544.229,75599.5,2021-10-28T07:02:52.535Z,75634.356,1635404490,full,ni_sequenzen,NI_Sequenzen,,,,,,,,,,,,,,
,Screen_2,canvas.Screen,0_2_1_1,cont,response,2,75601.39999997616,75597.924,75634.356,86978.39999997616,11344.043999976158,86979.19999998808,2021-10-28T07:03:03.915Z,86982.686,1635404490,full,ni_sequenzen,NI_Sequenzen,,,,,,,,,,,,,,
,Screen_3,canvas.Screen,0_2_1_2,cont,response,2,86981.09999999404,86977.711,86982.686,96218.19999998808,9235.513999988078,96219.19999998808,2021-10-28T07:03:13.155Z,96222.981,1635404490,full,ni_sequenzen,NI_Sequenzen,,,,,,,,,,,,,,
,Screen_4,canvas.Screen,0_2_1_3,cont,response,2,96221.29999998212,96205.899,96222.981,105898.29999998212,9675.318999982119,105899.19999998808,2021-10-28T07:03:22.835Z,105902.471,1635404490,full,ni_sequenzen,NI_Sequenzen,,,,,,,,,,,,,,
,Screen_5,canvas.Screen,0_2_1_4,cont,response,2,105900.89999997616,105896.486,105902.471,112878.09999999404,6975.6289999940345,112879.09999999404,2021-10-28T07:03:29.815Z,112907.482,1635404490,full,ni_sequenzen,NI_Sequenzen,,,,,,,,,,,,,,
,Screen_6,canvas.Screen,0_2_1_5,cont,response,2,112881.19999998808,112874.231,112907.482,124608.39999997616,11700.917999976155,124609.59999999404,2021-10-28T07:03:41.546Z,124843.504,1635404490,full,ni_sequenzen,NI_Sequenzen,,,,,,,,,,,,,,
,Sequence,flow.Sequence,0_2_1,,completion,2,64019.59999999404,64014.876,64054.271,124608.39999997616,60554.12899997616,124609.79999998212,2021-10-28T07:03:41.546Z,124843.504,1635404490,full,ni_sequenzen,NI_Sequenzen,,,,,,,,,,,,,,
,Screen_1,canvas.Screen,0_2_2_0,,skipped,3,124613.79999998212,,,124613.79999998212,,124614,2021-10-28T07:03:41.550Z,124843.504,1635404490,full,ni_sequenzen,NI_Sequenzen,,,,,,,,,,,,,,
,Screen_2,canvas.Screen,0_2_2_1,,skipped,3,124615.09999999404,,,124613.79999998212,,124615.19999998808,2021-10-28T07:03:41.551Z,124843.504,1635404490,full,ni_sequenzen,NI_Sequenzen,,,,,,,,,,,,,,
,Screen_3,canvas.Screen,0_2_2_2,,skipped,3,124616.39999997616,,,124613.79999998212,,124616.39999997616,2021-10-28T07:03:41.552Z,124843.504,1635404490,full,ni_sequenzen,NI_Sequenzen,,,,,,,,,,,,,,
,Screen_4,canvas.Screen,0_2_2_3,,skipped,3,124617.39999997616,,,124613.79999998212,,124617.5,2021-10-28T07:03:41.554Z,124843.504,1635404490,full,ni_sequenzen,NI_Sequenzen,,,,,,,,,,,,,,
,Screen_5,canvas.Screen,0_2_2_4,,skipped,3,124618.59999999404,,,124613.79999998212,,124618.69999998808,2021-10-28T07:03:41.555Z,124843.504,1635404490,full,ni_sequenzen,NI_Sequenzen,,,,,,,,,,,,,,
,Screen_6,canvas.Screen,0_2_2_5,,skipped,3,124619.79999998212,,,124613.79999998212,,124619.89999997616,2021-10-28T07:03:41.556Z,124843.504,1635404490,full,ni_sequenzen,NI_Sequenzen,,,,,,,,,,,,,,
,Sequence,flow.Sequence,0_2_2,,completion,3,124612.5,,,124613.79999998212,,124620,2021-10-28T07:03:41.556Z,124843.504,1635404490,full,ni_sequenzen,NI_Sequenzen,,,,,,,,,,,,,,
,Screen_1,canvas.Screen,0_2_3_0,,skipped,4,124621.5,,,124621.5,,124621.59999999404,2021-10-28T07:03:41.558Z,124843.504,1635404490,full,ni_sequenzen,NI_Sequenzen,,,,,,,,,,,,,,
,Screen_2,canvas.Screen,0_2_3_1,,skipped,4,124622.59999999404,,,124621.5,,124622.69999998808,2021-10-28T07:03:41.559Z,124843.504,1635404490,full,ni_sequenzen,NI_Sequenzen,,,,,,,,,,,,,,
,Screen_3,canvas.Screen,0_2_3_2,,skipped,4,124623.59999999404,,,124621.5,,124623.69999998808,2021-10-28T07:03:41.560Z,124843.504,1635404490,full,ni_sequenzen,NI_Sequenzen,,,,,,,,,,,,,,
,Screen_4,canvas.Screen,0_2_3_3,,skipped,4,124626,,,124621.5,,124626.09999999404,2021-10-28T07:03:41.562Z,124843.504,1635404490,full,ni_sequenzen,NI_Sequenzen,,,,,,,,,,,,,,
,Screen_5,canvas.Screen,0_2_3_4,,skipped,4,124627.09999999404,,,124621.5,,124627.19999998808,2021-10-28T07:03:41.563Z,124843.504,1635404490,full,ni_sequenzen,NI_Sequenzen,,,,,,,,,,,,,,
,Screen_6,canvas.Screen,0_2_3_5,,skipped,4,124628.09999999404,,,124621.5,,124628.29999998212,2021-10-28T07:03:41.564Z,124843.504,1635404490,full,ni_sequenzen,NI_Sequenzen,,,,,,,,,,,,,,
,Sequence,flow.Sequence,0_2_3,,completion,4,124620.5,,,124621.5,,124628.39999997616,2021-10-28T07:03:41.564Z,124843.504,1635404490,full,ni_sequenzen,NI_Sequenzen,,,,,,,,,,,,,,
,Screen_1,canvas.Screen,0_2_4_0,,skipped,5,124629.89999997616,,,124629.89999997616,,124630,2021-10-28T07:03:41.566Z,124843.504,1635404490,full,ni_sequenzen,NI_Sequenzen,,,,,,,,,,,,,,
,Screen_2,canvas.Screen,0_2_4_1,,skipped,5,124631,,,124629.89999997616,,124631.09999999404,2021-10-28T07:03:41.567Z,124843.504,1635404490,full,ni_sequenzen,NI_Sequenzen,,,,,,,,,,,,,,
,Screen_3,canvas.Screen,0_2_4_2,,skipped,5,124632.19999998808,,,124629.89999997616,,124632.29999998212,2021-10-28T07:03:41.568Z,124843.504,1635404490,full,ni_sequenzen,NI_Sequenzen,,,,,,,,,,,,,,
,Screen_4,canvas.Screen,0_2_4_3,,skipped,5,124633.19999998808,,,124629.89999997616,,124633.29999998212,2021-10-28T07:03:41.569Z,124843.504,1635404490,full,ni_sequenzen,NI_Sequenzen,,,,,,,,,,,,,,
,Screen_5,canvas.Screen,0_2_4_4,,skipped,5,124634.19999998808,,,124629.89999997616,,124634.19999998808,2021-10-28T07:03:41.570Z,124843.504,1635404490,full,ni_sequenzen,NI_Sequenzen,,,,,,,,,,,,,,
,Screen_6,canvas.Screen,0_2_4_5,,skipped,5,124635.09999999404,,,124629.89999997616,,124635.19999998808,2021-10-28T07:03:41.571Z,124843.504,1635404490,full,ni_sequenzen,NI_Sequenzen,,,,,,,,,,,,,,
,Sequence,flow.Sequence,0_2_4,,completion,5,124628.89999997616,,,124629.89999997616,,124635.39999997616,2021-10-28T07:03:41.571Z,124843.504,1635404490,full,ni_sequenzen,NI_Sequenzen,,,,,,,,,,,,,,
,Screen_1,canvas.Screen,0_2_5_0,,skipped,6,124636.79999998212,,,124636.79999998212,,124637,2021-10-28T07:03:41.573Z,124843.504,1635404490,full,ni_sequenzen,NI_Sequenzen,,,,,,,,,,,,,,
,Screen_2,canvas.Screen,0_2_5_1,,skipped,6,124637.89999997616,,,124636.79999998212,,124638,2021-10-28T07:03:41.574Z,124843.504,1635404490,full,ni_sequenzen,NI_Sequenzen,,,,,,,,,,,,,,
,Screen_3,canvas.Screen,0_2_5_2,,skipped,6,124638.89999997616,,,124636.79999998212,,124639,2021-10-28T07:03:41.575Z,124843.504,1635404490,full,ni_sequenzen,NI_Sequenzen,,,,,,,,,,,,,,
,Screen_4,canvas.Screen,0_2_5_3,,skipped,6,124639.89999997616,,,124636.79999998212,,124640,2021-10-28T07:03:41.576Z,124843.504,1635404490,full,ni_sequenzen,NI_Sequenzen,,,,,,,,,,,,,,
,Screen_5,canvas.Screen,0_2_5_4,,skipped,6,124640.89999997616,,,124636.79999998212,,124640.89999997616,2021-10-28T07:03:41.577Z,124843.504,1635404490,full,ni_sequenzen,NI_Sequenzen,,,,,,,,,,,,,,
,Screen_6,canvas.Screen,0_2_5_5,,skipped,6,124642.89999997616,,,124636.79999998212,,124643,2021-10-28T07:03:41.579Z,124843.504,1635404490,full,ni_sequenzen,NI_Sequenzen,,,,,,,,,,,,,,
,Sequence,flow.Sequence,0_2_5,,completion,6,124635.89999997616,,,124636.79999998212,,124643.19999998808,2021-10-28T07:03:41.579Z,124843.504,1635404490,full,ni_sequenzen,NI_Sequenzen,,,,,,,,,,,,,,
,Screen_1,canvas.Screen,0_2_6_0,,skipped,7,124644.79999998212,,,124644.89999997616,,124644.89999997616,2021-10-28T07:03:41.581Z,124843.504,1635404490,full,ni_sequenzen,NI_Sequenzen,,,,,,,,,,,,,,
,Screen_2,canvas.Screen,0_2_6_1,,skipped,7,124645.89999997616,,,124644.89999997616,,124646,2021-10-28T07:03:41.582Z,124843.504,1635404490,full,ni_sequenzen,NI_Sequenzen,,,,,,,,,,,,,,
,Screen_3,canvas.Screen,0_2_6_2,,skipped,7,124646.89999997616,,,124644.89999997616,,124647.09999999404,2021-10-28T07:03:41.583Z,124843.504,1635404490,full,ni_sequenzen,NI_Sequenzen,,,,,,,,,,,,,,
,Screen_4,canvas.Screen,0_2_6_3,,skipped,7,124648.09999999404,,,124644.89999997616,,124648.19999998808,2021-10-28T07:03:41.584Z,124843.504,1635404490,full,ni_sequenzen,NI_Sequenzen,,,,,,,,,,,,,,
,Screen_5,canvas.Screen,0_2_6_4,,skipped,7,124649.29999998212,,,124644.89999997616,,124649.5,2021-10-28T07:03:41.586Z,124843.504,1635404490,full,ni_sequenzen,NI_Sequenzen,,,,,,,,,,,,,,
,Screen_6,canvas.Screen,0_2_6_5,,skipped,7,124650.39999997616,,,124644.89999997616,,124650.5,2021-10-28T07:03:41.587Z,124843.504,1635404490,full,ni_sequenzen,NI_Sequenzen,,,,,,,,,,,,,,
,Sequence,flow.Sequence,0_2_6,,completion,7,124643.79999998212,,,124644.89999997616,,124650.69999998808,2021-10-28T07:03:41.587Z,124843.504,1635404490,full,ni_sequenzen,NI_Sequenzen,,,,,,,,,,,,,,
,Screen_1,canvas.Screen,0_2_7_0,,skipped,8,124652.09999999404,,,124652.09999999404,,124652.19999998808,2021-10-28T07:03:41.588Z,124843.504,1635404490,full,ni_sequenzen,NI_Sequenzen,,,,,,,,,,,,,,
,Screen_2,canvas.Screen,0_2_7_1,,skipped,8,124653.09999999404,,,124652.09999999404,,124653.09999999404,2021-10-28T07:03:41.589Z,124843.504,1635404490,full,ni_sequenzen,NI_Sequenzen,,,,,,,,,,,,,,
,Screen_3,canvas.Screen,0_2_7_2,,skipped,8,124653.89999997616,,,124652.09999999404,,124654.09999999404,2021-10-28T07:03:41.590Z,124843.504,1635404490,full,ni_sequenzen,NI_Sequenzen,,,,,,,,,,,,,,
,Screen_4,canvas.Screen,0_2_7_3,,skipped,8,124654.79999998212,,,124652.09999999404,,124655,2021-10-28T07:03:41.591Z,124843.504,1635404490,full,ni_sequenzen,NI_Sequenzen,,,,,,,,,,,,,,
,Screen_5,canvas.Screen,0_2_7_4,,skipped,8,124655.79999998212,,,124652.09999999404,,124655.79999998212,2021-10-28T07:03:41.592Z,124843.504,1635404490,full,ni_sequenzen,NI_Sequenzen,,,,,,,,,,,,,,
,Screen_6,canvas.Screen,0_2_7_5,,skipped,8,124656.69999998808,,,124652.09999999404,,124656.79999998212,2021-10-28T07:03:41.593Z,124843.504,1635404490,full,ni_sequenzen,NI_Sequenzen,,,,,,,,,,,,,,
,Sequence,flow.Sequence,0_2_7,,completion,8,124651.09999999404,,,124652.09999999404,,124656.79999998212,2021-10-28T07:03:41.593Z,124843.504,1635404490,full,ni_sequenzen,NI_Sequenzen,,,,,,,,,,,,,,
,Screen_1,canvas.Screen,0_2_8_0,,skipped,9,124666.19999998808,,,124666.29999998212,,124666.5,2021-10-28T07:03:41.603Z,124843.504,1635404490,full,ni_sequenzen,NI_Sequenzen,,,,,,,,,,,,,,
,Screen_2,canvas.Screen,0_2_8_1,,skipped,9,124668.09999999404,,,124666.29999998212,,124668.19999998808,2021-10-28T07:03:41.604Z,124843.504,1635404490,full,ni_sequenzen,NI_Sequenzen,,,,,,,,,,,,,,
,Screen_3,canvas.Screen,0_2_8_2,,skipped,9,124669.39999997616,,,124666.29999998212,,124669.5,2021-10-28T07:03:41.606Z,124843.504,1635404490,full,ni_sequenzen,NI_Sequenzen,,,,,,,,,,,,,,
,Screen_4,canvas.Screen,0_2_8_3,,skipped,9,124670.5,,,124666.29999998212,,124670.59999999404,2021-10-28T07:03:41.607Z,124843.504,1635404490,full,ni_sequenzen,NI_Sequenzen,,,,,,,,,,,,,,
,Screen_5,canvas.Screen,0_2_8_4,,skipped,9,124671.39999997616,,,124666.29999998212,,124671.59999999404,2021-10-28T07:03:41.608Z,124843.504,1635404490,full,ni_sequenzen,NI_Sequenzen,,,,,,,,,,,,,,
,Screen_6,canvas.Screen,0_2_8_5,,skipped,9,124672.39999997616,,,124666.29999998212,,124672.5,2021-10-28T07:03:41.609Z,124843.504,1635404490,full,ni_sequenzen,NI_Sequenzen,,,,,,,,,,,,,,
,Sequence,flow.Sequence,0_2_8,,completion,9,124657.29999998212,,,124666.29999998212,,124672.69999998808,2021-10-28T07:03:41.609Z,124843.504,1635404490,full,ni_sequenzen,NI_Sequenzen,,,,,,,,,,,,,,
,Screen_1,canvas.Screen,0_2_9_0,,skipped,10,124674.09999999404,,,124674.09999999404,,124674.09999999404,2021-10-28T07:03:41.610Z,124843.504,1635404490,full,ni_sequenzen,NI_Sequenzen,,,,,,,,,,,,,,
,Screen_2,canvas.Screen,0_2_9_1,,skipped,10,124675,,,124674.09999999404,,124675.09999999404,2021-10-28T07:03:41.611Z,124843.504,1635404490,full,ni_sequenzen,NI_Sequenzen,,,,,,,,,,,,,,
,Screen_3,canvas.Screen,0_2_9_2,,skipped,10,124675.89999997616,,,124674.09999999404,,124676,2021-10-28T07:03:41.612Z,124843.504,1635404490,full,ni_sequenzen,NI_Sequenzen,,,,,,,,,,,,,,
,Screen_4,canvas.Screen,0_2_9_3,,skipped,10,124676.79999998212,,,124674.09999999404,,124676.89999997616,2021-10-28T07:03:41.613Z,124843.504,1635404490,full,ni_sequenzen,NI_Sequenzen,,,,,,,,,,,,,,
,Screen_5,canvas.Screen,0_2_9_4,,skipped,10,124678.09999999404,,,124674.09999999404,,124678.5,2021-10-28T07:03:41.615Z,124843.504,1635404490,full,ni_sequenzen,NI_Sequenzen,,,,,,,,,,,,,,
,Screen_6,canvas.Screen,0_2_9_5,,skipped,10,124679.89999997616,,,124674.09999999404,,124680,2021-10-28T07:03:41.616Z,124843.504,1635404490,full,ni_sequenzen,NI_Sequenzen,,,,,,,,,,,,,,
,Sequence,flow.Sequence,0_2_9,,completion,10,124673.09999999404,,,124674.09999999404,,124680.09999999404,2021-10-28T07:03:41.616Z,124843.504,1635404490,full,ni_sequenzen,NI_Sequenzen,,,,,,,,,,,,,,
,Screen_1,canvas.Screen,0_2_10_0,,skipped,11,124681.5,,,124681.5,,124681.59999999404,2021-10-28T07:03:41.618Z,124843.504,1635404490,full,ni_sequenzen,NI_Sequenzen,,,,,,,,,,,,,,
,Screen_2,canvas.Screen,0_2_10_1,,skipped,11,124682.5,,,124681.5,,124682.5,2021-10-28T07:03:41.619Z,124843.504,1635404490,full,ni_sequenzen,NI_Sequenzen,,,,,,,,,,,,,,
,Screen_3,canvas.Screen,0_2_10_2,,skipped,11,124683.29999998212,,,124681.5,,124683.39999997616,2021-10-28T07:03:41.619Z,124843.504,1635404490,full,ni_sequenzen,NI_Sequenzen,,,,,,,,,,,,,,
,Screen_4,canvas.Screen,0_2_10_3,,skipped,11,124684.79999998212,,,124681.5,,124685,2021-10-28T07:03:41.621Z,124843.504,1635404490,full,ni_sequenzen,NI_Sequenzen,,,,,,,,,,,,,,
,Screen_5,canvas.Screen,0_2_10_4,,skipped,11,124685.69999998808,,,124681.5,,124685.79999998212,2021-10-28T07:03:41.622Z,124843.504,1635404490,full,ni_sequenzen,NI_Sequenzen,,,,,,,,,,,,,,
,Screen_6,canvas.Screen,0_2_10_5,,skipped,11,124686.5,,,124681.5,,124686.59999999404,2021-10-28T07:03:41.623Z,124843.504,1635404490,full,ni_sequenzen,NI_Sequenzen,,,,,,,,,,,,,,
,Sequence,flow.Sequence,0_2_10,,completion,11,124680.59999999404,,,124681.5,,124686.69999998808,2021-10-28T07:03:41.623Z,124843.504,1635404490,full,ni_sequenzen,NI_Sequenzen,,,,,,,,,,,,,,
,Screen_1,canvas.Screen,0_2_11_0,,skipped,12,124687.89999997616,,,124687.89999997616,,124688,2021-10-28T07:03:41.624Z,124843.504,1635404490,full,ni_sequenzen,NI_Sequenzen,,,,,,,,,,,,,,
,Screen_2,canvas.Screen,0_2_11_1,,skipped,12,124688.69999998808,,,124687.89999997616,,124688.69999998808,2021-10-28T07:03:41.625Z,124843.504,1635404490,full,ni_sequenzen,NI_Sequenzen,,,,,,,,,,,,,,
,Screen_3,canvas.Screen,0_2_11_2,,skipped,12,124689.5,,,124687.89999997616,,124689.69999998808,2021-10-28T07:03:41.626Z,124843.504,1635404490,full,ni_sequenzen,NI_Sequenzen,,,,,,,,,,,,,,
,Screen_4,canvas.Screen,0_2_11_3,,skipped,12,124690.59999999404,,,124687.89999997616,,124690.69999998808,2021-10-28T07:03:41.627Z,124843.504,1635404490,full,ni_sequenzen,NI_Sequenzen,,,,,,,,,,,,,,
,Screen_5,canvas.Screen,0_2_11_4,,skipped,12,124691.5,,,124687.89999997616,,124691.59999999404,2021-10-28T07:03:41.628Z,124843.504,1635404490,full,ni_sequenzen,NI_Sequenzen,,,,,,,,,,,,,,
,Screen_6,canvas.Screen,0_2_11_5,,skipped,12,124692.39999997616,,,124687.89999997616,,124692.5,2021-10-28T07:03:41.629Z,124843.504,1635404490,full,ni_sequenzen,NI_Sequenzen,,,,,,,,,,,,,,
,Sequence,flow.Sequence,0_2_11,,completion,12,124687.09999999404,,,124687.89999997616,,124692.59999999404,2021-10-28T07:03:41.629Z,124843.504,1635404490,full,ni_sequenzen,NI_Sequenzen,,,,,,,,,,,,,,
,Screen_1,canvas.Screen,0_2_12_0,,skipped,13,124693.79999998212,,,124693.79999998212,,124693.89999997616,2021-10-28T07:03:41.630Z,124843.504,1635404490,full,ni_sequenzen,NI_Sequenzen,,,,,,,,,,,,,,
,Screen_2,canvas.Screen,0_2_12_1,,skipped,13,124694.69999998808,,,124693.79999998212,,124694.79999998212,2021-10-28T07:03:41.631Z,124843.504,1635404490,full,ni_sequenzen,NI_Sequenzen,,,,,,,,,,,,,,
,Screen_3,canvas.Screen,0_2_12_2,,skipped,13,124695.59999999404,,,124693.79999998212,,124695.69999998808,2021-10-28T07:03:41.632Z,124843.504,1635404490,full,ni_sequenzen,NI_Sequenzen,,,,,,,,,,,,,,
,Screen_4,canvas.Screen,0_2_12_3,,skipped,13,124696.5,,,124693.79999998212,,124696.59999999404,2021-10-28T07:03:41.633Z,124843.504,1635404490,full,ni_sequenzen,NI_Sequenzen,,,,,,,,,,,,,,
,Screen_5,canvas.Screen,0_2_12_4,,skipped,13,124698.5,,,124693.79999998212,,124698.59999999404,2021-10-28T07:03:41.635Z,124843.504,1635404490,full,ni_sequenzen,NI_Sequenzen,,,,,,,,,,,,,,
,Screen_6,canvas.Screen,0_2_12_5,,skipped,13,124699.69999998808,,,124693.79999998212,,124699.79999998212,2021-10-28T07:03:41.636Z,124843.504,1635404490,full,ni_sequenzen,NI_Sequenzen,,,,,,,,,,,,,,
,Sequence,flow.Sequence,0_2_12,,completion,13,124693,,,124693.79999998212,,124700,2021-10-28T07:03:41.636Z,124843.504,1635404490,full,ni_sequenzen,NI_Sequenzen,,,,,,,,,,,,,,
,Screen_1,canvas.Screen,0_2_13_0,,skipped,14,124701.39999997616,,,124701.39999997616,,124701.5,2021-10-28T07:03:41.638Z,124843.504,1635404490,full,ni_sequenzen,NI_Sequenzen,,,,,,,,,,,,,,
,Screen_2,canvas.Screen,0_2_13_1,,skipped,14,124702.39999997616,,,124701.39999997616,,124702.5,2021-10-28T07:03:41.638Z,124843.504,1635404490,full,ni_sequenzen,NI_Sequenzen,,,,,,,,,,,,,,
,Screen_3,canvas.Screen,0_2_13_2,,skipped,14,124703.39999997616,,,124701.39999997616,,124703.39999997616,2021-10-28T07:03:41.639Z,124843.504,1635404490,full,ni_sequenzen,NI_Sequenzen,,,,,,,,,,,,,,
,Screen_4,canvas.Screen,0_2_13_3,,skipped,14,124704.29999998212,,,124701.39999997616,,124704.39999997616,2021-10-28T07:03:41.640Z,124843.504,1635404490,full,ni_sequenzen,NI_Sequenzen,,,,,,,,,,,,,,
,Screen_5,canvas.Screen,0_2_13_4,,skipped,14,124705.19999998808,,,124701.39999997616,,124705.39999997616,2021-10-28T07:03:41.641Z,124843.504,1635404490,full,ni_sequenzen,NI_Sequenzen,,,,,,,,,,,,,,
,Screen_6,canvas.Screen,0_2_13_5,,skipped,14,124706.09999999404,,,124701.39999997616,,124706.29999998212,2021-10-28T07:03:41.642Z,124843.504,1635404490,full,ni_sequenzen,NI_Sequenzen,,,,,,,,,,,,,,
,Sequence,flow.Sequence,0_2_13,,completion,14,124700.5,,,124701.39999997616,,124706.39999997616,2021-10-28T07:03:41.642Z,124843.504,1635404490,full,ni_sequenzen,NI_Sequenzen,,,,,,,,,,,,,,
,Screen_1,canvas.Screen,0_2_14_0,,skipped,15,124707.79999998212,,,124707.79999998212,,124707.89999997616,2021-10-28T07:03:41.644Z,124843.504,1635404490,full,ni_sequenzen,NI_Sequenzen,,,,,,,,,,,,,,
,Screen_2,canvas.Screen,0_2_14_1,,skipped,15,124708.79999998212,,,124707.79999998212,,124708.89999997616,2021-10-28T07:03:41.645Z,124843.504,1635404490,full,ni_sequenzen,NI_Sequenzen,,,,,,,,,,,,,,
,Screen_3,canvas.Screen,0_2_14_2,,skipped,15,124709.69999998808,,,124707.79999998212,,124709.79999998212,2021-10-28T07:03:41.646Z,124843.504,1635404490,full,ni_sequenzen,NI_Sequenzen,,,,,,,,,,,,,,
,Screen_4,canvas.Screen,0_2_14_3,,skipped,15,124710.59999999404,,,124707.79999998212,,124710.69999998808,2021-10-28T07:03:41.647Z,124843.504,1635404490,full,ni_sequenzen,NI_Sequenzen,,,,,,,,,,,,,,
,Screen_5,canvas.Screen,0_2_14_4,,skipped,15,124711.69999998808,,,124707.79999998212,,124711.79999998212,2021-10-28T07:03:41.648Z,124843.504,1635404490,full,ni_sequenzen,NI_Sequenzen,,,,,,,,,,,,,,
,Screen_6,canvas.Screen,0_2_14_5,,skipped,15,124713.69999998808,,,124707.79999998212,,124713.79999998212,2021-10-28T07:03:41.650Z,124843.504,1635404490,full,ni_sequenzen,NI_Sequenzen,,,,,,,,,,,,,,
,Sequence,flow.Sequence,0_2_14,,completion,15,124706.89999997616,,,124707.79999998212,,124714.19999998808,2021-10-28T07:03:41.650Z,124843.504,1635404490,full,ni_sequenzen,NI_Sequenzen,,,,,,,,,,,,,,
,Screen_1,canvas.Screen,0_2_15_0,,skipped,16,124715.59999999404,,,124715.59999999404,,124715.79999998212,2021-10-28T07:03:41.652Z,124843.504,1635404490,full,ni_sequenzen,NI_Sequenzen,,,,,,,,,,,,,,
,Screen_2,canvas.Screen,0_2_15_1,,skipped,16,124716.69999998808,,,124715.59999999404,,124716.79999998212,2021-10-28T07:03:41.653Z,124843.504,1635404490,full,ni_sequenzen,NI_Sequenzen,,,,,,,,,,,,,,
,Screen_3,canvas.Screen,0_2_15_2,,skipped,16,124717.59999999404,,,124715.59999999404,,124717.69999998808,2021-10-28T07:03:41.654Z,124843.504,1635404490,full,ni_sequenzen,NI_Sequenzen,,,,,,,,,,,,,,
,Screen_4,canvas.Screen,0_2_15_3,,skipped,16,124718.59999999404,,,124715.59999999404,,124718.59999999404,2021-10-28T07:03:41.655Z,124843.504,1635404490,full,ni_sequenzen,NI_Sequenzen,,,,,,,,,,,,,,
,Screen_5,canvas.Screen,0_2_15_4,,skipped,16,124719.5,,,124715.59999999404,,124719.5,2021-10-28T07:03:41.656Z,124843.504,1635404490,full,ni_sequenzen,NI_Sequenzen,,,,,,,,,,,,,,
,Screen_6,canvas.Screen,0_2_15_5,,skipped,16,124720.39999997616,,,124715.59999999404,,124720.5,2021-10-28T07:03:41.657Z,124843.504,1635404490,full,ni_sequenzen,NI_Sequenzen,,,,,,,,,,,,,,
,Sequence,flow.Sequence,0_2_15,,completion,16,124714.59999999404,,,124715.59999999404,,124720.69999998808,2021-10-28T07:03:41.657Z,124843.504,1635404490,full,ni_sequenzen,NI_Sequenzen,,,,,,,,,,,,,,
,Screen_1,canvas.Screen,0_2_16_0,,skipped,17,124722,,,124722.09999999404,,124722.19999998808,2021-10-28T07:03:41.658Z,124843.504,1635404490,full,ni_sequenzen,NI_Sequenzen,,,,,,,,,,,,,,
,Screen_2,canvas.Screen,0_2_16_1,,skipped,17,124723,,,124722.09999999404,,124723.09999999404,2021-10-28T07:03:41.659Z,124843.504,1635404490,full,ni_sequenzen,NI_Sequenzen,,,,,,,,,,,,,,
,Screen_3,canvas.Screen,0_2_16_2,,skipped,17,124724.09999999404,,,124722.09999999404,,124724.09999999404,2021-10-28T07:03:41.660Z,124843.504,1635404490,full,ni_sequenzen,NI_Sequenzen,,,,,,,,,,,,,,
,Screen_4,canvas.Screen,0_2_16_3,,skipped,17,124725,,,124722.09999999404,,124725.09999999404,2021-10-28T07:03:41.661Z,124843.504,1635404490,full,ni_sequenzen,NI_Sequenzen,,,,,,,,,,,,,,
,Screen_5,canvas.Screen,0_2_16_4,,skipped,17,124725.89999997616,,,124722.09999999404,,124726,2021-10-28T07:03:41.662Z,124843.504,1635404490,full,ni_sequenzen,NI_Sequenzen,,,,,,,,,,,,,,
,Screen_6,canvas.Screen,0_2_16_5,,skipped,17,124727,,,124722.09999999404,,124727.09999999404,2021-10-28T07:03:41.663Z,124843.504,1635404490,full,ni_sequenzen,NI_Sequenzen,,,,,,,,,,,,,,
,Sequence,flow.Sequence,0_2_16,,completion,17,124721.09999999404,,,124722.09999999404,,124727.39999997616,2021-10-28T07:03:41.663Z,124843.504,1635404490,full,ni_sequenzen,NI_Sequenzen,,,,,,,,,,,,,,
,Screen_1,canvas.Screen,0_2_17_0,,skipped,18,124730.19999998808,,,124730.19999998808,,124730.39999997616,2021-10-28T07:03:41.666Z,124843.504,1635404490,full,ni_sequenzen,NI_Sequenzen,,,,,,,,,,,,,,
,Screen_2,canvas.Screen,0_2_17_1,,skipped,18,124731.29999998212,,,124730.19999998808,,124731.39999997616,2021-10-28T07:03:41.667Z,124843.504,1635404490,full,ni_sequenzen,NI_Sequenzen,,,,,,,,,,,,,,
,Screen_3,canvas.Screen,0_2_17_2,,skipped,18,124732.09999999404,,,124730.19999998808,,124732.19999998808,2021-10-28T07:03:41.668Z,124843.504,1635404490,full,ni_sequenzen,NI_Sequenzen,,,,,,,,,,,,,,
,Screen_4,canvas.Screen,0_2_17_3,,skipped,18,124732.79999998212,,,124730.19999998808,,124732.89999997616,2021-10-28T07:03:41.669Z,124843.504,1635404490,full,ni_sequenzen,NI_Sequenzen,,,,,,,,,,,,,,
,Screen_5,canvas.Screen,0_2_17_4,,skipped,18,124733.5,,,124730.19999998808,,124733.59999999404,2021-10-28T07:03:41.670Z,124843.504,1635404490,full,ni_sequenzen,NI_Sequenzen,,,,,,,,,,,,,,
,Screen_6,canvas.Screen,0_2_17_5,,skipped,18,124734.19999998808,,,124730.19999998808,,124734.19999998808,2021-10-28T07:03:41.670Z,124843.504,1635404490,full,ni_sequenzen,NI_Sequenzen,,,,,,,,,,,,,,
,Sequence,flow.Sequence,0_2_17,,completion,18,124728.09999999404,,,124730.19999998808,,124734.39999997616,2021-10-28T07:03:41.670Z,124843.504,1635404490,full,ni_sequenzen,NI_Sequenzen,,,,,,,,,,,,,,
,Screen_1,canvas.Screen,0_2_18_0,,skipped,19,124735.59999999404,,,124735.59999999404,,124735.59999999404,2021-10-28T07:03:41.672Z,124843.504,1635404490,full,ni_sequenzen,NI_Sequenzen,,,,,,,,,,,,,,
,Screen_2,canvas.Screen,0_2_18_1,,skipped,19,124736.39999997616,,,124735.59999999404,,124736.59999999404,2021-10-28T07:03:41.673Z,124843.504,1635404490,full,ni_sequenzen,NI_Sequenzen,,,,,,,,,,,,,,
,Screen_3,canvas.Screen,0_2_18_2,,skipped,19,124737.19999998808,,,124735.59999999404,,124737.19999998808,2021-10-28T07:03:41.673Z,124843.504,1635404490,full,ni_sequenzen,NI_Sequenzen,,,,,,,,,,,,,,
,Screen_4,canvas.Screen,0_2_18_3,,skipped,19,124737.79999998212,,,124735.59999999404,,124737.89999997616,2021-10-28T07:03:41.674Z,124843.504,1635404490,full,ni_sequenzen,NI_Sequenzen,,,,,,,,,,,,,,
,Screen_5,canvas.Screen,0_2_18_4,,skipped,19,124738.5,,,124735.59999999404,,124738.5,2021-10-28T07:03:41.675Z,124843.504,1635404490,full,ni_sequenzen,NI_Sequenzen,,,,,,,,,,,,,,
,Screen_6,canvas.Screen,0_2_18_5,,skipped,19,124739,,,124735.59999999404,,124739.09999999404,2021-10-28T07:03:41.675Z,124843.504,1635404490,full,ni_sequenzen,NI_Sequenzen,,,,,,,,,,,,,,
,Sequence,flow.Sequence,0_2_18,,completion,19,124734.69999998808,,,124735.59999999404,,124739.19999998808,2021-10-28T07:03:41.675Z,124843.504,1635404490,full,ni_sequenzen,NI_Sequenzen,,,,,,,,,,,,,,
,Screen_1,canvas.Screen,0_2_19_0,,skipped,20,124740,,,124740,,124740,2021-10-28T07:03:41.676Z,124843.504,1635404490,full,ni_sequenzen,NI_Sequenzen,,,,,,,,,,,,,,
,Screen_2,canvas.Screen,0_2_19_1,,skipped,20,124740.5,,,124740,,124740.5,2021-10-28T07:03:41.677Z,124843.504,1635404490,full,ni_sequenzen,NI_Sequenzen,,,,,,,,,,,,,,
,Screen_3,canvas.Screen,0_2_19_2,,skipped,20,124741.59999999404,,,124740,,124741.79999998212,2021-10-28T07:03:41.678Z,124843.504,1635404490,full,ni_sequenzen,NI_Sequenzen,,,,,,,,,,,,,,
,Screen_4,canvas.Screen,0_2_19_3,,skipped,20,124742.29999998212,,,124740,,124742.29999998212,2021-10-28T07:03:41.678Z,124843.504,1635404490,full,ni_sequenzen,NI_Sequenzen,,,,,,,,,,,,,,
,Screen_5,canvas.Screen,0_2_19_4,,skipped,20,124742.89999997616,,,124740,,124742.89999997616,2021-10-28T07:03:41.679Z,124843.504,1635404490,full,ni_sequenzen,NI_Sequenzen,,,,,,,,,,,,,,
,Screen_6,canvas.Screen,0_2_19_5,,skipped,20,124743.39999997616,,,124740,,124743.39999997616,2021-10-28T07:03:41.679Z,124843.504,1635404490,full,ni_sequenzen,NI_Sequenzen,,,,,,,,,,,,,,
,Sequence,flow.Sequence,0_2_19,,completion,20,124739.39999997616,,,124740,,124743.5,2021-10-28T07:03:41.680Z,124843.504,1635404490,full,ni_sequenzen,NI_Sequenzen,,,,,,,,,,,,,,
,Screen_1,canvas.Screen,0_2_20_0,,skipped,21,124744.39999997616,,,124744.39999997616,,124744.39999997616,2021-10-28T07:03:41.680Z,124843.504,1635404490,full,ni_sequenzen,NI_Sequenzen,,,,,,,,,,,,,,
,Screen_2,canvas.Screen,0_2_20_1,,skipped,21,124744.89999997616,,,124744.39999997616,,124745,2021-10-28T07:03:41.681Z,124843.504,1635404490,full,ni_sequenzen,NI_Sequenzen,,,,,,,,,,,,,,
,Screen_3,canvas.Screen,0_2_20_2,,skipped,21,124745.5,,,124744.39999997616,,124745.5,2021-10-28T07:03:41.682Z,124843.504,1635404490,full,ni_sequenzen,NI_Sequenzen,,,,,,,,,,,,,,
,Screen_4,canvas.Screen,0_2_20_3,,skipped,21,124745.89999997616,,,124744.39999997616,,124746,2021-10-28T07:03:41.682Z,124843.504,1635404490,full,ni_sequenzen,NI_Sequenzen,,,,,,,,,,,,,,
,Screen_5,canvas.Screen,0_2_20_4,,skipped,21,124746.39999997616,,,124744.39999997616,,124746.39999997616,2021-10-28T07:03:41.683Z,124843.504,1635404490,full,ni_sequenzen,NI_Sequenzen,,,,,,,,,,,,,,
,Screen_6,canvas.Screen,0_2_20_5,,skipped,21,124746.89999997616,,,124744.39999997616,,124747,2021-10-28T07:03:41.683Z,124843.504,1635404490,full,ni_sequenzen,NI_Sequenzen,,,,,,,,,,,,,,
,Sequence,flow.Sequence,0_2_20,,completion,21,124743.79999998212,,,124744.39999997616,,124747,2021-10-28T07:03:41.683Z,124843.504,1635404490,full,ni_sequenzen,NI_Sequenzen,,,,,,,,,,,,,,
,Screen_1,canvas.Screen,0_2_21_0,,skipped,22,124747.69999998808,,,124747.69999998808,,124747.69999998808,2021-10-28T07:03:41.684Z,124843.504,1635404490,full,ni_sequenzen,NI_Sequenzen,,,,,,,,,,,,,,
,Screen_2,canvas.Screen,0_2_21_1,,skipped,22,124748.19999998808,,,124747.69999998808,,124748.19999998808,2021-10-28T07:03:41.684Z,124843.504,1635404490,full,ni_sequenzen,NI_Sequenzen,,,,,,,,,,,,,,
,Screen_3,canvas.Screen,0_2_21_2,,skipped,22,124748.5,,,124747.69999998808,,124749,2021-10-28T07:03:41.685Z,124843.504,1635404490,full,ni_sequenzen,NI_Sequenzen,,,,,,,,,,,,,,
,Screen_4,canvas.Screen,0_2_21_3,,skipped,22,124749.79999998212,,,124747.69999998808,,124749.89999997616,2021-10-28T07:03:41.686Z,124843.504,1635404490,full,ni_sequenzen,NI_Sequenzen,,,,,,,,,,,,,,
,Screen_5,canvas.Screen,0_2_21_4,,skipped,22,124751.39999997616,,,124747.69999998808,,124751.39999997616,2021-10-28T07:03:41.688Z,124843.504,1635404490,full,ni_sequenzen,NI_Sequenzen,,,,,,,,,,,,,,
,Screen_6,canvas.Screen,0_2_21_5,,skipped,22,124752.29999998212,,,124747.69999998808,,124752.29999998212,2021-10-28T07:03:41.688Z,124843.504,1635404490,full,ni_sequenzen,NI_Sequenzen,,,,,,,,,,,,,,
,Sequence,flow.Sequence,0_2_21,,completion,22,124747.19999998808,,,124747.69999998808,,124752.39999997616,2021-10-28T07:03:41.688Z,124843.504,1635404490,full,ni_sequenzen,NI_Sequenzen,,,,,,,,,,,,,,
,Screen_1,canvas.Screen,0_2_22_0,,skipped,23,124753.19999998808,,,124753.19999998808,,124753.29999998212,2021-10-28T07:03:41.689Z,124843.504,1635404490,full,ni_sequenzen,NI_Sequenzen,,,,,,,,,,,,,,
,Screen_2,canvas.Screen,0_2_22_1,,skipped,23,124753.79999998212,,,124753.19999998808,,124753.79999998212,2021-10-28T07:03:41.690Z,124843.504,1635404490,full,ni_sequenzen,NI_Sequenzen,,,,,,,,,,,,,,
,Screen_3,canvas.Screen,0_2_22_2,,skipped,23,124754.59999999404,,,124753.19999998808,,124754.69999998808,2021-10-28T07:03:41.691Z,124843.504,1635404490,full,ni_sequenzen,NI_Sequenzen,,,,,,,,,,,,,,
,Screen_4,canvas.Screen,0_2_22_3,,skipped,23,124755.39999997616,,,124753.19999998808,,124755.59999999404,2021-10-28T07:03:41.692Z,124843.504,1635404490,full,ni_sequenzen,NI_Sequenzen,,,,,,,,,,,,,,
,Screen_5,canvas.Screen,0_2_22_4,,skipped,23,124756.09999999404,,,124753.19999998808,,124756.09999999404,2021-10-28T07:03:41.692Z,124843.504,1635404490,full,ni_sequenzen,NI_Sequenzen,,,,,,,,,,,,,,
,Screen_6,canvas.Screen,0_2_22_5,,skipped,23,124756.5,,,124753.19999998808,,124756.59999999404,2021-10-28T07:03:41.693Z,124843.504,1635404490,full,ni_sequenzen,NI_Sequenzen,,,,,,,,,,,,,,
,Sequence,flow.Sequence,0_2_22,,completion,23,124752.69999998808,,,124753.19999998808,,124756.59999999404,2021-10-28T07:03:41.693Z,124843.504,1635404490,full,ni_sequenzen,NI_Sequenzen,,,,,,,,,,,,,,
,Screen_1,canvas.Screen,0_2_23_0,,skipped,24,124757.39999997616,,,124757.39999997616,,124757.39999997616,2021-10-28T07:03:41.693Z,124843.504,1635404490,full,ni_sequenzen,NI_Sequenzen,,,,,,,,,,,,,,
,Screen_2,canvas.Screen,0_2_23_1,,skipped,24,124757.79999998212,,,124757.39999997616,,124757.79999998212,2021-10-28T07:03:41.694Z,124843.504,1635404490,full,ni_sequenzen,NI_Sequenzen,,,,,,,,,,,,,,
,Screen_3,canvas.Screen,0_2_23_2,,skipped,24,124758.29999998212,,,124757.39999997616,,124758.29999998212,2021-10-28T07:03:41.694Z,124843.504,1635404490,full,ni_sequenzen,NI_Sequenzen,,,,,,,,,,,,,,
,Screen_4,canvas.Screen,0_2_23_3,,skipped,24,124758.69999998808,,,124757.39999997616,,124758.79999998212,2021-10-28T07:03:41.695Z,124843.504,1635404490,full,ni_sequenzen,NI_Sequenzen,,,,,,,,,,,,,,
,Screen_5,canvas.Screen,0_2_23_4,,skipped,24,124759.19999998808,,,124757.39999997616,,124759.19999998808,2021-10-28T07:03:41.695Z,124843.504,1635404490,full,ni_sequenzen,NI_Sequenzen,,,,,,,,,,,,,,
,Screen_6,canvas.Screen,0_2_23_5,,skipped,24,124759.69999998808,,,124757.39999997616,,124759.69999998808,2021-10-28T07:03:41.696Z,124843.504,1635404490,full,ni_sequenzen,NI_Sequenzen,,,,,,,,,,,,,,
,Sequence,flow.Sequence,0_2_23,,completion,24,124756.79999998212,,,124757.39999997616,,124759.79999998212,2021-10-28T07:03:41.696Z,124843.504,1635404490,full,ni_sequenzen,NI_Sequenzen,,,,,,,,,,,,,,
,Screen_1,canvas.Screen,0_2_24_0,,skipped,25,124760.59999999404,,,124760.59999999404,,124760.59999999404,2021-10-28T07:03:41.697Z,124843.504,1635404490,full,ni_sequenzen,NI_Sequenzen,,,,,,,,,,,,,,
,Screen_2,canvas.Screen,0_2_24_1,,skipped,25,124761.79999998212,,,124760.59999999404,,124761.89999997616,2021-10-28T07:03:41.698Z,124843.504,1635404490,full,ni_sequenzen,NI_Sequenzen,,,,,,,,,,,,,,
,Screen_3,canvas.Screen,0_2_24_2,,skipped,25,124762.59999999404,,,124760.59999999404,,124762.59999999404,2021-10-28T07:03:41.699Z,124843.504,1635404490,full,ni_sequenzen,NI_Sequenzen,,,,,,,,,,,,,,
,Screen_4,canvas.Screen,0_2_24_3,,skipped,25,124763.09999999404,,,124760.59999999404,,124763.19999998808,2021-10-28T07:03:41.699Z,124843.504,1635404490,full,ni_sequenzen,NI_Sequenzen,,,,,,,,,,,,,,
,Screen_5,canvas.Screen,0_2_24_4,,skipped,25,124763.59999999404,,,124760.59999999404,,124763.69999998808,2021-10-28T07:03:41.700Z,124843.504,1635404490,full,ni_sequenzen,NI_Sequenzen,,,,,,,,,,,,,,
,Screen_6,canvas.Screen,0_2_24_5,,skipped,25,124764.09999999404,,,124760.59999999404,,124764.19999998808,2021-10-28T07:03:41.700Z,124843.504,1635404490,full,ni_sequenzen,NI_Sequenzen,,,,,,,,,,,,,,
,Sequence,flow.Sequence,0_2_24,,completion,25,124760.09999999404,,,124760.59999999404,,124764.19999998808,2021-10-28T07:03:41.700Z,124843.504,1635404490,full,ni_sequenzen,NI_Sequenzen,,,,,,,,,,,,,,
,Screen_1,canvas.Screen,0_2_25_0,,skipped,26,124765,,,124765,,124765,2021-10-28T07:03:41.701Z,124843.504,1635404490,full,ni_sequenzen,NI_Sequenzen,,,,,,,,,,,,,,
,Screen_2,canvas.Screen,0_2_25_1,,skipped,26,124765.5,,,124765,,124765.59999999404,2021-10-28T07:03:41.702Z,124843.504,1635404490,full,ni_sequenzen,NI_Sequenzen,,,,,,,,,,,,,,
,Screen_3,canvas.Screen,0_2_25_2,,skipped,26,124766.09999999404,,,124765,,124766.09999999404,2021-10-28T07:03:41.702Z,124843.504,1635404490,full,ni_sequenzen,NI_Sequenzen,,,,,,,,,,,,,,
,Screen_4,canvas.Screen,0_2_25_3,,skipped,26,124766.5,,,124765,,124766.5,2021-10-28T07:03:41.703Z,124843.504,1635404490,full,ni_sequenzen,NI_Sequenzen,,,,,,,,,,,,,,
,Screen_5,canvas.Screen,0_2_25_4,,skipped,26,124767,,,124765,,124767,2021-10-28T07:03:41.703Z,124843.504,1635404490,full,ni_sequenzen,NI_Sequenzen,,,,,,,,,,,,,,
,Screen_6,canvas.Screen,0_2_25_5,,skipped,26,124767.69999998808,,,124765,,124767.89999997616,2021-10-28T07:03:41.704Z,124843.504,1635404490,full,ni_sequenzen,NI_Sequenzen,,,,,,,,,,,,,,
,Sequence,flow.Sequence,0_2_25,,completion,26,124764.5,,,124765,,124768,2021-10-28T07:03:41.704Z,124843.504,1635404490,full,ni_sequenzen,NI_Sequenzen,,,,,,,,,,,,,,
,Screen_1,canvas.Screen,0_2_26_0,,skipped,27,124769,,,124769,,124769.19999998808,2021-10-28T07:03:41.705Z,124843.504,1635404490,full,ni_sequenzen,NI_Sequenzen,,,,,,,,,,,,,,
,Screen_2,canvas.Screen,0_2_26_1,,skipped,27,124769.59999999404,,,124769,,124769.59999999404,2021-10-28T07:03:41.706Z,124843.504,1635404490,full,ni_sequenzen,NI_Sequenzen,,,,,,,,,,,,,,
,Screen_3,canvas.Screen,0_2_26_2,,skipped,27,124770.09999999404,,,124769,,124770.19999998808,2021-10-28T07:03:41.706Z,124843.504,1635404490,full,ni_sequenzen,NI_Sequenzen,,,,,,,,,,,,,,
,Screen_4,canvas.Screen,0_2_26_3,,skipped,27,124770.59999999404,,,124769,,124770.59999999404,2021-10-28T07:03:41.707Z,124843.504,1635404490,full,ni_sequenzen,NI_Sequenzen,,,,,,,,,,,,,,
,Screen_5,canvas.Screen,0_2_26_4,,skipped,27,124771.09999999404,,,124769,,124771.09999999404,2021-10-28T07:03:41.707Z,124843.504,1635404490,full,ni_sequenzen,NI_Sequenzen,,,,,,,,,,,,,,
,Screen_6,canvas.Screen,0_2_26_5,,skipped,27,124772.39999997616,,,124769,,124772.5,2021-10-28T07:03:41.709Z,124843.504,1635404490,full,ni_sequenzen,NI_Sequenzen,,,,,,,,,,,,,,
,Sequence,flow.Sequence,0_2_26,,completion,27,124768.29999998212,,,124769,,124772.5,2021-10-28T07:03:41.709Z,124843.504,1635404490,full,ni_sequenzen,NI_Sequenzen,,,,,,,,,,,,,,
,Screen_1,canvas.Screen,0_2_27_0,,skipped,28,124773.39999997616,,,124773.39999997616,,124773.39999997616,2021-10-28T07:03:41.709Z,124843.504,1635404490,full,ni_sequenzen,NI_Sequenzen,,,,,,,,,,,,,,
,Screen_2,canvas.Screen,0_2_27_1,,skipped,28,124773.89999997616,,,124773.39999997616,,124773.89999997616,2021-10-28T07:03:41.710Z,124843.504,1635404490,full,ni_sequenzen,NI_Sequenzen,,,,,,,,,,,,,,
,Screen_3,canvas.Screen,0_2_27_2,,skipped,28,124774.39999997616,,,124773.39999997616,,124774.39999997616,2021-10-28T07:03:41.710Z,124843.504,1635404490,full,ni_sequenzen,NI_Sequenzen,,,,,,,,,,,,,,
,Screen_4,canvas.Screen,0_2_27_3,,skipped,28,124774.89999997616,,,124773.39999997616,,124774.89999997616,2021-10-28T07:03:41.711Z,124843.504,1635404490,full,ni_sequenzen,NI_Sequenzen,,,,,,,,,,,,,,
,Screen_5,canvas.Screen,0_2_27_4,,skipped,28,124775.39999997616,,,124773.39999997616,,124775.39999997616,2021-10-28T07:03:41.711Z,124843.504,1635404490,full,ni_sequenzen,NI_Sequenzen,,,,,,,,,,,,,,
,Screen_6,canvas.Screen,0_2_27_5,,skipped,28,124775.79999998212,,,124773.39999997616,,124775.89999997616,2021-10-28T07:03:41.712Z,124843.504,1635404490,full,ni_sequenzen,NI_Sequenzen,,,,,,,,,,,,,,
,Sequence,flow.Sequence,0_2_27,,completion,28,124772.79999998212,,,124773.39999997616,,124775.89999997616,2021-10-28T07:03:41.712Z,124843.504,1635404490,full,ni_sequenzen,NI_Sequenzen,,,,,,,,,,,,,,
,Screen_1,canvas.Screen,0_2_28_0,,skipped,29,124776.59999999404,,,124776.59999999404,,124776.69999998808,2021-10-28T07:03:41.713Z,124843.504,1635404490,full,ni_sequenzen,NI_Sequenzen,,,,,,,,,,,,,,
,Screen_2,canvas.Screen,0_2_28_1,,skipped,29,124777.09999999404,,,124776.59999999404,,124777.19999998808,2021-10-28T07:03:41.713Z,124843.504,1635404490,full,ni_sequenzen,NI_Sequenzen,,,,,,,,,,,,,,
,Screen_3,canvas.Screen,0_2_28_2,,skipped,29,124777.5,,,124776.59999999404,,124777.59999999404,2021-10-28T07:03:41.714Z,124843.504,1635404490,full,ni_sequenzen,NI_Sequenzen,,,,,,,,,,,,,,
,Screen_4,canvas.Screen,0_2_28_3,,skipped,29,124778,,,124776.59999999404,,124778,2021-10-28T07:03:41.714Z,124843.504,1635404490,full,ni_sequenzen,NI_Sequenzen,,,,,,,,,,,,,,
,Screen_5,canvas.Screen,0_2_28_4,,skipped,29,124778.5,,,124776.59999999404,,124778.5,2021-10-28T07:03:41.715Z,124843.504,1635404490,full,ni_sequenzen,NI_Sequenzen,,,,,,,,,,,,,,
,Screen_6,canvas.Screen,0_2_28_5,,skipped,29,124778.89999997616,,,124776.59999999404,,124778.89999997616,2021-10-28T07:03:41.715Z,124843.504,1635404490,full,ni_sequenzen,NI_Sequenzen,,,,,,,,,,,,,,
,Sequence,flow.Sequence,0_2_28,,completion,29,124776.09999999404,,,124776.59999999404,,124779,2021-10-28T07:03:41.715Z,124843.504,1635404490,full,ni_sequenzen,NI_Sequenzen,,,,,,,,,,,,,,
,Screen_1,canvas.Screen,0_2_29_0,,skipped,30,124779.69999998808,,,124779.69999998808,,124779.79999998212,2021-10-28T07:03:41.716Z,124843.504,1635404490,full,ni_sequenzen,NI_Sequenzen,,,,,,,,,,,,,,
,Screen_2,canvas.Screen,0_2_29_1,,skipped,30,124780.59999999404,,,124779.69999998808,,124780.69999998808,2021-10-28T07:03:41.717Z,124843.504,1635404490,full,ni_sequenzen,NI_Sequenzen,,,,,,,,,,,,,,
,Screen_3,canvas.Screen,0_2_29_2,,skipped,30,124781.19999998808,,,124779.69999998808,,124781.29999998212,2021-10-28T07:03:41.717Z,124843.504,1635404490,full,ni_sequenzen,NI_Sequenzen,,,,,,,,,,,,,,
,Screen_4,canvas.Screen,0_2_29_3,,skipped,30,124781.79999998212,,,124779.69999998808,,124781.79999998212,2021-10-28T07:03:41.718Z,124843.504,1635404490,full,ni_sequenzen,NI_Sequenzen,,,,,,,,,,,,,,
,Screen_5,canvas.Screen,0_2_29_4,,skipped,30,124782.19999998808,,,124779.69999998808,,124782.29999998212,2021-10-28T07:03:41.718Z,124843.504,1635404490,full,ni_sequenzen,NI_Sequenzen,,,,,,,,,,,,,,
,Screen_6,canvas.Screen,0_2_29_5,,skipped,30,124782.69999998808,,,124779.69999998808,,124782.69999998808,2021-10-28T07:03:41.719Z,124843.504,1635404490,full,ni_sequenzen,NI_Sequenzen,,,,,,,,,,,,,,
,Sequence,flow.Sequence,0_2_29,,completion,30,124779.19999998808,,,124779.69999998808,,124782.79999998212,2021-10-28T07:03:41.719Z,124843.504,1635404490,full,ni_sequenzen,NI_Sequenzen,,,,,,,,,,,,,,
,Instructions_II,flow.Loop,0_2,,completion,,61808.39999997616,61799.571,61812.145,124779.69999998808,62967.55499998808,124782.89999997616,2021-10-28T07:03:41.719Z,124843.504,1635404490,full,ni_sequenzen,NI_Sequenzen,,,,,,,,,,,,,,
,Move,canvas.Screen,0_3_0_0_0_0,right,response,,124819,124807.696,124843.504,131387.89999997616,6544.395999976157,131389.09999999404,2021-10-28T07:03:48.325Z,131426.47,1635404490,full,ni_sequenzen,NI_Sequenzen,1,0,,,,,,,,,,,,
,Move,canvas.Screen,0_3_0_0_0_1,down,response,,131398.89999997616,131391.543,131426.47,132247.79999998212,821.3299999821174,132248.69999998808,2021-10-28T07:03:49.185Z,132285.005,1635404490,full,ni_sequenzen,NI_Sequenzen,2,0,,,,,,,,,,,,
,Move,canvas.Screen,0_3_0_0_0_2,down,response,,132252.19999998808,132251.452,132285.005,135608.39999997616,3323.3949999761535,135609.5,2021-10-28T07:03:52.546Z,135640.677,1635404490,full,ni_sequenzen,NI_Sequenzen,3,0,,,,,,,,,,,,
,Move,canvas.Screen,0_3_0_0_0_3,left,response,,135612.79999998212,135606.307,135640.677,136348.09999999404,707.4229999940435,136349,2021-10-28T07:03:53.285Z,136381.273,1635404490,full,ni_sequenzen,NI_Sequenzen,4,0,,,,,,,,,,,,
,Move,canvas.Screen,0_3_0_0_0_4,right,response,,136352.39999997616,136348.506,136381.273,137718,1336.7270000000135,137719.19999998808,2021-10-28T07:03:54.655Z,137788.599,1635404490,full,ni_sequenzen,NI_Sequenzen,5,0,,,,,,,,,,,,
,Move,canvas.Screen,0_3_0_0_0_5,-999,skipped,,137723.39999997616,,,137718,,137723.69999998808,2021-10-28T07:03:54.660Z,137788.599,1635404490,full,ni_sequenzen,NI_Sequenzen,6,0,,,,,,,,,,,,
,Move,canvas.Screen,0_3_0_0_0_6,-999,skipped,,137727.29999998212,,,137718,,137727.5,2021-10-28T07:03:54.664Z,137788.599,1635404490,full,ni_sequenzen,NI_Sequenzen,7,0,,,,,,,,,,,,
,Move,canvas.Screen,0_3_0_0_0_7,-999,skipped,,137730.19999998808,,,137718,,137730.29999998212,2021-10-28T07:03:54.666Z,137788.599,1635404490,full,ni_sequenzen,NI_Sequenzen,8,0,,,,,,,,,,,,
,Move,canvas.Screen,0_3_0_0_0_8,-999,skipped,,137734,,,137718,,137734.09999999404,2021-10-28T07:03:54.670Z,137788.599,1635404490,full,ni_sequenzen,NI_Sequenzen,9,0,,,,,,,,,,,,
,Move,canvas.Screen,0_3_0_0_0_9,-999,skipped,,137736.79999998212,,,137718,,137736.79999998212,2021-10-28T07:03:54.673Z,137788.599,1635404490,full,ni_sequenzen,NI_Sequenzen,10,0,,,,,,,,,,,,
,Move,canvas.Screen,0_3_0_0_0_10,-999,skipped,,137739.39999997616,,,137718,,137739.5,2021-10-28T07:03:54.676Z,137788.599,1635404490,full,ni_sequenzen,NI_Sequenzen,11,0,,,,,,,,,,,,
,Move,canvas.Screen,0_3_0_0_0_11,-999,skipped,,137743.09999999404,,,137718,,137743.19999998808,2021-10-28T07:03:54.679Z,137788.599,1635404490,full,ni_sequenzen,NI_Sequenzen,12,0,,,,,,,,,,,,
,Move,canvas.Screen,0_3_0_0_0_12,-999,skipped,,137745.79999998212,,,137718,,137745.89999997616,2021-10-28T07:03:54.682Z,137788.599,1635404490,full,ni_sequenzen,NI_Sequenzen,13,0,,,,,,,,,,,,
,Move,canvas.Screen,0_3_0_0_0_13,-999,skipped,,137749.39999997616,,,137718,,137749.5,2021-10-28T07:03:54.686Z,137788.599,1635404490,full,ni_sequenzen,NI_Sequenzen,14,0,,,,,,,,,,,,
,Move,canvas.Screen,0_3_0_0_0_14,-999,skipped,,137755.5,,,137718,,137755.59999999404,2021-10-28T07:03:54.692Z,137788.599,1635404490,full,ni_sequenzen,NI_Sequenzen,15,0,,,,,,,,,,,,
,Loop,flow.Loop,0_3_0_0_0,-999,completion,,124812.59999999404,124807.696,124843.504,137718,12874.496,137755.89999997616,2021-10-28T07:03:54.692Z,137788.599,1635404490,full,ni_sequenzen,NI_Sequenzen,,0,,,,,,,,,,,,
,Feedback,canvas.Screen,0_3_0_0_1,,timeout,,137759.89999997616,137754.988,137788.599,141775.756,4003.482000000018,141776.89999997616,2021-10-28T07:03:58.713Z,141792.081,1635404490,full,ni_sequenzen,NI_Sequenzen,,0,,,,,,,,,,,,
,Trial,flow.Sequence,0_3_0_0,,completion,,124801,124807.696,124843.504,141775.756,16932.251999999993,141777.09999999404,2021-10-28T07:03:58.713Z,141808.841,1635404490,full,ni_sequenzen,NI_Sequenzen,,0,,,,,,,,,,,,
,Move,canvas.Screen,0_3_0_1_0_0,left,response,,141795.09999999404,141792.081,141808.841,147468.19999998808,5659.358999988093,147469.19999998808,2021-10-28T07:04:04.405Z,147497.906,1635404490,full,ni_sequenzen,NI_Sequenzen,1,1,,,,,,,,,,,,
,Move,canvas.Screen,0_3_0_1_0_1,down,response,,147473.09999999404,147462.955,147497.906,147878.09999999404,380.1939999940514,147879.09999999404,2021-10-28T07:04:04.815Z,147915.165,1635404490,full,ni_sequenzen,NI_Sequenzen,2,1,,,,,,,,,,,,
,Move,canvas.Screen,0_3_0_1_0_2,down,response,,147882.19999998808,147875.327,147915.165,150987.89999997616,3072.73499997615,150989,2021-10-28T07:04:07.925Z,151019.404,1635404490,full,ni_sequenzen,NI_Sequenzen,3,1,,,,,,,,,,,,
,Move,canvas.Screen,0_3_0_1_0_3,left,response,,150992.89999997616,150986.25,151019.404,151357.89999997616,338.4959999761486,151358.89999997616,2021-10-28T07:04:08.295Z,151432.965,1635404490,full,ni_sequenzen,NI_Sequenzen,4,1,,,,,,,,,,,,
,Move,canvas.Screen,0_3_0_1_0_4,-999,skipped,,151362.39999997616,,,151357.89999997616,,151362.5,2021-10-28T07:04:08.299Z,151432.965,1635404490,full,ni_sequenzen,NI_Sequenzen,5,1,,,,,,,,,,,,
,Move,canvas.Screen,0_3_0_1_0_5,-999,skipped,,151365.19999998808,,,151357.89999997616,,151365.29999998212,2021-10-28T07:04:08.301Z,151432.965,1635404490,full,ni_sequenzen,NI_Sequenzen,6,1,,,,,,,,,,,,
,Move,canvas.Screen,0_3_0_1_0_6,-999,skipped,,151368,,,151357.89999997616,,151368,2021-10-28T07:04:08.304Z,151432.965,1635404490,full,ni_sequenzen,NI_Sequenzen,7,1,,,,,,,,,,,,
,Move,canvas.Screen,0_3_0_1_0_7,-999,skipped,,151371.5,,,151357.89999997616,,151371.59999999404,2021-10-28T07:04:08.308Z,151432.965,1635404490,full,ni_sequenzen,NI_Sequenzen,8,1,,,,,,,,,,,,
,Move,canvas.Screen,0_3_0_1_0_8,-999,skipped,,151374.29999998212,,,151357.89999997616,,151374.29999998212,2021-10-28T07:04:08.310Z,151432.965,1635404490,full,ni_sequenzen,NI_Sequenzen,9,1,,,,,,,,,,,,
,Move,canvas.Screen,0_3_0_1_0_9,-999,skipped,,151378.19999998808,,,151357.89999997616,,151378.29999998212,2021-10-28T07:04:08.314Z,151432.965,1635404490,full,ni_sequenzen,NI_Sequenzen,10,1,,,,,,,,,,,,
,Move,canvas.Screen,0_3_0_1_0_10,-999,skipped,,151383.19999998808,,,151357.89999997616,,151383.29999998212,2021-10-28T07:04:08.319Z,151432.965,1635404490,full,ni_sequenzen,NI_Sequenzen,11,1,,,,,,,,,,,,
,Move,canvas.Screen,0_3_0_1_0_11,-999,skipped,,151385.89999997616,,,151357.89999997616,,151386,2021-10-28T07:04:08.322Z,151432.965,1635404490,full,ni_sequenzen,NI_Sequenzen,12,1,,,,,,,,,,,,
,Move,canvas.Screen,0_3_0_1_0_12,-999,skipped,,151388.79999998212,,,151357.89999997616,,151389,2021-10-28T07:04:08.325Z,151432.965,1635404490,full,ni_sequenzen,NI_Sequenzen,13,1,,,,,,,,,,,,
,Move,canvas.Screen,0_3_0_1_0_13,-999,skipped,,151391.59999999404,,,151357.89999997616,,151391.69999998808,2021-10-28T07:04:08.328Z,151432.965,1635404490,full,ni_sequenzen,NI_Sequenzen,14,1,,,,,,,,,,,,
,Move,canvas.Screen,0_3_0_1_0_14,-999,skipped,,151395.69999998808,,,151357.89999997616,,151395.79999998212,2021-10-28T07:04:08.332Z,151432.965,1635404490,full,ni_sequenzen,NI_Sequenzen,15,1,,,,,,,,,,,,
,Loop,flow.Loop,0_3_0_1_0,-999,completion,,141792.69999998808,141792.081,141808.841,151357.89999997616,9549.058999976172,151396,2021-10-28T07:04:08.332Z,151432.965,1635404490,full,ni_sequenzen,NI_Sequenzen,,1,,,,,,,,,,,,
,Feedback,canvas.Screen,0_3_0_1_1,,timeout,,151400.19999998808,151395.127,151432.965,155419.794,4003.2209999999905,155420.59999999404,2021-10-28T07:04:12.357Z,155436.186,1635404490,full,ni_sequenzen,NI_Sequenzen,,1,,,,,,,,,,,,
,Trial,flow.Sequence,0_3_0_1,,completion,,141777.5,141792.081,141808.841,155419.794,13610.953000000009,155420.79999998212,2021-10-28T07:04:12.357Z,155452.781,1635404490,full,ni_sequenzen,NI_Sequenzen,,1,,,,,,,,,,,,
,Move,canvas.Screen,0_3_0_2_0_0,down,response,,155446.09999999404,155436.186,155452.781,159138.19999998808,3685.418999988091,159139.39999997616,2021-10-28T07:04:16.075Z,159176.034,1635404490,full,ni_sequenzen,NI_Sequenzen,1,2,,,,,,,,,,,,
,Move,canvas.Screen,0_3_0_2_0_1,right,response,,159142.89999997616,159139.054,159176.034,159678,501.9659999999858,159678.89999997616,2021-10-28T07:04:16.615Z,159693.462,1635404490,full,ni_sequenzen,NI_Sequenzen,2,2,,,,,,,,,,,,
,Move,canvas.Screen,0_3_0_2_0_2,right,response,,159691.89999997616,159678.555,159693.462,160129.09999999404,435.63799999404,160130.19999998808,2021-10-28T07:04:17.066Z,160168.62,1635404490,full,ni_sequenzen,NI_Sequenzen,3,2,,,,,,,,,,,,
,Move,canvas.Screen,0_3_0_2_0_3,down,response,,160134.19999998808,160127.444,160168.62,160588.79999998212,420.17999998212326,160589.79999998212,2021-10-28T07:04:17.526Z,160654.355,1635404490,full,ni_sequenzen,NI_Sequenzen,4,2,,,,,,,,,,,,
,Move,canvas.Screen,0_3_0_2_0_4,-999,skipped,,160592.79999998212,,,160588.79999998212,,160593,2021-10-28T07:04:17.529Z,160654.355,1635404490,full,ni_sequenzen,NI_Sequenzen,5,2,,,,,,,,,,,,
,Move,canvas.Screen,0_3_0_2_0_5,-999,skipped,,160595.59999999404,,,160588.79999998212,,160595.79999998212,2021-10-28T07:04:17.532Z,160654.355,1635404490,full,ni_sequenzen,NI_Sequenzen,6,2,,,,,,,,,,,,
,Move,canvas.Screen,0_3_0_2_0_6,-999,skipped,,160599.19999998808,,,160588.79999998212,,160599.39999997616,2021-10-28T07:04:17.535Z,160654.355,1635404490,full,ni_sequenzen,NI_Sequenzen,7,2,,,,,,,,,,,,
,Move,canvas.Screen,0_3_0_2_0_7,-999,skipped,,160601.89999997616,,,160588.79999998212,,160602,2021-10-28T07:04:17.538Z,160654.355,1635404490,full,ni_sequenzen,NI_Sequenzen,8,2,,,,,,,,,,,,
,Move,canvas.Screen,0_3_0_2_0_8,-999,skipped,,160604.69999998808,,,160588.79999998212,,160604.79999998212,2021-10-28T07:04:17.541Z,160654.355,1635404490,full,ni_sequenzen,NI_Sequenzen,9,2,,,,,,,,,,,,
,Move,canvas.Screen,0_3_0_2_0_9,-999,skipped,,160608.19999998808,,,160588.79999998212,,160608.29999998212,2021-10-28T07:04:17.544Z,160654.355,1635404490,full,ni_sequenzen,NI_Sequenzen,10,2,,,,,,,,,,,,
,Move,canvas.Screen,0_3_0_2_0_10,-999,skipped,,160610.89999997616,,,160588.79999998212,,160611.09999999404,2021-10-28T07:04:17.547Z,160654.355,1635404490,full,ni_sequenzen,NI_Sequenzen,11,2,,,,,,,,,,,,
,Move,canvas.Screen,0_3_0_2_0_11,-999,skipped,,160613.69999998808,,,160588.79999998212,,160613.79999998212,2021-10-28T07:04:17.550Z,160654.355,1635404490,full,ni_sequenzen,NI_Sequenzen,12,2,,,,,,,,,,,,
,Move,canvas.Screen,0_3_0_2_0_12,-999,skipped,,160616.29999998212,,,160588.79999998212,,160616.39999997616,2021-10-28T07:04:17.552Z,160654.355,1635404490,full,ni_sequenzen,NI_Sequenzen,13,2,,,,,,,,,,,,
,Move,canvas.Screen,0_3_0_2_0_13,-999,skipped,,160619.79999998212,,,160588.79999998212,,160619.89999997616,2021-10-28T07:04:17.556Z,160654.355,1635404490,full,ni_sequenzen,NI_Sequenzen,14,2,,,,,,,,,,,,
,Move,canvas.Screen,0_3_0_2_0_14,-999,skipped,,160622.29999998212,,,160588.79999998212,,160622.39999997616,2021-10-28T07:04:17.558Z,160654.355,1635404490,full,ni_sequenzen,NI_Sequenzen,15,2,,,,,,,,,,,,
,Loop,flow.Loop,0_3_0_2_0,-999,completion,,155443.09999999404,155436.186,155452.781,160588.79999998212,5136.0189999821305,160622.5,2021-10-28T07:04:17.559Z,160654.355,1635404490,full,ni_sequenzen,NI_Sequenzen,,2,,,,,,,,,,,,
,Feedback,canvas.Screen,0_3_0_2_1,,timeout,,160624.5,160619.662,160654.355,164639.827,4001.8589999999967,164640.89999997616,2021-10-28T07:04:21.577Z,164656.214,1635404490,full,ni_sequenzen,NI_Sequenzen,,2,,,,,,,,,,,,
,Trial,flow.Sequence,0_3_0_2,,completion,,155421.19999998808,155436.186,155452.781,164639.827,9187.046000000002,164641.09999999404,2021-10-28T07:04:21.577Z,164672.888,1635404490,full,ni_sequenzen,NI_Sequenzen,,2,,,,,,,,,,,,
,Move,canvas.Screen,0_3_0_3_0_0,down,response,,164663.5,164656.214,164672.888,166049.09999999404,1376.2119999940332,166050.19999998808,2021-10-28T07:04:22.986Z,166080.469,1635404490,full,ni_sequenzen,NI_Sequenzen,1,3,,,,,,,,,,,,
,Move,canvas.Screen,0_3_0_3_0_1,right,response,,166055.19999998808,166040.849,166080.469,167669,1588.5309999999881,167670.19999998808,2021-10-28T07:04:24.606Z,167701.148,1635404490,full,ni_sequenzen,NI_Sequenzen,2,3,,,,,,,,,,,,
,Move,canvas.Screen,0_3_0_3_0_2,down,response,,167674.09999999404,167658.098,167701.148,169008.79999998212,1307.651999982132,169009.89999997616,2021-10-28T07:04:25.946Z,169045.815,1635404490,full,ni_sequenzen,NI_Sequenzen,3,3,,,,,,,,,,,,
,Move,canvas.Screen,0_3_0_3_0_3,left,response,,169013.09999999404,169010.111,169045.815,169429.09999999404,383.2849999940372,169430.29999998212,2021-10-28T07:04:26.366Z,169467.244,1635404490,full,ni_sequenzen,NI_Sequenzen,4,3,,,,,,,,,,,,
,Move,canvas.Screen,0_3_0_3_0_4,right,response,,169434.09999999404,169431.869,169467.244,171188.79999998212,1721.5559999821126,171189.89999997616,2021-10-28T07:04:28.126Z,171255.46,1635404490,full,ni_sequenzen,NI_Sequenzen,5,3,,,,,,,,,,,,
,Move,canvas.Screen,0_3_0_3_0_5,-999,skipped,,171192.89999997616,,,171188.79999998212,,171193.09999999404,2021-10-28T07:04:28.129Z,171255.46,1635404490,full,ni_sequenzen,NI_Sequenzen,6,3,,,,,,,,,,,,
,Move,canvas.Screen,0_3_0_3_0_6,-999,skipped,,171195.79999998212,,,171188.79999998212,,171195.89999997616,2021-10-28T07:04:28.132Z,171255.46,1635404490,full,ni_sequenzen,NI_Sequenzen,7,3,,,,,,,,,,,,
,Move,canvas.Screen,0_3_0_3_0_7,-999,skipped,,171199.5,,,171188.79999998212,,171199.5,2021-10-28T07:04:28.136Z,171255.46,1635404490,full,ni_sequenzen,NI_Sequenzen,8,3,,,,,,,,,,,,
,Move,canvas.Screen,0_3_0_3_0_8,-999,skipped,,171202.19999998808,,,171188.79999998212,,171202.29999998212,2021-10-28T07:04:28.138Z,171255.46,1635404490,full,ni_sequenzen,NI_Sequenzen,9,3,,,,,,,,,,,,
,Move,canvas.Screen,0_3_0_3_0_9,-999,skipped,,171204.89999997616,,,171188.79999998212,,171205,2021-10-28T07:04:28.141Z,171255.46,1635404490,full,ni_sequenzen,NI_Sequenzen,10,3,,,,,,,,,,,,
,Move,canvas.Screen,0_3_0_3_0_10,-999,skipped,,171208.69999998808,,,171188.79999998212,,171208.79999998212,2021-10-28T07:04:28.145Z,171255.46,1635404490,full,ni_sequenzen,NI_Sequenzen,11,3,,,,,,,,,,,,
,Move,canvas.Screen,0_3_0_3_0_11,-999,skipped,,171211.29999998212,,,171188.79999998212,,171211.39999997616,2021-10-28T07:04:28.147Z,171255.46,1635404490,full,ni_sequenzen,NI_Sequenzen,12,3,,,,,,,,,,,,
,Move,canvas.Screen,0_3_0_3_0_12,-999,skipped,,171213.89999997616,,,171188.79999998212,,171214,2021-10-28T07:04:28.150Z,171255.46,1635404490,full,ni_sequenzen,NI_Sequenzen,13,3,,,,,,,,,,,,
,Move,canvas.Screen,0_3_0_3_0_13,-999,skipped,,171216.5,,,171188.79999998212,,171216.59999999404,2021-10-28T07:04:28.153Z,171255.46,1635404490,full,ni_sequenzen,NI_Sequenzen,14,3,,,,,,,,,,,,
,Move,canvas.Screen,0_3_0_3_0_14,-999,skipped,,171220.19999998808,,,171188.79999998212,,171220.29999998212,2021-10-28T07:04:28.156Z,171255.46,1635404490,full,ni_sequenzen,NI_Sequenzen,15,3,,,,,,,,,,,,
,Loop,flow.Loop,0_3_0_3_0,-999,completion,,164660.39999997616,164656.214,164672.888,171188.79999998212,6515.911999982112,171220.5,2021-10-28T07:04:28.157Z,171255.46,1635404490,full,ni_sequenzen,NI_Sequenzen,,3,,,,,,,,,,,,
,Feedback,canvas.Screen,0_3_0_3_1,,timeout,,171222.69999998808,171220.384,171255.46,175236.592,3997.515000000014,175237.39999997616,2021-10-28T07:04:32.173Z,175252.975,1635404490,full,ni_sequenzen,NI_Sequenzen,,3,,,,,,,,,,,,
,Trial,flow.Sequence,0_3_0_3,,completion,,164641.39999997616,164656.214,164672.888,175236.592,10563.703999999998,175237.69999998808,2021-10-28T07:04:32.174Z,175269.733,1635404490,full,ni_sequenzen,NI_Sequenzen,,3,,,,,,,,,,,,
,Move,canvas.Screen,0_3_0_4_0_0,down,response,,175256.29999998212,175252.975,175269.733,178588.89999997616,3319.1669999761507,178590.09999999404,2021-10-28T07:04:35.526Z,178621.478,1635404490,full,ni_sequenzen,NI_Sequenzen,1,4,,,,,,,,,,,,
,Move,canvas.Screen,0_3_0_4_0_1,left,response,,178593.5,178588.826,178621.478,178989,367.5219999999972,178990,2021-10-28T07:04:35.926Z,179019.38,1635404490,full,ni_sequenzen,NI_Sequenzen,2,4,,,,,,,,,,,,
,Move,canvas.Screen,0_3_0_4_0_2,down,response,,178994.39999997616,178978.618,179019.38,179499.19999998808,479.8199999880744,179500.09999999404,2021-10-28T07:04:36.436Z,179531.864,1635404490,full,ni_sequenzen,NI_Sequenzen,3,4,,,,,,,,,,,,
,Move,canvas.Screen,0_3_0_4_0_3,left,response,,179503.69999998808,179496.58,179531.864,179859,327.1359999999986,179860,2021-10-28T07:04:36.796Z,179902.37,1635404490,full,ni_sequenzen,NI_Sequenzen,4,4,,,,,,,,,,,,
,Move,canvas.Screen,0_3_0_4_0_4,-999,skipped,,179864.09999999404,,,179859,,179864.19999998808,2021-10-28T07:04:36.800Z,179902.37,1635404490,full,ni_sequenzen,NI_Sequenzen,5,4,,,,,,,,,,,,
,Move,canvas.Screen,0_3_0_4_0_5,-999,skipped,,179867,,,179859,,179867.09999999404,2021-10-28T07:04:36.803Z,179902.37,1635404490,full,ni_sequenzen,NI_Sequenzen,6,4,,,,,,,,,,,,
,Move,canvas.Screen,0_3_0_4_0_6,-999,skipped,,179869.69999998808,,,179859,,179869.89999997616,2021-10-28T07:04:36.806Z,179902.37,1635404490,full,ni_sequenzen,NI_Sequenzen,7,4,,,,,,,,,,,,
,Move,canvas.Screen,0_3_0_4_0_7,-999,skipped,,179873.29999998212,,,179859,,179873.39999997616,2021-10-28T07:04:36.809Z,179902.37,1635404490,full,ni_sequenzen,NI_Sequenzen,8,4,,,,,,,,,,,,
,Move,canvas.Screen,0_3_0_4_0_8,-999,skipped,,179876,,,179859,,179876.09999999404,2021-10-28T07:04:36.812Z,179902.37,1635404490,full,ni_sequenzen,NI_Sequenzen,9,4,,,,,,,,,,,,
,Move,canvas.Screen,0_3_0_4_0_9,-999,skipped,,179878.79999998212,,,179859,,179878.89999997616,2021-10-28T07:04:36.815Z,179902.37,1635404490,full,ni_sequenzen,NI_Sequenzen,10,4,,,,,,,,,,,,
,Move,canvas.Screen,0_3_0_4_0_10,-999,skipped,,179883.39999997616,,,179859,,179883.5,2021-10-28T07:04:36.820Z,179902.37,1635404490,full,ni_sequenzen,NI_Sequenzen,11,4,,,,,,,,,,,,
,Move,canvas.Screen,0_3_0_4_0_11,-999,skipped,,179888.19999998808,,,179859,,179888.39999997616,2021-10-28T07:04:36.824Z,179902.37,1635404490,full,ni_sequenzen,NI_Sequenzen,12,4,,,,,,,,,,,,
,Move,canvas.Screen,0_3_0_4_0_12,-999,skipped,,179891.19999998808,,,179859,,179891.39999997616,2021-10-28T07:04:36.827Z,179902.37,1635404490,full,ni_sequenzen,NI_Sequenzen,13,4,,,,,,,,,,,,
,Move,canvas.Screen,0_3_0_4_0_13,-999,skipped,,179895.59999999404,,,179859,,179895.79999998212,2021-10-28T07:04:36.832Z,179902.37,1635404490,full,ni_sequenzen,NI_Sequenzen,14,4,,,,,,,,,,,,
,Move,canvas.Screen,0_3_0_4_0_14,-999,skipped,,179898.39999997616,,,179859,,179898.5,2021-10-28T07:04:36.835Z,179902.37,1635404490,full,ni_sequenzen,NI_Sequenzen,15,4,,,,,,,,,,,,
,Loop,flow.Loop,0_3_0_4_0,-999,completion,,175254.5,175252.975,175269.733,179859,4589.266999999993,179898.69999998808,2021-10-28T07:04:36.835Z,179902.37,1635404490,full,ni_sequenzen,NI_Sequenzen,,4,,,,,,,,,,,,
,Feedback,canvas.Screen,0_3_0_4_1,,timeout,,179900.79999998212,179889.388,179902.37,183890.139,4020.953999999998,183891.19999998808,2021-10-28T07:04:40.827Z,183923.324,1635404490,full,ni_sequenzen,NI_Sequenzen,,4,,,,,,,,,,,,
,Trial,flow.Sequence,0_3_0_4,,completion,,175238.09999999404,175252.975,175269.733,183890.139,8620.405999999988,183891.5,2021-10-28T07:04:40.828Z,183940.095,1635404490,full,ni_sequenzen,NI_Sequenzen,,4,,,,,,,,,,,,
,Move,canvas.Screen,0_3_0_5_0_0,down,response,,183923.59999999404,183923.324,183940.095,185308.69999998808,1368.604999988078,185309.59999999404,2021-10-28T07:04:42.246Z,185335.346,1635404490,full,ni_sequenzen,NI_Sequenzen,1,5,,,,,,,,,,,,
,Move,canvas.Screen,0_3_0_5_0_1,right,response,,185314.79999998212,185307.909,185335.346,185749,413.65400000000955,185750,2021-10-28T07:04:42.686Z,185784.205,1635404490,full,ni_sequenzen,NI_Sequenzen,2,5,,,,,,,,,,,,
,Move,canvas.Screen,0_3_0_5_0_2,right,response,,185754.5,185750.26,185784.205,187138.69999998808,1354.4949999880919,187139.79999998212,2021-10-28T07:04:44.076Z,187177.465,1635404490,full,ni_sequenzen,NI_Sequenzen,3,5,,,,,,,,,,,,
,Move,canvas.Screen,0_3_0_5_0_3,down,response,,187144.29999998212,187140.656,187177.465,187568.79999998212,391.3349999821221,187569.89999997616,2021-10-28T07:04:44.506Z,187653.62,1635404490,full,ni_sequenzen,NI_Sequenzen,4,5,,,,,,,,,,,,
,Move,canvas.Screen,0_3_0_5_0_4,-999,skipped,,187575.09999999404,,,187568.79999998212,,187575.29999998212,2021-10-28T07:04:44.511Z,187653.62,1635404490,full,ni_sequenzen,NI_Sequenzen,5,5,,,,,,,,,,,,
,Move,canvas.Screen,0_3_0_5_0_5,-999,skipped,,187579.89999997616,,,187568.79999998212,,187580.09999999404,2021-10-28T07:04:44.516Z,187653.62,1635404490,full,ni_sequenzen,NI_Sequenzen,6,5,,,,,,,,,,,,
,Move,canvas.Screen,0_3_0_5_0_6,-999,skipped,,187585.5,,,187568.79999998212,,187585.59999999404,2021-10-28T07:04:44.522Z,187653.62,1635404490,full,ni_sequenzen,NI_Sequenzen,7,5,,,,,,,,,,,,
,Move,canvas.Screen,0_3_0_5_0_7,-999,skipped,,187590.19999998808,,,187568.79999998212,,187590.29999998212,2021-10-28T07:04:44.526Z,187653.62,1635404490,full,ni_sequenzen,NI_Sequenzen,8,5,,,,,,,,,,,,
,Move,canvas.Screen,0_3_0_5_0_8,-999,skipped,,187594.89999997616,,,187568.79999998212,,187595.09999999404,2021-10-28T07:04:44.531Z,187653.62,1635404490,full,ni_sequenzen,NI_Sequenzen,9,5,,,,,,,,,,,,
,Move,canvas.Screen,0_3_0_5_0_9,-999,skipped,,187598.89999997616,,,187568.79999998212,,187599,2021-10-28T07:04:44.535Z,187653.62,1635404490,full,ni_sequenzen,NI_Sequenzen,10,5,,,,,,,,,,,,
,Move,canvas.Screen,0_3_0_5_0_10,-999,skipped,,187601.59999999404,,,187568.79999998212,,187601.69999998808,2021-10-28T07:04:44.538Z,187653.62,1635404490,full,ni_sequenzen,NI_Sequenzen,11,5,,,,,,,,,,,,
,Move,canvas.Screen,0_3_0_5_0_11,-999,skipped,,187604.39999997616,,,187568.79999998212,,187604.59999999404,2021-10-28T07:04:44.541Z,187653.62,1635404490,full,ni_sequenzen,NI_Sequenzen,12,5,,,,,,,,,,,,
,Move,canvas.Screen,0_3_0_5_0_12,-999,skipped,,187607.69999998808,,,187568.79999998212,,187607.89999997616,2021-10-28T07:04:44.544Z,187653.62,1635404490,full,ni_sequenzen,NI_Sequenzen,13,5,,,,,,,,,,,,
,Move,canvas.Screen,0_3_0_5_0_13,-999,skipped,,187610.5,,,187568.79999998212,,187610.69999998808,2021-10-28T07:04:44.547Z,187653.62,1635404490,full,ni_sequenzen,NI_Sequenzen,14,5,,,,,,,,,,,,
,Move,canvas.Screen,0_3_0_5_0_14,-999,skipped,,187613.19999998808,,,187568.79999998212,,187613.19999998808,2021-10-28T07:04:44.549Z,187653.62,1635404490,full,ni_sequenzen,NI_Sequenzen,15,5,,,,,,,,,,,,
,Loop,flow.Loop,0_3_0_5_0,-999,completion,,183917.89999997616,183923.324,183940.095,187568.79999998212,3628.7049999821174,187613.39999997616,2021-10-28T07:04:44.549Z,187653.62,1635404490,full,ni_sequenzen,NI_Sequenzen,,5,,,,,,,,,,,,
,Feedback,canvas.Screen,0_3_0_5_1,,timeout,,187615.79999998212,187613.066,187653.62,191631.58,3994.3669999999984,191634.5,2021-10-28T07:04:48.571Z,191647.987,1635404490,full,ni_sequenzen,NI_Sequenzen,,5,,,,,,,,,,,,
,Trial,flow.Sequence,0_3_0_5,,completion,,183895.59999999404,183923.324,183940.095,191631.58,7691.484999999986,191634.69999998808,2021-10-28T07:04:48.571Z,191664.651,1635404490,full,ni_sequenzen,NI_Sequenzen,,5,,,,,,,,,,,,
,Move,canvas.Screen,0_3_0_6_0_0,left,response,,191655.39999997616,191647.987,191664.651,194659.19999998808,2994.5489999880665,194660.29999998212,2021-10-28T07:04:51.596Z,194688.44,1635404490,full,ni_sequenzen,NI_Sequenzen,1,6,,,,,,,,,,,,
,Move,canvas.Screen,0_3_0_6_0_1,down,response,,194663.39999997616,194650.393,194688.44,195268.89999997616,580.4599999761558,195269.89999997616,2021-10-28T07:04:52.206Z,195274.923,1635404490,full,ni_sequenzen,NI_Sequenzen,2,6,,,,,,,,,,,,
,Move,canvas.Screen,0_3_0_6_0_2,down,response,,195273.29999998212,195265.48,195274.923,196578.79999998212,1303.8769999821088,196579.79999998212,2021-10-28T07:04:53.516Z,196611.581,1635404490,full,ni_sequenzen,NI_Sequenzen,3,6,,,,,,,,,,,,
,Move,canvas.Screen,0_3_0_6_0_3,left,response,,196582.89999997616,196575.892,196611.581,197028.89999997616,417.31899997615255,197029.89999997616,2021-10-28T07:04:53.966Z,197105.035,1635404490,full,ni_sequenzen,NI_Sequenzen,4,6,,,,,,,,,,,,
,Move,canvas.Screen,0_3_0_6_0_4,-999,skipped,,197034.39999997616,,,197028.89999997616,,197034.69999998808,2021-10-28T07:04:53.971Z,197105.035,1635404490,full,ni_sequenzen,NI_Sequenzen,5,6,,,,,,,,,,,,
,Move,canvas.Screen,0_3_0_6_0_5,-999,skipped,,197039.19999998808,,,197028.89999997616,,197039.39999997616,2021-10-28T07:04:53.975Z,197105.035,1635404490,full,ni_sequenzen,NI_Sequenzen,6,6,,,,,,,,,,,,
,Move,canvas.Screen,0_3_0_6_0_6,-999,skipped,,197042.79999998212,,,197028.89999997616,,197042.89999997616,2021-10-28T07:04:53.979Z,197105.035,1635404490,full,ni_sequenzen,NI_Sequenzen,7,6,,,,,,,,,,,,
,Move,canvas.Screen,0_3_0_6_0_7,-999,skipped,,197047.5,,,197028.89999997616,,197047.59999999404,2021-10-28T07:04:53.984Z,197105.035,1635404490,full,ni_sequenzen,NI_Sequenzen,8,6,,,,,,,,,,,,
,Move,canvas.Screen,0_3_0_6_0_8,-999,skipped,,197050.79999998212,,,197028.89999997616,,197050.89999997616,2021-10-28T07:04:53.987Z,197105.035,1635404490,full,ni_sequenzen,NI_Sequenzen,9,6,,,,,,,,,,,,
,Move,canvas.Screen,0_3_0_6_0_9,-999,skipped,,197054.59999999404,,,197028.89999997616,,197054.79999998212,2021-10-28T07:04:53.991Z,197105.035,1635404490,full,ni_sequenzen,NI_Sequenzen,10,6,,,,,,,,,,,,
,Move,canvas.Screen,0_3_0_6_0_10,-999,skipped,,197058.29999998212,,,197028.89999997616,,197058.39999997616,2021-10-28T07:04:53.994Z,197105.035,1635404490,full,ni_sequenzen,NI_Sequenzen,11,6,,,,,,,,,,,,
,Move,canvas.Screen,0_3_0_6_0_11,-999,skipped,,197061.09999999404,,,197028.89999997616,,197061.09999999404,2021-10-28T07:04:53.997Z,197105.035,1635404490,full,ni_sequenzen,NI_Sequenzen,12,6,,,,,,,,,,,,
,Move,canvas.Screen,0_3_0_6_0_12,-999,skipped,,197063.89999997616,,,197028.89999997616,,197064,2021-10-28T07:04:54.000Z,197105.035,1635404490,full,ni_sequenzen,NI_Sequenzen,13,6,,,,,,,,,,,,
,Move,canvas.Screen,0_3_0_6_0_13,-999,skipped,,197066.69999998808,,,197028.89999997616,,197066.79999998212,2021-10-28T07:04:54.003Z,197105.035,1635404490,full,ni_sequenzen,NI_Sequenzen,14,6,,,,,,,,,,,,
,Move,canvas.Screen,0_3_0_6_0_14,-999,skipped,,197069.79999998212,,,197028.89999997616,,197069.89999997616,2021-10-28T07:04:54.006Z,197105.035,1635404490,full,ni_sequenzen,NI_Sequenzen,15,6,,,,,,,,,,,,
,Loop,flow.Loop,0_3_0_6_0,-999,completion,,191651.69999998808,191647.987,191664.651,197028.89999997616,5364.248999976146,197070.09999999404,2021-10-28T07:04:54.006Z,197105.035,1635404490,full,ni_sequenzen,NI_Sequenzen,,6,,,,,,,,,,,,
,Feedback,canvas.Screen,0_3_0_6_1,,timeout,,197072.39999997616,197068.487,197105.035,201090.919,4002.274000000005,201091.79999998212,2021-10-28T07:04:58.028Z,201107.309,1635404490,full,ni_sequenzen,NI_Sequenzen,,6,,,,,,,,,,,,
,Trial,flow.Sequence,0_3_0_6,,completion,,191635.09999999404,191647.987,191664.651,201090.919,9426.267999999982,201091.79999998212,2021-10-28T07:04:58.028Z,201123.97,1635404490,full,ni_sequenzen,NI_Sequenzen,,6,,,,,,,,,,,,
,Move,canvas.Screen,0_3_0_7_0_0,down,response,,201118,201107.309,201123.97,202448.89999997616,1324.929999976157,202449.89999997616,2021-10-28T07:04:59.386Z,202478.172,1635404490,full,ni_sequenzen,NI_Sequenzen,1,7,,,,,,,,,,,,
,Move,canvas.Screen,0_3_0_7_0_1,right,response,,202453.39999997616,202441.922,202478.172,202768.69999998808,290.5279999880877,202769.69999998808,2021-10-28T07:04:59.706Z,202805.406,1635404490,full,ni_sequenzen,NI_Sequenzen,2,7,,,,,,,,,,,,
,Move,canvas.Screen,0_3_0_7_0_2,right,response,,202772.69999998808,202772.161,202805.406,203058.79999998212,253.39399998213048,203060,2021-10-28T07:04:59.996Z,203097.539,1635404490,full,ni_sequenzen,NI_Sequenzen,3,7,,,,,,,,,,,,
,Move,canvas.Screen,0_3_0_7_0_3,down,response,,203064.39999997616,203058.098,203097.539,203358.79999998212,261.26099998212885,203359.79999998212,2021-10-28T07:05:00.296Z,203424.006,1635404490,full,ni_sequenzen,NI_Sequenzen,4,7,,,,,,,,,,,,
,Move,canvas.Screen,0_3_0_7_0_4,-999,skipped,,203362.79999998212,,,203358.79999998212,,203363,2021-10-28T07:05:00.299Z,203424.006,1635404490,full,ni_sequenzen,NI_Sequenzen,5,7,,,,,,,,,,,,
,Move,canvas.Screen,0_3_0_7_0_5,-999,skipped,,203365.69999998808,,,203358.79999998212,,203365.69999998808,2021-10-28T07:05:00.302Z,203424.006,1635404490,full,ni_sequenzen,NI_Sequenzen,6,7,,,,,,,,,,,,
,Move,canvas.Screen,0_3_0_7_0_6,-999,skipped,,203369.19999998808,,,203358.79999998212,,203369.29999998212,2021-10-28T07:05:00.305Z,203424.006,1635404490,full,ni_sequenzen,NI_Sequenzen,7,7,,,,,,,,,,,,
,Move,canvas.Screen,0_3_0_7_0_7,-999,skipped,,203371.79999998212,,,203358.79999998212,,203371.89999997616,2021-10-28T07:05:00.308Z,203424.006,1635404490,full,ni_sequenzen,NI_Sequenzen,8,7,,,,,,,,,,,,
,Move,canvas.Screen,0_3_0_7_0_8,-999,skipped,,203374.5,,,203358.79999998212,,203374.5,2021-10-28T07:05:00.311Z,203424.006,1635404490,full,ni_sequenzen,NI_Sequenzen,9,7,,,,,,,,,,,,
,Move,canvas.Screen,0_3_0_7_0_9,-999,skipped,,203379.5,,,203358.79999998212,,203379.79999998212,2021-10-28T07:05:00.316Z,203424.006,1635404490,full,ni_sequenzen,NI_Sequenzen,10,7,,,,,,,,,,,,
,Move,canvas.Screen,0_3_0_7_0_10,-999,skipped,,203382.79999998212,,,203358.79999998212,,203383,2021-10-28T07:05:00.319Z,203424.006,1635404490,full,ni_sequenzen,NI_Sequenzen,11,7,,,,,,,,,,,,
,Move,canvas.Screen,0_3_0_7_0_11,-999,skipped,,203386.09999999404,,,203358.79999998212,,203386.19999998808,2021-10-28T07:05:00.322Z,203424.006,1635404490,full,ni_sequenzen,NI_Sequenzen,12,7,,,,,,,,,,,,
,Move,canvas.Screen,0_3_0_7_0_12,-999,skipped,,203388.89999997616,,,203358.79999998212,,203389,2021-10-28T07:05:00.325Z,203424.006,1635404490,full,ni_sequenzen,NI_Sequenzen,13,7,,,,,,,,,,,,
,Move,canvas.Screen,0_3_0_7_0_13,-999,skipped,,203392.19999998808,,,203358.79999998212,,203392.29999998212,2021-10-28T07:05:00.328Z,203424.006,1635404490,full,ni_sequenzen,NI_Sequenzen,14,7,,,,,,,,,,,,
,Move,canvas.Screen,0_3_0_7_0_14,-999,skipped,,203394.89999997616,,,203358.79999998212,,203395,2021-10-28T07:05:00.331Z,203424.006,1635404490,full,ni_sequenzen,NI_Sequenzen,15,7,,,,,,,,,,,,
,Loop,flow.Loop,0_3_0_7_0,-999,completion,,201113.5,201107.309,201123.97,203358.79999998212,2234.8299999821174,203395.19999998808,2021-10-28T07:05:00.331Z,203424.006,1635404490,full,ni_sequenzen,NI_Sequenzen,,7,,,,,,,,,,,,
,Feedback,canvas.Screen,0_3_0_7_1,,timeout,,203397.69999998808,203383.055,203424.006,207412.76,4005.103999999992,207413.59999999404,2021-10-28T07:05:04.350Z,207429.11,1635404490,full,ni_sequenzen,NI_Sequenzen,,7,,,,,,,,,,,,
,Trial,flow.Sequence,0_3_0_7,,completion,,201092.29999998212,201107.309,201123.97,207412.76,6288.790000000008,207413.69999998808,2021-10-28T07:05:04.350Z,207445.809,1635404490,full,ni_sequenzen,NI_Sequenzen,,7,,,,,,,,,,,,
,Move,canvas.Screen,0_3_0_8_0_0,down,response,,207434.19999998808,207429.11,207445.809,212840.39999997616,5394.59099997615,212841.39999997616,2021-10-28T07:05:09.763Z,212869.523,1635404490,full,ni_sequenzen,NI_Sequenzen,1,8,,,,,,,,,,,,
,Move,canvas.Screen,0_3_0_8_0_1,right,response,,212844.39999997616,212833.126,212869.523,213178.89999997616,309.37699997617165,213180.09999999404,2021-10-28T07:05:10.102Z,213216.778,1635404490,full,ni_sequenzen,NI_Sequenzen,2,8,,,,,,,,,,,,
,Move,canvas.Screen,0_3_0_8_0_2,right,response,,213183.69999998808,213179.746,213216.778,213388.69999998808,171.92199998808792,213389.79999998212,2021-10-28T07:05:10.312Z,213394.493,1635404490,full,ni_sequenzen,NI_Sequenzen,3,8,,,,,,,,,,,,
,Move,canvas.Screen,0_3_0_8_0_3,down,response,,213392.89999997616,213385.554,213394.493,213638.89999997616,244.40699997617048,213639.89999997616,2021-10-28T07:05:10.562Z,213712.993,1635404490,full,ni_sequenzen,NI_Sequenzen,4,8,,,,,,,,,,,,
,Move,canvas.Screen,0_3_0_8_0_4,-999,skipped,,213644.89999997616,,,213638.89999997616,,213645.09999999404,2021-10-28T07:05:10.567Z,213712.993,1635404490,full,ni_sequenzen,NI_Sequenzen,5,8,,,,,,,,,,,,
,Move,canvas.Screen,0_3_0_8_0_5,-999,skipped,,213647.79999998212,,,213638.89999997616,,213647.89999997616,2021-10-28T07:05:10.570Z,213712.993,1635404490,full,ni_sequenzen,NI_Sequenzen,6,8,,,,,,,,,,,,
,Move,canvas.Screen,0_3_0_8_0_6,-999,skipped,,213650.59999999404,,,213638.89999997616,,213650.59999999404,2021-10-28T07:05:10.572Z,213712.993,1635404490,full,ni_sequenzen,NI_Sequenzen,7,8,,,,,,,,,,,,
,Move,canvas.Screen,0_3_0_8_0_7,-999,skipped,,213654.59999999404,,,213638.89999997616,,213654.69999998808,2021-10-28T07:05:10.577Z,213712.993,1635404490,full,ni_sequenzen,NI_Sequenzen,8,8,,,,,,,,,,,,
,Move,canvas.Screen,0_3_0_8_0_8,-999,skipped,,213657.29999998212,,,213638.89999997616,,213657.39999997616,2021-10-28T07:05:10.579Z,213712.993,1635404490,full,ni_sequenzen,NI_Sequenzen,9,8,,,,,,,,,,,,
,Move,canvas.Screen,0_3_0_8_0_9,-999,skipped,,213660.09999999404,,,213638.89999997616,,213660.29999998212,2021-10-28T07:05:10.582Z,213712.993,1635404490,full,ni_sequenzen,NI_Sequenzen,10,8,,,,,,,,,,,,
,Move,canvas.Screen,0_3_0_8_0_10,-999,skipped,,213665.79999998212,,,213638.89999997616,,213665.79999998212,2021-10-28T07:05:10.588Z,213712.993,1635404490,full,ni_sequenzen,NI_Sequenzen,11,8,,,,,,,,,,,,
,Move,canvas.Screen,0_3_0_8_0_11,-999,skipped,,213668.5,,,213638.89999997616,,213668.59999999404,2021-10-28T07:05:10.590Z,213712.993,1635404490,full,ni_sequenzen,NI_Sequenzen,12,8,,,,,,,,,,,,
