meta,sender,sender_type,sender_id,response,ended_on,instrCount,time_run,time_render,time_show,time_end,duration,time_commit,timestamp,time_switch,openLabId,type,task,project,move,trialN,blockN_Train,blockN,moveCount,currPP,points,movesTrial,visitedFields,diff,reward,Strategie,Zweck,Probleme
[object Object],Screen_1,canvas.Screen,0_0_0_0,cont,response,1,641.6000000238419,631.518,648.185,44074.200000047684,43426.015000047686,44081.800000071526,2021-10-24T10:25:44.588Z,44249.057,1635071093,full,ni_sequenzen,NI_Sequenzen,,,,,,,,,,,,,,
,Screen_2,canvas.Screen,0_0_0_1,cont,response,1,44232.800000071526,44232.39,44249.057,60768.700000047684,16519.643000047683,60773.300000071526,2021-10-24T10:26:01.280Z,60869.218,1635071093,full,ni_sequenzen,NI_Sequenzen,,,,,,,,,,,,,,
,Screen_3,canvas.Screen,0_0_0_2,cont,response,1,60858.800000071526,60852.551,60869.218,85158.20000004768,24288.982000047683,85164.60000002384,2021-10-24T10:26:25.672Z,85169.704,1635071093,full,ni_sequenzen,NI_Sequenzen,,,,,,,,,,,,,,
,Screen_4,canvas.Screen,0_0_0_3,back,response,1,85169.40000009537,85153.037,85169.704,96441.10000002384,11271.396000023844,96449.80000007153,2021-10-24T10:26:36.958Z,96486.597,1635071093,full,ni_sequenzen,NI_Sequenzen,,,,,,,,,,,,,,
,Sequence,flow.Sequence,0_0_0,,completion,1,589.3000000715256,631.518,648.185,96441.10000002384,95792.91500002384,96452.80000007153,2021-10-24T10:26:36.960Z,96486.597,1635071093,full,ni_sequenzen,NI_Sequenzen,,,,,,,,,,,,,,
,Screen_1,canvas.Screen,0_0_1_0,,skipped,2,96461.90000009537,,,96461.90000009537,,96462.10000002384,2021-10-24T10:26:36.970Z,96486.597,1635071093,full,ni_sequenzen,NI_Sequenzen,,,,,,,,,,,,,,
,Screen_2,canvas.Screen,0_0_1_1,,skipped,2,96464.60000002384,,,96461.90000009537,,96464.70000004768,2021-10-24T10:26:36.972Z,96486.597,1635071093,full,ni_sequenzen,NI_Sequenzen,,,,,,,,,,,,,,
,Screen_3,canvas.Screen,0_0_1_2,cont,response,2,96467.40000009537,96469.93,96486.597,97374.90000009537,888.3030000953731,97378.70000004768,2021-10-24T10:26:37.886Z,97388.107,1635071093,full,ni_sequenzen,NI_Sequenzen,,,,,,,,,,,,,,
,Screen_4,canvas.Screen,0_0_1_3,cont,response,2,97381.5,97371.44,97388.107,106340.70000004768,8952.59300004768,106345.20000004768,2021-10-24T10:26:46.853Z,106572.178,1635071093,full,ni_sequenzen,NI_Sequenzen,,,,,,,,,,,,,,
,Sequence,flow.Sequence,0_0_1,,completion,2,96453.80000007153,96469.93,96486.597,106340.70000004768,9854.10300004769,106345.70000004768,2021-10-24T10:26:46.854Z,106572.178,1635071093,full,ni_sequenzen,NI_Sequenzen,,,,,,,,,,,,,,
,Screen_1,canvas.Screen,0_0_2_0,,skipped,3,106349.5,,,106349.60000002384,,106349.80000007153,2021-10-24T10:26:46.858Z,106572.178,1635071093,full,ni_sequenzen,NI_Sequenzen,,,,,,,,,,,,,,
,Screen_2,canvas.Screen,0_0_2_1,,skipped,3,106351.30000007153,,,106349.60000002384,,106351.5,2021-10-24T10:26:46.859Z,106572.178,1635071093,full,ni_sequenzen,NI_Sequenzen,,,,,,,,,,,,,,
,Screen_3,canvas.Screen,0_0_2_2,,skipped,3,106352.70000004768,,,106349.60000002384,,106352.80000007153,2021-10-24T10:26:46.861Z,106572.178,1635071093,full,ni_sequenzen,NI_Sequenzen,,,,,,,,,,,,,,
,Screen_4,canvas.Screen,0_0_2_3,,skipped,3,106354,,,106349.60000002384,,106354.10000002384,2021-10-24T10:26:46.862Z,106572.178,1635071093,full,ni_sequenzen,NI_Sequenzen,,,,,,,,,,,,,,
,Sequence,flow.Sequence,0_0_2,,completion,3,106347.90000009537,,,106349.60000002384,,106354.30000007153,2021-10-24T10:26:46.862Z,106572.178,1635071093,full,ni_sequenzen,NI_Sequenzen,,,,,,,,,,,,,,
,Screen_1,canvas.Screen,0_0_3_0,,skipped,4,106355.70000004768,,,106355.80000007153,,106355.80000007153,2021-10-24T10:26:46.864Z,106572.178,1635071093,full,ni_sequenzen,NI_Sequenzen,,,,,,,,,,,,,,
,Screen_2,canvas.Screen,0_0_3_1,,skipped,4,106356.70000004768,,,106355.80000007153,,106356.90000009537,2021-10-24T10:26:46.865Z,106572.178,1635071093,full,ni_sequenzen,NI_Sequenzen,,,,,,,,,,,,,,
,Screen_3,canvas.Screen,0_0_3_2,,skipped,4,106357.80000007153,,,106355.80000007153,,106357.90000009537,2021-10-24T10:26:46.866Z,106572.178,1635071093,full,ni_sequenzen,NI_Sequenzen,,,,,,,,,,,,,,
,Screen_4,canvas.Screen,0_0_3_3,,skipped,4,106358.90000009537,,,106355.80000007153,,106358.90000009537,2021-10-24T10:26:46.867Z,106572.178,1635071093,full,ni_sequenzen,NI_Sequenzen,,,,,,,,,,,,,,
,Sequence,flow.Sequence,0_0_3,,completion,4,106354.90000009537,,,106355.80000007153,,106359.10000002384,2021-10-24T10:26:46.867Z,106572.178,1635071093,full,ni_sequenzen,NI_Sequenzen,,,,,,,,,,,,,,
,Screen_1,canvas.Screen,0_0_4_0,,skipped,5,106360.30000007153,,,106360.30000007153,,106360.30000007153,2021-10-24T10:26:46.868Z,106572.178,1635071093,full,ni_sequenzen,NI_Sequenzen,,,,,,,,,,,,,,
,Screen_2,canvas.Screen,0_0_4_1,,skipped,5,106361.20000004768,,,106360.30000007153,,106361.30000007153,2021-10-24T10:26:46.869Z,106572.178,1635071093,full,ni_sequenzen,NI_Sequenzen,,,,,,,,,,,,,,
,Screen_3,canvas.Screen,0_0_4_2,,skipped,5,106362.20000004768,,,106360.30000007153,,106362.30000007153,2021-10-24T10:26:46.870Z,106572.178,1635071093,full,ni_sequenzen,NI_Sequenzen,,,,,,,,,,,,,,
,Screen_4,canvas.Screen,0_0_4_3,,skipped,5,106363.20000004768,,,106360.30000007153,,106365.40000009537,2021-10-24T10:26:46.873Z,106572.178,1635071093,full,ni_sequenzen,NI_Sequenzen,,,,,,,,,,,,,,
,Sequence,flow.Sequence,0_0_4,,completion,5,106359.40000009537,,,106360.30000007153,,106365.70000004768,2021-10-24T10:26:46.874Z,106572.178,1635071093,full,ni_sequenzen,NI_Sequenzen,,,,,,,,,,,,,,
,Screen_1,canvas.Screen,0_0_5_0,,skipped,6,106370,,,106370,,106370.10000002384,2021-10-24T10:26:46.878Z,106572.178,1635071093,full,ni_sequenzen,NI_Sequenzen,,,,,,,,,,,,,,
,Screen_2,canvas.Screen,0_0_5_1,,skipped,6,106372,,,106370,,106372.10000002384,2021-10-24T10:26:46.880Z,106572.178,1635071093,full,ni_sequenzen,NI_Sequenzen,,,,,,,,,,,,,,
,Screen_3,canvas.Screen,0_0_5_2,,skipped,6,106374.40000009537,,,106370,,106374.60000002384,2021-10-24T10:26:46.883Z,106572.178,1635071093,full,ni_sequenzen,NI_Sequenzen,,,,,,,,,,,,,,
,Screen_4,canvas.Screen,0_0_5_3,,skipped,6,106377.60000002384,,,106370,,106377.80000007153,2021-10-24T10:26:46.886Z,106572.178,1635071093,full,ni_sequenzen,NI_Sequenzen,,,,,,,,,,,,,,
,Sequence,flow.Sequence,0_0_5,,completion,6,106366.30000007153,,,106370,,106377.90000009537,2021-10-24T10:26:46.886Z,106572.178,1635071093,full,ni_sequenzen,NI_Sequenzen,,,,,,,,,,,,,,
,Screen_1,canvas.Screen,0_0_6_0,,skipped,7,106381.70000004768,,,106381.70000004768,,106381.90000009537,2021-10-24T10:26:46.890Z,106572.178,1635071093,full,ni_sequenzen,NI_Sequenzen,,,,,,,,,,,,,,
,Screen_2,canvas.Screen,0_0_6_1,,skipped,7,106383.70000004768,,,106381.70000004768,,106383.80000007153,2021-10-24T10:26:46.892Z,106572.178,1635071093,full,ni_sequenzen,NI_Sequenzen,,,,,,,,,,,,,,
,Screen_3,canvas.Screen,0_0_6_2,,skipped,7,106388,,,106381.70000004768,,106388.10000002384,2021-10-24T10:26:46.896Z,106572.178,1635071093,full,ni_sequenzen,NI_Sequenzen,,,,,,,,,,,,,,
,Screen_4,canvas.Screen,0_0_6_3,,skipped,7,106391.20000004768,,,106381.70000004768,,106391.30000007153,2021-10-24T10:26:46.899Z,106572.178,1635071093,full,ni_sequenzen,NI_Sequenzen,,,,,,,,,,,,,,
,Sequence,flow.Sequence,0_0_6,,completion,7,106378.5,,,106381.70000004768,,106391.5,2021-10-24T10:26:46.899Z,106572.178,1635071093,full,ni_sequenzen,NI_Sequenzen,,,,,,,,,,,,,,
,Screen_1,canvas.Screen,0_0_7_0,,skipped,8,106393.80000007153,,,106393.80000007153,,106393.90000009537,2021-10-24T10:26:46.902Z,106572.178,1635071093,full,ni_sequenzen,NI_Sequenzen,,,,,,,,,,,,,,
,Screen_2,canvas.Screen,0_0_7_1,,skipped,8,106395.40000009537,,,106393.80000007153,,106395.60000002384,2021-10-24T10:26:46.903Z,106572.178,1635071093,full,ni_sequenzen,NI_Sequenzen,,,,,,,,,,,,,,
,Screen_3,canvas.Screen,0_0_7_2,,skipped,8,106398.20000004768,,,106393.80000007153,,106398.30000007153,2021-10-24T10:26:46.906Z,106572.178,1635071093,full,ni_sequenzen,NI_Sequenzen,,,,,,,,,,,,,,
,Screen_4,canvas.Screen,0_0_7_3,,skipped,8,106400.40000009537,,,106393.80000007153,,106400.5,2021-10-24T10:26:46.908Z,106572.178,1635071093,full,ni_sequenzen,NI_Sequenzen,,,,,,,,,,,,,,
,Sequence,flow.Sequence,0_0_7,,completion,8,106392.10000002384,,,106393.80000007153,,106400.60000002384,2021-10-24T10:26:46.909Z,106572.178,1635071093,full,ni_sequenzen,NI_Sequenzen,,,,,,,,,,,,,,
,Screen_1,canvas.Screen,0_0_8_0,,skipped,9,106415.5,,,106415.5,,106415.60000002384,2021-10-24T10:26:46.924Z,106572.178,1635071093,full,ni_sequenzen,NI_Sequenzen,,,,,,,,,,,,,,
,Screen_2,canvas.Screen,0_0_8_1,,skipped,9,106417.40000009537,,,106415.5,,106417.40000009537,2021-10-24T10:26:46.925Z,106572.178,1635071093,full,ni_sequenzen,NI_Sequenzen,,,,,,,,,,,,,,
,Screen_3,canvas.Screen,0_0_8_2,,skipped,9,106419.40000009537,,,106415.5,,106419.40000009537,2021-10-24T10:26:46.927Z,106572.178,1635071093,full,ni_sequenzen,NI_Sequenzen,,,,,,,,,,,,,,
,Screen_4,canvas.Screen,0_0_8_3,,skipped,9,106421.30000007153,,,106415.5,,106421.30000007153,2021-10-24T10:26:46.929Z,106572.178,1635071093,full,ni_sequenzen,NI_Sequenzen,,,,,,,,,,,,,,
,Sequence,flow.Sequence,0_0_8,,completion,9,106401.60000002384,,,106415.5,,106421.5,2021-10-24T10:26:46.930Z,106572.178,1635071093,full,ni_sequenzen,NI_Sequenzen,,,,,,,,,,,,,,
,Screen_1,canvas.Screen,0_0_9_0,,skipped,10,106424.5,,,106424.5,,106424.5,2021-10-24T10:26:46.933Z,106572.178,1635071093,full,ni_sequenzen,NI_Sequenzen,,,,,,,,,,,,,,
,Screen_2,canvas.Screen,0_0_9_1,,skipped,10,106426,,,106424.5,,106426.20000004768,2021-10-24T10:26:46.934Z,106572.178,1635071093,full,ni_sequenzen,NI_Sequenzen,,,,,,,,,,,,,,
,Screen_3,canvas.Screen,0_0_9_2,,skipped,10,106428.10000002384,,,106424.5,,106428.10000002384,2021-10-24T10:26:46.936Z,106572.178,1635071093,full,ni_sequenzen,NI_Sequenzen,,,,,,,,,,,,,,
,Screen_4,canvas.Screen,0_0_9_3,,skipped,10,106430,,,106424.5,,106430.20000004768,2021-10-24T10:26:46.938Z,106572.178,1635071093,full,ni_sequenzen,NI_Sequenzen,,,,,,,,,,,,,,
,Sequence,flow.Sequence,0_0_9,,completion,10,106422.30000007153,,,106424.5,,106430.30000007153,2021-10-24T10:26:46.938Z,106572.178,1635071093,full,ni_sequenzen,NI_Sequenzen,,,,,,,,,,,,,,
,Screen_1,canvas.Screen,0_0_10_0,,skipped,11,106432.80000007153,,,106432.80000007153,,106433,2021-10-24T10:26:46.941Z,106572.178,1635071093,full,ni_sequenzen,NI_Sequenzen,,,,,,,,,,,,,,
,Screen_2,canvas.Screen,0_0_10_1,,skipped,11,106435.30000007153,,,106432.80000007153,,106435.60000002384,2021-10-24T10:26:46.944Z,106572.178,1635071093,full,ni_sequenzen,NI_Sequenzen,,,,,,,,,,,,,,
,Screen_3,canvas.Screen,0_0_10_2,,skipped,11,106438.10000002384,,,106432.80000007153,,106438.20000004768,2021-10-24T10:26:46.946Z,106572.178,1635071093,full,ni_sequenzen,NI_Sequenzen,,,,,,,,,,,,,,
,Screen_4,canvas.Screen,0_0_10_3,,skipped,11,106440.10000002384,,,106432.80000007153,,106440.20000004768,2021-10-24T10:26:46.948Z,106572.178,1635071093,full,ni_sequenzen,NI_Sequenzen,,,,,,,,,,,,,,
,Sequence,flow.Sequence,0_0_10,,completion,11,106431.10000002384,,,106432.80000007153,,106440.40000009537,2021-10-24T10:26:46.948Z,106572.178,1635071093,full,ni_sequenzen,NI_Sequenzen,,,,,,,,,,,,,,
,Screen_1,canvas.Screen,0_0_11_0,,skipped,12,106443.10000002384,,,106443.10000002384,,106443.30000007153,2021-10-24T10:26:46.951Z,106572.178,1635071093,full,ni_sequenzen,NI_Sequenzen,,,,,,,,,,,,,,
,Screen_2,canvas.Screen,0_0_11_1,,skipped,12,106460,,,106443.10000002384,,106460.10000002384,2021-10-24T10:26:46.968Z,106572.178,1635071093,full,ni_sequenzen,NI_Sequenzen,,,,,,,,,,,,,,
,Screen_3,canvas.Screen,0_0_11_2,,skipped,12,106462.20000004768,,,106443.10000002384,,106462.40000009537,2021-10-24T10:26:46.970Z,106572.178,1635071093,full,ni_sequenzen,NI_Sequenzen,,,,,,,,,,,,,,
,Screen_4,canvas.Screen,0_0_11_3,,skipped,12,106464.10000002384,,,106443.10000002384,,106464.20000004768,2021-10-24T10:26:46.972Z,106572.178,1635071093,full,ni_sequenzen,NI_Sequenzen,,,,,,,,,,,,,,
,Sequence,flow.Sequence,0_0_11,,completion,12,106441.40000009537,,,106443.10000002384,,106464.5,2021-10-24T10:26:46.972Z,106572.178,1635071093,full,ni_sequenzen,NI_Sequenzen,,,,,,,,,,,,,,
,Screen_1,canvas.Screen,0_0_12_0,,skipped,13,106466.60000002384,,,106466.60000002384,,106466.80000007153,2021-10-24T10:26:46.975Z,106572.178,1635071093,full,ni_sequenzen,NI_Sequenzen,,,,,,,,,,,,,,
,Screen_2,canvas.Screen,0_0_12_1,,skipped,13,106468.80000007153,,,106466.60000002384,,106468.90000009537,2021-10-24T10:26:46.977Z,106572.178,1635071093,full,ni_sequenzen,NI_Sequenzen,,,,,,,,,,,,,,
,Screen_3,canvas.Screen,0_0_12_2,,skipped,13,106470.90000009537,,,106466.60000002384,,106471,2021-10-24T10:26:46.979Z,106572.178,1635071093,full,ni_sequenzen,NI_Sequenzen,,,,,,,,,,,,,,
,Screen_4,canvas.Screen,0_0_12_3,,skipped,13,106472.60000002384,,,106466.60000002384,,106472.70000004768,2021-10-24T10:26:46.981Z,106572.178,1635071093,full,ni_sequenzen,NI_Sequenzen,,,,,,,,,,,,,,
,Sequence,flow.Sequence,0_0_12,,completion,13,106464.90000009537,,,106466.60000002384,,106472.90000009537,2021-10-24T10:26:46.981Z,106572.178,1635071093,full,ni_sequenzen,NI_Sequenzen,,,,,,,,,,,,,,
,Screen_1,canvas.Screen,0_0_13_0,,skipped,14,106474.90000009537,,,106474.90000009537,,106475,2021-10-24T10:26:46.983Z,106572.178,1635071093,full,ni_sequenzen,NI_Sequenzen,,,,,,,,,,,,,,
,Screen_2,canvas.Screen,0_0_13_1,,skipped,14,106476.60000002384,,,106474.90000009537,,106476.70000004768,2021-10-24T10:26:46.985Z,106572.178,1635071093,full,ni_sequenzen,NI_Sequenzen,,,,,,,,,,,,,,
,Screen_3,canvas.Screen,0_0_13_2,,skipped,14,106479.10000002384,,,106474.90000009537,,106479.30000007153,2021-10-24T10:26:46.987Z,106572.178,1635071093,full,ni_sequenzen,NI_Sequenzen,,,,,,,,,,,,,,
,Screen_4,canvas.Screen,0_0_13_3,,skipped,14,106481.30000007153,,,106474.90000009537,,106481.40000009537,2021-10-24T10:26:46.989Z,106572.178,1635071093,full,ni_sequenzen,NI_Sequenzen,,,,,,,,,,,,,,
,Sequence,flow.Sequence,0_0_13,,completion,14,106473.30000007153,,,106474.90000009537,,106481.60000002384,2021-10-24T10:26:46.990Z,106572.178,1635071093,full,ni_sequenzen,NI_Sequenzen,,,,,,,,,,,,,,
,Screen_1,canvas.Screen,0_0_14_0,,skipped,15,106483.90000009537,,,106483.90000009537,,106484.10000002384,2021-10-24T10:26:46.992Z,106572.178,1635071093,full,ni_sequenzen,NI_Sequenzen,,,,,,,,,,,,,,
,Screen_2,canvas.Screen,0_0_14_1,,skipped,15,106485.5,,,106483.90000009537,,106485.60000002384,2021-10-24T10:26:46.994Z,106572.178,1635071093,full,ni_sequenzen,NI_Sequenzen,,,,,,,,,,,,,,
,Screen_3,canvas.Screen,0_0_14_2,,skipped,15,106497.30000007153,,,106483.90000009537,,106497.5,2021-10-24T10:26:47.005Z,106572.178,1635071093,full,ni_sequenzen,NI_Sequenzen,,,,,,,,,,,,,,
,Screen_4,canvas.Screen,0_0_14_3,,skipped,15,106500.10000002384,,,106483.90000009537,,106500.20000004768,2021-10-24T10:26:47.008Z,106572.178,1635071093,full,ni_sequenzen,NI_Sequenzen,,,,,,,,,,,,,,
,Sequence,flow.Sequence,0_0_14,,completion,15,106482.10000002384,,,106483.90000009537,,106500.5,2021-10-24T10:26:47.008Z,106572.178,1635071093,full,ni_sequenzen,NI_Sequenzen,,,,,,,,,,,,,,
,Screen_1,canvas.Screen,0_0_15_0,,skipped,16,106502.60000002384,,,106502.60000002384,,106502.70000004768,2021-10-24T10:26:47.011Z,106572.178,1635071093,full,ni_sequenzen,NI_Sequenzen,,,,,,,,,,,,,,
,Screen_2,canvas.Screen,0_0_15_1,,skipped,16,106504.60000002384,,,106502.60000002384,,106504.80000007153,2021-10-24T10:26:47.013Z,106572.178,1635071093,full,ni_sequenzen,NI_Sequenzen,,,,,,,,,,,,,,
,Screen_3,canvas.Screen,0_0_15_2,,skipped,16,106516.30000007153,,,106502.60000002384,,106516.40000009537,2021-10-24T10:26:47.024Z,106572.178,1635071093,full,ni_sequenzen,NI_Sequenzen,,,,,,,,,,,,,,
,Screen_4,canvas.Screen,0_0_15_3,,skipped,16,106517.90000009537,,,106502.60000002384,,106517.90000009537,2021-10-24T10:26:47.026Z,106572.178,1635071093,full,ni_sequenzen,NI_Sequenzen,,,,,,,,,,,,,,
,Sequence,flow.Sequence,0_0_15,,completion,16,106501.30000007153,,,106502.60000002384,,106518.10000002384,2021-10-24T10:26:47.026Z,106572.178,1635071093,full,ni_sequenzen,NI_Sequenzen,,,,,,,,,,,,,,
,Screen_1,canvas.Screen,0_0_16_0,,skipped,17,106519.70000004768,,,106519.80000007153,,106519.90000009537,2021-10-24T10:26:47.028Z,106572.178,1635071093,full,ni_sequenzen,NI_Sequenzen,,,,,,,,,,,,,,
,Screen_2,canvas.Screen,0_0_16_1,,skipped,17,106521,,,106519.80000007153,,106521.10000002384,2021-10-24T10:26:47.029Z,106572.178,1635071093,full,ni_sequenzen,NI_Sequenzen,,,,,,,,,,,,,,
,Screen_3,canvas.Screen,0_0_16_2,,skipped,17,106523.20000004768,,,106519.80000007153,,106523.30000007153,2021-10-24T10:26:47.031Z,106572.178,1635071093,full,ni_sequenzen,NI_Sequenzen,,,,,,,,,,,,,,
,Screen_4,canvas.Screen,0_0_16_3,,skipped,17,106524.60000002384,,,106519.80000007153,,106524.60000002384,2021-10-24T10:26:47.033Z,106572.178,1635071093,full,ni_sequenzen,NI_Sequenzen,,,,,,,,,,,,,,
,Sequence,flow.Sequence,0_0_16,,completion,17,106518.60000002384,,,106519.80000007153,,106524.70000004768,2021-10-24T10:26:47.033Z,106572.178,1635071093,full,ni_sequenzen,NI_Sequenzen,,,,,,,,,,,,,,
,Screen_1,canvas.Screen,0_0_17_0,,skipped,18,106526.40000009537,,,106526.40000009537,,106526.5,2021-10-24T10:26:47.034Z,106572.178,1635071093,full,ni_sequenzen,NI_Sequenzen,,,,,,,,,,,,,,
,Screen_2,canvas.Screen,0_0_17_1,,skipped,18,106527.5,,,106526.40000009537,,106527.60000002384,2021-10-24T10:26:47.036Z,106572.178,1635071093,full,ni_sequenzen,NI_Sequenzen,,,,,,,,,,,,,,
,Screen_3,canvas.Screen,0_0_17_2,,skipped,18,106528.70000004768,,,106526.40000009537,,106528.70000004768,2021-10-24T10:26:47.037Z,106572.178,1635071093,full,ni_sequenzen,NI_Sequenzen,,,,,,,,,,,,,,
,Screen_4,canvas.Screen,0_0_17_3,,skipped,18,106529.60000002384,,,106526.40000009537,,106529.70000004768,2021-10-24T10:26:47.038Z,106572.178,1635071093,full,ni_sequenzen,NI_Sequenzen,,,,,,,,,,,,,,
,Sequence,flow.Sequence,0_0_17,,completion,18,106525.30000007153,,,106526.40000009537,,106529.80000007153,2021-10-24T10:26:47.038Z,106572.178,1635071093,full,ni_sequenzen,NI_Sequenzen,,,,,,,,,,,,,,
,Screen_1,canvas.Screen,0_0_18_0,,skipped,19,106531.10000002384,,,106531.10000002384,,106531.20000004768,2021-10-24T10:26:47.039Z,106572.178,1635071093,full,ni_sequenzen,NI_Sequenzen,,,,,,,,,,,,,,
,Screen_2,canvas.Screen,0_0_18_1,,skipped,19,106533.90000009537,,,106531.10000002384,,106533.90000009537,2021-10-24T10:26:47.042Z,106572.178,1635071093,full,ni_sequenzen,NI_Sequenzen,,,,,,,,,,,,,,
,Screen_3,canvas.Screen,0_0_18_2,,skipped,19,106534.70000004768,,,106531.10000002384,,106534.90000009537,2021-10-24T10:26:47.043Z,106572.178,1635071093,full,ni_sequenzen,NI_Sequenzen,,,,,,,,,,,,,,
,Screen_4,canvas.Screen,0_0_18_3,,skipped,19,106535.70000004768,,,106531.10000002384,,106535.80000007153,2021-10-24T10:26:47.044Z,106572.178,1635071093,full,ni_sequenzen,NI_Sequenzen,,,,,,,,,,,,,,
,Sequence,flow.Sequence,0_0_18,,completion,19,106530.20000004768,,,106531.10000002384,,106536,2021-10-24T10:26:47.044Z,106572.178,1635071093,full,ni_sequenzen,NI_Sequenzen,,,,,,,,,,,,,,
,Screen_1,canvas.Screen,0_0_19_0,,skipped,20,106537.20000004768,,,106537.20000004768,,106537.40000009537,2021-10-24T10:26:47.045Z,106572.178,1635071093,full,ni_sequenzen,NI_Sequenzen,,,,,,,,,,,,,,
,Screen_2,canvas.Screen,0_0_19_1,,skipped,20,106538.30000007153,,,106537.20000004768,,106538.30000007153,2021-10-24T10:26:47.046Z,106572.178,1635071093,full,ni_sequenzen,NI_Sequenzen,,,,,,,,,,,,,,
,Screen_3,canvas.Screen,0_0_19_2,,skipped,20,106540.30000007153,,,106537.20000004768,,106540.40000009537,2021-10-24T10:26:47.048Z,106572.178,1635071093,full,ni_sequenzen,NI_Sequenzen,,,,,,,,,,,,,,
,Screen_4,canvas.Screen,0_0_19_3,,skipped,20,106541.40000009537,,,106537.20000004768,,106541.40000009537,2021-10-24T10:26:47.049Z,106572.178,1635071093,full,ni_sequenzen,NI_Sequenzen,,,,,,,,,,,,,,
,Sequence,flow.Sequence,0_0_19,,completion,20,106536.30000007153,,,106537.20000004768,,106541.60000002384,2021-10-24T10:26:47.050Z,106572.178,1635071093,full,ni_sequenzen,NI_Sequenzen,,,,,,,,,,,,,,
,Instructions_I,flow.Loop,0_0,,completion,,587.9000000953674,631.518,648.185,106537.20000004768,105889.01500004769,106541.80000007153,2021-10-24T10:26:47.050Z,106572.178,1635071093,full,ni_sequenzen,NI_Sequenzen,,,,,,,,,,,,,,
,Move,canvas.Screen,0_1_0_0,right,response,,106557.30000007153,106555.511,106572.178,107803.20000004768,1231.0220000476838,107807.90000009537,2021-10-24T10:26:48.316Z,107822.203,1635071093,full,ni_sequenzen,NI_Sequenzen,1,,,,,,,,,,,,,
,Move,canvas.Screen,0_1_0_1,left,response,,107812.70000004768,107805.536,107822.203,108748.10000002384,925.8970000238478,108752,2021-10-24T10:26:49.260Z,108772.714,1635071093,full,ni_sequenzen,NI_Sequenzen,2,,,,,,,,,,,,,
,Move,canvas.Screen,0_1_0_2,left,response,,108756.90000009537,108756.047,108772.714,110143,1370.2859999999928,110147,2021-10-24T10:26:50.655Z,110156.075,1635071093,full,ni_sequenzen,NI_Sequenzen,3,,,,,,,,,,,,,
,Move,canvas.Screen,0_1_0_3,right,response,,110150.5,110139.408,110156.075,110919.40000009537,763.3250000953703,110923.30000007153,2021-10-24T10:26:51.431Z,110939.424,1635071093,full,ni_sequenzen,NI_Sequenzen,4,,,,,,,,,,,,,
,Move,canvas.Screen,0_1_0_4,down,response,,110926.40000009537,110922.757,110939.424,111425.60000002384,486.1760000238428,111429.30000007153,2021-10-24T10:26:51.937Z,111439.434,1635071093,full,ni_sequenzen,NI_Sequenzen,5,,,,,,,,,,,,,
,Move,canvas.Screen,0_1_0_5,down,response,,111432.20000004768,111422.767,111439.434,112348,908.5660000000062,112351.90000009537,2021-10-24T10:26:52.860Z,112356.119,1635071093,full,ni_sequenzen,NI_Sequenzen,6,,,,,,,,,,,,,
,Move,canvas.Screen,0_1_0_6,down,response,,112354.80000007153,112339.452,112356.119,112764.30000007153,408.1810000715195,112768.10000002384,2021-10-24T10:26:53.276Z,112856.129,1635071093,full,ni_sequenzen,NI_Sequenzen,7,,,,,,,,,,,,,
,Move,canvas.Screen,0_1_0_7,down,response,,112771.10000002384,112756.127,112856.129,113135.60000002384,279.47100002384104,113139.30000007153,2021-10-24T10:26:53.648Z,113156.135,1635071093,full,ni_sequenzen,NI_Sequenzen,8,,,,,,,,,,,,,
,Move,canvas.Screen,0_1_0_8,left,response,,113143.30000007153,113139.468,113156.135,113551.60000002384,395.4650000238471,113555.20000004768,2021-10-24T10:26:54.063Z,113572.81,1635071093,full,ni_sequenzen,NI_Sequenzen,9,,,,,,,,,,,,,
,Move,canvas.Screen,0_1_0_9,right,response,,113557.5,113556.143,113572.81,114282.90000009537,710.0900000953698,114286.90000009537,2021-10-24T10:26:54.795Z,114306.158,1635071093,full,ni_sequenzen,NI_Sequenzen,10,,,,,,,,,,,,,
,Move,canvas.Screen,0_1_0_10,left,response,,114289.90000009537,114289.491,114306.158,114575.5,269.3420000000042,114579.40000009537,2021-10-24T10:26:55.088Z,114589.497,1635071093,full,ni_sequenzen,NI_Sequenzen,11,,,,,,,,,,,,,
,Move,canvas.Screen,0_1_0_11,left,response,,114582.30000007153,114572.83,114589.497,115520.40000009537,930.9030000953644,115524.30000007153,2021-10-24T10:26:56.033Z,115606.184,1635071093,full,ni_sequenzen,NI_Sequenzen,12,,,,,,,,,,,,,
,Move,canvas.Screen,0_1_0_12,down,response,,115527.30000007153,115522.849,115606.184,116127.90000009537,521.7160000953736,116131.70000004768,2021-10-24T10:26:56.640Z,116139.528,1635071093,full,ni_sequenzen,NI_Sequenzen,13,,,,,,,,,,,,,
,Move,canvas.Screen,0_1_0_13,down,response,,116135.20000004768,116122.861,116139.528,116465.30000007153,325.77200007151987,116471.90000009537,2021-10-24T10:26:56.980Z,116506.202,1635071093,full,ni_sequenzen,NI_Sequenzen,14,,,,,,,,,,,,,
,Move,canvas.Screen,0_1_0_14,down,response,,116477.70000004768,116489.535,116506.202,116735.40000009537,229.19800009536266,116739.30000007153,2021-10-24T10:26:57.248Z,116756.207,1635071093,full,ni_sequenzen,NI_Sequenzen,15,,,,,,,,,,,,,
,Move,canvas.Screen,0_1_0_15,down,response,,116742.40000009537,116739.54,116756.207,116937.80000007153,181.5930000715307,116942.10000002384,2021-10-24T10:26:57.450Z,116956.211,1635071093,full,ni_sequenzen,NI_Sequenzen,16,,,,,,,,,,,,,
,Move,canvas.Screen,0_1_0_16,right,response,,116945.10000002384,116939.544,116956.211,117230.30000007153,274.0890000715299,117234.20000004768,2021-10-24T10:26:57.742Z,117240.045,1635071093,full,ni_sequenzen,NI_Sequenzen,17,,,,,,,,,,,,,
,Move,canvas.Screen,0_1_0_17,right,response,,117237.10000002384,117223.378,117240.045,117567.90000009537,327.8550000953692,117571.70000004768,2021-10-24T10:26:58.080Z,117590.052,1635071093,full,ni_sequenzen,NI_Sequenzen,18,,,,,,,,,,,,,
,Move,canvas.Screen,0_1_0_18,right,response,,117575.30000007153,117573.385,117590.052,118040.30000007153,450.24800007152953,118044.60000002384,2021-10-24T10:26:58.553Z,118073.395,1635071093,full,ni_sequenzen,NI_Sequenzen,19,,,,,,,,,,,,,
,Move,canvas.Screen,0_1_0_19,right,response,,118047.5,118040.061,118073.395,118254.10000002384,180.70500002383778,118258.10000002384,2021-10-24T10:26:58.766Z,118273.399,1635071093,full,ni_sequenzen,NI_Sequenzen,20,,,,,,,,,,,,,
,Move,canvas.Screen,0_1_0_20,down,response,,118261.70000004768,118256.732,118273.399,118726.60000002384,453.20100002383697,118730.5,2021-10-24T10:26:59.239Z,118740.075,1635071093,full,ni_sequenzen,NI_Sequenzen,21,,,,,,,,,,,,,
,Move,canvas.Screen,0_1_0_21,down,response,,118733.60000002384,118723.408,118740.075,118996.5,256.4250000000029,119000.60000002384,2021-10-24T10:26:59.509Z,119006.747,1635071093,full,ni_sequenzen,NI_Sequenzen,22,,,,,,,,,,,,,
,Move,canvas.Screen,0_1_0_22,down,response,,119004.20000004768,118990.08,119006.747,119266.90000009537,260.1530000953644,119270.80000007153,2021-10-24T10:26:59.779Z,119273.419,1635071093,full,ni_sequenzen,NI_Sequenzen,23,,,,,,,,,,,,,
,Move,canvas.Screen,0_1_0_23,down,response,,119273,119256.752,119273.419,119558.90000009537,285.481000095373,119561.70000004768,2021-10-24T10:27:00.070Z,119573.425,1635071093,full,ni_sequenzen,NI_Sequenzen,24,,,,,,,,,,,,,
,Move,canvas.Screen,0_1_0_24,left,response,,119564.5,119556.758,119573.425,119907.70000004768,334.2750000476808,119911.60000002384,2021-10-24T10:27:00.420Z,119923.432,1635071093,full,ni_sequenzen,NI_Sequenzen,25,,,,,,,,,,,,,
,Move,canvas.Screen,0_1_0_25,down,response,,119914.60000002384,119906.765,119923.432,120481.40000009537,557.9680000953667,120485.20000004768,2021-10-24T10:27:00.994Z,120490.11,1635071093,full,ni_sequenzen,NI_Sequenzen,26,,,,,,,,,,,,,
,Move,canvas.Screen,0_1_0_26,left,response,,120488.20000004768,120473.443,120490.11,120807.70000004768,317.59000004768313,120811.60000002384,2021-10-24T10:27:01.320Z,120823.45,1635071093,full,ni_sequenzen,NI_Sequenzen,27,,,,,,,,,,,,,
,Move,canvas.Screen,0_1_0_27,down,response,,120814.5,120806.783,120823.45,121055.20000004768,231.75000004768663,121059,2021-10-24T10:27:01.567Z,121073.455,1635071093,full,ni_sequenzen,NI_Sequenzen,28,,,,,,,,,,,,,
,Move,canvas.Screen,0_1_0_28,left,response,,121062.10000002384,121056.788,121073.455,121392.60000002384,319.1450000238401,121396.30000007153,2021-10-24T10:27:01.905Z,121523.464,1635071093,full,ni_sequenzen,NI_Sequenzen,29,,,,,,,,,,,,,
,Move,canvas.Screen,0_1_0_29,down,response,,121514.70000004768,121506.797,121523.464,121662.70000004768,139.2360000476765,121666.70000004768,2021-10-24T10:27:02.175Z,121723.468,1635071093,full,ni_sequenzen,NI_Sequenzen,30,,,,,,,,,,,,,
,Loop,flow.Loop,0_1_0,-999,completion,,106554.5,106555.511,106572.178,121662.70000004768,15090.522000047684,121667,2021-10-24T10:27:02.175Z,121723.468,1635071093,full,ni_sequenzen,NI_Sequenzen,,,,,,,,,,,,,,
,Training_I,flow.Sequence,0_1,,completion,,106543.20000004768,106555.511,106572.178,121662.70000004768,15090.522000047684,121667.20000004768,2021-10-24T10:27:02.176Z,121723.468,1635071093,full,ni_sequenzen,NI_Sequenzen,,,,,,,,,,,,,,
,Screen_1,canvas.Screen,0_2_0_0,cont,response,1,121712.30000007153,121706.801,121723.468,133126,11402.532000000007,133132.20000004768,2021-10-24T10:27:13.641Z,133257.032,1635071093,full,ni_sequenzen,NI_Sequenzen,,,,,,,,,,,,,,
,Screen_2,canvas.Screen,0_2_0_1,cont,response,1,133252.70000004768,133240.365,133257.032,150427.90000009537,17170.86800009536,150433.70000004768,2021-10-24T10:27:30.943Z,150440.709,1635071093,full,ni_sequenzen,NI_Sequenzen,,,,,,,,,,,,,,
,Screen_3,canvas.Screen,0_2_0_2,cont,response,1,150438.80000007153,150424.042,150440.709,155006.40000009537,4565.691000095365,155011.5,2021-10-24T10:27:35.521Z,155141.613,1635071093,full,ni_sequenzen,NI_Sequenzen,,,,,,,,,,,,,,
,Screen_4,canvas.Screen,0_2_0_3,back,response,1,155128,155124.946,155141.613,156795.20000004768,1653.5870000476716,156799.20000004768,2021-10-24T10:27:37.309Z,156925.781,1635071093,full,ni_sequenzen,NI_Sequenzen,,,,,,,,,,,,,,
,Screen_5,canvas.Screen,0_2_0_4,,skipped,1,156801.80000007153,,,156795.20000004768,,156802,2021-10-24T10:27:37.311Z,156925.781,1635071093,full,ni_sequenzen,NI_Sequenzen,,,,,,,,,,,,,,
,Screen_6,canvas.Screen,0_2_0_5,,skipped,1,156914.70000004768,,,156795.20000004768,,156914.80000007153,2021-10-24T10:27:37.424Z,156925.781,1635071093,full,ni_sequenzen,NI_Sequenzen,,,,,,,,,,,,,,
,Sequence,flow.Sequence,0_2_0,,completion,1,121710.90000009537,121706.801,121723.468,156795.20000004768,35071.73200004769,156915.20000004768,2021-10-24T10:27:37.425Z,156925.781,1635071093,full,ni_sequenzen,NI_Sequenzen,,,,,,,,,,,,,,
,Screen_1,canvas.Screen,0_2_1_0,,skipped,2,156920.30000007153,,,156920.30000007153,,156920.30000007153,2021-10-24T10:27:37.430Z,156925.781,1635071093,full,ni_sequenzen,NI_Sequenzen,,,,,,,,,,,,,,
,Screen_2,canvas.Screen,0_2_1_1,,skipped,2,156922.40000009537,,,156920.30000007153,,156922.60000002384,2021-10-24T10:27:37.432Z,156925.781,1635071093,full,ni_sequenzen,NI_Sequenzen,,,,,,,,,,,,,,
,Screen_3,canvas.Screen,0_2_1_2,cont,response,2,156924.10000002384,156909.114,156925.781,172882.10000002384,15956.319000023854,172887.60000002384,2021-10-24T10:27:53.398Z,172976.102,1635071093,full,ni_sequenzen,NI_Sequenzen,,,,,,,,,,,,,,
,Screen_4,canvas.Screen,0_2_1_3,cont,response,2,172894.60000002384,172909.434,172976.102,187652.80000007153,14676.698000071512,187658.40000009537,2021-10-24T10:28:08.169Z,187676.396,1635071093,full,ni_sequenzen,NI_Sequenzen,,,,,,,,,,,,,,
,Screen_5,canvas.Screen,0_2_1_4,cont,response,2,187661.20000004768,187659.729,187676.396,196348.80000007153,8672.404000071518,196353.10000002384,2021-10-24T10:28:16.864Z,196361.051,1635071093,full,ni_sequenzen,NI_Sequenzen,,,,,,,,,,,,,,
,Screen_6,canvas.Screen,0_2_1_5,cont,response,2,196355.70000004768,196344.384,196361.051,242775.80000007153,46414.74900007152,242781.70000004768,2021-10-24T10:29:03.294Z,243029.37,1635071093,full,ni_sequenzen,NI_Sequenzen,,,,,,,,,,,,,,
,Sequence,flow.Sequence,0_2_1,,completion,2,156917.70000004768,156909.114,156925.781,242775.80000007153,85850.01900007154,242782,2021-10-24T10:29:03.294Z,243029.37,1635071093,full,ni_sequenzen,NI_Sequenzen,,,,,,,,,,,,,,
,Screen_1,canvas.Screen,0_2_2_0,,skipped,3,242786.20000004768,,,242786.30000007153,,242786.40000009537,2021-10-24T10:29:03.298Z,243029.37,1635071093,full,ni_sequenzen,NI_Sequenzen,,,,,,,,,,,,,,
,Screen_2,canvas.Screen,0_2_2_1,,skipped,3,242787.60000002384,,,242786.30000007153,,242787.60000002384,2021-10-24T10:29:03.300Z,243029.37,1635071093,full,ni_sequenzen,NI_Sequenzen,,,,,,,,,,,,,,
,Screen_3,canvas.Screen,0_2_2_2,,skipped,3,242788.70000004768,,,242786.30000007153,,242788.80000007153,2021-10-24T10:29:03.301Z,243029.37,1635071093,full,ni_sequenzen,NI_Sequenzen,,,,,,,,,,,,,,
,Screen_4,canvas.Screen,0_2_2_3,,skipped,3,242790.10000002384,,,242786.30000007153,,242790.20000004768,2021-10-24T10:29:03.302Z,243029.37,1635071093,full,ni_sequenzen,NI_Sequenzen,,,,,,,,,,,,,,
,Screen_5,canvas.Screen,0_2_2_4,,skipped,3,242791.10000002384,,,242786.30000007153,,242791.30000007153,2021-10-24T10:29:03.303Z,243029.37,1635071093,full,ni_sequenzen,NI_Sequenzen,,,,,,,,,,,,,,
,Screen_6,canvas.Screen,0_2_2_5,,skipped,3,242792.10000002384,,,242786.30000007153,,242792.20000004768,2021-10-24T10:29:03.304Z,243029.37,1635071093,full,ni_sequenzen,NI_Sequenzen,,,,,,,,,,,,,,
,Sequence,flow.Sequence,0_2_2,,completion,3,242784.90000009537,,,242786.30000007153,,242792.30000007153,2021-10-24T10:29:03.304Z,243029.37,1635071093,full,ni_sequenzen,NI_Sequenzen,,,,,,,,,,,,,,
,Screen_1,canvas.Screen,0_2_3_0,,skipped,4,242793.5,,,242793.5,,242793.5,2021-10-24T10:29:03.306Z,243029.37,1635071093,full,ni_sequenzen,NI_Sequenzen,,,,,,,,,,,,,,
,Screen_2,canvas.Screen,0_2_3_1,,skipped,4,242794.30000007153,,,242793.5,,242794.40000009537,2021-10-24T10:29:03.306Z,243029.37,1635071093,full,ni_sequenzen,NI_Sequenzen,,,,,,,,,,,,,,
,Screen_3,canvas.Screen,0_2_3_2,,skipped,4,242795.80000007153,,,242793.5,,242796,2021-10-24T10:29:03.308Z,243029.37,1635071093,full,ni_sequenzen,NI_Sequenzen,,,,,,,,,,,,,,
,Screen_4,canvas.Screen,0_2_3_3,,skipped,4,242797.20000004768,,,242793.5,,242797.30000007153,2021-10-24T10:29:03.309Z,243029.37,1635071093,full,ni_sequenzen,NI_Sequenzen,,,,,,,,,,,,,,
,Screen_5,canvas.Screen,0_2_3_4,,skipped,4,242798.40000009537,,,242793.5,,242798.5,2021-10-24T10:29:03.311Z,243029.37,1635071093,full,ni_sequenzen,NI_Sequenzen,,,,,,,,,,,,,,
,Screen_6,canvas.Screen,0_2_3_5,,skipped,4,242799.70000004768,,,242793.5,,242799.80000007153,2021-10-24T10:29:03.312Z,243029.37,1635071093,full,ni_sequenzen,NI_Sequenzen,,,,,,,,,,,,,,
,Sequence,flow.Sequence,0_2_3,,completion,4,242792.70000004768,,,242793.5,,242800,2021-10-24T10:29:03.312Z,243029.37,1635071093,full,ni_sequenzen,NI_Sequenzen,,,,,,,,,,,,,,
,Screen_1,canvas.Screen,0_2_4_0,,skipped,5,242801.20000004768,,,242801.20000004768,,242801.20000004768,2021-10-24T10:29:03.313Z,243029.37,1635071093,full,ni_sequenzen,NI_Sequenzen,,,,,,,,,,,,,,
,Screen_2,canvas.Screen,0_2_4_1,,skipped,5,242802.30000007153,,,242801.20000004768,,242802.5,2021-10-24T10:29:03.314Z,243029.37,1635071093,full,ni_sequenzen,NI_Sequenzen,,,,,,,,,,,,,,
,Screen_3,canvas.Screen,0_2_4_2,,skipped,5,242803.60000002384,,,242801.20000004768,,242805.80000007153,2021-10-24T10:29:03.318Z,243029.37,1635071093,full,ni_sequenzen,NI_Sequenzen,,,,,,,,,,,,,,
,Screen_4,canvas.Screen,0_2_4_3,,skipped,5,242806.90000009537,,,242801.20000004768,,242807,2021-10-24T10:29:03.319Z,243029.37,1635071093,full,ni_sequenzen,NI_Sequenzen,,,,,,,,,,,,,,
,Screen_5,canvas.Screen,0_2_4_4,,skipped,5,242807.90000009537,,,242801.20000004768,,242807.90000009537,2021-10-24T10:29:03.320Z,243029.37,1635071093,full,ni_sequenzen,NI_Sequenzen,,,,,,,,,,,,,,
,Screen_6,canvas.Screen,0_2_4_5,,skipped,5,242808.80000007153,,,242801.20000004768,,242808.80000007153,2021-10-24T10:29:03.321Z,243029.37,1635071093,full,ni_sequenzen,NI_Sequenzen,,,,,,,,,,,,,,
,Sequence,flow.Sequence,0_2_4,,completion,5,242800.30000007153,,,242801.20000004768,,242808.90000009537,2021-10-24T10:29:03.321Z,243029.37,1635071093,full,ni_sequenzen,NI_Sequenzen,,,,,,,,,,,,,,
,Screen_1,canvas.Screen,0_2_5_0,,skipped,6,242810.5,,,242810.5,,242810.60000002384,2021-10-24T10:29:03.323Z,243029.37,1635071093,full,ni_sequenzen,NI_Sequenzen,,,,,,,,,,,,,,
,Screen_2,canvas.Screen,0_2_5_1,,skipped,6,242811.5,,,242810.5,,242811.60000002384,2021-10-24T10:29:03.324Z,243029.37,1635071093,full,ni_sequenzen,NI_Sequenzen,,,,,,,,,,,,,,
,Screen_3,canvas.Screen,0_2_5_2,,skipped,6,242812.40000009537,,,242810.5,,242812.5,2021-10-24T10:29:03.324Z,243029.37,1635071093,full,ni_sequenzen,NI_Sequenzen,,,,,,,,,,,,,,
,Screen_4,canvas.Screen,0_2_5_3,,skipped,6,242813.30000007153,,,242810.5,,242813.30000007153,2021-10-24T10:29:03.325Z,243029.37,1635071093,full,ni_sequenzen,NI_Sequenzen,,,,,,,,,,,,,,
,Screen_5,canvas.Screen,0_2_5_4,,skipped,6,242814.10000002384,,,242810.5,,242814.30000007153,2021-10-24T10:29:03.326Z,243029.37,1635071093,full,ni_sequenzen,NI_Sequenzen,,,,,,,,,,,,,,
,Screen_6,canvas.Screen,0_2_5_5,,skipped,6,242815.10000002384,,,242810.5,,242815.20000004768,2021-10-24T10:29:03.327Z,243029.37,1635071093,full,ni_sequenzen,NI_Sequenzen,,,,,,,,,,,,,,
,Sequence,flow.Sequence,0_2_5,,completion,6,242809.30000007153,,,242810.5,,242815.20000004768,2021-10-24T10:29:03.327Z,243029.37,1635071093,full,ni_sequenzen,NI_Sequenzen,,,,,,,,,,,,,,
,Screen_1,canvas.Screen,0_2_6_0,,skipped,7,242816.40000009537,,,242816.40000009537,,242816.5,2021-10-24T10:29:03.329Z,243029.37,1635071093,full,ni_sequenzen,NI_Sequenzen,,,,,,,,,,,,,,
,Screen_2,canvas.Screen,0_2_6_1,,skipped,7,242817.30000007153,,,242816.40000009537,,242817.40000009537,2021-10-24T10:29:03.329Z,243029.37,1635071093,full,ni_sequenzen,NI_Sequenzen,,,,,,,,,,,,,,
,Screen_3,canvas.Screen,0_2_6_2,,skipped,7,242818.30000007153,,,242816.40000009537,,242818.40000009537,2021-10-24T10:29:03.330Z,243029.37,1635071093,full,ni_sequenzen,NI_Sequenzen,,,,,,,,,,,,,,
,Screen_4,canvas.Screen,0_2_6_3,,skipped,7,242819.70000004768,,,242816.40000009537,,242819.80000007153,2021-10-24T10:29:03.332Z,243029.37,1635071093,full,ni_sequenzen,NI_Sequenzen,,,,,,,,,,,,,,
,Screen_5,canvas.Screen,0_2_6_4,,skipped,7,242821,,,242816.40000009537,,242821.10000002384,2021-10-24T10:29:03.333Z,243029.37,1635071093,full,ni_sequenzen,NI_Sequenzen,,,,,,,,,,,,,,
,Screen_6,canvas.Screen,0_2_6_5,,skipped,7,242823.40000009537,,,242816.40000009537,,242823.5,2021-10-24T10:29:03.336Z,243029.37,1635071093,full,ni_sequenzen,NI_Sequenzen,,,,,,,,,,,,,,
,Sequence,flow.Sequence,0_2_6,,completion,7,242815.60000002384,,,242816.40000009537,,242823.80000007153,2021-10-24T10:29:03.336Z,243029.37,1635071093,full,ni_sequenzen,NI_Sequenzen,,,,,,,,,,,,,,
,Screen_1,canvas.Screen,0_2_7_0,,skipped,8,242825.40000009537,,,242825.40000009537,,242825.5,2021-10-24T10:29:03.338Z,243029.37,1635071093,full,ni_sequenzen,NI_Sequenzen,,,,,,,,,,,,,,
,Screen_2,canvas.Screen,0_2_7_1,,skipped,8,242826.90000009537,,,242825.40000009537,,242827,2021-10-24T10:29:03.339Z,243029.37,1635071093,full,ni_sequenzen,NI_Sequenzen,,,,,,,,,,,,,,
,Screen_3,canvas.Screen,0_2_7_2,,skipped,8,242828,,,242825.40000009537,,242828.10000002384,2021-10-24T10:29:03.340Z,243029.37,1635071093,full,ni_sequenzen,NI_Sequenzen,,,,,,,,,,,,,,
,Screen_4,canvas.Screen,0_2_7_3,,skipped,8,242828.90000009537,,,242825.40000009537,,242829,2021-10-24T10:29:03.341Z,243029.37,1635071093,full,ni_sequenzen,NI_Sequenzen,,,,,,,,,,,,,,
,Screen_5,canvas.Screen,0_2_7_4,,skipped,8,242830,,,242825.40000009537,,242830.10000002384,2021-10-24T10:29:03.342Z,243029.37,1635071093,full,ni_sequenzen,NI_Sequenzen,,,,,,,,,,,,,,
,Screen_6,canvas.Screen,0_2_7_5,,skipped,8,242831.20000004768,,,242825.40000009537,,242831.40000009537,2021-10-24T10:29:03.343Z,243029.37,1635071093,full,ni_sequenzen,NI_Sequenzen,,,,,,,,,,,,,,
,Sequence,flow.Sequence,0_2_7,,completion,8,242824.30000007153,,,242825.40000009537,,242831.5,2021-10-24T10:29:03.344Z,243029.37,1635071093,full,ni_sequenzen,NI_Sequenzen,,,,,,,,,,,,,,
,Screen_1,canvas.Screen,0_2_8_0,,skipped,9,242833.20000004768,,,242833.20000004768,,242833.40000009537,2021-10-24T10:29:03.345Z,243029.37,1635071093,full,ni_sequenzen,NI_Sequenzen,,,,,,,,,,,,,,
,Screen_2,canvas.Screen,0_2_8_1,,skipped,9,242834.60000002384,,,242833.20000004768,,242834.60000002384,2021-10-24T10:29:03.347Z,243029.37,1635071093,full,ni_sequenzen,NI_Sequenzen,,,,,,,,,,,,,,
,Screen_3,canvas.Screen,0_2_8_2,,skipped,9,242835.60000002384,,,242833.20000004768,,242835.60000002384,2021-10-24T10:29:03.348Z,243029.37,1635071093,full,ni_sequenzen,NI_Sequenzen,,,,,,,,,,,,,,
,Screen_4,canvas.Screen,0_2_8_3,,skipped,9,242836.5,,,242833.20000004768,,242836.60000002384,2021-10-24T10:29:03.349Z,243029.37,1635071093,full,ni_sequenzen,NI_Sequenzen,,,,,,,,,,,,,,
,Screen_5,canvas.Screen,0_2_8_4,,skipped,9,242837.70000004768,,,242833.20000004768,,242837.80000007153,2021-10-24T10:29:03.350Z,243029.37,1635071093,full,ni_sequenzen,NI_Sequenzen,,,,,,,,,,,,,,
,Screen_6,canvas.Screen,0_2_8_5,,skipped,9,242838.60000002384,,,242833.20000004768,,242838.80000007153,2021-10-24T10:29:03.351Z,243029.37,1635071093,full,ni_sequenzen,NI_Sequenzen,,,,,,,,,,,,,,
,Sequence,flow.Sequence,0_2_8,,completion,9,242832.20000004768,,,242833.20000004768,,242838.80000007153,2021-10-24T10:29:03.351Z,243029.37,1635071093,full,ni_sequenzen,NI_Sequenzen,,,,,,,,,,,,,,
,Screen_1,canvas.Screen,0_2_9_0,,skipped,10,242840.10000002384,,,242840.10000002384,,242840.10000002384,2021-10-24T10:29:03.352Z,243029.37,1635071093,full,ni_sequenzen,NI_Sequenzen,,,,,,,,,,,,,,
,Screen_2,canvas.Screen,0_2_9_1,,skipped,10,242842,,,242840.10000002384,,242842,2021-10-24T10:29:03.354Z,243029.37,1635071093,full,ni_sequenzen,NI_Sequenzen,,,,,,,,,,,,,,
,Screen_3,canvas.Screen,0_2_9_2,,skipped,10,242842.90000009537,,,242840.10000002384,,242843,2021-10-24T10:29:03.355Z,243029.37,1635071093,full,ni_sequenzen,NI_Sequenzen,,,,,,,,,,,,,,
,Screen_4,canvas.Screen,0_2_9_3,,skipped,10,242843.80000007153,,,242840.10000002384,,242843.90000009537,2021-10-24T10:29:03.356Z,243029.37,1635071093,full,ni_sequenzen,NI_Sequenzen,,,,,,,,,,,,,,
,Screen_5,canvas.Screen,0_2_9_4,,skipped,10,242845,,,242840.10000002384,,242845.20000004768,2021-10-24T10:29:03.357Z,243029.37,1635071093,full,ni_sequenzen,NI_Sequenzen,,,,,,,,,,,,,,
,Screen_6,canvas.Screen,0_2_9_5,,skipped,10,242846.20000004768,,,242840.10000002384,,242846.30000007153,2021-10-24T10:29:03.358Z,243029.37,1635071093,full,ni_sequenzen,NI_Sequenzen,,,,,,,,,,,,,,
,Sequence,flow.Sequence,0_2_9,,completion,10,242839.20000004768,,,242840.10000002384,,242846.40000009537,2021-10-24T10:29:03.358Z,243029.37,1635071093,full,ni_sequenzen,NI_Sequenzen,,,,,,,,,,,,,,
,Screen_1,canvas.Screen,0_2_10_0,,skipped,11,242848.20000004768,,,242848.20000004768,,242848.30000007153,2021-10-24T10:29:03.360Z,243029.37,1635071093,full,ni_sequenzen,NI_Sequenzen,,,,,,,,,,,,,,
,Screen_2,canvas.Screen,0_2_10_1,,skipped,11,242849.30000007153,,,242848.20000004768,,242849.40000009537,2021-10-24T10:29:03.361Z,243029.37,1635071093,full,ni_sequenzen,NI_Sequenzen,,,,,,,,,,,,,,
,Screen_3,canvas.Screen,0_2_10_2,,skipped,11,242850.30000007153,,,242848.20000004768,,242850.40000009537,2021-10-24T10:29:03.362Z,243029.37,1635071093,full,ni_sequenzen,NI_Sequenzen,,,,,,,,,,,,,,
,Screen_4,canvas.Screen,0_2_10_3,,skipped,11,242851.20000004768,,,242848.20000004768,,242851.40000009537,2021-10-24T10:29:03.363Z,243029.37,1635071093,full,ni_sequenzen,NI_Sequenzen,,,,,,,,,,,,,,
,Screen_5,canvas.Screen,0_2_10_4,,skipped,11,242852.20000004768,,,242848.20000004768,,242852.30000007153,2021-10-24T10:29:03.364Z,243029.37,1635071093,full,ni_sequenzen,NI_Sequenzen,,,,,,,,,,,,,,
,Screen_6,canvas.Screen,0_2_10_5,,skipped,11,242853.5,,,242848.20000004768,,242853.60000002384,2021-10-24T10:29:03.366Z,243029.37,1635071093,full,ni_sequenzen,NI_Sequenzen,,,,,,,,,,,,,,
,Sequence,flow.Sequence,0_2_10,,completion,11,242847,,,242848.20000004768,,242853.80000007153,2021-10-24T10:29:03.366Z,243029.37,1635071093,full,ni_sequenzen,NI_Sequenzen,,,,,,,,,,,,,,
,Screen_1,canvas.Screen,0_2_11_0,,skipped,12,242855.5,,,242855.5,,242855.80000007153,2021-10-24T10:29:03.368Z,243029.37,1635071093,full,ni_sequenzen,NI_Sequenzen,,,,,,,,,,,,,,
,Screen_2,canvas.Screen,0_2_11_1,,skipped,12,242857.10000002384,,,242855.5,,242857.20000004768,2021-10-24T10:29:03.369Z,243029.37,1635071093,full,ni_sequenzen,NI_Sequenzen,,,,,,,,,,,,,,
,Screen_3,canvas.Screen,0_2_11_2,,skipped,12,242858.20000004768,,,242855.5,,242858.40000009537,2021-10-24T10:29:03.370Z,243029.37,1635071093,full,ni_sequenzen,NI_Sequenzen,,,,,,,,,,,,,,
,Screen_4,canvas.Screen,0_2_11_3,,skipped,12,242859.30000007153,,,242855.5,,242859.30000007153,2021-10-24T10:29:03.371Z,243029.37,1635071093,full,ni_sequenzen,NI_Sequenzen,,,,,,,,,,,,,,
,Screen_5,canvas.Screen,0_2_11_4,,skipped,12,242861.5,,,242855.5,,242861.70000004768,2021-10-24T10:29:03.374Z,243029.37,1635071093,full,ni_sequenzen,NI_Sequenzen,,,,,,,,,,,,,,
,Screen_6,canvas.Screen,0_2_11_5,,skipped,12,242863,,,242855.5,,242863.10000002384,2021-10-24T10:29:03.375Z,243029.37,1635071093,full,ni_sequenzen,NI_Sequenzen,,,,,,,,,,,,,,
,Sequence,flow.Sequence,0_2_11,,completion,12,242854.40000009537,,,242855.5,,242863.40000009537,2021-10-24T10:29:03.375Z,243029.37,1635071093,full,ni_sequenzen,NI_Sequenzen,,,,,,,,,,,,,,
,Screen_1,canvas.Screen,0_2_12_0,,skipped,13,242864.70000004768,,,242864.70000004768,,242864.70000004768,2021-10-24T10:29:03.377Z,243029.37,1635071093,full,ni_sequenzen,NI_Sequenzen,,,,,,,,,,,,,,
,Screen_2,canvas.Screen,0_2_12_1,,skipped,13,242865.60000002384,,,242864.70000004768,,242865.70000004768,2021-10-24T10:29:03.378Z,243029.37,1635071093,full,ni_sequenzen,NI_Sequenzen,,,,,,,,,,,,,,
,Screen_3,canvas.Screen,0_2_12_2,,skipped,13,242866.5,,,242864.70000004768,,242866.60000002384,2021-10-24T10:29:03.379Z,243029.37,1635071093,full,ni_sequenzen,NI_Sequenzen,,,,,,,,,,,,,,
,Screen_4,canvas.Screen,0_2_12_3,,skipped,13,242867.30000007153,,,242864.70000004768,,242867.40000009537,2021-10-24T10:29:03.379Z,243029.37,1635071093,full,ni_sequenzen,NI_Sequenzen,,,,,,,,,,,,,,
,Screen_5,canvas.Screen,0_2_12_4,,skipped,13,242868.5,,,242864.70000004768,,242868.70000004768,2021-10-24T10:29:03.381Z,243029.37,1635071093,full,ni_sequenzen,NI_Sequenzen,,,,,,,,,,,,,,
,Screen_6,canvas.Screen,0_2_12_5,,skipped,13,242869.5,,,242864.70000004768,,242869.5,2021-10-24T10:29:03.382Z,243029.37,1635071093,full,ni_sequenzen,NI_Sequenzen,,,,,,,,,,,,,,
,Sequence,flow.Sequence,0_2_12,,completion,13,242863.80000007153,,,242864.70000004768,,242869.70000004768,2021-10-24T10:29:03.382Z,243029.37,1635071093,full,ni_sequenzen,NI_Sequenzen,,,,,,,,,,,,,,
,Screen_1,canvas.Screen,0_2_13_0,,skipped,14,242870.80000007153,,,242870.80000007153,,242870.90000009537,2021-10-24T10:29:03.383Z,243029.37,1635071093,full,ni_sequenzen,NI_Sequenzen,,,,,,,,,,,,,,
,Screen_2,canvas.Screen,0_2_13_1,,skipped,14,242871.90000009537,,,242870.80000007153,,242872,2021-10-24T10:29:03.384Z,243029.37,1635071093,full,ni_sequenzen,NI_Sequenzen,,,,,,,,,,,,,,
,Screen_3,canvas.Screen,0_2_13_2,,skipped,14,242872.90000009537,,,242870.80000007153,,242872.90000009537,2021-10-24T10:29:03.385Z,243029.37,1635071093,full,ni_sequenzen,NI_Sequenzen,,,,,,,,,,,,,,
,Screen_4,canvas.Screen,0_2_13_3,,skipped,14,242873.80000007153,,,242870.80000007153,,242873.80000007153,2021-10-24T10:29:03.386Z,243029.37,1635071093,full,ni_sequenzen,NI_Sequenzen,,,,,,,,,,,,,,
,Screen_5,canvas.Screen,0_2_13_4,,skipped,14,242874.70000004768,,,242870.80000007153,,242874.70000004768,2021-10-24T10:29:03.387Z,243029.37,1635071093,full,ni_sequenzen,NI_Sequenzen,,,,,,,,,,,,,,
,Screen_6,canvas.Screen,0_2_13_5,,skipped,14,242875.5,,,242870.80000007153,,242875.60000002384,2021-10-24T10:29:03.388Z,243029.37,1635071093,full,ni_sequenzen,NI_Sequenzen,,,,,,,,,,,,,,
,Sequence,flow.Sequence,0_2_13,,completion,14,242870,,,242870.80000007153,,242875.70000004768,2021-10-24T10:29:03.388Z,243029.37,1635071093,full,ni_sequenzen,NI_Sequenzen,,,,,,,,,,,,,,
,Screen_1,canvas.Screen,0_2_14_0,,skipped,15,242876.90000009537,,,242876.90000009537,,242876.90000009537,2021-10-24T10:29:03.389Z,243029.37,1635071093,full,ni_sequenzen,NI_Sequenzen,,,,,,,,,,,,,,
,Screen_2,canvas.Screen,0_2_14_1,,skipped,15,242878.70000004768,,,242876.90000009537,,242878.90000009537,2021-10-24T10:29:03.391Z,243029.37,1635071093,full,ni_sequenzen,NI_Sequenzen,,,,,,,,,,,,,,
,Screen_3,canvas.Screen,0_2_14_2,,skipped,15,242879.90000009537,,,242876.90000009537,,242879.90000009537,2021-10-24T10:29:03.392Z,243029.37,1635071093,full,ni_sequenzen,NI_Sequenzen,,,,,,,,,,,,,,
,Screen_4,canvas.Screen,0_2_14_3,,skipped,15,242881.20000004768,,,242876.90000009537,,242881.30000007153,2021-10-24T10:29:03.393Z,243029.37,1635071093,full,ni_sequenzen,NI_Sequenzen,,,,,,,,,,,,,,
,Screen_5,canvas.Screen,0_2_14_4,,skipped,15,242882.30000007153,,,242876.90000009537,,242882.40000009537,2021-10-24T10:29:03.394Z,243029.37,1635071093,full,ni_sequenzen,NI_Sequenzen,,,,,,,,,,,,,,
,Screen_6,canvas.Screen,0_2_14_5,,skipped,15,242883.20000004768,,,242876.90000009537,,242883.30000007153,2021-10-24T10:29:03.395Z,243029.37,1635071093,full,ni_sequenzen,NI_Sequenzen,,,,,,,,,,,,,,
,Sequence,flow.Sequence,0_2_14,,completion,15,242876.10000002384,,,242876.90000009537,,242883.5,2021-10-24T10:29:03.395Z,243029.37,1635071093,full,ni_sequenzen,NI_Sequenzen,,,,,,,,,,,,,,
,Screen_1,canvas.Screen,0_2_15_0,,skipped,16,242884.60000002384,,,242884.60000002384,,242884.70000004768,2021-10-24T10:29:03.397Z,243029.37,1635071093,full,ni_sequenzen,NI_Sequenzen,,,,,,,,,,,,,,
,Screen_2,canvas.Screen,0_2_15_1,,skipped,16,242885.5,,,242884.60000002384,,242885.60000002384,2021-10-24T10:29:03.398Z,243029.37,1635071093,full,ni_sequenzen,NI_Sequenzen,,,,,,,,,,,,,,
,Screen_3,canvas.Screen,0_2_15_2,,skipped,16,242886.40000009537,,,242884.60000002384,,242886.5,2021-10-24T10:29:03.399Z,243029.37,1635071093,full,ni_sequenzen,NI_Sequenzen,,,,,,,,,,,,,,
,Screen_4,canvas.Screen,0_2_15_3,,skipped,16,242887.20000004768,,,242884.60000002384,,242887.30000007153,2021-10-24T10:29:03.399Z,243029.37,1635071093,full,ni_sequenzen,NI_Sequenzen,,,,,,,,,,,,,,
,Screen_5,canvas.Screen,0_2_15_4,,skipped,16,242888.20000004768,,,242884.60000002384,,242888.20000004768,2021-10-24T10:29:03.400Z,243029.37,1635071093,full,ni_sequenzen,NI_Sequenzen,,,,,,,,,,,,,,
,Screen_6,canvas.Screen,0_2_15_5,,skipped,16,242889.30000007153,,,242884.60000002384,,242889.40000009537,2021-10-24T10:29:03.401Z,243029.37,1635071093,full,ni_sequenzen,NI_Sequenzen,,,,,,,,,,,,,,
,Sequence,flow.Sequence,0_2_15,,completion,16,242883.80000007153,,,242884.60000002384,,242889.5,2021-10-24T10:29:03.402Z,243029.37,1635071093,full,ni_sequenzen,NI_Sequenzen,,,,,,,,,,,,,,
,Screen_1,canvas.Screen,0_2_16_0,,skipped,17,242891.30000007153,,,242891.30000007153,,242891.40000009537,2021-10-24T10:29:03.403Z,243029.37,1635071093,full,ni_sequenzen,NI_Sequenzen,,,,,,,,,,,,,,
,Screen_2,canvas.Screen,0_2_16_1,,skipped,17,242892.5,,,242891.30000007153,,242892.60000002384,2021-10-24T10:29:03.405Z,243029.37,1635071093,full,ni_sequenzen,NI_Sequenzen,,,,,,,,,,,,,,
,Screen_3,canvas.Screen,0_2_16_2,,skipped,17,242894.90000009537,,,242891.30000007153,,242895,2021-10-24T10:29:03.407Z,243029.37,1635071093,full,ni_sequenzen,NI_Sequenzen,,,,,,,,,,,,,,
,Screen_4,canvas.Screen,0_2_16_3,,skipped,17,242896,,,242891.30000007153,,242896.10000002384,2021-10-24T10:29:03.408Z,243029.37,1635071093,full,ni_sequenzen,NI_Sequenzen,,,,,,,,,,,,,,
,Screen_5,canvas.Screen,0_2_16_4,,skipped,17,242897.20000004768,,,242891.30000007153,,242897.30000007153,2021-10-24T10:29:03.409Z,243029.37,1635071093,full,ni_sequenzen,NI_Sequenzen,,,,,,,,,,,,,,
,Screen_6,canvas.Screen,0_2_16_5,,skipped,17,242898.30000007153,,,242891.30000007153,,242898.40000009537,2021-10-24T10:29:03.410Z,243029.37,1635071093,full,ni_sequenzen,NI_Sequenzen,,,,,,,,,,,,,,
,Sequence,flow.Sequence,0_2_16,,completion,17,242890.20000004768,,,242891.30000007153,,242898.60000002384,2021-10-24T10:29:03.411Z,243029.37,1635071093,full,ni_sequenzen,NI_Sequenzen,,,,,,,,,,,,,,
,Screen_1,canvas.Screen,0_2_17_0,,skipped,18,242899.80000007153,,,242899.80000007153,,242899.80000007153,2021-10-24T10:29:03.412Z,243029.37,1635071093,full,ni_sequenzen,NI_Sequenzen,,,,,,,,,,,,,,
,Screen_2,canvas.Screen,0_2_17_1,,skipped,18,242900.70000004768,,,242899.80000007153,,242900.80000007153,2021-10-24T10:29:03.413Z,243029.37,1635071093,full,ni_sequenzen,NI_Sequenzen,,,,,,,,,,,,,,
,Screen_3,canvas.Screen,0_2_17_2,,skipped,18,242901.5,,,242899.80000007153,,242901.60000002384,2021-10-24T10:29:03.414Z,243029.37,1635071093,full,ni_sequenzen,NI_Sequenzen,,,,,,,,,,,,,,
,Screen_4,canvas.Screen,0_2_17_3,,skipped,18,242902.40000009537,,,242899.80000007153,,242902.5,2021-10-24T10:29:03.415Z,243029.37,1635071093,full,ni_sequenzen,NI_Sequenzen,,,,,,,,,,,,,,
,Screen_5,canvas.Screen,0_2_17_4,,skipped,18,242903.80000007153,,,242899.80000007153,,242903.90000009537,2021-10-24T10:29:03.416Z,243029.37,1635071093,full,ni_sequenzen,NI_Sequenzen,,,,,,,,,,,,,,
,Screen_6,canvas.Screen,0_2_17_5,,skipped,18,242905.10000002384,,,242899.80000007153,,242905.10000002384,2021-10-24T10:29:03.417Z,243029.37,1635071093,full,ni_sequenzen,NI_Sequenzen,,,,,,,,,,,,,,
,Sequence,flow.Sequence,0_2_17,,completion,18,242899,,,242899.80000007153,,242905.30000007153,2021-10-24T10:29:03.417Z,243029.37,1635071093,full,ni_sequenzen,NI_Sequenzen,,,,,,,,,,,,,,
,Screen_1,canvas.Screen,0_2_18_0,,skipped,19,242907.10000002384,,,242907.10000002384,,242907.30000007153,2021-10-24T10:29:03.419Z,243029.37,1635071093,full,ni_sequenzen,NI_Sequenzen,,,,,,,,,,,,,,
,Screen_2,canvas.Screen,0_2_18_1,,skipped,19,242908.30000007153,,,242907.10000002384,,242908.30000007153,2021-10-24T10:29:03.420Z,243029.37,1635071093,full,ni_sequenzen,NI_Sequenzen,,,,,,,,,,,,,,
,Screen_3,canvas.Screen,0_2_18_2,,skipped,19,242909.20000004768,,,242907.10000002384,,242909.30000007153,2021-10-24T10:29:03.421Z,243029.37,1635071093,full,ni_sequenzen,NI_Sequenzen,,,,,,,,,,,,,,
,Screen_4,canvas.Screen,0_2_18_3,,skipped,19,242914,,,242907.10000002384,,242914.20000004768,2021-10-24T10:29:03.426Z,243029.37,1635071093,full,ni_sequenzen,NI_Sequenzen,,,,,,,,,,,,,,
,Screen_5,canvas.Screen,0_2_18_4,,skipped,19,242915.90000009537,,,242907.10000002384,,242916,2021-10-24T10:29:03.428Z,243029.37,1635071093,full,ni_sequenzen,NI_Sequenzen,,,,,,,,,,,,,,
,Screen_6,canvas.Screen,0_2_18_5,,skipped,19,242917.5,,,242907.10000002384,,242917.60000002384,2021-10-24T10:29:03.430Z,243029.37,1635071093,full,ni_sequenzen,NI_Sequenzen,,,,,,,,,,,,,,
,Sequence,flow.Sequence,0_2_18,,completion,19,242905.90000009537,,,242907.10000002384,,242917.80000007153,2021-10-24T10:29:03.430Z,243029.37,1635071093,full,ni_sequenzen,NI_Sequenzen,,,,,,,,,,,,,,
,Screen_1,canvas.Screen,0_2_19_0,,skipped,20,242919.40000009537,,,242919.40000009537,,242919.5,2021-10-24T10:29:03.432Z,243029.37,1635071093,full,ni_sequenzen,NI_Sequenzen,,,,,,,,,,,,,,
,Screen_2,canvas.Screen,0_2_19_1,,skipped,20,242920.40000009537,,,242919.40000009537,,242920.40000009537,2021-10-24T10:29:03.433Z,243029.37,1635071093,full,ni_sequenzen,NI_Sequenzen,,,,,,,,,,,,,,
,Screen_3,canvas.Screen,0_2_19_2,,skipped,20,242921.30000007153,,,242919.40000009537,,242921.40000009537,2021-10-24T10:29:03.433Z,243029.37,1635071093,full,ni_sequenzen,NI_Sequenzen,,,,,,,,,,,,,,
,Screen_4,canvas.Screen,0_2_19_3,,skipped,20,242922.20000004768,,,242919.40000009537,,242922.20000004768,2021-10-24T10:29:03.434Z,243029.37,1635071093,full,ni_sequenzen,NI_Sequenzen,,,,,,,,,,,,,,
,Screen_5,canvas.Screen,0_2_19_4,,skipped,20,242923.10000002384,,,242919.40000009537,,242923.10000002384,2021-10-24T10:29:03.435Z,243029.37,1635071093,full,ni_sequenzen,NI_Sequenzen,,,,,,,,,,,,,,
,Screen_6,canvas.Screen,0_2_19_5,,skipped,20,242924,,,242919.40000009537,,242924,2021-10-24T10:29:03.436Z,243029.37,1635071093,full,ni_sequenzen,NI_Sequenzen,,,,,,,,,,,,,,
,Sequence,flow.Sequence,0_2_19,,completion,20,242918.40000009537,,,242919.40000009537,,242924.10000002384,2021-10-24T10:29:03.436Z,243029.37,1635071093,full,ni_sequenzen,NI_Sequenzen,,,,,,,,,,,,,,
,Screen_1,canvas.Screen,0_2_20_0,,skipped,21,242925.30000007153,,,242925.30000007153,,242925.40000009537,2021-10-24T10:29:03.437Z,243029.37,1635071093,full,ni_sequenzen,NI_Sequenzen,,,,,,,,,,,,,,
,Screen_2,canvas.Screen,0_2_20_1,,skipped,21,242926.20000004768,,,242925.30000007153,,242926.20000004768,2021-10-24T10:29:03.438Z,243029.37,1635071093,full,ni_sequenzen,NI_Sequenzen,,,,,,,,,,,,,,
,Screen_3,canvas.Screen,0_2_20_2,,skipped,21,242927,,,242925.30000007153,,242927.10000002384,2021-10-24T10:29:03.439Z,243029.37,1635071093,full,ni_sequenzen,NI_Sequenzen,,,,,,,,,,,,,,
,Screen_4,canvas.Screen,0_2_20_3,,skipped,21,242928.70000004768,,,242925.30000007153,,242928.80000007153,2021-10-24T10:29:03.441Z,243029.37,1635071093,full,ni_sequenzen,NI_Sequenzen,,,,,,,,,,,,,,
,Screen_5,canvas.Screen,0_2_20_4,,skipped,21,242929.80000007153,,,242925.30000007153,,242929.90000009537,2021-10-24T10:29:03.442Z,243029.37,1635071093,full,ni_sequenzen,NI_Sequenzen,,,,,,,,,,,,,,
,Screen_6,canvas.Screen,0_2_20_5,,skipped,21,242930.70000004768,,,242925.30000007153,,242930.70000004768,2021-10-24T10:29:03.443Z,243029.37,1635071093,full,ni_sequenzen,NI_Sequenzen,,,,,,,,,,,,,,
,Sequence,flow.Sequence,0_2_20,,completion,21,242924.5,,,242925.30000007153,,242930.80000007153,2021-10-24T10:29:03.443Z,243029.37,1635071093,full,ni_sequenzen,NI_Sequenzen,,,,,,,,,,,,,,
,Screen_1,canvas.Screen,0_2_21_0,,skipped,22,242932.10000002384,,,242932.10000002384,,242932.10000002384,2021-10-24T10:29:03.444Z,243029.37,1635071093,full,ni_sequenzen,NI_Sequenzen,,,,,,,,,,,,,,
,Screen_2,canvas.Screen,0_2_21_1,,skipped,22,242932.90000009537,,,242932.10000002384,,242932.90000009537,2021-10-24T10:29:03.445Z,243029.37,1635071093,full,ni_sequenzen,NI_Sequenzen,,,,,,,,,,,,,,
,Screen_3,canvas.Screen,0_2_21_2,,skipped,22,242933.80000007153,,,242932.10000002384,,242933.80000007153,2021-10-24T10:29:03.446Z,243029.37,1635071093,full,ni_sequenzen,NI_Sequenzen,,,,,,,,,,,,,,
,Screen_4,canvas.Screen,0_2_21_3,,skipped,22,242935.30000007153,,,242932.10000002384,,242935.40000009537,2021-10-24T10:29:03.448Z,243029.37,1635071093,full,ni_sequenzen,NI_Sequenzen,,,,,,,,,,,,,,
,Screen_5,canvas.Screen,0_2_21_4,,skipped,22,242936.5,,,242932.10000002384,,242936.60000002384,2021-10-24T10:29:03.449Z,243029.37,1635071093,full,ni_sequenzen,NI_Sequenzen,,,,,,,,,,,,,,
,Screen_6,canvas.Screen,0_2_21_5,,skipped,22,242937.5,,,242932.10000002384,,242937.60000002384,2021-10-24T10:29:03.450Z,243029.37,1635071093,full,ni_sequenzen,NI_Sequenzen,,,,,,,,,,,,,,
,Sequence,flow.Sequence,0_2_21,,completion,22,242931.20000004768,,,242932.10000002384,,242937.70000004768,2021-10-24T10:29:03.450Z,243029.37,1635071093,full,ni_sequenzen,NI_Sequenzen,,,,,,,,,,,,,,
,Screen_1,canvas.Screen,0_2_22_0,,skipped,23,242939.20000004768,,,242939.20000004768,,242939.20000004768,2021-10-24T10:29:03.451Z,243029.37,1635071093,full,ni_sequenzen,NI_Sequenzen,,,,,,,,,,,,,,
,Screen_2,canvas.Screen,0_2_22_1,,skipped,23,242940.30000007153,,,242939.20000004768,,242940.40000009537,2021-10-24T10:29:03.452Z,243029.37,1635071093,full,ni_sequenzen,NI_Sequenzen,,,,,,,,,,,,,,
,Screen_3,canvas.Screen,0_2_22_2,,skipped,23,242941.70000004768,,,242939.20000004768,,242941.70000004768,2021-10-24T10:29:03.454Z,243029.37,1635071093,full,ni_sequenzen,NI_Sequenzen,,,,,,,,,,,,,,
,Screen_4,canvas.Screen,0_2_22_3,,skipped,23,242942.60000002384,,,242939.20000004768,,242942.70000004768,2021-10-24T10:29:03.455Z,243029.37,1635071093,full,ni_sequenzen,NI_Sequenzen,,,,,,,,,,,,,,
,Screen_5,canvas.Screen,0_2_22_4,,skipped,23,242943.5,,,242939.20000004768,,242943.60000002384,2021-10-24T10:29:03.456Z,243029.37,1635071093,full,ni_sequenzen,NI_Sequenzen,,,,,,,,,,,,,,
,Screen_6,canvas.Screen,0_2_22_5,,skipped,23,242944.40000009537,,,242939.20000004768,,242944.5,2021-10-24T10:29:03.456Z,243029.37,1635071093,full,ni_sequenzen,NI_Sequenzen,,,,,,,,,,,,,,
,Sequence,flow.Sequence,0_2_22,,completion,23,242938.20000004768,,,242939.20000004768,,242944.60000002384,2021-10-24T10:29:03.457Z,243029.37,1635071093,full,ni_sequenzen,NI_Sequenzen,,,,,,,,,,,,,,
,Screen_1,canvas.Screen,0_2_23_0,,skipped,24,242946.80000007153,,,242946.80000007153,,242946.90000009537,2021-10-24T10:29:03.459Z,243029.37,1635071093,full,ni_sequenzen,NI_Sequenzen,,,,,,,,,,,,,,
,Screen_2,canvas.Screen,0_2_23_1,,skipped,24,242947.80000007153,,,242946.80000007153,,242947.80000007153,2021-10-24T10:29:03.460Z,243029.37,1635071093,full,ni_sequenzen,NI_Sequenzen,,,,,,,,,,,,,,
,Screen_3,canvas.Screen,0_2_23_2,,skipped,24,242948.70000004768,,,242946.80000007153,,242948.70000004768,2021-10-24T10:29:03.461Z,243029.37,1635071093,full,ni_sequenzen,NI_Sequenzen,,,,,,,,,,,,,,
,Screen_4,canvas.Screen,0_2_23_3,,skipped,24,242949.5,,,242946.80000007153,,242949.60000002384,2021-10-24T10:29:03.462Z,243029.37,1635071093,full,ni_sequenzen,NI_Sequenzen,,,,,,,,,,,,,,
,Screen_5,canvas.Screen,0_2_23_4,,skipped,24,242950.40000009537,,,242946.80000007153,,242950.40000009537,2021-10-24T10:29:03.462Z,243029.37,1635071093,full,ni_sequenzen,NI_Sequenzen,,,,,,,,,,,,,,
,Screen_6,canvas.Screen,0_2_23_5,,skipped,24,242951.20000004768,,,242946.80000007153,,242951.30000007153,2021-10-24T10:29:03.463Z,243029.37,1635071093,full,ni_sequenzen,NI_Sequenzen,,,,,,,,,,,,,,
,Sequence,flow.Sequence,0_2_23,,completion,24,242944.90000009537,,,242946.80000007153,,242951.40000009537,2021-10-24T10:29:03.463Z,243029.37,1635071093,full,ni_sequenzen,NI_Sequenzen,,,,,,,,,,,,,,
,Screen_1,canvas.Screen,0_2_24_0,,skipped,25,242952.5,,,242952.60000002384,,242952.60000002384,2021-10-24T10:29:03.465Z,243029.37,1635071093,full,ni_sequenzen,NI_Sequenzen,,,,,,,,,,,,,,
,Screen_2,canvas.Screen,0_2_24_1,,skipped,25,242953.40000009537,,,242952.60000002384,,242953.5,2021-10-24T10:29:03.466Z,243029.37,1635071093,full,ni_sequenzen,NI_Sequenzen,,,,,,,,,,,,,,
,Screen_3,canvas.Screen,0_2_24_2,,skipped,25,242954.20000004768,,,242952.60000002384,,242954.30000007153,2021-10-24T10:29:03.466Z,243029.37,1635071093,full,ni_sequenzen,NI_Sequenzen,,,,,,,,,,,,,,
,Screen_4,canvas.Screen,0_2_24_3,,skipped,25,242955.10000002384,,,242952.60000002384,,242955.20000004768,2021-10-24T10:29:03.467Z,243029.37,1635071093,full,ni_sequenzen,NI_Sequenzen,,,,,,,,,,,,,,
,Screen_5,canvas.Screen,0_2_24_4,,skipped,25,242956,,,242952.60000002384,,242956.10000002384,2021-10-24T10:29:03.468Z,243029.37,1635071093,full,ni_sequenzen,NI_Sequenzen,,,,,,,,,,,,,,
,Screen_6,canvas.Screen,0_2_24_5,,skipped,25,242956.80000007153,,,242952.60000002384,,242956.90000009537,2021-10-24T10:29:03.469Z,243029.37,1635071093,full,ni_sequenzen,NI_Sequenzen,,,,,,,,,,,,,,
,Sequence,flow.Sequence,0_2_24,,completion,25,242951.80000007153,,,242952.60000002384,,242957,2021-10-24T10:29:03.469Z,243029.37,1635071093,full,ni_sequenzen,NI_Sequenzen,,,,,,,,,,,,,,
,Screen_1,canvas.Screen,0_2_25_0,,skipped,26,242958.10000002384,,,242958.10000002384,,242958.20000004768,2021-10-24T10:29:03.470Z,243029.37,1635071093,full,ni_sequenzen,NI_Sequenzen,,,,,,,,,,,,,,
,Screen_2,canvas.Screen,0_2_25_1,,skipped,26,242960.10000002384,,,242958.10000002384,,242960.10000002384,2021-10-24T10:29:03.472Z,243029.37,1635071093,full,ni_sequenzen,NI_Sequenzen,,,,,,,,,,,,,,
,Screen_3,canvas.Screen,0_2_25_2,,skipped,26,242961.10000002384,,,242958.10000002384,,242961.20000004768,2021-10-24T10:29:03.473Z,243029.37,1635071093,full,ni_sequenzen,NI_Sequenzen,,,,,,,,,,,,,,
,Screen_4,canvas.Screen,0_2_25_3,,skipped,26,242962.10000002384,,,242958.10000002384,,242962.10000002384,2021-10-24T10:29:03.474Z,243029.37,1635071093,full,ni_sequenzen,NI_Sequenzen,,,,,,,,,,,,,,
,Screen_5,canvas.Screen,0_2_25_4,,skipped,26,242962.90000009537,,,242958.10000002384,,242962.90000009537,2021-10-24T10:29:03.475Z,243029.37,1635071093,full,ni_sequenzen,NI_Sequenzen,,,,,,,,,,,,,,
,Screen_6,canvas.Screen,0_2_25_5,,skipped,26,242963.90000009537,,,242958.10000002384,,242964,2021-10-24T10:29:03.476Z,243029.37,1635071093,full,ni_sequenzen,NI_Sequenzen,,,,,,,,,,,,,,
,Sequence,flow.Sequence,0_2_25,,completion,26,242957.40000009537,,,242958.10000002384,,242964.10000002384,2021-10-24T10:29:03.476Z,243029.37,1635071093,full,ni_sequenzen,NI_Sequenzen,,,,,,,,,,,,,,
,Screen_1,canvas.Screen,0_2_26_0,,skipped,27,242965.40000009537,,,242965.40000009537,,242965.5,2021-10-24T10:29:03.478Z,243029.37,1635071093,full,ni_sequenzen,NI_Sequenzen,,,,,,,,,,,,,,
,Screen_2,canvas.Screen,0_2_26_1,,skipped,27,242966.40000009537,,,242965.40000009537,,242966.40000009537,2021-10-24T10:29:03.478Z,243029.37,1635071093,full,ni_sequenzen,NI_Sequenzen,,,,,,,,,,,,,,
,Screen_3,canvas.Screen,0_2_26_2,,skipped,27,242967.20000004768,,,242965.40000009537,,242967.20000004768,2021-10-24T10:29:03.479Z,243029.37,1635071093,full,ni_sequenzen,NI_Sequenzen,,,,,,,,,,,,,,
,Screen_4,canvas.Screen,0_2_26_3,,skipped,27,242968,,,242965.40000009537,,242968.10000002384,2021-10-24T10:29:03.480Z,243029.37,1635071093,full,ni_sequenzen,NI_Sequenzen,,,,,,,,,,,,,,
,Screen_5,canvas.Screen,0_2_26_4,,skipped,27,242968.90000009537,,,242965.40000009537,,242969,2021-10-24T10:29:03.481Z,243029.37,1635071093,full,ni_sequenzen,NI_Sequenzen,,,,,,,,,,,,,,
,Screen_6,canvas.Screen,0_2_26_5,,skipped,27,242969.80000007153,,,242965.40000009537,,242969.80000007153,2021-10-24T10:29:03.482Z,243029.37,1635071093,full,ni_sequenzen,NI_Sequenzen,,,,,,,,,,,,,,
,Sequence,flow.Sequence,0_2_26,,completion,27,242964.60000002384,,,242965.40000009537,,242969.90000009537,2021-10-24T10:29:03.482Z,243029.37,1635071093,full,ni_sequenzen,NI_Sequenzen,,,,,,,,,,,,,,
,Screen_1,canvas.Screen,0_2_27_0,,skipped,28,242971.10000002384,,,242971.10000002384,,242971.10000002384,2021-10-24T10:29:03.483Z,243029.37,1635071093,full,ni_sequenzen,NI_Sequenzen,,,,,,,,,,,,,,
,Screen_2,canvas.Screen,0_2_27_1,,skipped,28,242972,,,242971.10000002384,,242972,2021-10-24T10:29:03.484Z,243029.37,1635071093,full,ni_sequenzen,NI_Sequenzen,,,,,,,,,,,,,,
,Screen_3,canvas.Screen,0_2_27_2,,skipped,28,242972.80000007153,,,242971.10000002384,,242972.90000009537,2021-10-24T10:29:03.485Z,243029.37,1635071093,full,ni_sequenzen,NI_Sequenzen,,,,,,,,,,,,,,
,Screen_4,canvas.Screen,0_2_27_3,,skipped,28,242974.5,,,242971.10000002384,,242974.60000002384,2021-10-24T10:29:03.487Z,243029.37,1635071093,full,ni_sequenzen,NI_Sequenzen,,,,,,,,,,,,,,
,Screen_5,canvas.Screen,0_2_27_4,,skipped,28,242975.60000002384,,,242971.10000002384,,242975.70000004768,2021-10-24T10:29:03.488Z,243029.37,1635071093,full,ni_sequenzen,NI_Sequenzen,,,,,,,,,,,,,,
,Screen_6,canvas.Screen,0_2_27_5,,skipped,28,242976.5,,,242971.10000002384,,242976.60000002384,2021-10-24T10:29:03.489Z,243029.37,1635071093,full,ni_sequenzen,NI_Sequenzen,,,,,,,,,,,,,,
,Sequence,flow.Sequence,0_2_27,,completion,28,242970.30000007153,,,242971.10000002384,,242976.70000004768,2021-10-24T10:29:03.489Z,243029.37,1635071093,full,ni_sequenzen,NI_Sequenzen,,,,,,,,,,,,,,
,Screen_1,canvas.Screen,0_2_28_0,,skipped,29,242977.80000007153,,,242977.80000007153,,242977.90000009537,2021-10-24T10:29:03.490Z,243029.37,1635071093,full,ni_sequenzen,NI_Sequenzen,,,,,,,,,,,,,,
,Screen_2,canvas.Screen,0_2_28_1,,skipped,29,242978.70000004768,,,242977.80000007153,,242978.70000004768,2021-10-24T10:29:03.491Z,243029.37,1635071093,full,ni_sequenzen,NI_Sequenzen,,,,,,,,,,,,,,
,Screen_3,canvas.Screen,0_2_28_2,,skipped,29,242979.70000004768,,,242977.80000007153,,242979.70000004768,2021-10-24T10:29:03.492Z,243029.37,1635071093,full,ni_sequenzen,NI_Sequenzen,,,,,,,,,,,,,,
,Screen_4,canvas.Screen,0_2_28_3,,skipped,29,242980.40000009537,,,242977.80000007153,,242980.5,2021-10-24T10:29:03.493Z,243029.37,1635071093,full,ni_sequenzen,NI_Sequenzen,,,,,,,,,,,,,,
,Screen_5,canvas.Screen,0_2_28_4,,skipped,29,242981.30000007153,,,242977.80000007153,,242981.40000009537,2021-10-24T10:29:03.493Z,243029.37,1635071093,full,ni_sequenzen,NI_Sequenzen,,,,,,,,,,,,,,
,Screen_6,canvas.Screen,0_2_28_5,,skipped,29,242982.20000004768,,,242977.80000007153,,242982.30000007153,2021-10-24T10:29:03.494Z,243029.37,1635071093,full,ni_sequenzen,NI_Sequenzen,,,,,,,,,,,,,,
,Sequence,flow.Sequence,0_2_28,,completion,29,242977.10000002384,,,242977.80000007153,,242982.40000009537,2021-10-24T10:29:03.494Z,243029.37,1635071093,full,ni_sequenzen,NI_Sequenzen,,,,,,,,,,,,,,
,Screen_1,canvas.Screen,0_2_29_0,,skipped,30,242983.40000009537,,,242983.40000009537,,242983.60000002384,2021-10-24T10:29:03.496Z,243029.37,1635071093,full,ni_sequenzen,NI_Sequenzen,,,,,,,,,,,,,,
,Screen_2,canvas.Screen,0_2_29_1,,skipped,30,242984.40000009537,,,242983.40000009537,,242984.5,2021-10-24T10:29:03.496Z,243029.37,1635071093,full,ni_sequenzen,NI_Sequenzen,,,,,,,,,,,,,,
,Screen_3,canvas.Screen,0_2_29_2,,skipped,30,242985.20000004768,,,242983.40000009537,,242985.20000004768,2021-10-24T10:29:03.497Z,243029.37,1635071093,full,ni_sequenzen,NI_Sequenzen,,,,,,,,,,,,,,
,Screen_4,canvas.Screen,0_2_29_3,,skipped,30,242986.10000002384,,,242983.40000009537,,242986.10000002384,2021-10-24T10:29:03.498Z,243029.37,1635071093,full,ni_sequenzen,NI_Sequenzen,,,,,,,,,,,,,,
,Screen_5,canvas.Screen,0_2_29_4,,skipped,30,242987.70000004768,,,242983.40000009537,,242987.70000004768,2021-10-24T10:29:03.500Z,243029.37,1635071093,full,ni_sequenzen,NI_Sequenzen,,,,,,,,,,,,,,
,Screen_6,canvas.Screen,0_2_29_5,,skipped,30,242988.60000002384,,,242983.40000009537,,242988.70000004768,2021-10-24T10:29:03.501Z,243029.37,1635071093,full,ni_sequenzen,NI_Sequenzen,,,,,,,,,,,,,,
,Sequence,flow.Sequence,0_2_29,,completion,30,242982.70000004768,,,242983.40000009537,,242988.80000007153,2021-10-24T10:29:03.501Z,243029.37,1635071093,full,ni_sequenzen,NI_Sequenzen,,,,,,,,,,,,,,
,Instructions_II,flow.Loop,0_2,,completion,,121710.10000002384,121706.801,121723.468,242983.40000009537,121259.93200009537,242988.90000009537,2021-10-24T10:29:03.501Z,243029.37,1635071093,full,ni_sequenzen,NI_Sequenzen,,,,,,,,,,,,,,
,Move,canvas.Screen,0_3_0_0_0_0,right,response,,243024.40000009537,243012.703,243029.37,250144.30000007153,7114.93000007153,250148.80000007153,2021-10-24T10:29:10.661Z,250162.846,1635071093,full,ni_sequenzen,NI_Sequenzen,1,0,,,,,,,,,,,,
,Move,canvas.Screen,0_3_0_0_0_1,down,response,,250159.30000007153,250146.179,250162.846,253361.60000002384,3198.7540000238514,253366.20000004768,2021-10-24T10:29:13.879Z,253382.293,1635071093,full,ni_sequenzen,NI_Sequenzen,2,0,,,,,,,,,,,,
,Move,canvas.Screen,0_3_0_0_0_2,left,response,,253371.10000002384,253365.626,253382.293,255555.30000007153,2173.0070000715205,255567.10000002384,2021-10-24T10:29:16.080Z,255615.671,1635071093,full,ni_sequenzen,NI_Sequenzen,3,0,,,,,,,,,,,,
,Move,canvas.Screen,0_3_0_0_0_3,down,response,,255575.30000007153,255599.004,255615.671,258030.30000007153,2414.6290000715235,258034.20000004768,2021-10-24T10:29:18.547Z,258049.557,1635071093,full,ni_sequenzen,NI_Sequenzen,4,0,,,,,,,,,,,,
,Move,canvas.Screen,0_3_0_0_0_4,down,response,,258038.90000009537,258032.89,258049.557,263936.3000000715,5886.743000071525,263941.10000002384,2021-10-24T10:29:24.454Z,263949.675,1635071093,full,ni_sequenzen,NI_Sequenzen,5,0,,,,,,,,,,,,
,Move,canvas.Screen,0_3_0_0_0_5,right,response,,263946,263933.008,263949.675,267581.10000002384,3631.4250000238535,267585.2000000477,2021-10-24T10:29:28.098Z,267633.082,1635071093,full,ni_sequenzen,NI_Sequenzen,6,0,,,,,,,,,,,,
,Move,canvas.Screen,0_3_0_0_0_6,-999,skipped,,267590.8000000715,,,267581.10000002384,,267591,2021-10-24T10:29:28.104Z,267633.082,1635071093,full,ni_sequenzen,NI_Sequenzen,7,0,,,,,,,,,,,,
,Move,canvas.Screen,0_3_0_0_0_7,-999,skipped,,267596.2000000477,,,267581.10000002384,,267596.3000000715,2021-10-24T10:29:28.109Z,267633.082,1635071093,full,ni_sequenzen,NI_Sequenzen,8,0,,,,,,,,,,,,
,Move,canvas.Screen,0_3_0_0_0_8,-999,skipped,,267598.60000002384,,,267581.10000002384,,267598.7000000477,2021-10-24T10:29:28.111Z,267633.082,1635071093,full,ni_sequenzen,NI_Sequenzen,9,0,,,,,,,,,,,,
,Move,canvas.Screen,0_3_0_0_0_9,-999,skipped,,267600.8000000715,,,267581.10000002384,,267600.90000009537,2021-10-24T10:29:28.114Z,267633.082,1635071093,full,ni_sequenzen,NI_Sequenzen,10,0,,,,,,,,,,,,
,Move,canvas.Screen,0_3_0_0_0_10,-999,skipped,,267603.60000002384,,,267581.10000002384,,267603.7000000477,2021-10-24T10:29:28.116Z,267633.082,1635071093,full,ni_sequenzen,NI_Sequenzen,11,0,,,,,,,,,,,,
,Move,canvas.Screen,0_3_0_0_0_11,-999,skipped,,267605.90000009537,,,267581.10000002384,,267606,2021-10-24T10:29:28.119Z,267633.082,1635071093,full,ni_sequenzen,NI_Sequenzen,12,0,,,,,,,,,,,,
,Move,canvas.Screen,0_3_0_0_0_12,-999,skipped,,267608.2000000477,,,267581.10000002384,,267608.2000000477,2021-10-24T10:29:28.121Z,267633.082,1635071093,full,ni_sequenzen,NI_Sequenzen,13,0,,,,,,,,,,,,
,Move,canvas.Screen,0_3_0_0_0_13,-999,skipped,,267610.2000000477,,,267581.10000002384,,267610.3000000715,2021-10-24T10:29:28.123Z,267633.082,1635071093,full,ni_sequenzen,NI_Sequenzen,14,0,,,,,,,,,,,,
,Move,canvas.Screen,0_3_0_0_0_14,-999,skipped,,267614.40000009537,,,267581.10000002384,,267614.5,2021-10-24T10:29:28.127Z,267633.082,1635071093,full,ni_sequenzen,NI_Sequenzen,15,0,,,,,,,,,,,,
,Loop,flow.Loop,0_3_0_0_0,-999,completion,,243017.10000002384,243012.703,243029.37,267581.10000002384,24551.730000023847,267614.60000002384,2021-10-24T10:29:28.127Z,267633.082,1635071093,full,ni_sequenzen,NI_Sequenzen,,0,,,,,,,,,,,,
,Feedback,canvas.Screen,0_3_0_0_1,,timeout,,267618.10000002384,267616.415,267633.082,271617.016,4000.601000000024,271619.60000002384,2021-10-24T10:29:32.133Z,271633.683,1635071093,full,ni_sequenzen,NI_Sequenzen,,0,,,,,,,,,,,,
,Trial,flow.Sequence,0_3_0_0,,completion,,243005.10000002384,243012.703,243029.37,271617.016,28587.646000000008,271619.90000009537,2021-10-24T10:29:32.133Z,271650.35,1635071093,full,ni_sequenzen,NI_Sequenzen,,0,,,,,,,,,,,,
,Move,canvas.Screen,0_3_0_1_0_0,left,response,,271634.10000002384,271633.683,271650.35,275298.40000009537,3648.0500000953907,275303.40000009537,2021-10-24T10:29:35.816Z,275350.424,1635071093,full,ni_sequenzen,NI_Sequenzen,1,1,,,,,,,,,,,,
,Move,canvas.Screen,0_3_0_1_0_1,down,response,,275311.3000000715,275333.757,275350.424,276029.60000002384,679.1760000238428,276033.5,2021-10-24T10:29:36.547Z,276050.438,1635071093,full,ni_sequenzen,NI_Sequenzen,2,1,,,,,,,,,,,,
,Move,canvas.Screen,0_3_0_1_0_2,right,response,,276038.5,276033.771,276050.438,277503.2000000477,1452.76200004766,277507.2000000477,2021-10-24T10:29:38.020Z,277517.697,1635071093,full,ni_sequenzen,NI_Sequenzen,3,1,,,,,,,,,,,,
,Move,canvas.Screen,0_3_0_1_0_3,right,response,,277512.10000002384,277501.03,277517.697,279213.3000000715,1695.60300007154,279217.40000009537,2021-10-24T10:29:39.731Z,279267.732,1635071093,full,ni_sequenzen,NI_Sequenzen,4,1,,,,,,,,,,,,
,Move,canvas.Screen,0_3_0_1_0_4,-999,skipped,,279222.5,,,279213.3000000715,,279222.60000002384,2021-10-24T10:29:39.736Z,279267.732,1635071093,full,ni_sequenzen,NI_Sequenzen,5,1,,,,,,,,,,,,
,Move,canvas.Screen,0_3_0_1_0_5,-999,skipped,,279225.60000002384,,,279213.3000000715,,279225.60000002384,2021-10-24T10:29:39.739Z,279267.732,1635071093,full,ni_sequenzen,NI_Sequenzen,6,1,,,,,,,,,,,,
,Move,canvas.Screen,0_3_0_1_0_6,-999,skipped,,279228.5,,,279213.3000000715,,279228.60000002384,2021-10-24T10:29:39.742Z,279267.732,1635071093,full,ni_sequenzen,NI_Sequenzen,7,1,,,,,,,,,,,,
,Move,canvas.Screen,0_3_0_1_0_7,-999,skipped,,279232.60000002384,,,279213.3000000715,,279232.7000000477,2021-10-24T10:29:39.746Z,279267.732,1635071093,full,ni_sequenzen,NI_Sequenzen,8,1,,,,,,,,,,,,
,Move,canvas.Screen,0_3_0_1_0_8,-999,skipped,,279234.8000000715,,,279213.3000000715,,279234.90000009537,2021-10-24T10:29:39.748Z,279267.732,1635071093,full,ni_sequenzen,NI_Sequenzen,9,1,,,,,,,,,,,,
,Move,canvas.Screen,0_3_0_1_0_9,-999,skipped,,279237.60000002384,,,279213.3000000715,,279237.90000009537,2021-10-24T10:29:39.751Z,279267.732,1635071093,full,ni_sequenzen,NI_Sequenzen,10,1,,,,,,,,,,,,
,Move,canvas.Screen,0_3_0_1_0_10,-999,skipped,,279241.3000000715,,,279213.3000000715,,279241.40000009537,2021-10-24T10:29:39.754Z,279267.732,1635071093,full,ni_sequenzen,NI_Sequenzen,11,1,,,,,,,,,,,,
,Move,canvas.Screen,0_3_0_1_0_11,-999,skipped,,279243.5,,,279213.3000000715,,279243.5,2021-10-24T10:29:39.757Z,279267.732,1635071093,full,ni_sequenzen,NI_Sequenzen,12,1,,,,,,,,,,,,
,Move,canvas.Screen,0_3_0_1_0_12,-999,skipped,,279245.60000002384,,,279213.3000000715,,279245.7000000477,2021-10-24T10:29:39.759Z,279267.732,1635071093,full,ni_sequenzen,NI_Sequenzen,13,1,,,,,,,,,,,,
,Move,canvas.Screen,0_3_0_1_0_13,-999,skipped,,279248.5,,,279213.3000000715,,279248.60000002384,2021-10-24T10:29:39.762Z,279267.732,1635071093,full,ni_sequenzen,NI_Sequenzen,14,1,,,,,,,,,,,,
,Move,canvas.Screen,0_3_0_1_0_14,-999,skipped,,279251.5,,,279213.3000000715,,279251.60000002384,2021-10-24T10:29:39.765Z,279267.732,1635071093,full,ni_sequenzen,NI_Sequenzen,15,1,,,,,,,,,,,,
,Loop,flow.Loop,0_3_0_1_0,-999,completion,,271628.60000002384,271633.683,271650.35,279213.3000000715,7562.950000071549,279251.8000000715,2021-10-24T10:29:39.765Z,279267.732,1635071093,full,ni_sequenzen,NI_Sequenzen,,1,,,,,,,,,,,,
,Feedback,canvas.Screen,0_3_0_1_1,,timeout,,279254.5,279251.065,279267.732,283251.145,4000.079999999958,283254.90000009537,2021-10-24T10:29:43.768Z,283267.812,1635071093,full,ni_sequenzen,NI_Sequenzen,,1,,,,,,,,,,,,
,Trial,flow.Sequence,0_3_0_1,,completion,,271620.40000009537,271633.683,271650.35,283251.145,11600.795000000042,283255.2000000477,2021-10-24T10:29:43.768Z,283284.479,1635071093,full,ni_sequenzen,NI_Sequenzen,,1,,,,,,,,,,,,
,Move,canvas.Screen,0_3_0_2_0_0,down,response,,283269,283267.812,283284.479,286368,3083.521000000008,286372.90000009537,2021-10-24T10:29:46.886Z,286417.875,1635071093,full,ni_sequenzen,NI_Sequenzen,1,2,,,,,,,,,,,,
,Move,canvas.Screen,0_3_0_2_0_1,right,response,,286380.40000009537,286401.208,286417.875,287661.7000000477,1243.8250000476837,287665.8000000715,2021-10-24T10:29:48.179Z,287717.901,1635071093,full,ni_sequenzen,NI_Sequenzen,2,2,,,,,,,,,,,,
,Move,canvas.Screen,0_3_0_2_0_2,right,response,,287670.60000002384,287667.9,287717.901,288651.60000002384,933.6990000238293,288655.60000002384,2021-10-24T10:29:49.169Z,288668.46,1635071093,full,ni_sequenzen,NI_Sequenzen,3,2,,,,,,,,,,,,
,Move,canvas.Screen,0_3_0_2_0_3,down,response,,288660.7000000477,288651.793,288668.46,289180.3000000715,511.8400000715046,289184.40000009537,2021-10-24T10:29:49.698Z,289235.138,1635071093,full,ni_sequenzen,NI_Sequenzen,4,2,,,,,,,,,,,,
,Move,canvas.Screen,0_3_0_2_0_4,-999,skipped,,289189.40000009537,,,289180.3000000715,,289189.60000002384,2021-10-24T10:29:49.703Z,289235.138,1635071093,full,ni_sequenzen,NI_Sequenzen,5,2,,,,,,,,,,,,
,Move,canvas.Screen,0_3_0_2_0_5,-999,skipped,,289192.7000000477,,,289180.3000000715,,289192.7000000477,2021-10-24T10:29:49.706Z,289235.138,1635071093,full,ni_sequenzen,NI_Sequenzen,6,2,,,,,,,,,,,,
,Move,canvas.Screen,0_3_0_2_0_6,-999,skipped,,289195.5,,,289180.3000000715,,289195.5,2021-10-24T10:29:49.709Z,289235.138,1635071093,full,ni_sequenzen,NI_Sequenzen,7,2,,,,,,,,,,,,
,Move,canvas.Screen,0_3_0_2_0_7,-999,skipped,,289199.5,,,289180.3000000715,,289199.7000000477,2021-10-24T10:29:49.713Z,289235.138,1635071093,full,ni_sequenzen,NI_Sequenzen,8,2,,,,,,,,,,,,
,Move,canvas.Screen,0_3_0_2_0_8,-999,skipped,,289202.10000002384,,,289180.3000000715,,289202.2000000477,2021-10-24T10:29:49.716Z,289235.138,1635071093,full,ni_sequenzen,NI_Sequenzen,9,2,,,,,,,,,,,,
,Move,canvas.Screen,0_3_0_2_0_9,-999,skipped,,289204.5,,,289180.3000000715,,289204.60000002384,2021-10-24T10:29:49.718Z,289235.138,1635071093,full,ni_sequenzen,NI_Sequenzen,10,2,,,,,,,,,,,,
,Move,canvas.Screen,0_3_0_2_0_10,-999,skipped,,289207.40000009537,,,289180.3000000715,,289207.5,2021-10-24T10:29:49.721Z,289235.138,1635071093,full,ni_sequenzen,NI_Sequenzen,11,2,,,,,,,,,,,,
,Move,canvas.Screen,0_3_0_2_0_11,-999,skipped,,289209.60000002384,,,289180.3000000715,,289209.7000000477,2021-10-24T10:29:49.723Z,289235.138,1635071093,full,ni_sequenzen,NI_Sequenzen,12,2,,,,,,,,,,,,
,Move,canvas.Screen,0_3_0_2_0_12,-999,skipped,,289211.7000000477,,,289180.3000000715,,289211.7000000477,2021-10-24T10:29:49.725Z,289235.138,1635071093,full,ni_sequenzen,NI_Sequenzen,13,2,,,,,,,,,,,,
,Move,canvas.Screen,0_3_0_2_0_13,-999,skipped,,289214.5,,,289180.3000000715,,289214.5,2021-10-24T10:29:49.728Z,289235.138,1635071093,full,ni_sequenzen,NI_Sequenzen,14,2,,,,,,,,,,,,
,Move,canvas.Screen,0_3_0_2_0_14,-999,skipped,,289216.7000000477,,,289180.3000000715,,289216.7000000477,2021-10-24T10:29:49.730Z,289235.138,1635071093,full,ni_sequenzen,NI_Sequenzen,15,2,,,,,,,,,,,,
,Loop,flow.Loop,0_3_0_2_0,-999,completion,,283263.40000009537,283267.812,283284.479,289180.3000000715,5895.8210000715335,289216.90000009537,2021-10-24T10:29:49.730Z,289235.138,1635071093,full,ni_sequenzen,NI_Sequenzen,,2,,,,,,,,,,,,
,Feedback,canvas.Screen,0_3_0_2_1,,timeout,,289219.7000000477,289218.471,289235.138,293218.551,4000.0800000000163,293222.3000000715,2021-10-24T10:29:53.736Z,293235.218,1635071093,full,ni_sequenzen,NI_Sequenzen,,2,,,,,,,,,,,,
,Trial,flow.Sequence,0_3_0_2,,completion,,283255.60000002384,283267.812,283284.479,293218.551,9934.071999999986,293222.60000002384,2021-10-24T10:29:53.736Z,293251.885,1635071093,full,ni_sequenzen,NI_Sequenzen,,2,,,,,,,,,,,,
,Move,canvas.Screen,0_3_0_3_0_0,down,response,,293236.2000000477,293235.218,293251.885,294523.90000009537,1272.0150000953581,294528.40000009537,2021-10-24T10:29:55.042Z,294535.244,1635071093,full,ni_sequenzen,NI_Sequenzen,1,3,,,,,,,,,,,,
,Move,canvas.Screen,0_3_0_3_0_1,left,response,,294533.3000000715,294518.577,294535.244,295930.10000002384,1394.8560000238358,295934.2000000477,2021-10-24T10:29:56.448Z,295951.939,1635071093,full,ni_sequenzen,NI_Sequenzen,2,3,,,,,,,,,,,,
,Move,canvas.Screen,0_3_0_3_0_2,left,response,,295939,295935.272,295951.939,297539.10000002384,1587.1610000238288,297543.7000000477,2021-10-24T10:29:58.057Z,297551.971,1635071093,full,ni_sequenzen,NI_Sequenzen,3,3,,,,,,,,,,,,
,Move,canvas.Screen,0_3_0_3_0_3,down,response,,297548,297535.304,297551.971,299215,1663.0289999999804,299219,2021-10-24T10:29:59.733Z,299318.673,1635071093,full,ni_sequenzen,NI_Sequenzen,4,3,,,,,,,,,,,,
,Move,canvas.Screen,0_3_0_3_0_4,-999,skipped,,299223.3000000715,,,299215,,299223.5,2021-10-24T10:29:59.737Z,299318.673,1635071093,full,ni_sequenzen,NI_Sequenzen,5,3,,,,,,,,,,,,
,Move,canvas.Screen,0_3_0_3_0_5,-999,skipped,,299226.5,,,299215,,299226.5,2021-10-24T10:29:59.740Z,299318.673,1635071093,full,ni_sequenzen,NI_Sequenzen,6,3,,,,,,,,,,,,
,Move,canvas.Screen,0_3_0_3_0_6,-999,skipped,,299236.3000000715,,,299215,,299236.5,2021-10-24T10:29:59.750Z,299318.673,1635071093,full,ni_sequenzen,NI_Sequenzen,7,3,,,,,,,,,,,,
,Move,canvas.Screen,0_3_0_3_0_7,-999,skipped,,299241.7000000477,,,299215,,299241.8000000715,2021-10-24T10:29:59.756Z,299318.673,1635071093,full,ni_sequenzen,NI_Sequenzen,8,3,,,,,,,,,,,,
,Move,canvas.Screen,0_3_0_3_0_8,-999,skipped,,299246.8000000715,,,299215,,299247,2021-10-24T10:29:59.761Z,299318.673,1635071093,full,ni_sequenzen,NI_Sequenzen,9,3,,,,,,,,,,,,
,Move,canvas.Screen,0_3_0_3_0_9,-999,skipped,,299254.7000000477,,,299215,,299254.8000000715,2021-10-24T10:29:59.769Z,299318.673,1635071093,full,ni_sequenzen,NI_Sequenzen,10,3,,,,,,,,,,,,
,Move,canvas.Screen,0_3_0_3_0_10,-999,skipped,,299261.3000000715,,,299215,,299261.5,2021-10-24T10:29:59.775Z,299318.673,1635071093,full,ni_sequenzen,NI_Sequenzen,11,3,,,,,,,,,,,,
,Move,canvas.Screen,0_3_0_3_0_11,-999,skipped,,299267.7000000477,,,299215,,299267.7000000477,2021-10-24T10:29:59.781Z,299318.673,1635071093,full,ni_sequenzen,NI_Sequenzen,12,3,,,,,,,,,,,,
,Move,canvas.Screen,0_3_0_3_0_12,-999,skipped,,299274.7000000477,,,299215,,299274.8000000715,2021-10-24T10:29:59.789Z,299318.673,1635071093,full,ni_sequenzen,NI_Sequenzen,13,3,,,,,,,,,,,,
,Move,canvas.Screen,0_3_0_3_0_13,-999,skipped,,299279.2000000477,,,299215,,299279.3000000715,2021-10-24T10:29:59.793Z,299318.673,1635071093,full,ni_sequenzen,NI_Sequenzen,14,3,,,,,,,,,,,,
,Move,canvas.Screen,0_3_0_3_0_14,-999,skipped,,299284.5,,,299215,,299284.60000002384,2021-10-24T10:29:59.798Z,299318.673,1635071093,full,ni_sequenzen,NI_Sequenzen,15,3,,,,,,,,,,,,
,Loop,flow.Loop,0_3_0_3_0,-999,completion,,293233.3000000715,293235.218,293251.885,299215,5963.114999999991,299284.8000000715,2021-10-24T10:29:59.799Z,299318.673,1635071093,full,ni_sequenzen,NI_Sequenzen,,3,,,,,,,,,,,,
,Feedback,canvas.Screen,0_3_0_3_1,,timeout,,299291.8000000715,299302.006,299318.673,303302.63,4000.6240000000107,303306.3000000715,2021-10-24T10:30:03.820Z,303319.297,1635071093,full,ni_sequenzen,NI_Sequenzen,,3,,,,,,,,,,,,
,Trial,flow.Sequence,0_3_0_3,,completion,,293223,293235.218,293251.885,303302.63,10050.744999999995,303306.60000002384,2021-10-24T10:30:03.820Z,303335.964,1635071093,full,ni_sequenzen,NI_Sequenzen,,3,,,,,,,,,,,,
,Move,canvas.Screen,0_3_0_4_0_0,down,response,,303320,303319.297,303335.964,307584.7000000477,4248.736000047706,307590,2021-10-24T10:30:08.104Z,307602.716,1635071093,full,ni_sequenzen,NI_Sequenzen,1,4,,,,,,,,,,,,
,Move,canvas.Screen,0_3_0_4_0_1,down,response,,307595.10000002384,307586.049,307602.716,308687.2000000477,1084.4840000476688,308691.10000002384,2021-10-24T10:30:09.205Z,308702.738,1635071093,full,ni_sequenzen,NI_Sequenzen,2,4,,,,,,,,,,,,
,Move,canvas.Screen,0_3_0_4_0_2,left,response,,308695.40000009537,308686.071,308702.738,312838.3000000715,4135.5620000715135,312842.5,2021-10-24T10:30:13.357Z,312853.31,1635071093,full,ni_sequenzen,NI_Sequenzen,3,4,,,,,,,,,,,,
,Move,canvas.Screen,0_3_0_4_0_3,left,response,,312847.5,312836.643,312853.31,313603.2000000477,749.890000047686,313607.10000002384,2021-10-24T10:30:14.121Z,313653.326,1635071093,full,ni_sequenzen,NI_Sequenzen,4,4,,,,,,,,,,,,
,Move,canvas.Screen,0_3_0_4_0_4,-999,skipped,,313612.10000002384,,,313603.2000000477,,313612.2000000477,2021-10-24T10:30:14.126Z,313653.326,1635071093,full,ni_sequenzen,NI_Sequenzen,5,4,,,,,,,,,,,,
,Move,canvas.Screen,0_3_0_4_0_5,-999,skipped,,313615.2000000477,,,313603.2000000477,,313615.2000000477,2021-10-24T10:30:14.129Z,313653.326,1635071093,full,ni_sequenzen,NI_Sequenzen,6,4,,,,,,,,,,,,
,Move,canvas.Screen,0_3_0_4_0_6,-999,skipped,,313617.90000009537,,,313603.2000000477,,313618,2021-10-24T10:30:14.132Z,313653.326,1635071093,full,ni_sequenzen,NI_Sequenzen,7,4,,,,,,,,,,,,
,Move,canvas.Screen,0_3_0_4_0_7,-999,skipped,,313622.3000000715,,,313603.2000000477,,313622.3000000715,2021-10-24T10:30:14.137Z,313653.326,1635071093,full,ni_sequenzen,NI_Sequenzen,8,4,,,,,,,,,,,,
,Move,canvas.Screen,0_3_0_4_0_8,-999,skipped,,313624.5,,,313603.2000000477,,313624.5,2021-10-24T10:30:14.139Z,313653.326,1635071093,full,ni_sequenzen,NI_Sequenzen,9,4,,,,,,,,,,,,
,Move,canvas.Screen,0_3_0_4_0_9,-999,skipped,,313627,,,313603.2000000477,,313627,2021-10-24T10:30:14.141Z,313653.326,1635071093,full,ni_sequenzen,NI_Sequenzen,10,4,,,,,,,,,,,,
,Move,canvas.Screen,0_3_0_4_0_10,-999,skipped,,313630.2000000477,,,313603.2000000477,,313630.3000000715,2021-10-24T10:30:14.144Z,313653.326,1635071093,full,ni_sequenzen,NI_Sequenzen,11,4,,,,,,,,,,,,
,Move,canvas.Screen,0_3_0_4_0_11,-999,skipped,,313632.40000009537,,,313603.2000000477,,313632.40000009537,2021-10-24T10:30:14.147Z,313653.326,1635071093,full,ni_sequenzen,NI_Sequenzen,12,4,,,,,,,,,,,,
,Move,canvas.Screen,0_3_0_4_0_12,-999,skipped,,313634.5,,,313603.2000000477,,313634.5,2021-10-24T10:30:14.149Z,313653.326,1635071093,full,ni_sequenzen,NI_Sequenzen,13,4,,,,,,,,,,,,
,Move,canvas.Screen,0_3_0_4_0_13,-999,skipped,,313637.10000002384,,,313603.2000000477,,313637.3000000715,2021-10-24T10:30:14.151Z,313653.326,1635071093,full,ni_sequenzen,NI_Sequenzen,14,4,,,,,,,,,,,,
,Move,canvas.Screen,0_3_0_4_0_14,-999,skipped,,313639.3000000715,,,313603.2000000477,,313639.3000000715,2021-10-24T10:30:14.154Z,313653.326,1635071093,full,ni_sequenzen,NI_Sequenzen,15,4,,,,,,,,,,,,
,Loop,flow.Loop,0_3_0_4_0,-999,completion,,303317.40000009537,303319.297,303335.964,313603.2000000477,10267.236000047706,313639.5,2021-10-24T10:30:14.154Z,313653.326,1635071093,full,ni_sequenzen,NI_Sequenzen,,4,,,,,,,,,,,,
,Feedback,canvas.Screen,0_3_0_4_1,,timeout,,313641.3000000715,313636.659,313653.326,317636.739,4000.0800000000163,317639,2021-10-24T10:30:18.153Z,317653.406,1635071093,full,ni_sequenzen,NI_Sequenzen,,4,,,,,,,,,,,,
,Trial,flow.Sequence,0_3_0_4,,completion,,303307,303319.297,303335.964,317636.739,14300.775000000023,317639.2000000477,2021-10-24T10:30:18.153Z,317670.073,1635071093,full,ni_sequenzen,NI_Sequenzen,,4,,,,,,,,,,,,
,Move,canvas.Screen,0_3_0_5_0_0,down,response,,317653.7000000477,317653.406,317670.073,319317.8000000715,1647.7270000715507,319350.40000009537,2021-10-24T10:30:19.865Z,319370.107,1635071093,full,ni_sequenzen,NI_Sequenzen,1,5,,,,,,,,,,,,
,Move,canvas.Screen,0_3_0_5_0_1,right,response,,319363.90000009537,319353.44,319370.107,319903,532.8929999999818,319907,2021-10-24T10:30:20.421Z,319920.607,1635071093,full,ni_sequenzen,NI_Sequenzen,2,5,,,,,,,,,,,,
,Move,canvas.Screen,0_3_0_5_0_2,right,response,,319911.8000000715,319903.94,319920.607,320443,522.3929999999818,320446.8000000715,2021-10-24T10:30:20.961Z,320453.951,1635071093,full,ni_sequenzen,NI_Sequenzen,3,5,,,,,,,,,,,,
,Move,canvas.Screen,0_3_0_5_0_3,down,response,,320451.2000000477,320437.284,320453.951,320859.3000000715,405.34900007152464,320863.3000000715,2021-10-24T10:30:21.378Z,320903.96,1635071093,full,ni_sequenzen,NI_Sequenzen,4,5,,,,,,,,,,,,
,Move,canvas.Screen,0_3_0_5_0_4,-999,skipped,,320868.60000002384,,,320859.3000000715,,320868.8000000715,2021-10-24T10:30:21.383Z,320903.96,1635071093,full,ni_sequenzen,NI_Sequenzen,5,5,,,,,,,,,,,,
,Move,canvas.Screen,0_3_0_5_0_5,-999,skipped,,320871.7000000477,,,320859.3000000715,,320871.8000000715,2021-10-24T10:30:21.386Z,320903.96,1635071093,full,ni_sequenzen,NI_Sequenzen,6,5,,,,,,,,,,,,
,Move,canvas.Screen,0_3_0_5_0_6,-999,skipped,,320874.40000009537,,,320859.3000000715,,320874.5,2021-10-24T10:30:21.389Z,320903.96,1635071093,full,ni_sequenzen,NI_Sequenzen,7,5,,,,,,,,,,,,
,Move,canvas.Screen,0_3_0_5_0_7,-999,skipped,,320878.8000000715,,,320859.3000000715,,320878.90000009537,2021-10-24T10:30:21.393Z,320903.96,1635071093,full,ni_sequenzen,NI_Sequenzen,8,5,,,,,,,,,,,,
,Move,canvas.Screen,0_3_0_5_0_8,-999,skipped,,320880.90000009537,,,320859.3000000715,,320881.10000002384,2021-10-24T10:30:21.395Z,320903.96,1635071093,full,ni_sequenzen,NI_Sequenzen,9,5,,,,,,,,,,,,
,Move,canvas.Screen,0_3_0_5_0_9,-999,skipped,,320883.10000002384,,,320859.3000000715,,320883.2000000477,2021-10-24T10:30:21.398Z,320903.96,1635071093,full,ni_sequenzen,NI_Sequenzen,10,5,,,,,,,,,,,,
,Move,canvas.Screen,0_3_0_5_0_10,-999,skipped,,320885.90000009537,,,320859.3000000715,,320885.90000009537,2021-10-24T10:30:21.400Z,320903.96,1635071093,full,ni_sequenzen,NI_Sequenzen,11,5,,,,,,,,,,,,
,Move,canvas.Screen,0_3_0_5_0_11,-999,skipped,,320888,,,320859.3000000715,,320888.10000002384,2021-10-24T10:30:21.403Z,320903.96,1635071093,full,ni_sequenzen,NI_Sequenzen,12,5,,,,,,,,,,,,
,Move,canvas.Screen,0_3_0_5_0_12,-999,skipped,,320890.3000000715,,,320859.3000000715,,320890.40000009537,2021-10-24T10:30:21.405Z,320903.96,1635071093,full,ni_sequenzen,NI_Sequenzen,13,5,,,,,,,,,,,,
,Move,canvas.Screen,0_3_0_5_0_13,-999,skipped,,320893.10000002384,,,320859.3000000715,,320893.10000002384,2021-10-24T10:30:21.408Z,320903.96,1635071093,full,ni_sequenzen,NI_Sequenzen,14,5,,,,,,,,,,,,
,Move,canvas.Screen,0_3_0_5_0_14,-999,skipped,,320895.3000000715,,,320859.3000000715,,320895.3000000715,2021-10-24T10:30:21.410Z,320903.96,1635071093,full,ni_sequenzen,NI_Sequenzen,15,5,,,,,,,,,,,,
,Loop,flow.Loop,0_3_0_5_0,-999,completion,,317650.7000000477,317653.406,317670.073,320859.3000000715,3189.2270000715507,320895.5,2021-10-24T10:30:21.410Z,320903.96,1635071093,full,ni_sequenzen,NI_Sequenzen,,5,,,,,,,,,,,,
,Feedback,canvas.Screen,0_3_0_5_1,,timeout,,320897.3000000715,320887.293,320903.96,324887.373,4000.079999999958,324889.40000009537,2021-10-24T10:30:25.404Z,324904.04,1635071093,full,ni_sequenzen,NI_Sequenzen,,5,,,,,,,,,,,,
,Trial,flow.Sequence,0_3_0_5,,completion,,317639.60000002384,317653.406,317670.073,324887.373,7217.300000000047,324889.7000000477,2021-10-24T10:30:25.404Z,324920.707,1635071093,full,ni_sequenzen,NI_Sequenzen,,5,,,,,,,,,,,,
,Move,canvas.Screen,0_3_0_6_0_0,down,response,,324905.40000009537,324904.04,324920.707,333233.7000000477,8312.993000047689,333239.40000009537,2021-10-24T10:30:33.754Z,333287.541,1635071093,full,ni_sequenzen,NI_Sequenzen,1,6,,,,,,,,,,,,
,Move,canvas.Screen,0_3_0_6_0_1,right,response,,333248.3000000715,333270.874,333287.541,334201.10000002384,913.5590000238153,334204.7000000477,2021-10-24T10:30:34.720Z,334220.893,1635071093,full,ni_sequenzen,NI_Sequenzen,2,6,,,,,,,,,,,,
,Move,canvas.Screen,0_3_0_6_0_2,left,response,,334208.2000000477,334204.226,334220.893,334954.90000009537,734.0070000953856,334959.10000002384,2021-10-24T10:30:35.474Z,334971.681,1635071093,full,ni_sequenzen,NI_Sequenzen,3,6,,,,,,,,,,,,
,Move,canvas.Screen,0_3_0_6_0_3,right,response,,334963.90000009537,334955.014,334971.681,336484.90000009537,1513.2190000953851,336488.90000009537,2021-10-24T10:30:37.004Z,336605.047,1635071093,full,ni_sequenzen,NI_Sequenzen,4,6,,,,,,,,,,,,
,Move,canvas.Screen,0_3_0_6_0_4,-999,skipped,,336493.40000009537,,,336484.90000009537,,336493.40000009537,2021-10-24T10:30:37.008Z,336605.047,1635071093,full,ni_sequenzen,NI_Sequenzen,5,6,,,,,,,,,,,,
,Move,canvas.Screen,0_3_0_6_0_5,-999,skipped,,336497,,,336484.90000009537,,336497.2000000477,2021-10-24T10:30:37.012Z,336605.047,1635071093,full,ni_sequenzen,NI_Sequenzen,6,6,,,,,,,,,,,,
,Move,canvas.Screen,0_3_0_6_0_6,-999,skipped,,336507.2000000477,,,336484.90000009537,,336507.5,2021-10-24T10:30:37.022Z,336605.047,1635071093,full,ni_sequenzen,NI_Sequenzen,7,6,,,,,,,,,,,,
,Move,canvas.Screen,0_3_0_6_0_7,-999,skipped,,336512.8000000715,,,336484.90000009537,,336512.90000009537,2021-10-24T10:30:37.028Z,336605.047,1635071093,full,ni_sequenzen,NI_Sequenzen,8,6,,,,,,,,,,,,
,Move,canvas.Screen,0_3_0_6_0_8,-999,skipped,,336518,,,336484.90000009537,,336518.10000002384,2021-10-24T10:30:37.033Z,336605.047,1635071093,full,ni_sequenzen,NI_Sequenzen,9,6,,,,,,,,,,,,
,Move,canvas.Screen,0_3_0_6_0_9,-999,skipped,,336525.90000009537,,,336484.90000009537,,336526.10000002384,2021-10-24T10:30:37.041Z,336605.047,1635071093,full,ni_sequenzen,NI_Sequenzen,10,6,,,,,,,,,,,,
,Move,canvas.Screen,0_3_0_6_0_10,-999,skipped,,336533.2000000477,,,336484.90000009537,,336533.3000000715,2021-10-24T10:30:37.048Z,336605.047,1635071093,full,ni_sequenzen,NI_Sequenzen,11,6,,,,,,,,,,,,
,Move,canvas.Screen,0_3_0_6_0_11,-999,skipped,,336537.90000009537,,,336484.90000009537,,336538,2021-10-24T10:30:37.053Z,336605.047,1635071093,full,ni_sequenzen,NI_Sequenzen,12,6,,,,,,,,,,,,
,Move,canvas.Screen,0_3_0_6_0_12,-999,skipped,,336544.60000002384,,,336484.90000009537,,336544.7000000477,2021-10-24T10:30:37.060Z,336605.047,1635071093,full,ni_sequenzen,NI_Sequenzen,13,6,,,,,,,,,,,,
,Move,canvas.Screen,0_3_0_6_0_13,-999,skipped,,336552.10000002384,,,336484.90000009537,,336552.3000000715,2021-10-24T10:30:37.067Z,336605.047,1635071093,full,ni_sequenzen,NI_Sequenzen,14,6,,,,,,,,,,,,
,Move,canvas.Screen,0_3_0_6_0_14,-999,skipped,,336562.40000009537,,,336484.90000009537,,336562.5,2021-10-24T10:30:37.077Z,336605.047,1635071093,full,ni_sequenzen,NI_Sequenzen,15,6,,,,,,,,,,,,
,Loop,flow.Loop,0_3_0_6_0,-999,completion,,324899.8000000715,324904.04,324920.707,336484.90000009537,11564.193000095373,336562.8000000715,2021-10-24T10:30:37.078Z,336605.047,1635071093,full,ni_sequenzen,NI_Sequenzen,,6,,,,,,,,,,,,
,Feedback,canvas.Screen,0_3_0_6_1,,timeout,,336568.8000000715,336588.38,336605.047,340588.46,4000.079999999958,340590.60000002384,2021-10-24T10:30:41.106Z,340605.127,1635071093,full,ni_sequenzen,NI_Sequenzen,,6,,,,,,,,,,,,
,Trial,flow.Sequence,0_3_0_6,,completion,,324890.10000002384,324904.04,324920.707,340588.46,15667.753000000026,340590.8000000715,2021-10-24T10:30:41.106Z,340638.461,1635071093,full,ni_sequenzen,NI_Sequenzen,,6,,,,,,,,,,,,
,Move,canvas.Screen,0_3_0_7_0_0,left,response,,340605.10000002384,340605.127,340638.461,342683.3000000715,2044.8390000715153,342687.7000000477,2021-10-24T10:30:43.203Z,342705.169,1635071093,full,ni_sequenzen,NI_Sequenzen,1,7,,,,,,,,,,,,
,Move,canvas.Screen,0_3_0_7_0_1,left,response,,342692.60000002384,342688.502,342705.169,343538.40000009537,833.231000095373,343542.7000000477,2021-10-24T10:30:44.058Z,343555.186,1635071093,full,ni_sequenzen,NI_Sequenzen,2,7,,,,,,,,,,,,
,Move,canvas.Screen,0_3_0_7_0_2,down,response,,343547.7000000477,343538.519,343555.186,344010.90000009537,455.71400009538047,344014.8000000715,2021-10-24T10:30:44.530Z,344021.862,1635071093,full,ni_sequenzen,NI_Sequenzen,3,7,,,,,,,,,,,,
,Move,canvas.Screen,0_3_0_7_0_3,down,response,,344019.2000000477,344005.195,344021.862,344415.90000009537,394.0380000953446,344419.90000009537,2021-10-24T10:30:44.935Z,344472.37,1635071093,full,ni_sequenzen,NI_Sequenzen,4,7,,,,,,,,,,,,
,Move,canvas.Screen,0_3_0_7_0_4,-999,skipped,,344424.8000000715,,,344415.90000009537,,344424.90000009537,2021-10-24T10:30:44.940Z,344472.37,1635071093,full,ni_sequenzen,NI_Sequenzen,5,7,,,,,,,,,,,,
,Move,canvas.Screen,0_3_0_7_0_5,-999,skipped,,344427.8000000715,,,344415.90000009537,,344428,2021-10-24T10:30:44.943Z,344472.37,1635071093,full,ni_sequenzen,NI_Sequenzen,6,7,,,,,,,,,,,,
,Move,canvas.Screen,0_3_0_7_0_6,-999,skipped,,344430.7000000477,,,344415.90000009537,,344430.7000000477,2021-10-24T10:30:44.946Z,344472.37,1635071093,full,ni_sequenzen,NI_Sequenzen,7,7,,,,,,,,,,,,
,Move,canvas.Screen,0_3_0_7_0_7,-999,skipped,,344435.10000002384,,,344415.90000009537,,344435.2000000477,2021-10-24T10:30:44.950Z,344472.37,1635071093,full,ni_sequenzen,NI_Sequenzen,8,7,,,,,,,,,,,,
,Move,canvas.Screen,0_3_0_7_0_8,-999,skipped,,344437.3000000715,,,344415.90000009537,,344437.3000000715,2021-10-24T10:30:44.952Z,344472.37,1635071093,full,ni_sequenzen,NI_Sequenzen,9,7,,,,,,,,,,,,
,Move,canvas.Screen,0_3_0_7_0_9,-999,skipped,,344439.3000000715,,,344415.90000009537,,344439.5,2021-10-24T10:30:44.955Z,344472.37,1635071093,full,ni_sequenzen,NI_Sequenzen,10,7,,,,,,,,,,,,
,Move,canvas.Screen,0_3_0_7_0_10,-999,skipped,,344443.3000000715,,,344415.90000009537,,344443.40000009537,2021-10-24T10:30:44.958Z,344472.37,1635071093,full,ni_sequenzen,NI_Sequenzen,11,7,,,,,,,,,,,,
,Move,canvas.Screen,0_3_0_7_0_11,-999,skipped,,344445.60000002384,,,344415.90000009537,,344445.7000000477,2021-10-24T10:30:44.961Z,344472.37,1635071093,full,ni_sequenzen,NI_Sequenzen,12,7,,,,,,,,,,,,
,Move,canvas.Screen,0_3_0_7_0_12,-999,skipped,,344447.7000000477,,,344415.90000009537,,344447.8000000715,2021-10-24T10:30:44.963Z,344472.37,1635071093,full,ni_sequenzen,NI_Sequenzen,13,7,,,,,,,,,,,,
,Move,canvas.Screen,0_3_0_7_0_13,-999,skipped,,344450.40000009537,,,344415.90000009537,,344450.5,2021-10-24T10:30:44.966Z,344472.37,1635071093,full,ni_sequenzen,NI_Sequenzen,14,7,,,,,,,,,,,,
,Move,canvas.Screen,0_3_0_7_0_14,-999,skipped,,344452.60000002384,,,344415.90000009537,,344452.7000000477,2021-10-24T10:30:44.968Z,344472.37,1635071093,full,ni_sequenzen,NI_Sequenzen,15,7,,,,,,,,,,,,
,Loop,flow.Loop,0_3_0_7_0,-999,completion,,340602.2000000477,340605.127,340638.461,344415.90000009537,3777.439000095357,344452.8000000715,2021-10-24T10:30:44.968Z,344472.37,1635071093,full,ni_sequenzen,NI_Sequenzen,,7,,,,,,,,,,,,
,Feedback,canvas.Screen,0_3_0_7_1,,timeout,,344455.5,344455.703,344472.37,348455.783,4000.0800000000163,348459.5,2021-10-24T10:30:48.975Z,348472.45,1635071093,full,ni_sequenzen,NI_Sequenzen,,7,,,,,,,,,,,,
,Trial,flow.Sequence,0_3_0_7,,completion,,340591.2000000477,340605.127,340638.461,348455.783,7817.321999999986,348459.7000000477,2021-10-24T10:30:48.975Z,348489.117,1635071093,full,ni_sequenzen,NI_Sequenzen,,7,,,,,,,,,,,,
,Move,canvas.Screen,0_3_0_8_0_0,down,response,,348473.90000009537,348472.45,348489.117,358387.90000009537,9898.78300009534,358393.90000009537,2021-10-24T10:30:58.909Z,358439.316,1635071093,full,ni_sequenzen,NI_Sequenzen,1,8,,,,,,,,,,,,
,Move,canvas.Screen,0_3_0_8_0_1,right,response,,358402.40000009537,358422.649,358439.316,364631.40000009537,6192.084000095376,364635.8000000715,2021-10-24T10:31:05.151Z,364656.107,1635071093,full,ni_sequenzen,NI_Sequenzen,2,8,,,,,,,,,,,,
,Move,canvas.Screen,0_3_0_8_0_2,right,response,,364640.3000000715,364639.44,364656.107,365148.7000000477,492.59300004766556,365152.5,2021-10-24T10:31:05.668Z,365190.137,1635071093,full,ni_sequenzen,NI_Sequenzen,3,8,,,,,,,,,,,,
,Move,canvas.Screen,0_3_0_8_0_3,down,response,,365163,365173.47,365190.137,365520.10000002384,329.96300002385397,365524,2021-10-24T10:31:06.040Z,365573.478,1635071093,full,ni_sequenzen,NI_Sequenzen,4,8,,,,,,,,,,,,
,Move,canvas.Screen,0_3_0_8_0_4,-999,skipped,,365528.5,,,365520.10000002384,,365528.60000002384,2021-10-24T10:31:06.044Z,365573.478,1635071093,full,ni_sequenzen,NI_Sequenzen,5,8,,,,,,,,,,,,
,Move,canvas.Screen,0_3_0_8_0_5,-999,skipped,,365531.5,,,365520.10000002384,,365531.60000002384,2021-10-24T10:31:06.047Z,365573.478,1635071093,full,ni_sequenzen,NI_Sequenzen,6,8,,,,,,,,,,,,
,Move,canvas.Screen,0_3_0_8_0_6,-999,skipped,,365536.8000000715,,,365520.10000002384,,365536.90000009537,2021-10-24T10:31:06.053Z,365573.478,1635071093,full,ni_sequenzen,NI_Sequenzen,7,8,,,,,,,,,,,,
,Move,canvas.Screen,0_3_0_8_0_7,-999,skipped,,365539,,,365520.10000002384,,365539.2000000477,2021-10-24T10:31:06.055Z,365573.478,1635071093,full,ni_sequenzen,NI_Sequenzen,8,8,,,,,,,,,,,,
