meta,sender,sender_type,sender_id,response,ended_on,instrCount,time_run,time_render,time_show,time_end,duration,time_commit,timestamp,time_switch,openLabId,type,task,project,move,trialN,blockN_Train,blockN,moveCount,currPP,points,movesTrial,visitedFields,diff,reward,Strategie,Zweck,Probleme
[object Object],Screen_1,canvas.Screen,0_0_0_0,cont,response,1,1217,1217.32,1238.8,16864,15625.2,16871,2021-10-27T21:58:06.794Z,17019.46,1635371812,full,ni_sequenzen,NI_Sequenzen,,,,,,,,,,,,,,
,Screen_2,canvas.Screen,0_0_0_1,cont,response,1,17008,17008.26,17019.46,35161,18141.54,35176,2021-10-27T21:58:25.099Z,35274.7,1635371812,full,ni_sequenzen,NI_Sequenzen,,,,,,,,,,,,,,
,Screen_3,canvas.Screen,0_0_0_2,cont,response,1,35264,35264.42,35274.7,55769,20494.300000000003,55780,2021-10-27T21:58:45.703Z,55787.96,1635371812,full,ni_sequenzen,NI_Sequenzen,,,,,,,,,,,,,,
,Screen_4,canvas.Screen,0_0_0_3,cont,response,1,55785,55785.38,55787.96,66255,10467.04,66270,2021-10-27T21:58:56.194Z,66511.14,1635371812,full,ni_sequenzen,NI_Sequenzen,,,,,,,,,,,,,,
,Sequence,flow.Sequence,0_0_0,,completion,1,1090,1217.32,1238.8,66255,65016.2,66272,2021-10-27T21:58:56.196Z,66511.14,1635371812,full,ni_sequenzen,NI_Sequenzen,,,,,,,,,,,,,,
,Screen_1,canvas.Screen,0_0_1_0,,skipped,2,66281,,,66281,,66281,2021-10-27T21:58:56.205Z,66511.14,1635371812,full,ni_sequenzen,NI_Sequenzen,,,,,,,,,,,,,,
,Screen_2,canvas.Screen,0_0_1_1,,skipped,2,66288,,,66281,,66288,2021-10-27T21:58:56.211Z,66511.14,1635371812,full,ni_sequenzen,NI_Sequenzen,,,,,,,,,,,,,,
,Screen_3,canvas.Screen,0_0_1_2,,skipped,2,66293,,,66281,,66294,2021-10-27T21:58:56.217Z,66511.14,1635371812,full,ni_sequenzen,NI_Sequenzen,,,,,,,,,,,,,,
,Screen_4,canvas.Screen,0_0_1_3,,skipped,2,66298,,,66281,,66298,2021-10-27T21:58:56.221Z,66511.14,1635371812,full,ni_sequenzen,NI_Sequenzen,,,,,,,,,,,,,,
,Sequence,flow.Sequence,0_0_1,,completion,2,66276,,,66281,,66299,2021-10-27T21:58:56.222Z,66511.14,1635371812,full,ni_sequenzen,NI_Sequenzen,,,,,,,,,,,,,,
,Screen_1,canvas.Screen,0_0_2_0,,skipped,3,66303,,,66303,,66303,2021-10-27T21:58:56.227Z,66511.14,1635371812,full,ni_sequenzen,NI_Sequenzen,,,,,,,,,,,,,,
,Screen_2,canvas.Screen,0_0_2_1,,skipped,3,66306,,,66303,,66306,2021-10-27T21:58:56.230Z,66511.14,1635371812,full,ni_sequenzen,NI_Sequenzen,,,,,,,,,,,,,,
,Screen_3,canvas.Screen,0_0_2_2,,skipped,3,66309,,,66303,,66309,2021-10-27T21:58:56.233Z,66511.14,1635371812,full,ni_sequenzen,NI_Sequenzen,,,,,,,,,,,,,,
,Screen_4,canvas.Screen,0_0_2_3,,skipped,3,66312,,,66303,,66312,2021-10-27T21:58:56.236Z,66511.14,1635371812,full,ni_sequenzen,NI_Sequenzen,,,,,,,,,,,,,,
,Sequence,flow.Sequence,0_0_2,,completion,3,66300,,,66303,,66313,2021-10-27T21:58:56.236Z,66511.14,1635371812,full,ni_sequenzen,NI_Sequenzen,,,,,,,,,,,,,,
,Screen_1,canvas.Screen,0_0_3_0,,skipped,4,66317,,,66317,,66318,2021-10-27T21:58:56.240Z,66511.14,1635371812,full,ni_sequenzen,NI_Sequenzen,,,,,,,,,,,,,,
,Screen_2,canvas.Screen,0_0_3_1,,skipped,4,66320,,,66317,,66320,2021-10-27T21:58:56.243Z,66511.14,1635371812,full,ni_sequenzen,NI_Sequenzen,,,,,,,,,,,,,,
,Screen_3,canvas.Screen,0_0_3_2,,skipped,4,66322,,,66317,,66322,2021-10-27T21:58:56.246Z,66511.14,1635371812,full,ni_sequenzen,NI_Sequenzen,,,,,,,,,,,,,,
,Screen_4,canvas.Screen,0_0_3_3,,skipped,4,66325,,,66317,,66325,2021-10-27T21:58:56.248Z,66511.14,1635371812,full,ni_sequenzen,NI_Sequenzen,,,,,,,,,,,,,,
,Sequence,flow.Sequence,0_0_3,,completion,4,66314,,,66317,,66325,2021-10-27T21:58:56.248Z,66511.14,1635371812,full,ni_sequenzen,NI_Sequenzen,,,,,,,,,,,,,,
,Screen_1,canvas.Screen,0_0_4_0,,skipped,5,66328,,,66328,,66329,2021-10-27T21:58:56.252Z,66511.14,1635371812,full,ni_sequenzen,NI_Sequenzen,,,,,,,,,,,,,,
,Screen_2,canvas.Screen,0_0_4_1,,skipped,5,66331,,,66328,,66331,2021-10-27T21:58:56.254Z,66511.14,1635371812,full,ni_sequenzen,NI_Sequenzen,,,,,,,,,,,,,,
,Screen_3,canvas.Screen,0_0_4_2,,skipped,5,66333,,,66328,,66333,2021-10-27T21:58:56.256Z,66511.14,1635371812,full,ni_sequenzen,NI_Sequenzen,,,,,,,,,,,,,,
,Screen_4,canvas.Screen,0_0_4_3,,skipped,5,66336,,,66328,,66336,2021-10-27T21:58:56.260Z,66511.14,1635371812,full,ni_sequenzen,NI_Sequenzen,,,,,,,,,,,,,,
,Sequence,flow.Sequence,0_0_4,,completion,5,66326,,,66328,,66336,2021-10-27T21:58:56.260Z,66511.14,1635371812,full,ni_sequenzen,NI_Sequenzen,,,,,,,,,,,,,,
,Screen_1,canvas.Screen,0_0_5_0,,skipped,6,66339,,,66339,,66339,2021-10-27T21:58:56.262Z,66511.14,1635371812,full,ni_sequenzen,NI_Sequenzen,,,,,,,,,,,,,,
,Screen_2,canvas.Screen,0_0_5_1,,skipped,6,66341,,,66339,,66341,2021-10-27T21:58:56.264Z,66511.14,1635371812,full,ni_sequenzen,NI_Sequenzen,,,,,,,,,,,,,,
,Screen_3,canvas.Screen,0_0_5_2,,skipped,6,66343,,,66339,,66343,2021-10-27T21:58:56.267Z,66511.14,1635371812,full,ni_sequenzen,NI_Sequenzen,,,,,,,,,,,,,,
,Screen_4,canvas.Screen,0_0_5_3,,skipped,6,66345,,,66339,,66345,2021-10-27T21:58:56.269Z,66511.14,1635371812,full,ni_sequenzen,NI_Sequenzen,,,,,,,,,,,,,,
,Sequence,flow.Sequence,0_0_5,,completion,6,66337,,,66339,,66346,2021-10-27T21:58:56.269Z,66511.14,1635371812,full,ni_sequenzen,NI_Sequenzen,,,,,,,,,,,,,,
,Screen_1,canvas.Screen,0_0_6_0,,skipped,7,66348,,,66348,,66348,2021-10-27T21:58:56.272Z,66511.14,1635371812,full,ni_sequenzen,NI_Sequenzen,,,,,,,,,,,,,,
,Screen_2,canvas.Screen,0_0_6_1,,skipped,7,66350,,,66348,,66350,2021-10-27T21:58:56.274Z,66511.14,1635371812,full,ni_sequenzen,NI_Sequenzen,,,,,,,,,,,,,,
,Screen_3,canvas.Screen,0_0_6_2,,skipped,7,66353,,,66348,,66353,2021-10-27T21:58:56.276Z,66511.14,1635371812,full,ni_sequenzen,NI_Sequenzen,,,,,,,,,,,,,,
,Screen_4,canvas.Screen,0_0_6_3,,skipped,7,66354,,,66348,,66354,2021-10-27T21:58:56.278Z,66511.14,1635371812,full,ni_sequenzen,NI_Sequenzen,,,,,,,,,,,,,,
,Sequence,flow.Sequence,0_0_6,,completion,7,66347,,,66348,,66355,2021-10-27T21:58:56.278Z,66511.14,1635371812,full,ni_sequenzen,NI_Sequenzen,,,,,,,,,,,,,,
,Screen_1,canvas.Screen,0_0_7_0,,skipped,8,66357,,,66357,,66357,2021-10-27T21:58:56.281Z,66511.14,1635371812,full,ni_sequenzen,NI_Sequenzen,,,,,,,,,,,,,,
,Screen_2,canvas.Screen,0_0_7_1,,skipped,8,66359,,,66357,,66359,2021-10-27T21:58:56.283Z,66511.14,1635371812,full,ni_sequenzen,NI_Sequenzen,,,,,,,,,,,,,,
,Screen_3,canvas.Screen,0_0_7_2,,skipped,8,66361,,,66357,,66361,2021-10-27T21:58:56.285Z,66511.14,1635371812,full,ni_sequenzen,NI_Sequenzen,,,,,,,,,,,,,,
,Screen_4,canvas.Screen,0_0_7_3,,skipped,8,66364,,,66357,,66364,2021-10-27T21:58:56.287Z,66511.14,1635371812,full,ni_sequenzen,NI_Sequenzen,,,,,,,,,,,,,,
,Sequence,flow.Sequence,0_0_7,,completion,8,66356,,,66357,,66364,2021-10-27T21:58:56.287Z,66511.14,1635371812,full,ni_sequenzen,NI_Sequenzen,,,,,,,,,,,,,,
,Screen_1,canvas.Screen,0_0_8_0,,skipped,9,66366,,,66366,,66366,2021-10-27T21:58:56.290Z,66511.14,1635371812,full,ni_sequenzen,NI_Sequenzen,,,,,,,,,,,,,,
,Screen_2,canvas.Screen,0_0_8_1,,skipped,9,66369,,,66366,,66369,2021-10-27T21:58:56.293Z,66511.14,1635371812,full,ni_sequenzen,NI_Sequenzen,,,,,,,,,,,,,,
,Screen_3,canvas.Screen,0_0_8_2,,skipped,9,66372,,,66366,,66372,2021-10-27T21:58:56.296Z,66511.14,1635371812,full,ni_sequenzen,NI_Sequenzen,,,,,,,,,,,,,,
,Screen_4,canvas.Screen,0_0_8_3,,skipped,9,66375,,,66366,,66375,2021-10-27T21:58:56.298Z,66511.14,1635371812,full,ni_sequenzen,NI_Sequenzen,,,,,,,,,,,,,,
,Sequence,flow.Sequence,0_0_8,,completion,9,66364,,,66366,,66375,2021-10-27T21:58:56.298Z,66511.14,1635371812,full,ni_sequenzen,NI_Sequenzen,,,,,,,,,,,,,,
,Screen_1,canvas.Screen,0_0_9_0,,skipped,10,66377,,,66377,,66377,2021-10-27T21:58:56.300Z,66511.14,1635371812,full,ni_sequenzen,NI_Sequenzen,,,,,,,,,,,,,,
,Screen_2,canvas.Screen,0_0_9_1,,skipped,10,66378,,,66377,,66379,2021-10-27T21:58:56.302Z,66511.14,1635371812,full,ni_sequenzen,NI_Sequenzen,,,,,,,,,,,,,,
,Screen_3,canvas.Screen,0_0_9_2,,skipped,10,66381,,,66377,,66381,2021-10-27T21:58:56.305Z,66511.14,1635371812,full,ni_sequenzen,NI_Sequenzen,,,,,,,,,,,,,,
,Screen_4,canvas.Screen,0_0_9_3,,skipped,10,66383,,,66377,,66383,2021-10-27T21:58:56.307Z,66511.14,1635371812,full,ni_sequenzen,NI_Sequenzen,,,,,,,,,,,,,,
,Sequence,flow.Sequence,0_0_9,,completion,10,66375,,,66377,,66383,2021-10-27T21:58:56.307Z,66511.14,1635371812,full,ni_sequenzen,NI_Sequenzen,,,,,,,,,,,,,,
,Screen_1,canvas.Screen,0_0_10_0,,skipped,11,66385,,,66385,,66385,2021-10-27T21:58:56.309Z,66511.14,1635371812,full,ni_sequenzen,NI_Sequenzen,,,,,,,,,,,,,,
,Screen_2,canvas.Screen,0_0_10_1,,skipped,11,66386,,,66385,,66386,2021-10-27T21:58:56.310Z,66511.14,1635371812,full,ni_sequenzen,NI_Sequenzen,,,,,,,,,,,,,,
,Screen_3,canvas.Screen,0_0_10_2,,skipped,11,66388,,,66385,,66388,2021-10-27T21:58:56.312Z,66511.14,1635371812,full,ni_sequenzen,NI_Sequenzen,,,,,,,,,,,,,,
,Screen_4,canvas.Screen,0_0_10_3,,skipped,11,66390,,,66385,,66390,2021-10-27T21:58:56.314Z,66511.14,1635371812,full,ni_sequenzen,NI_Sequenzen,,,,,,,,,,,,,,
,Sequence,flow.Sequence,0_0_10,,completion,11,66383,,,66385,,66391,2021-10-27T21:58:56.314Z,66511.14,1635371812,full,ni_sequenzen,NI_Sequenzen,,,,,,,,,,,,,,
,Screen_1,canvas.Screen,0_0_11_0,,skipped,12,66393,,,66393,,66393,2021-10-27T21:58:56.316Z,66511.14,1635371812,full,ni_sequenzen,NI_Sequenzen,,,,,,,,,,,,,,
,Screen_2,canvas.Screen,0_0_11_1,,skipped,12,66395,,,66393,,66395,2021-10-27T21:58:56.318Z,66511.14,1635371812,full,ni_sequenzen,NI_Sequenzen,,,,,,,,,,,,,,
,Screen_3,canvas.Screen,0_0_11_2,,skipped,12,66396,,,66393,,66396,2021-10-27T21:58:56.320Z,66511.14,1635371812,full,ni_sequenzen,NI_Sequenzen,,,,,,,,,,,,,,
,Screen_4,canvas.Screen,0_0_11_3,,skipped,12,66397,,,66393,,66398,2021-10-27T21:58:56.321Z,66511.14,1635371812,full,ni_sequenzen,NI_Sequenzen,,,,,,,,,,,,,,
,Sequence,flow.Sequence,0_0_11,,completion,12,66391,,,66393,,66398,2021-10-27T21:58:56.321Z,66511.14,1635371812,full,ni_sequenzen,NI_Sequenzen,,,,,,,,,,,,,,
,Screen_1,canvas.Screen,0_0_12_0,,skipped,13,66400,,,66400,,66400,2021-10-27T21:58:56.323Z,66511.14,1635371812,full,ni_sequenzen,NI_Sequenzen,,,,,,,,,,,,,,
,Screen_2,canvas.Screen,0_0_12_1,,skipped,13,66401,,,66400,,66401,2021-10-27T21:58:56.325Z,66511.14,1635371812,full,ni_sequenzen,NI_Sequenzen,,,,,,,,,,,,,,
,Screen_3,canvas.Screen,0_0_12_2,,skipped,13,66403,,,66400,,66403,2021-10-27T21:58:56.326Z,66511.14,1635371812,full,ni_sequenzen,NI_Sequenzen,,,,,,,,,,,,,,
,Screen_4,canvas.Screen,0_0_12_3,,skipped,13,66405,,,66400,,66405,2021-10-27T21:58:56.328Z,66511.14,1635371812,full,ni_sequenzen,NI_Sequenzen,,,,,,,,,,,,,,
,Sequence,flow.Sequence,0_0_12,,completion,13,66398,,,66400,,66405,2021-10-27T21:58:56.329Z,66511.14,1635371812,full,ni_sequenzen,NI_Sequenzen,,,,,,,,,,,,,,
,Screen_1,canvas.Screen,0_0_13_0,,skipped,14,66407,,,66407,,66407,2021-10-27T21:58:56.330Z,66511.14,1635371812,full,ni_sequenzen,NI_Sequenzen,,,,,,,,,,,,,,
,Screen_2,canvas.Screen,0_0_13_1,,skipped,14,66408,,,66407,,66408,2021-10-27T21:58:56.332Z,66511.14,1635371812,full,ni_sequenzen,NI_Sequenzen,,,,,,,,,,,,,,
,Screen_3,canvas.Screen,0_0_13_2,,skipped,14,66410,,,66407,,66410,2021-10-27T21:58:56.333Z,66511.14,1635371812,full,ni_sequenzen,NI_Sequenzen,,,,,,,,,,,,,,
,Screen_4,canvas.Screen,0_0_13_3,,skipped,14,66412,,,66407,,66412,2021-10-27T21:58:56.335Z,66511.14,1635371812,full,ni_sequenzen,NI_Sequenzen,,,,,,,,,,,,,,
,Sequence,flow.Sequence,0_0_13,,completion,14,66405,,,66407,,66412,2021-10-27T21:58:56.336Z,66511.14,1635371812,full,ni_sequenzen,NI_Sequenzen,,,,,,,,,,,,,,
,Screen_1,canvas.Screen,0_0_14_0,,skipped,15,66414,,,66414,,66414,2021-10-27T21:58:56.338Z,66511.14,1635371812,full,ni_sequenzen,NI_Sequenzen,,,,,,,,,,,,,,
,Screen_2,canvas.Screen,0_0_14_1,,skipped,15,66416,,,66414,,66416,2021-10-27T21:58:56.340Z,66511.14,1635371812,full,ni_sequenzen,NI_Sequenzen,,,,,,,,,,,,,,
,Screen_3,canvas.Screen,0_0_14_2,,skipped,15,66417,,,66414,,66418,2021-10-27T21:58:56.341Z,66511.14,1635371812,full,ni_sequenzen,NI_Sequenzen,,,,,,,,,,,,,,
,Screen_4,canvas.Screen,0_0_14_3,,skipped,15,66419,,,66414,,66419,2021-10-27T21:58:56.343Z,66511.14,1635371812,full,ni_sequenzen,NI_Sequenzen,,,,,,,,,,,,,,
,Sequence,flow.Sequence,0_0_14,,completion,15,66413,,,66414,,66419,2021-10-27T21:58:56.343Z,66511.14,1635371812,full,ni_sequenzen,NI_Sequenzen,,,,,,,,,,,,,,
,Screen_1,canvas.Screen,0_0_15_0,,skipped,16,66421,,,66421,,66421,2021-10-27T21:58:56.345Z,66511.14,1635371812,full,ni_sequenzen,NI_Sequenzen,,,,,,,,,,,,,,
,Screen_2,canvas.Screen,0_0_15_1,,skipped,16,66423,,,66421,,66423,2021-10-27T21:58:56.346Z,66511.14,1635371812,full,ni_sequenzen,NI_Sequenzen,,,,,,,,,,,,,,
,Screen_3,canvas.Screen,0_0_15_2,,skipped,16,66424,,,66421,,66424,2021-10-27T21:58:56.347Z,66511.14,1635371812,full,ni_sequenzen,NI_Sequenzen,,,,,,,,,,,,,,
,Screen_4,canvas.Screen,0_0_15_3,,skipped,16,66426,,,66421,,66426,2021-10-27T21:58:56.349Z,66511.14,1635371812,full,ni_sequenzen,NI_Sequenzen,,,,,,,,,,,,,,
,Sequence,flow.Sequence,0_0_15,,completion,16,66420,,,66421,,66426,2021-10-27T21:58:56.349Z,66511.14,1635371812,full,ni_sequenzen,NI_Sequenzen,,,,,,,,,,,,,,
,Screen_1,canvas.Screen,0_0_16_0,,skipped,17,66428,,,66428,,66428,2021-10-27T21:58:56.352Z,66511.14,1635371812,full,ni_sequenzen,NI_Sequenzen,,,,,,,,,,,,,,
,Screen_2,canvas.Screen,0_0_16_1,,skipped,17,66431,,,66428,,66431,2021-10-27T21:58:56.355Z,66511.14,1635371812,full,ni_sequenzen,NI_Sequenzen,,,,,,,,,,,,,,
,Screen_3,canvas.Screen,0_0_16_2,,skipped,17,66434,,,66428,,66434,2021-10-27T21:58:56.358Z,66511.14,1635371812,full,ni_sequenzen,NI_Sequenzen,,,,,,,,,,,,,,
,Screen_4,canvas.Screen,0_0_16_3,,skipped,17,66437,,,66428,,66437,2021-10-27T21:58:56.360Z,66511.14,1635371812,full,ni_sequenzen,NI_Sequenzen,,,,,,,,,,,,,,
,Sequence,flow.Sequence,0_0_16,,completion,17,66427,,,66428,,66437,2021-10-27T21:58:56.361Z,66511.14,1635371812,full,ni_sequenzen,NI_Sequenzen,,,,,,,,,,,,,,
,Screen_1,canvas.Screen,0_0_17_0,,skipped,18,66440,,,66440,,66441,2021-10-27T21:58:56.364Z,66511.14,1635371812,full,ni_sequenzen,NI_Sequenzen,,,,,,,,,,,,,,
,Screen_2,canvas.Screen,0_0_17_1,,skipped,18,66443,,,66440,,66443,2021-10-27T21:58:56.367Z,66511.14,1635371812,full,ni_sequenzen,NI_Sequenzen,,,,,,,,,,,,,,
,Screen_3,canvas.Screen,0_0_17_2,,skipped,18,66446,,,66440,,66446,2021-10-27T21:58:56.369Z,66511.14,1635371812,full,ni_sequenzen,NI_Sequenzen,,,,,,,,,,,,,,
,Screen_4,canvas.Screen,0_0_17_3,,skipped,18,66448,,,66440,,66448,2021-10-27T21:58:56.372Z,66511.14,1635371812,full,ni_sequenzen,NI_Sequenzen,,,,,,,,,,,,,,
,Sequence,flow.Sequence,0_0_17,,completion,18,66438,,,66440,,66448,2021-10-27T21:58:56.372Z,66511.14,1635371812,full,ni_sequenzen,NI_Sequenzen,,,,,,,,,,,,,,
,Screen_1,canvas.Screen,0_0_18_0,,skipped,19,66452,,,66452,,66452,2021-10-27T21:58:56.375Z,66511.14,1635371812,full,ni_sequenzen,NI_Sequenzen,,,,,,,,,,,,,,
,Screen_2,canvas.Screen,0_0_18_1,,skipped,19,66454,,,66452,,66454,2021-10-27T21:58:56.378Z,66511.14,1635371812,full,ni_sequenzen,NI_Sequenzen,,,,,,,,,,,,,,
,Screen_3,canvas.Screen,0_0_18_2,,skipped,19,66456,,,66452,,66456,2021-10-27T21:58:56.380Z,66511.14,1635371812,full,ni_sequenzen,NI_Sequenzen,,,,,,,,,,,,,,
,Screen_4,canvas.Screen,0_0_18_3,,skipped,19,66458,,,66452,,66458,2021-10-27T21:58:56.382Z,66511.14,1635371812,full,ni_sequenzen,NI_Sequenzen,,,,,,,,,,,,,,
,Sequence,flow.Sequence,0_0_18,,completion,19,66450,,,66452,,66459,2021-10-27T21:58:56.382Z,66511.14,1635371812,full,ni_sequenzen,NI_Sequenzen,,,,,,,,,,,,,,
,Screen_1,canvas.Screen,0_0_19_0,,skipped,20,66462,,,66462,,66462,2021-10-27T21:58:56.384Z,66511.14,1635371812,full,ni_sequenzen,NI_Sequenzen,,,,,,,,,,,,,,
,Screen_2,canvas.Screen,0_0_19_1,,skipped,20,66463,,,66462,,66463,2021-10-27T21:58:56.387Z,66511.14,1635371812,full,ni_sequenzen,NI_Sequenzen,,,,,,,,,,,,,,
,Screen_3,canvas.Screen,0_0_19_2,,skipped,20,66466,,,66462,,66466,2021-10-27T21:58:56.389Z,66511.14,1635371812,full,ni_sequenzen,NI_Sequenzen,,,,,,,,,,,,,,
,Screen_4,canvas.Screen,0_0_19_3,,skipped,20,66468,,,66462,,66468,2021-10-27T21:58:56.391Z,66511.14,1635371812,full,ni_sequenzen,NI_Sequenzen,,,,,,,,,,,,,,
,Sequence,flow.Sequence,0_0_19,,completion,20,66460,,,66462,,66469,2021-10-27T21:58:56.391Z,66511.14,1635371812,full,ni_sequenzen,NI_Sequenzen,,,,,,,,,,,,,,
,Instructions_I,flow.Loop,0_0,,completion,,1088,1217.32,1238.8,66462,65223.2,66469,2021-10-27T21:58:56.393Z,66511.14,1635371812,full,ni_sequenzen,NI_Sequenzen,,,,,,,,,,,,,,
,Move,canvas.Screen,0_1_0_0,right,response,,66498,66497.7,66511.14,68114,1602.8600000000006,68124,2021-10-27T21:58:58.047Z,68131.1,1635371812,full,ni_sequenzen,NI_Sequenzen,1,,,,,,,,,,,,,
,Move,canvas.Screen,0_1_0_1,left,response,,68131,68130.88,68131.1,68708,576.8999999999942,68711,2021-10-27T21:58:58.634Z,68718.92,1635371812,full,ni_sequenzen,NI_Sequenzen,2,,,,,,,,,,,,,
,Move,canvas.Screen,0_1_0_2,down,response,,68719,68718.66,68718.92,69083,364.08000000000175,69097,2021-10-27T21:58:59.020Z,69103.78,1635371812,full,ni_sequenzen,NI_Sequenzen,3,,,,,,,,,,,,,
,Move,canvas.Screen,0_1_0_3,left,response,,69103,69103.48,69103.78,69441,337.22000000000116,69455,2021-10-27T21:58:59.378Z,69461.88,1635371812,full,ni_sequenzen,NI_Sequenzen,4,,,,,,,,,,,,,
,Move,canvas.Screen,0_1_0_4,down,response,,69461,69461.68,69461.88,69708,246.11999999999534,69713,2021-10-27T21:58:59.637Z,69721.38,1635371812,full,ni_sequenzen,NI_Sequenzen,5,,,,,,,,,,,,,
,Move,canvas.Screen,0_1_0_5,left,response,,69720,69721,69721.38,69989,267.61999999999534,69995,2021-10-27T21:58:59.918Z,70001.68,1635371812,full,ni_sequenzen,NI_Sequenzen,6,,,,,,,,,,,,,
,Move,canvas.Screen,0_1_0_6,down,response,,70001,70001.4,70001.68,70161,159.32000000000698,70176,2021-10-27T21:59:00.099Z,70183.08,1635371812,full,ni_sequenzen,NI_Sequenzen,7,,,,,,,,,,,,,
,Move,canvas.Screen,0_1_0_7,down,response,,70182,70182.82,70183.08,70474,290.91999999999825,70483,2021-10-27T21:59:00.406Z,70489.82,1635371812,full,ni_sequenzen,NI_Sequenzen,8,,,,,,,,,,,,,
,Move,canvas.Screen,0_1_0_8,down,response,,70490,70489.56,70489.82,70661,171.17999999999302,70676,2021-10-27T21:59:00.600Z,70683.38,1635371812,full,ni_sequenzen,NI_Sequenzen,9,,,,,,,,,,,,,
,Move,canvas.Screen,0_1_0_9,right,response,,70683,70682.98,70683.38,71802,1118.6199999999953,71806,2021-10-27T21:59:01.730Z,71818.58,1635371812,full,ni_sequenzen,NI_Sequenzen,10,,,,,,,,,,,,,
,Move,canvas.Screen,0_1_0_10,right,response,,71813,71813.02,71818.58,72005,186.41999999999825,72020,2021-10-27T21:59:01.943Z,72026.78,1635371812,full,ni_sequenzen,NI_Sequenzen,11,,,,,,,,,,,,,
,Move,canvas.Screen,0_1_0_11,down,response,,72026,72026.48,72026.78,72177,150.22000000000116,72189,2021-10-27T21:59:02.112Z,72195.68,1635371812,full,ni_sequenzen,NI_Sequenzen,12,,,,,,,,,,,,,
,Move,canvas.Screen,0_1_0_12,right,response,,72195,72195.38,72195.68,72411,215.32000000000698,72414,2021-10-27T21:59:02.337Z,72419.96,1635371812,full,ni_sequenzen,NI_Sequenzen,13,,,,,,,,,,,,,
,Move,canvas.Screen,0_1_0_13,down,response,,72419,72419.74,72419.96,72582,162.0399999999936,72597,2021-10-27T21:59:02.521Z,72603.52,1635371812,full,ni_sequenzen,NI_Sequenzen,14,,,,,,,,,,,,,
,Move,canvas.Screen,0_1_0_14,right,response,,72603,72603.24,72603.52,72786,182.47999999999593,72795,2021-10-27T21:59:02.718Z,72801.34,1635371812,full,ni_sequenzen,NI_Sequenzen,15,,,,,,,,,,,,,
,Move,canvas.Screen,0_1_0_15,down,response,,72801,72801.08,72801.34,73020,218.6600000000035,73027,2021-10-27T21:59:02.950Z,73033.02,1635371812,full,ni_sequenzen,NI_Sequenzen,16,,,,,,,,,,,,,
,Move,canvas.Screen,0_1_0_16,down,response,,73033,73032.8,73033.02,73489,455.9799999999959,73491,2021-10-27T21:59:03.414Z,73497.94,1635371812,full,ni_sequenzen,NI_Sequenzen,17,,,,,,,,,,,,,
,Move,canvas.Screen,0_1_0_17,left,response,,73498,73497.68,73497.94,73661,163.05999999999767,73673,2021-10-27T21:59:03.596Z,73679.54,1635371812,full,ni_sequenzen,NI_Sequenzen,18,,,,,,,,,,,,,
,Move,canvas.Screen,0_1_0_18,down,response,,73679,73679.22,73679.54,73894,214.4600000000064,73904,2021-10-27T21:59:03.828Z,73912.6,1635371812,full,ni_sequenzen,NI_Sequenzen,19,,,,,,,,,,,,,
,Move,canvas.Screen,0_1_0_19,left,response,,73913,73912.32,73912.6,75613,1700.3999999999942,75615,2021-10-27T21:59:05.539Z,75621.96,1635371812,full,ni_sequenzen,NI_Sequenzen,20,,,,,,,,,,,,,
,Move,canvas.Screen,0_1_0_20,left,response,,75622,75621.74,75621.96,75786,164.0399999999936,75794,2021-10-27T21:59:05.718Z,75801.26,1635371812,full,ni_sequenzen,NI_Sequenzen,21,,,,,,,,,,,,,
,Move,canvas.Screen,0_1_0_21,right,response,,75801,75801.04,75801.26,77192,1390.7400000000052,77199,2021-10-27T21:59:07.122Z,77205.2,1635371812,full,ni_sequenzen,NI_Sequenzen,22,,,,,,,,,,,,,
,Move,canvas.Screen,0_1_0_22,down,response,,77205,77204.92,77205.2,77316,110.80000000000291,77329,2021-10-27T21:59:07.252Z,77334.34,1635371812,full,ni_sequenzen,NI_Sequenzen,23,,,,,,,,,,,,,
,Move,canvas.Screen,0_1_0_23,down,response,,77334,77333.98,77334.34,77489,154.6600000000035,77495,2021-10-27T21:59:07.418Z,77500.34,1635371812,full,ni_sequenzen,NI_Sequenzen,24,,,,,,,,,,,,,
,Move,canvas.Screen,0_1_0_24,down,response,,77500,77500.04,77500.34,77661,160.6600000000035,77677,2021-10-27T21:59:07.600Z,77684.2,1635371812,full,ni_sequenzen,NI_Sequenzen,25,,,,,,,,,,,,,
,Move,canvas.Screen,0_1_0_25,down,response,,77683,77682.78,77684.2,77863,178.8000000000029,77866,2021-10-27T21:59:07.790Z,77875.86,1635371812,full,ni_sequenzen,NI_Sequenzen,26,,,,,,,,,,,,,
,Move,canvas.Screen,0_1_0_26,left,response,,77873,77873.52,77875.86,79114,1238.1399999999994,79122,2021-10-27T21:59:09.045Z,79128.06,1635371812,full,ni_sequenzen,NI_Sequenzen,27,,,,,,,,,,,,,
,Move,canvas.Screen,0_1_0_27,down,response,,79128,79127.8,79128.06,79380,251.94000000000233,79393,2021-10-27T21:59:09.316Z,79398.2,1635371812,full,ni_sequenzen,NI_Sequenzen,28,,,,,,,,,,,,,
,Move,canvas.Screen,0_1_0_28,left,response,,79398,79397.94,79398.2,80770,1371.800000000003,80777,2021-10-27T21:59:10.701Z,80782.88,1635371812,full,ni_sequenzen,NI_Sequenzen,29,,,,,,,,,,,,,
,Move,canvas.Screen,0_1_0_29,right,response,,80783,80782.64,80782.88,80926,143.11999999999534,80942,2021-10-27T21:59:10.865Z,81008.68,1635371812,full,ni_sequenzen,NI_Sequenzen,30,,,,,,,,,,,,,
,Loop,flow.Loop,0_1_0,-999,completion,,66492,66497.7,66511.14,80926,14414.86,80942,2021-10-27T21:59:10.865Z,81008.68,1635371812,full,ni_sequenzen,NI_Sequenzen,,,,,,,,,,,,,,
,Training_I,flow.Sequence,0_1,,completion,,66470,66497.7,66511.14,80926,14414.86,80942,2021-10-27T21:59:10.865Z,81008.68,1635371812,full,ni_sequenzen,NI_Sequenzen,,,,,,,,,,,,,,
,Screen_1,canvas.Screen,0_2_0_0,cont,response,1,81001,81001.34,81008.68,83989,2980.320000000007,83993,2021-10-27T21:59:13.917Z,84141.48,1635371812,full,ni_sequenzen,NI_Sequenzen,,,,,,,,,,,,,,
,Screen_2,canvas.Screen,0_2_0_1,back,response,1,84134,84134.24,84141.48,86880,2738.520000000004,86883,2021-10-27T21:59:16.806Z,87077.1,1635371812,full,ni_sequenzen,NI_Sequenzen,,,,,,,,,,,,,,
,Screen_3,canvas.Screen,0_2_0_2,,skipped,1,86887,,,86880,,86887,2021-10-27T21:59:16.809Z,87077.1,1635371812,full,ni_sequenzen,NI_Sequenzen,,,,,,,,,,,,,,
,Screen_4,canvas.Screen,0_2_0_3,,skipped,1,87000,,,86880,,87000,2021-10-27T21:59:16.923Z,87077.1,1635371812,full,ni_sequenzen,NI_Sequenzen,,,,,,,,,,,,,,
,Screen_5,canvas.Screen,0_2_0_4,,skipped,1,87003,,,86880,,87003,2021-10-27T21:59:16.926Z,87077.1,1635371812,full,ni_sequenzen,NI_Sequenzen,,,,,,,,,,,,,,
,Screen_6,canvas.Screen,0_2_0_5,,skipped,1,87073,,,86880,,87073,2021-10-27T21:59:16.996Z,87077.1,1635371812,full,ni_sequenzen,NI_Sequenzen,,,,,,,,,,,,,,
,Sequence,flow.Sequence,0_2_0,,completion,1,80999,81001.34,81008.68,86880,5871.320000000007,87074,2021-10-27T21:59:16.997Z,87077.1,1635371812,full,ni_sequenzen,NI_Sequenzen,,,,,,,,,,,,,,
,Screen_1,canvas.Screen,0_2_1_0,cont,response,2,87077,87076.84,87077.1,104114,17036.899999999994,104129,2021-10-27T21:59:34.052Z,104132.02,1635371812,full,ni_sequenzen,NI_Sequenzen,,,,,,,,,,,,,,
,Screen_2,canvas.Screen,0_2_1_1,cont,response,2,104131,104131.76,104132.02,113927,9794.979999999996,113942,2021-10-27T21:59:43.865Z,113944.66,1635371812,full,ni_sequenzen,NI_Sequenzen,,,,,,,,,,,,,,
,Screen_3,canvas.Screen,0_2_1_2,cont,response,2,113944,113944.4,113944.66,129505,15560.339999999997,129512,2021-10-27T21:59:59.436Z,129525.48,1635371812,full,ni_sequenzen,NI_Sequenzen,,,,,,,,,,,,,,
,Screen_4,canvas.Screen,0_2_1_3,cont,response,2,129515,129515.1,129525.48,140974,11448.520000000004,140985,2021-10-27T22:00:10.909Z,140992.94,1635371812,full,ni_sequenzen,NI_Sequenzen,,,,,,,,,,,,,,
,Screen_5,canvas.Screen,0_2_1_4,cont,response,2,140993,140992.6,140992.94,146911,5918.059999999998,146924,2021-10-27T22:00:16.848Z,146939.18,1635371812,full,ni_sequenzen,NI_Sequenzen,,,,,,,,,,,,,,
,Screen_6,canvas.Screen,0_2_1_5,cont,response,2,146930,146929.48,146939.18,156239,9299.820000000007,156245,2021-10-27T22:00:26.169Z,156654.26,1635371812,full,ni_sequenzen,NI_Sequenzen,,,,,,,,,,,,,,
,Sequence,flow.Sequence,0_2_1,,completion,2,87075,87076.84,87077.1,156239,69161.9,156246,2021-10-27T22:00:26.170Z,156654.26,1635371812,full,ni_sequenzen,NI_Sequenzen,,,,,,,,,,,,,,
,Screen_1,canvas.Screen,0_2_2_0,,skipped,3,156251,,,156251,,156252,2021-10-27T22:00:26.176Z,156654.26,1635371812,full,ni_sequenzen,NI_Sequenzen,,,,,,,,,,,,,,
,Screen_2,canvas.Screen,0_2_2_1,,skipped,3,156256,,,156251,,156256,2021-10-27T22:00:26.179Z,156654.26,1635371812,full,ni_sequenzen,NI_Sequenzen,,,,,,,,,,,,,,
,Screen_3,canvas.Screen,0_2_2_2,,skipped,3,156259,,,156251,,156260,2021-10-27T22:00:26.182Z,156654.26,1635371812,full,ni_sequenzen,NI_Sequenzen,,,,,,,,,,,,,,
,Screen_4,canvas.Screen,0_2_2_3,,skipped,3,156262,,,156251,,156262,2021-10-27T22:00:26.186Z,156654.26,1635371812,full,ni_sequenzen,NI_Sequenzen,,,,,,,,,,,,,,
,Screen_5,canvas.Screen,0_2_2_4,,skipped,3,156265,,,156251,,156266,2021-10-27T22:00:26.189Z,156654.26,1635371812,full,ni_sequenzen,NI_Sequenzen,,,,,,,,,,,,,,
,Screen_6,canvas.Screen,0_2_2_5,,skipped,3,156269,,,156251,,156269,2021-10-27T22:00:26.192Z,156654.26,1635371812,full,ni_sequenzen,NI_Sequenzen,,,,,,,,,,,,,,
,Sequence,flow.Sequence,0_2_2,,completion,3,156249,,,156251,,156270,2021-10-27T22:00:26.193Z,156654.26,1635371812,full,ni_sequenzen,NI_Sequenzen,,,,,,,,,,,,,,
,Screen_1,canvas.Screen,0_2_3_0,,skipped,4,156273,,,156273,,156273,2021-10-27T22:00:26.197Z,156654.26,1635371812,full,ni_sequenzen,NI_Sequenzen,,,,,,,,,,,,,,
,Screen_2,canvas.Screen,0_2_3_1,,skipped,4,156277,,,156273,,156277,2021-10-27T22:00:26.201Z,156654.26,1635371812,full,ni_sequenzen,NI_Sequenzen,,,,,,,,,,,,,,
,Screen_3,canvas.Screen,0_2_3_2,,skipped,4,156281,,,156273,,156282,2021-10-27T22:00:26.205Z,156654.26,1635371812,full,ni_sequenzen,NI_Sequenzen,,,,,,,,,,,,,,
,Screen_4,canvas.Screen,0_2_3_3,,skipped,4,156283,,,156273,,156284,2021-10-27T22:00:26.207Z,156654.26,1635371812,full,ni_sequenzen,NI_Sequenzen,,,,,,,,,,,,,,
,Screen_5,canvas.Screen,0_2_3_4,,skipped,4,156286,,,156273,,156287,2021-10-27T22:00:26.210Z,156654.26,1635371812,full,ni_sequenzen,NI_Sequenzen,,,,,,,,,,,,,,
,Screen_6,canvas.Screen,0_2_3_5,,skipped,4,156289,,,156273,,156289,2021-10-27T22:00:26.213Z,156654.26,1635371812,full,ni_sequenzen,NI_Sequenzen,,,,,,,,,,,,,,
,Sequence,flow.Sequence,0_2_3,,completion,4,156271,,,156273,,156291,2021-10-27T22:00:26.214Z,156654.26,1635371812,full,ni_sequenzen,NI_Sequenzen,,,,,,,,,,,,,,
,Screen_1,canvas.Screen,0_2_4_0,,skipped,5,156293,,,156293,,156294,2021-10-27T22:00:26.217Z,156654.26,1635371812,full,ni_sequenzen,NI_Sequenzen,,,,,,,,,,,,,,
,Screen_2,canvas.Screen,0_2_4_1,,skipped,5,156297,,,156293,,156297,2021-10-27T22:00:26.220Z,156654.26,1635371812,full,ni_sequenzen,NI_Sequenzen,,,,,,,,,,,,,,
,Screen_3,canvas.Screen,0_2_4_2,,skipped,5,156300,,,156293,,156300,2021-10-27T22:00:26.223Z,156654.26,1635371812,full,ni_sequenzen,NI_Sequenzen,,,,,,,,,,,,,,
,Screen_4,canvas.Screen,0_2_4_3,,skipped,5,156303,,,156293,,156303,2021-10-27T22:00:26.226Z,156654.26,1635371812,full,ni_sequenzen,NI_Sequenzen,,,,,,,,,,,,,,
,Screen_5,canvas.Screen,0_2_4_4,,skipped,5,156304,,,156293,,156304,2021-10-27T22:00:26.228Z,156654.26,1635371812,full,ni_sequenzen,NI_Sequenzen,,,,,,,,,,,,,,
,Screen_6,canvas.Screen,0_2_4_5,,skipped,5,156307,,,156293,,156307,2021-10-27T22:00:26.230Z,156654.26,1635371812,full,ni_sequenzen,NI_Sequenzen,,,,,,,,,,,,,,
,Sequence,flow.Sequence,0_2_4,,completion,5,156291,,,156293,,156307,2021-10-27T22:00:26.230Z,156654.26,1635371812,full,ni_sequenzen,NI_Sequenzen,,,,,,,,,,,,,,
,Screen_1,canvas.Screen,0_2_5_0,,skipped,6,156312,,,156312,,156312,2021-10-27T22:00:26.235Z,156654.26,1635371812,full,ni_sequenzen,NI_Sequenzen,,,,,,,,,,,,,,
,Screen_2,canvas.Screen,0_2_5_1,,skipped,6,156315,,,156312,,156315,2021-10-27T22:00:26.239Z,156654.26,1635371812,full,ni_sequenzen,NI_Sequenzen,,,,,,,,,,,,,,
,Screen_3,canvas.Screen,0_2_5_2,,skipped,6,156317,,,156312,,156317,2021-10-27T22:00:26.241Z,156654.26,1635371812,full,ni_sequenzen,NI_Sequenzen,,,,,,,,,,,,,,
,Screen_4,canvas.Screen,0_2_5_3,,skipped,6,156320,,,156312,,156320,2021-10-27T22:00:26.244Z,156654.26,1635371812,full,ni_sequenzen,NI_Sequenzen,,,,,,,,,,,,,,
,Screen_5,canvas.Screen,0_2_5_4,,skipped,6,156323,,,156312,,156323,2021-10-27T22:00:26.246Z,156654.26,1635371812,full,ni_sequenzen,NI_Sequenzen,,,,,,,,,,,,,,
,Screen_6,canvas.Screen,0_2_5_5,,skipped,6,156325,,,156312,,156325,2021-10-27T22:00:26.249Z,156654.26,1635371812,full,ni_sequenzen,NI_Sequenzen,,,,,,,,,,,,,,
,Sequence,flow.Sequence,0_2_5,,completion,6,156308,,,156312,,156325,2021-10-27T22:00:26.249Z,156654.26,1635371812,full,ni_sequenzen,NI_Sequenzen,,,,,,,,,,,,,,
,Screen_1,canvas.Screen,0_2_6_0,,skipped,7,156330,,,156330,,156331,2021-10-27T22:00:26.254Z,156654.26,1635371812,full,ni_sequenzen,NI_Sequenzen,,,,,,,,,,,,,,
,Screen_2,canvas.Screen,0_2_6_1,,skipped,7,156334,,,156330,,156334,2021-10-27T22:00:26.257Z,156654.26,1635371812,full,ni_sequenzen,NI_Sequenzen,,,,,,,,,,,,,,
,Screen_3,canvas.Screen,0_2_6_2,,skipped,7,156336,,,156330,,156336,2021-10-27T22:00:26.259Z,156654.26,1635371812,full,ni_sequenzen,NI_Sequenzen,,,,,,,,,,,,,,
,Screen_4,canvas.Screen,0_2_6_3,,skipped,7,156338,,,156330,,156338,2021-10-27T22:00:26.262Z,156654.26,1635371812,full,ni_sequenzen,NI_Sequenzen,,,,,,,,,,,,,,
,Screen_5,canvas.Screen,0_2_6_4,,skipped,7,156341,,,156330,,156341,2021-10-27T22:00:26.264Z,156654.26,1635371812,full,ni_sequenzen,NI_Sequenzen,,,,,,,,,,,,,,
,Screen_6,canvas.Screen,0_2_6_5,,skipped,7,156343,,,156330,,156343,2021-10-27T22:00:26.267Z,156654.26,1635371812,full,ni_sequenzen,NI_Sequenzen,,,,,,,,,,,,,,
,Sequence,flow.Sequence,0_2_6,,completion,7,156327,,,156330,,156344,2021-10-27T22:00:26.267Z,156654.26,1635371812,full,ni_sequenzen,NI_Sequenzen,,,,,,,,,,,,,,
,Screen_1,canvas.Screen,0_2_7_0,,skipped,8,156347,,,156347,,156347,2021-10-27T22:00:26.271Z,156654.26,1635371812,full,ni_sequenzen,NI_Sequenzen,,,,,,,,,,,,,,
,Screen_2,canvas.Screen,0_2_7_1,,skipped,8,156350,,,156347,,156350,2021-10-27T22:00:26.273Z,156654.26,1635371812,full,ni_sequenzen,NI_Sequenzen,,,,,,,,,,,,,,
,Screen_3,canvas.Screen,0_2_7_2,,skipped,8,156352,,,156347,,156353,2021-10-27T22:00:26.276Z,156654.26,1635371812,full,ni_sequenzen,NI_Sequenzen,,,,,,,,,,,,,,
,Screen_4,canvas.Screen,0_2_7_3,,skipped,8,156355,,,156347,,156355,2021-10-27T22:00:26.278Z,156654.26,1635371812,full,ni_sequenzen,NI_Sequenzen,,,,,,,,,,,,,,
,Screen_5,canvas.Screen,0_2_7_4,,skipped,8,156357,,,156347,,156357,2021-10-27T22:00:26.281Z,156654.26,1635371812,full,ni_sequenzen,NI_Sequenzen,,,,,,,,,,,,,,
,Screen_6,canvas.Screen,0_2_7_5,,skipped,8,156359,,,156347,,156359,2021-10-27T22:00:26.283Z,156654.26,1635371812,full,ni_sequenzen,NI_Sequenzen,,,,,,,,,,,,,,
,Sequence,flow.Sequence,0_2_7,,completion,8,156345,,,156347,,156359,2021-10-27T22:00:26.283Z,156654.26,1635371812,full,ni_sequenzen,NI_Sequenzen,,,,,,,,,,,,,,
,Screen_1,canvas.Screen,0_2_8_0,,skipped,9,156362,,,156362,,156362,2021-10-27T22:00:26.285Z,156654.26,1635371812,full,ni_sequenzen,NI_Sequenzen,,,,,,,,,,,,,,
,Screen_2,canvas.Screen,0_2_8_1,,skipped,9,156364,,,156362,,156364,2021-10-27T22:00:26.287Z,156654.26,1635371812,full,ni_sequenzen,NI_Sequenzen,,,,,,,,,,,,,,
,Screen_3,canvas.Screen,0_2_8_2,,skipped,9,156366,,,156362,,156366,2021-10-27T22:00:26.290Z,156654.26,1635371812,full,ni_sequenzen,NI_Sequenzen,,,,,,,,,,,,,,
,Screen_4,canvas.Screen,0_2_8_3,,skipped,9,156369,,,156362,,156369,2021-10-27T22:00:26.292Z,156654.26,1635371812,full,ni_sequenzen,NI_Sequenzen,,,,,,,,,,,,,,
,Screen_5,canvas.Screen,0_2_8_4,,skipped,9,156370,,,156362,,156370,2021-10-27T22:00:26.294Z,156654.26,1635371812,full,ni_sequenzen,NI_Sequenzen,,,,,,,,,,,,,,
,Screen_6,canvas.Screen,0_2_8_5,,skipped,9,156372,,,156362,,156373,2021-10-27T22:00:26.296Z,156654.26,1635371812,full,ni_sequenzen,NI_Sequenzen,,,,,,,,,,,,,,
,Sequence,flow.Sequence,0_2_8,,completion,9,156360,,,156362,,156373,2021-10-27T22:00:26.296Z,156654.26,1635371812,full,ni_sequenzen,NI_Sequenzen,,,,,,,,,,,,,,
,Screen_1,canvas.Screen,0_2_9_0,,skipped,10,156376,,,156376,,156376,2021-10-27T22:00:26.300Z,156654.26,1635371812,full,ni_sequenzen,NI_Sequenzen,,,,,,,,,,,,,,
,Screen_2,canvas.Screen,0_2_9_1,,skipped,10,156379,,,156376,,156380,2021-10-27T22:00:26.304Z,156654.26,1635371812,full,ni_sequenzen,NI_Sequenzen,,,,,,,,,,,,,,
,Screen_3,canvas.Screen,0_2_9_2,,skipped,10,156383,,,156376,,156383,2021-10-27T22:00:26.306Z,156654.26,1635371812,full,ni_sequenzen,NI_Sequenzen,,,,,,,,,,,,,,
,Screen_4,canvas.Screen,0_2_9_3,,skipped,10,156385,,,156376,,156385,2021-10-27T22:00:26.309Z,156654.26,1635371812,full,ni_sequenzen,NI_Sequenzen,,,,,,,,,,,,,,
,Screen_5,canvas.Screen,0_2_9_4,,skipped,10,156388,,,156376,,156388,2021-10-27T22:00:26.312Z,156654.26,1635371812,full,ni_sequenzen,NI_Sequenzen,,,,,,,,,,,,,,
,Screen_6,canvas.Screen,0_2_9_5,,skipped,10,156391,,,156376,,156391,2021-10-27T22:00:26.314Z,156654.26,1635371812,full,ni_sequenzen,NI_Sequenzen,,,,,,,,,,,,,,
,Sequence,flow.Sequence,0_2_9,,completion,10,156374,,,156376,,156391,2021-10-27T22:00:26.314Z,156654.26,1635371812,full,ni_sequenzen,NI_Sequenzen,,,,,,,,,,,,,,
,Screen_1,canvas.Screen,0_2_10_0,,skipped,11,156394,,,156394,,156394,2021-10-27T22:00:26.318Z,156654.26,1635371812,full,ni_sequenzen,NI_Sequenzen,,,,,,,,,,,,,,
,Screen_2,canvas.Screen,0_2_10_1,,skipped,11,156397,,,156394,,156397,2021-10-27T22:00:26.320Z,156654.26,1635371812,full,ni_sequenzen,NI_Sequenzen,,,,,,,,,,,,,,
,Screen_3,canvas.Screen,0_2_10_2,,skipped,11,156399,,,156394,,156399,2021-10-27T22:00:26.322Z,156654.26,1635371812,full,ni_sequenzen,NI_Sequenzen,,,,,,,,,,,,,,
,Screen_4,canvas.Screen,0_2_10_3,,skipped,11,156401,,,156394,,156401,2021-10-27T22:00:26.325Z,156654.26,1635371812,full,ni_sequenzen,NI_Sequenzen,,,,,,,,,,,,,,
,Screen_5,canvas.Screen,0_2_10_4,,skipped,11,156404,,,156394,,156404,2021-10-27T22:00:26.328Z,156654.26,1635371812,full,ni_sequenzen,NI_Sequenzen,,,,,,,,,,,,,,
,Screen_6,canvas.Screen,0_2_10_5,,skipped,11,156407,,,156394,,156407,2021-10-27T22:00:26.330Z,156654.26,1635371812,full,ni_sequenzen,NI_Sequenzen,,,,,,,,,,,,,,
,Sequence,flow.Sequence,0_2_10,,completion,11,156392,,,156394,,156408,2021-10-27T22:00:26.330Z,156654.26,1635371812,full,ni_sequenzen,NI_Sequenzen,,,,,,,,,,,,,,
,Screen_1,canvas.Screen,0_2_11_0,,skipped,12,156411,,,156411,,156411,2021-10-27T22:00:26.334Z,156654.26,1635371812,full,ni_sequenzen,NI_Sequenzen,,,,,,,,,,,,,,
,Screen_2,canvas.Screen,0_2_11_1,,skipped,12,156412,,,156411,,156413,2021-10-27T22:00:26.337Z,156654.26,1635371812,full,ni_sequenzen,NI_Sequenzen,,,,,,,,,,,,,,
,Screen_3,canvas.Screen,0_2_11_2,,skipped,12,156415,,,156411,,156415,2021-10-27T22:00:26.339Z,156654.26,1635371812,full,ni_sequenzen,NI_Sequenzen,,,,,,,,,,,,,,
,Screen_4,canvas.Screen,0_2_11_3,,skipped,12,156417,,,156411,,156417,2021-10-27T22:00:26.341Z,156654.26,1635371812,full,ni_sequenzen,NI_Sequenzen,,,,,,,,,,,,,,
,Screen_5,canvas.Screen,0_2_11_4,,skipped,12,156420,,,156411,,156420,2021-10-27T22:00:26.344Z,156654.26,1635371812,full,ni_sequenzen,NI_Sequenzen,,,,,,,,,,,,,,
,Screen_6,canvas.Screen,0_2_11_5,,skipped,12,156422,,,156411,,156422,2021-10-27T22:00:26.346Z,156654.26,1635371812,full,ni_sequenzen,NI_Sequenzen,,,,,,,,,,,,,,
,Sequence,flow.Sequence,0_2_11,,completion,12,156409,,,156411,,156422,2021-10-27T22:00:26.346Z,156654.26,1635371812,full,ni_sequenzen,NI_Sequenzen,,,,,,,,,,,,,,
,Screen_1,canvas.Screen,0_2_12_0,,skipped,13,156424,,,156424,,156425,2021-10-27T22:00:26.348Z,156654.26,1635371812,full,ni_sequenzen,NI_Sequenzen,,,,,,,,,,,,,,
,Screen_2,canvas.Screen,0_2_12_1,,skipped,13,156426,,,156424,,156427,2021-10-27T22:00:26.350Z,156654.26,1635371812,full,ni_sequenzen,NI_Sequenzen,,,,,,,,,,,,,,
,Screen_3,canvas.Screen,0_2_12_2,,skipped,13,156429,,,156424,,156429,2021-10-27T22:00:26.353Z,156654.26,1635371812,full,ni_sequenzen,NI_Sequenzen,,,,,,,,,,,,,,
,Screen_4,canvas.Screen,0_2_12_3,,skipped,13,156431,,,156424,,156431,2021-10-27T22:00:26.354Z,156654.26,1635371812,full,ni_sequenzen,NI_Sequenzen,,,,,,,,,,,,,,
,Screen_5,canvas.Screen,0_2_12_4,,skipped,13,156433,,,156424,,156433,2021-10-27T22:00:26.357Z,156654.26,1635371812,full,ni_sequenzen,NI_Sequenzen,,,,,,,,,,,,,,
,Screen_6,canvas.Screen,0_2_12_5,,skipped,13,156436,,,156424,,156437,2021-10-27T22:00:26.360Z,156654.26,1635371812,full,ni_sequenzen,NI_Sequenzen,,,,,,,,,,,,,,
,Sequence,flow.Sequence,0_2_12,,completion,13,156423,,,156424,,156437,2021-10-27T22:00:26.360Z,156654.26,1635371812,full,ni_sequenzen,NI_Sequenzen,,,,,,,,,,,,,,
,Screen_1,canvas.Screen,0_2_13_0,,skipped,14,156439,,,156439,,156439,2021-10-27T22:00:26.362Z,156654.26,1635371812,full,ni_sequenzen,NI_Sequenzen,,,,,,,,,,,,,,
,Screen_2,canvas.Screen,0_2_13_1,,skipped,14,156441,,,156439,,156441,2021-10-27T22:00:26.365Z,156654.26,1635371812,full,ni_sequenzen,NI_Sequenzen,,,,,,,,,,,,,,
,Screen_3,canvas.Screen,0_2_13_2,,skipped,14,156442,,,156439,,156443,2021-10-27T22:00:26.366Z,156654.26,1635371812,full,ni_sequenzen,NI_Sequenzen,,,,,,,,,,,,,,
,Screen_4,canvas.Screen,0_2_13_3,,skipped,14,156444,,,156439,,156444,2021-10-27T22:00:26.367Z,156654.26,1635371812,full,ni_sequenzen,NI_Sequenzen,,,,,,,,,,,,,,
,Screen_5,canvas.Screen,0_2_13_4,,skipped,14,156445,,,156439,,156445,2021-10-27T22:00:26.370Z,156654.26,1635371812,full,ni_sequenzen,NI_Sequenzen,,,,,,,,,,,,,,
,Screen_6,canvas.Screen,0_2_13_5,,skipped,14,156448,,,156439,,156448,2021-10-27T22:00:26.371Z,156654.26,1635371812,full,ni_sequenzen,NI_Sequenzen,,,,,,,,,,,,,,
,Sequence,flow.Sequence,0_2_13,,completion,14,156437,,,156439,,156448,2021-10-27T22:00:26.371Z,156654.26,1635371812,full,ni_sequenzen,NI_Sequenzen,,,,,,,,,,,,,,
,Screen_1,canvas.Screen,0_2_14_0,,skipped,15,156450,,,156450,,156450,2021-10-27T22:00:26.374Z,156654.26,1635371812,full,ni_sequenzen,NI_Sequenzen,,,,,,,,,,,,,,
,Screen_2,canvas.Screen,0_2_14_1,,skipped,15,156452,,,156450,,156452,2021-10-27T22:00:26.375Z,156654.26,1635371812,full,ni_sequenzen,NI_Sequenzen,,,,,,,,,,,,,,
,Screen_3,canvas.Screen,0_2_14_2,,skipped,15,156454,,,156450,,156454,2021-10-27T22:00:26.377Z,156654.26,1635371812,full,ni_sequenzen,NI_Sequenzen,,,,,,,,,,,,,,
,Screen_4,canvas.Screen,0_2_14_3,,skipped,15,156455,,,156450,,156455,2021-10-27T22:00:26.379Z,156654.26,1635371812,full,ni_sequenzen,NI_Sequenzen,,,,,,,,,,,,,,
,Screen_5,canvas.Screen,0_2_14_4,,skipped,15,156456,,,156450,,156456,2021-10-27T22:00:26.380Z,156654.26,1635371812,full,ni_sequenzen,NI_Sequenzen,,,,,,,,,,,,,,
,Screen_6,canvas.Screen,0_2_14_5,,skipped,15,156458,,,156450,,156458,2021-10-27T22:00:26.382Z,156654.26,1635371812,full,ni_sequenzen,NI_Sequenzen,,,,,,,,,,,,,,
,Sequence,flow.Sequence,0_2_14,,completion,15,156448,,,156450,,156458,2021-10-27T22:00:26.382Z,156654.26,1635371812,full,ni_sequenzen,NI_Sequenzen,,,,,,,,,,,,,,
,Screen_1,canvas.Screen,0_2_15_0,,skipped,16,156461,,,156461,,156461,2021-10-27T22:00:26.383Z,156654.26,1635371812,full,ni_sequenzen,NI_Sequenzen,,,,,,,,,,,,,,
,Screen_2,canvas.Screen,0_2_15_1,,skipped,16,156462,,,156461,,156462,2021-10-27T22:00:26.385Z,156654.26,1635371812,full,ni_sequenzen,NI_Sequenzen,,,,,,,,,,,,,,
,Screen_3,canvas.Screen,0_2_15_2,,skipped,16,156464,,,156461,,156464,2021-10-27T22:00:26.387Z,156654.26,1635371812,full,ni_sequenzen,NI_Sequenzen,,,,,,,,,,,,,,
,Screen_4,canvas.Screen,0_2_15_3,,skipped,16,156465,,,156461,,156465,2021-10-27T22:00:26.388Z,156654.26,1635371812,full,ni_sequenzen,NI_Sequenzen,,,,,,,,,,,,,,
,Screen_5,canvas.Screen,0_2_15_4,,skipped,16,156467,,,156461,,156467,2021-10-27T22:00:26.391Z,156654.26,1635371812,full,ni_sequenzen,NI_Sequenzen,,,,,,,,,,,,,,
,Screen_6,canvas.Screen,0_2_15_5,,skipped,16,156469,,,156461,,156469,2021-10-27T22:00:26.393Z,156654.26,1635371812,full,ni_sequenzen,NI_Sequenzen,,,,,,,,,,,,,,
,Sequence,flow.Sequence,0_2_15,,completion,16,156459,,,156461,,156469,2021-10-27T22:00:26.393Z,156654.26,1635371812,full,ni_sequenzen,NI_Sequenzen,,,,,,,,,,,,,,
,Screen_1,canvas.Screen,0_2_16_0,,skipped,17,156471,,,156471,,156472,2021-10-27T22:00:26.395Z,156654.26,1635371812,full,ni_sequenzen,NI_Sequenzen,,,,,,,,,,,,,,
,Screen_2,canvas.Screen,0_2_16_1,,skipped,17,156473,,,156471,,156473,2021-10-27T22:00:26.397Z,156654.26,1635371812,full,ni_sequenzen,NI_Sequenzen,,,,,,,,,,,,,,
,Screen_3,canvas.Screen,0_2_16_2,,skipped,17,156474,,,156471,,156474,2021-10-27T22:00:26.398Z,156654.26,1635371812,full,ni_sequenzen,NI_Sequenzen,,,,,,,,,,,,,,
,Screen_4,canvas.Screen,0_2_16_3,,skipped,17,156476,,,156471,,156476,2021-10-27T22:00:26.399Z,156654.26,1635371812,full,ni_sequenzen,NI_Sequenzen,,,,,,,,,,,,,,
,Screen_5,canvas.Screen,0_2_16_4,,skipped,17,156477,,,156471,,156477,2021-10-27T22:00:26.400Z,156654.26,1635371812,full,ni_sequenzen,NI_Sequenzen,,,,,,,,,,,,,,
,Screen_6,canvas.Screen,0_2_16_5,,skipped,17,156478,,,156471,,156479,2021-10-27T22:00:26.403Z,156654.26,1635371812,full,ni_sequenzen,NI_Sequenzen,,,,,,,,,,,,,,
,Sequence,flow.Sequence,0_2_16,,completion,17,156470,,,156471,,156479,2021-10-27T22:00:26.403Z,156654.26,1635371812,full,ni_sequenzen,NI_Sequenzen,,,,,,,,,,,,,,
,Screen_1,canvas.Screen,0_2_17_0,,skipped,18,156481,,,156481,,156481,2021-10-27T22:00:26.404Z,156654.26,1635371812,full,ni_sequenzen,NI_Sequenzen,,,,,,,,,,,,,,
,Screen_2,canvas.Screen,0_2_17_1,,skipped,18,156482,,,156481,,156483,2021-10-27T22:00:26.406Z,156654.26,1635371812,full,ni_sequenzen,NI_Sequenzen,,,,,,,,,,,,,,
,Screen_3,canvas.Screen,0_2_17_2,,skipped,18,156485,,,156481,,156485,2021-10-27T22:00:26.408Z,156654.26,1635371812,full,ni_sequenzen,NI_Sequenzen,,,,,,,,,,,,,,
,Screen_4,canvas.Screen,0_2_17_3,,skipped,18,156486,,,156481,,156486,2021-10-27T22:00:26.409Z,156654.26,1635371812,full,ni_sequenzen,NI_Sequenzen,,,,,,,,,,,,,,
,Screen_5,canvas.Screen,0_2_17_4,,skipped,18,156487,,,156481,,156487,2021-10-27T22:00:26.411Z,156654.26,1635371812,full,ni_sequenzen,NI_Sequenzen,,,,,,,,,,,,,,
,Screen_6,canvas.Screen,0_2_17_5,,skipped,18,156488,,,156481,,156488,2021-10-27T22:00:26.412Z,156654.26,1635371812,full,ni_sequenzen,NI_Sequenzen,,,,,,,,,,,,,,
,Sequence,flow.Sequence,0_2_17,,completion,18,156479,,,156481,,156488,2021-10-27T22:00:26.412Z,156654.26,1635371812,full,ni_sequenzen,NI_Sequenzen,,,,,,,,,,,,,,
,Screen_1,canvas.Screen,0_2_18_0,,skipped,19,156490,,,156490,,156490,2021-10-27T22:00:26.414Z,156654.26,1635371812,full,ni_sequenzen,NI_Sequenzen,,,,,,,,,,,,,,
,Screen_2,canvas.Screen,0_2_18_1,,skipped,19,156492,,,156490,,156492,2021-10-27T22:00:26.416Z,156654.26,1635371812,full,ni_sequenzen,NI_Sequenzen,,,,,,,,,,,,,,
,Screen_3,canvas.Screen,0_2_18_2,,skipped,19,156493,,,156490,,156493,2021-10-27T22:00:26.416Z,156654.26,1635371812,full,ni_sequenzen,NI_Sequenzen,,,,,,,,,,,,,,
,Screen_4,canvas.Screen,0_2_18_3,,skipped,19,156495,,,156490,,156495,2021-10-27T22:00:26.418Z,156654.26,1635371812,full,ni_sequenzen,NI_Sequenzen,,,,,,,,,,,,,,
,Screen_5,canvas.Screen,0_2_18_4,,skipped,19,156496,,,156490,,156496,2021-10-27T22:00:26.419Z,156654.26,1635371812,full,ni_sequenzen,NI_Sequenzen,,,,,,,,,,,,,,
,Screen_6,canvas.Screen,0_2_18_5,,skipped,19,156497,,,156490,,156497,2021-10-27T22:00:26.420Z,156654.26,1635371812,full,ni_sequenzen,NI_Sequenzen,,,,,,,,,,,,,,
,Sequence,flow.Sequence,0_2_18,,completion,19,156489,,,156490,,156497,2021-10-27T22:00:26.420Z,156654.26,1635371812,full,ni_sequenzen,NI_Sequenzen,,,,,,,,,,,,,,
,Screen_1,canvas.Screen,0_2_19_0,,skipped,20,156499,,,156499,,156499,2021-10-27T22:00:26.423Z,156654.26,1635371812,full,ni_sequenzen,NI_Sequenzen,,,,,,,,,,,,,,
,Screen_2,canvas.Screen,0_2_19_1,,skipped,20,156501,,,156499,,156501,2021-10-27T22:00:26.425Z,156654.26,1635371812,full,ni_sequenzen,NI_Sequenzen,,,,,,,,,,,,,,
,Screen_3,canvas.Screen,0_2_19_2,,skipped,20,156502,,,156499,,156502,2021-10-27T22:00:26.425Z,156654.26,1635371812,full,ni_sequenzen,NI_Sequenzen,,,,,,,,,,,,,,
,Screen_4,canvas.Screen,0_2_19_3,,skipped,20,156503,,,156499,,156504,2021-10-27T22:00:26.427Z,156654.26,1635371812,full,ni_sequenzen,NI_Sequenzen,,,,,,,,,,,,,,
,Screen_5,canvas.Screen,0_2_19_4,,skipped,20,156505,,,156499,,156505,2021-10-27T22:00:26.429Z,156654.26,1635371812,full,ni_sequenzen,NI_Sequenzen,,,,,,,,,,,,,,
,Screen_6,canvas.Screen,0_2_19_5,,skipped,20,156506,,,156499,,156506,2021-10-27T22:00:26.430Z,156654.26,1635371812,full,ni_sequenzen,NI_Sequenzen,,,,,,,,,,,,,,
,Sequence,flow.Sequence,0_2_19,,completion,20,156498,,,156499,,156506,2021-10-27T22:00:26.430Z,156654.26,1635371812,full,ni_sequenzen,NI_Sequenzen,,,,,,,,,,,,,,
,Screen_1,canvas.Screen,0_2_20_0,,skipped,21,156508,,,156508,,156509,2021-10-27T22:00:26.432Z,156654.26,1635371812,full,ni_sequenzen,NI_Sequenzen,,,,,,,,,,,,,,
,Screen_2,canvas.Screen,0_2_20_1,,skipped,21,156509,,,156508,,156509,2021-10-27T22:00:26.432Z,156654.26,1635371812,full,ni_sequenzen,NI_Sequenzen,,,,,,,,,,,,,,
,Screen_3,canvas.Screen,0_2_20_2,,skipped,21,156510,,,156508,,156511,2021-10-27T22:00:26.434Z,156654.26,1635371812,full,ni_sequenzen,NI_Sequenzen,,,,,,,,,,,,,,
,Screen_4,canvas.Screen,0_2_20_3,,skipped,21,156512,,,156508,,156512,2021-10-27T22:00:26.436Z,156654.26,1635371812,full,ni_sequenzen,NI_Sequenzen,,,,,,,,,,,,,,
,Screen_5,canvas.Screen,0_2_20_4,,skipped,21,156514,,,156508,,156514,2021-10-27T22:00:26.436Z,156654.26,1635371812,full,ni_sequenzen,NI_Sequenzen,,,,,,,,,,,,,,
,Screen_6,canvas.Screen,0_2_20_5,,skipped,21,156515,,,156508,,156515,2021-10-27T22:00:26.439Z,156654.26,1635371812,full,ni_sequenzen,NI_Sequenzen,,,,,,,,,,,,,,
,Sequence,flow.Sequence,0_2_20,,completion,21,156507,,,156508,,156515,2021-10-27T22:00:26.439Z,156654.26,1635371812,full,ni_sequenzen,NI_Sequenzen,,,,,,,,,,,,,,
,Screen_1,canvas.Screen,0_2_21_0,,skipped,22,156517,,,156517,,156517,2021-10-27T22:00:26.440Z,156654.26,1635371812,full,ni_sequenzen,NI_Sequenzen,,,,,,,,,,,,,,
,Screen_2,canvas.Screen,0_2_21_1,,skipped,22,156518,,,156517,,156518,2021-10-27T22:00:26.441Z,156654.26,1635371812,full,ni_sequenzen,NI_Sequenzen,,,,,,,,,,,,,,
,Screen_3,canvas.Screen,0_2_21_2,,skipped,22,156519,,,156517,,156519,2021-10-27T22:00:26.443Z,156654.26,1635371812,full,ni_sequenzen,NI_Sequenzen,,,,,,,,,,,,,,
,Screen_4,canvas.Screen,0_2_21_3,,skipped,22,156520,,,156517,,156520,2021-10-27T22:00:26.444Z,156654.26,1635371812,full,ni_sequenzen,NI_Sequenzen,,,,,,,,,,,,,,
,Screen_5,canvas.Screen,0_2_21_4,,skipped,22,156522,,,156517,,156522,2021-10-27T22:00:26.445Z,156654.26,1635371812,full,ni_sequenzen,NI_Sequenzen,,,,,,,,,,,,,,
,Screen_6,canvas.Screen,0_2_21_5,,skipped,22,156523,,,156517,,156523,2021-10-27T22:00:26.447Z,156654.26,1635371812,full,ni_sequenzen,NI_Sequenzen,,,,,,,,,,,,,,
,Sequence,flow.Sequence,0_2_21,,completion,22,156516,,,156517,,156523,2021-10-27T22:00:26.447Z,156654.26,1635371812,full,ni_sequenzen,NI_Sequenzen,,,,,,,,,,,,,,
,Screen_1,canvas.Screen,0_2_22_0,,skipped,23,156526,,,156526,,156526,2021-10-27T22:00:26.448Z,156654.26,1635371812,full,ni_sequenzen,NI_Sequenzen,,,,,,,,,,,,,,
,Screen_2,canvas.Screen,0_2_22_1,,skipped,23,156527,,,156526,,156527,2021-10-27T22:00:26.450Z,156654.26,1635371812,full,ni_sequenzen,NI_Sequenzen,,,,,,,,,,,,,,
,Screen_3,canvas.Screen,0_2_22_2,,skipped,23,156528,,,156526,,156528,2021-10-27T22:00:26.451Z,156654.26,1635371812,full,ni_sequenzen,NI_Sequenzen,,,,,,,,,,,,,,
,Screen_4,canvas.Screen,0_2_22_3,,skipped,23,156530,,,156526,,156530,2021-10-27T22:00:26.453Z,156654.26,1635371812,full,ni_sequenzen,NI_Sequenzen,,,,,,,,,,,,,,
,Screen_5,canvas.Screen,0_2_22_4,,skipped,23,156532,,,156526,,156532,2021-10-27T22:00:26.456Z,156654.26,1635371812,full,ni_sequenzen,NI_Sequenzen,,,,,,,,,,,,,,
,Screen_6,canvas.Screen,0_2_22_5,,skipped,23,156533,,,156526,,156533,2021-10-27T22:00:26.457Z,156654.26,1635371812,full,ni_sequenzen,NI_Sequenzen,,,,,,,,,,,,,,
,Sequence,flow.Sequence,0_2_22,,completion,23,156524,,,156526,,156533,2021-10-27T22:00:26.457Z,156654.26,1635371812,full,ni_sequenzen,NI_Sequenzen,,,,,,,,,,,,,,
,Screen_1,canvas.Screen,0_2_23_0,,skipped,24,156536,,,156536,,156536,2021-10-27T22:00:26.459Z,156654.26,1635371812,full,ni_sequenzen,NI_Sequenzen,,,,,,,,,,,,,,
,Screen_2,canvas.Screen,0_2_23_1,,skipped,24,156537,,,156536,,156537,2021-10-27T22:00:26.461Z,156654.26,1635371812,full,ni_sequenzen,NI_Sequenzen,,,,,,,,,,,,,,
,Screen_3,canvas.Screen,0_2_23_2,,skipped,24,156538,,,156536,,156538,2021-10-27T22:00:26.462Z,156654.26,1635371812,full,ni_sequenzen,NI_Sequenzen,,,,,,,,,,,,,,
,Screen_4,canvas.Screen,0_2_23_3,,skipped,24,156540,,,156536,,156540,2021-10-27T22:00:26.462Z,156654.26,1635371812,full,ni_sequenzen,NI_Sequenzen,,,,,,,,,,,,,,
,Screen_5,canvas.Screen,0_2_23_4,,skipped,24,156541,,,156536,,156541,2021-10-27T22:00:26.465Z,156654.26,1635371812,full,ni_sequenzen,NI_Sequenzen,,,,,,,,,,,,,,
,Screen_6,canvas.Screen,0_2_23_5,,skipped,24,156542,,,156536,,156542,2021-10-27T22:00:26.466Z,156654.26,1635371812,full,ni_sequenzen,NI_Sequenzen,,,,,,,,,,,,,,
,Sequence,flow.Sequence,0_2_23,,completion,24,156535,,,156536,,156542,2021-10-27T22:00:26.466Z,156654.26,1635371812,full,ni_sequenzen,NI_Sequenzen,,,,,,,,,,,,,,
,Screen_1,canvas.Screen,0_2_24_0,,skipped,25,156543,,,156543,,156543,2021-10-27T22:00:26.467Z,156654.26,1635371812,full,ni_sequenzen,NI_Sequenzen,,,,,,,,,,,,,,
,Screen_2,canvas.Screen,0_2_24_1,,skipped,25,156545,,,156543,,156545,2021-10-27T22:00:26.469Z,156654.26,1635371812,full,ni_sequenzen,NI_Sequenzen,,,,,,,,,,,,,,
,Screen_3,canvas.Screen,0_2_24_2,,skipped,25,156546,,,156543,,156546,2021-10-27T22:00:26.469Z,156654.26,1635371812,full,ni_sequenzen,NI_Sequenzen,,,,,,,,,,,,,,
,Screen_4,canvas.Screen,0_2_24_3,,skipped,25,156547,,,156543,,156548,2021-10-27T22:00:26.471Z,156654.26,1635371812,full,ni_sequenzen,NI_Sequenzen,,,,,,,,,,,,,,
,Screen_5,canvas.Screen,0_2_24_4,,skipped,25,156549,,,156543,,156549,2021-10-27T22:00:26.472Z,156654.26,1635371812,full,ni_sequenzen,NI_Sequenzen,,,,,,,,,,,,,,
,Screen_6,canvas.Screen,0_2_24_5,,skipped,25,156550,,,156543,,156550,2021-10-27T22:00:26.473Z,156654.26,1635371812,full,ni_sequenzen,NI_Sequenzen,,,,,,,,,,,,,,
,Sequence,flow.Sequence,0_2_24,,completion,25,156542,,,156543,,156552,2021-10-27T22:00:26.475Z,156654.26,1635371812,full,ni_sequenzen,NI_Sequenzen,,,,,,,,,,,,,,
,Screen_1,canvas.Screen,0_2_25_0,,skipped,26,156554,,,156554,,156554,2021-10-27T22:00:26.477Z,156654.26,1635371812,full,ni_sequenzen,NI_Sequenzen,,,,,,,,,,,,,,
,Screen_2,canvas.Screen,0_2_25_1,,skipped,26,156555,,,156554,,156555,2021-10-27T22:00:26.478Z,156654.26,1635371812,full,ni_sequenzen,NI_Sequenzen,,,,,,,,,,,,,,
,Screen_3,canvas.Screen,0_2_25_2,,skipped,26,156556,,,156554,,156556,2021-10-27T22:00:26.480Z,156654.26,1635371812,full,ni_sequenzen,NI_Sequenzen,,,,,,,,,,,,,,
,Screen_4,canvas.Screen,0_2_25_3,,skipped,26,156557,,,156554,,156557,2021-10-27T22:00:26.481Z,156654.26,1635371812,full,ni_sequenzen,NI_Sequenzen,,,,,,,,,,,,,,
,Screen_5,canvas.Screen,0_2_25_4,,skipped,26,156558,,,156554,,156558,2021-10-27T22:00:26.482Z,156654.26,1635371812,full,ni_sequenzen,NI_Sequenzen,,,,,,,,,,,,,,
,Screen_6,canvas.Screen,0_2_25_5,,skipped,26,156559,,,156554,,156559,2021-10-27T22:00:26.483Z,156654.26,1635371812,full,ni_sequenzen,NI_Sequenzen,,,,,,,,,,,,,,
,Sequence,flow.Sequence,0_2_25,,completion,26,156552,,,156554,,156559,2021-10-27T22:00:26.483Z,156654.26,1635371812,full,ni_sequenzen,NI_Sequenzen,,,,,,,,,,,,,,
,Screen_1,canvas.Screen,0_2_26_0,,skipped,27,156561,,,156561,,156561,2021-10-27T22:00:26.484Z,156654.26,1635371812,full,ni_sequenzen,NI_Sequenzen,,,,,,,,,,,,,,
,Screen_2,canvas.Screen,0_2_26_1,,skipped,27,156561,,,156561,,156561,2021-10-27T22:00:26.485Z,156654.26,1635371812,full,ni_sequenzen,NI_Sequenzen,,,,,,,,,,,,,,
,Screen_3,canvas.Screen,0_2_26_2,,skipped,27,156562,,,156561,,156562,2021-10-27T22:00:26.485Z,156654.26,1635371812,full,ni_sequenzen,NI_Sequenzen,,,,,,,,,,,,,,
,Screen_4,canvas.Screen,0_2_26_3,,skipped,27,156563,,,156561,,156563,2021-10-27T22:00:26.487Z,156654.26,1635371812,full,ni_sequenzen,NI_Sequenzen,,,,,,,,,,,,,,
,Screen_5,canvas.Screen,0_2_26_4,,skipped,27,156564,,,156561,,156564,2021-10-27T22:00:26.488Z,156654.26,1635371812,full,ni_sequenzen,NI_Sequenzen,,,,,,,,,,,,,,
,Screen_6,canvas.Screen,0_2_26_5,,skipped,27,156565,,,156561,,156565,2021-10-27T22:00:26.489Z,156654.26,1635371812,full,ni_sequenzen,NI_Sequenzen,,,,,,,,,,,,,,
,Sequence,flow.Sequence,0_2_26,,completion,27,156560,,,156561,,156565,2021-10-27T22:00:26.489Z,156654.26,1635371812,full,ni_sequenzen,NI_Sequenzen,,,,,,,,,,,,,,
,Screen_1,canvas.Screen,0_2_27_0,,skipped,28,156567,,,156567,,156567,2021-10-27T22:00:26.490Z,156654.26,1635371812,full,ni_sequenzen,NI_Sequenzen,,,,,,,,,,,,,,
,Screen_2,canvas.Screen,0_2_27_1,,skipped,28,156568,,,156567,,156568,2021-10-27T22:00:26.492Z,156654.26,1635371812,full,ni_sequenzen,NI_Sequenzen,,,,,,,,,,,,,,
,Screen_3,canvas.Screen,0_2_27_2,,skipped,28,156569,,,156567,,156569,2021-10-27T22:00:26.493Z,156654.26,1635371812,full,ni_sequenzen,NI_Sequenzen,,,,,,,,,,,,,,
,Screen_4,canvas.Screen,0_2_27_3,,skipped,28,156570,,,156567,,156570,2021-10-27T22:00:26.494Z,156654.26,1635371812,full,ni_sequenzen,NI_Sequenzen,,,,,,,,,,,,,,
,Screen_5,canvas.Screen,0_2_27_4,,skipped,28,156572,,,156567,,156572,2021-10-27T22:00:26.494Z,156654.26,1635371812,full,ni_sequenzen,NI_Sequenzen,,,,,,,,,,,,,,
,Screen_6,canvas.Screen,0_2_27_5,,skipped,28,156573,,,156567,,156573,2021-10-27T22:00:26.496Z,156654.26,1635371812,full,ni_sequenzen,NI_Sequenzen,,,,,,,,,,,,,,
,Sequence,flow.Sequence,0_2_27,,completion,28,156566,,,156567,,156573,2021-10-27T22:00:26.496Z,156654.26,1635371812,full,ni_sequenzen,NI_Sequenzen,,,,,,,,,,,,,,
,Screen_1,canvas.Screen,0_2_28_0,,skipped,29,156574,,,156574,,156574,2021-10-27T22:00:26.498Z,156654.26,1635371812,full,ni_sequenzen,NI_Sequenzen,,,,,,,,,,,,,,
,Screen_2,canvas.Screen,0_2_28_1,,skipped,29,156574,,,156574,,156575,2021-10-27T22:00:26.498Z,156654.26,1635371812,full,ni_sequenzen,NI_Sequenzen,,,,,,,,,,,,,,
,Screen_3,canvas.Screen,0_2_28_2,,skipped,29,156575,,,156574,,156575,2021-10-27T22:00:26.499Z,156654.26,1635371812,full,ni_sequenzen,NI_Sequenzen,,,,,,,,,,,,,,
,Screen_4,canvas.Screen,0_2_28_3,,skipped,29,156576,,,156574,,156576,2021-10-27T22:00:26.500Z,156654.26,1635371812,full,ni_sequenzen,NI_Sequenzen,,,,,,,,,,,,,,
,Screen_5,canvas.Screen,0_2_28_4,,skipped,29,156578,,,156574,,156578,2021-10-27T22:00:26.501Z,156654.26,1635371812,full,ni_sequenzen,NI_Sequenzen,,,,,,,,,,,,,,
,Screen_6,canvas.Screen,0_2_28_5,,skipped,29,156579,,,156574,,156579,2021-10-27T22:00:26.503Z,156654.26,1635371812,full,ni_sequenzen,NI_Sequenzen,,,,,,,,,,,,,,
,Sequence,flow.Sequence,0_2_28,,completion,29,156573,,,156574,,156579,2021-10-27T22:00:26.503Z,156654.26,1635371812,full,ni_sequenzen,NI_Sequenzen,,,,,,,,,,,,,,
,Screen_1,canvas.Screen,0_2_29_0,,skipped,30,156581,,,156581,,156581,2021-10-27T22:00:26.504Z,156654.26,1635371812,full,ni_sequenzen,NI_Sequenzen,,,,,,,,,,,,,,
,Screen_2,canvas.Screen,0_2_29_1,,skipped,30,156582,,,156581,,156582,2021-10-27T22:00:26.506Z,156654.26,1635371812,full,ni_sequenzen,NI_Sequenzen,,,,,,,,,,,,,,
,Screen_3,canvas.Screen,0_2_29_2,,skipped,30,156583,,,156581,,156583,2021-10-27T22:00:26.506Z,156654.26,1635371812,full,ni_sequenzen,NI_Sequenzen,,,,,,,,,,,,,,
,Screen_4,canvas.Screen,0_2_29_3,,skipped,30,156584,,,156581,,156584,2021-10-27T22:00:26.508Z,156654.26,1635371812,full,ni_sequenzen,NI_Sequenzen,,,,,,,,,,,,,,
,Screen_5,canvas.Screen,0_2_29_4,,skipped,30,156585,,,156581,,156585,2021-10-27T22:00:26.509Z,156654.26,1635371812,full,ni_sequenzen,NI_Sequenzen,,,,,,,,,,,,,,
,Screen_6,canvas.Screen,0_2_29_5,,skipped,30,156586,,,156581,,156586,2021-10-27T22:00:26.510Z,156654.26,1635371812,full,ni_sequenzen,NI_Sequenzen,,,,,,,,,,,,,,
,Sequence,flow.Sequence,0_2_29,,completion,30,156580,,,156581,,156586,2021-10-27T22:00:26.510Z,156654.26,1635371812,full,ni_sequenzen,NI_Sequenzen,,,,,,,,,,,,,,
,Instructions_II,flow.Loop,0_2,,completion,,80998,81001.34,81008.68,156581,75572.32,156586,2021-10-27T22:00:26.510Z,156654.26,1635371812,full,ni_sequenzen,NI_Sequenzen,,,,,,,,,,,,,,
,Move,canvas.Screen,0_3_0_0_0_0,right,response,,156643,156642.88,156654.26,160177,3522.7399999999907,160194,2021-10-27T22:00:30.117Z,160208.9,1635371812,full,ni_sequenzen,NI_Sequenzen,1,0,,,,,,,,,,,,
,Move,canvas.Screen,0_3_0_0_0_1,down,response,,160208,160208.66,160208.9,160895,686.1000000000058,160904,2021-10-27T22:00:30.826Z,160916.54,1635371812,full,ni_sequenzen,NI_Sequenzen,2,0,,,,,,,,,,,,
,Move,canvas.Screen,0_3_0_0_0_2,right,response,,160916,160916.24,160916.54,161599,682.4599999999919,161613,2021-10-27T22:00:31.536Z,161624.12,1635371812,full,ni_sequenzen,NI_Sequenzen,3,0,,,,,,,,,,,,
,Move,canvas.Screen,0_3_0_0_0_3,down,response,,161624,161623.86,161624.12,162879,1254.8800000000047,162890,2021-10-27T22:00:32.813Z,162997.12,1635371812,full,ni_sequenzen,NI_Sequenzen,4,0,,,,,,,,,,,,
,Move,canvas.Screen,0_3_0_0_0_4,-999,skipped,,162900,,,162879,,162900,2021-10-27T22:00:32.824Z,162997.12,1635371812,full,ni_sequenzen,NI_Sequenzen,5,0,,,,,,,,,,,,
,Move,canvas.Screen,0_3_0_0_0_5,-999,skipped,,162910,,,162879,,162911,2021-10-27T22:00:32.834Z,162997.12,1635371812,full,ni_sequenzen,NI_Sequenzen,6,0,,,,,,,,,,,,
,Move,canvas.Screen,0_3_0_0_0_6,-999,skipped,,162920,,,162879,,162920,2021-10-27T22:00:32.844Z,162997.12,1635371812,full,ni_sequenzen,NI_Sequenzen,7,0,,,,,,,,,,,,
,Move,canvas.Screen,0_3_0_0_0_7,-999,skipped,,162930,,,162879,,162930,2021-10-27T22:00:32.853Z,162997.12,1635371812,full,ni_sequenzen,NI_Sequenzen,8,0,,,,,,,,,,,,
,Move,canvas.Screen,0_3_0_0_0_8,-999,skipped,,162940,,,162879,,162940,2021-10-27T22:00:32.863Z,162997.12,1635371812,full,ni_sequenzen,NI_Sequenzen,9,0,,,,,,,,,,,,
,Move,canvas.Screen,0_3_0_0_0_9,-999,skipped,,162950,,,162879,,162950,2021-10-27T22:00:32.872Z,162997.12,1635371812,full,ni_sequenzen,NI_Sequenzen,10,0,,,,,,,,,,,,
,Move,canvas.Screen,0_3_0_0_0_10,-999,skipped,,162958,,,162879,,162958,2021-10-27T22:00:32.882Z,162997.12,1635371812,full,ni_sequenzen,NI_Sequenzen,11,0,,,,,,,,,,,,
,Move,canvas.Screen,0_3_0_0_0_11,-999,skipped,,162966,,,162879,,162967,2021-10-27T22:00:32.890Z,162997.12,1635371812,full,ni_sequenzen,NI_Sequenzen,12,0,,,,,,,,,,,,
,Move,canvas.Screen,0_3_0_0_0_12,-999,skipped,,162975,,,162879,,162975,2021-10-27T22:00:32.898Z,162997.12,1635371812,full,ni_sequenzen,NI_Sequenzen,13,0,,,,,,,,,,,,
,Move,canvas.Screen,0_3_0_0_0_13,-999,skipped,,162983,,,162879,,162983,2021-10-27T22:00:32.906Z,162997.12,1635371812,full,ni_sequenzen,NI_Sequenzen,14,0,,,,,,,,,,,,
,Move,canvas.Screen,0_3_0_0_0_14,-999,skipped,,162990,,,162879,,162990,2021-10-27T22:00:32.913Z,162997.12,1635371812,full,ni_sequenzen,NI_Sequenzen,15,0,,,,,,,,,,,,
,Loop,flow.Loop,0_3_0_0_0,-999,completion,,156629,156642.88,156654.26,162879,6224.739999999991,162990,2021-10-27T22:00:32.913Z,162997.12,1635371812,full,ni_sequenzen,NI_Sequenzen,,0,,,,,,,,,,,,
,Feedback,canvas.Screen,0_3_0_0_1,,timeout,,162997,162996.64,162997.12,166985.86,4010.2000000000116,166987,2021-10-27T22:00:36.910Z,167007.32,1635371812,full,ni_sequenzen,NI_Sequenzen,,0,,,,,,,,,,,,
,Trial,flow.Sequence,0_3_0_0,,completion,,156617,156642.88,156654.26,166985.86,10331.599999999977,166987,2021-10-27T22:00:36.911Z,167010.82,1635371812,full,ni_sequenzen,NI_Sequenzen,,0,,,,,,,,,,,,
,Move,canvas.Screen,0_3_0_1_0_0,down,response,,167008,167007.32,167010.82,169411,2400.179999999993,169423,2021-10-27T22:00:39.346Z,169435.42,1635371812,full,ni_sequenzen,NI_Sequenzen,1,1,,,,,,,,,,,,
,Move,canvas.Screen,0_3_0_1_0_1,left,response,,169433,169433.48,169435.42,169754,318.5799999999872,169762,2021-10-27T22:00:39.685Z,169772.78,1635371812,full,ni_sequenzen,NI_Sequenzen,2,1,,,,,,,,,,,,
,Move,canvas.Screen,0_3_0_1_0_2,down,response,,169772,169772.46,169772.78,170082,309.22000000000116,170094,2021-10-27T22:00:40.017Z,170105.94,1635371812,full,ni_sequenzen,NI_Sequenzen,3,1,,,,,,,,,,,,
,Move,canvas.Screen,0_3_0_1_0_3,left,response,,170105,170105.6,170105.94,170489,383.0599999999977,170502,2021-10-27T22:00:40.425Z,170596.52,1635371812,full,ni_sequenzen,NI_Sequenzen,4,1,,,,,,,,,,,,
,Move,canvas.Screen,0_3_0_1_0_4,-999,skipped,,170511,,,170489,,170512,2021-10-27T22:00:40.435Z,170596.52,1635371812,full,ni_sequenzen,NI_Sequenzen,5,1,,,,,,,,,,,,
,Move,canvas.Screen,0_3_0_1_0_5,-999,skipped,,170520,,,170489,,170521,2021-10-27T22:00:40.444Z,170596.52,1635371812,full,ni_sequenzen,NI_Sequenzen,6,1,,,,,,,,,,,,
,Move,canvas.Screen,0_3_0_1_0_6,-999,skipped,,170530,,,170489,,170530,2021-10-27T22:00:40.453Z,170596.52,1635371812,full,ni_sequenzen,NI_Sequenzen,7,1,,,,,,,,,,,,
,Move,canvas.Screen,0_3_0_1_0_7,-999,skipped,,170538,,,170489,,170538,2021-10-27T22:00:40.461Z,170596.52,1635371812,full,ni_sequenzen,NI_Sequenzen,8,1,,,,,,,,,,,,
,Move,canvas.Screen,0_3_0_1_0_8,-999,skipped,,170546,,,170489,,170546,2021-10-27T22:00:40.469Z,170596.52,1635371812,full,ni_sequenzen,NI_Sequenzen,9,1,,,,,,,,,,,,
,Move,canvas.Screen,0_3_0_1_0_9,-999,skipped,,170553,,,170489,,170553,2021-10-27T22:00:40.476Z,170596.52,1635371812,full,ni_sequenzen,NI_Sequenzen,10,1,,,,,,,,,,,,
,Move,canvas.Screen,0_3_0_1_0_10,-999,skipped,,170561,,,170489,,170561,2021-10-27T22:00:40.484Z,170596.52,1635371812,full,ni_sequenzen,NI_Sequenzen,11,1,,,,,,,,,,,,
,Move,canvas.Screen,0_3_0_1_0_11,-999,skipped,,170569,,,170489,,170569,2021-10-27T22:00:40.492Z,170596.52,1635371812,full,ni_sequenzen,NI_Sequenzen,12,1,,,,,,,,,,,,
,Move,canvas.Screen,0_3_0_1_0_12,-999,skipped,,170576,,,170489,,170576,2021-10-27T22:00:40.500Z,170596.52,1635371812,full,ni_sequenzen,NI_Sequenzen,13,1,,,,,,,,,,,,
,Move,canvas.Screen,0_3_0_1_0_13,-999,skipped,,170583,,,170489,,170583,2021-10-27T22:00:40.507Z,170596.52,1635371812,full,ni_sequenzen,NI_Sequenzen,14,1,,,,,,,,,,,,
,Move,canvas.Screen,0_3_0_1_0_14,-999,skipped,,170590,,,170489,,170590,2021-10-27T22:00:40.513Z,170596.52,1635371812,full,ni_sequenzen,NI_Sequenzen,15,1,,,,,,,,,,,,
,Loop,flow.Loop,0_3_0_1_0,-999,completion,,166998,167007.32,167010.82,170489,3478.179999999993,170590,2021-10-27T22:00:40.513Z,170596.52,1635371812,full,ni_sequenzen,NI_Sequenzen,,1,,,,,,,,,,,,
,Feedback,canvas.Screen,0_3_0_1_1,,timeout,,170596,170595.92,170596.52,174584.52,4008.1200000000244,174585,2021-10-27T22:00:44.509Z,174604.64,1635371812,full,ni_sequenzen,NI_Sequenzen,,1,,,,,,,,,,,,
,Trial,flow.Sequence,0_3_0_1,,completion,,166987,167007.32,167010.82,174584.52,7573.6999999999825,174585,2021-10-27T22:00:44.509Z,174609.52,1635371812,full,ni_sequenzen,NI_Sequenzen,,1,,,,,,,,,,,,
,Move,canvas.Screen,0_3_0_2_0_0,left,response,,174605,174604.64,174609.52,177661,3051.4800000000105,177679,2021-10-27T22:00:47.601Z,177688.14,1635371812,full,ni_sequenzen,NI_Sequenzen,1,2,,,,,,,,,,,,
,Move,canvas.Screen,0_3_0_2_0_1,down,response,,177688,177687.94,177688.14,178176,487.85999999998603,178179,2021-10-27T22:00:48.102Z,178189.26,1635371812,full,ni_sequenzen,NI_Sequenzen,2,2,,,,,,,,,,,,
,Move,canvas.Screen,0_3_0_2_0_2,down,response,,178189,178188.94,178189.26,178974,784.7399999999907,178987,2021-10-27T22:00:48.910Z,178997.2,1635371812,full,ni_sequenzen,NI_Sequenzen,3,2,,,,,,,,,,,,
,Move,canvas.Screen,0_3_0_2_0_3,left,response,,178997,178996.88,178997.2,179349,351.79999999998836,179360,2021-10-27T22:00:49.283Z,179466.62,1635371812,full,ni_sequenzen,NI_Sequenzen,4,2,,,,,,,,,,,,
,Move,canvas.Screen,0_3_0_2_0_4,-999,skipped,,179370,,,179349,,179371,2021-10-27T22:00:49.293Z,179466.62,1635371812,full,ni_sequenzen,NI_Sequenzen,5,2,,,,,,,,,,,,
,Move,canvas.Screen,0_3_0_2_0_5,-999,skipped,,179379,,,179349,,179379,2021-10-27T22:00:49.302Z,179466.62,1635371812,full,ni_sequenzen,NI_Sequenzen,6,2,,,,,,,,,,,,
,Move,canvas.Screen,0_3_0_2_0_6,-999,skipped,,179388,,,179349,,179388,2021-10-27T22:00:49.311Z,179466.62,1635371812,full,ni_sequenzen,NI_Sequenzen,7,2,,,,,,,,,,,,
,Move,canvas.Screen,0_3_0_2_0_7,-999,skipped,,179397,,,179349,,179398,2021-10-27T22:00:49.321Z,179466.62,1635371812,full,ni_sequenzen,NI_Sequenzen,8,2,,,,,,,,,,,,
,Move,canvas.Screen,0_3_0_2_0_8,-999,skipped,,179407,,,179349,,179407,2021-10-27T22:00:49.330Z,179466.62,1635371812,full,ni_sequenzen,NI_Sequenzen,9,2,,,,,,,,,,,,
,Move,canvas.Screen,0_3_0_2_0_9,-999,skipped,,179415,,,179349,,179416,2021-10-27T22:00:49.339Z,179466.62,1635371812,full,ni_sequenzen,NI_Sequenzen,10,2,,,,,,,,,,,,
,Move,canvas.Screen,0_3_0_2_0_10,-999,skipped,,179424,,,179349,,179424,2021-10-27T22:00:49.347Z,179466.62,1635371812,full,ni_sequenzen,NI_Sequenzen,11,2,,,,,,,,,,,,
,Move,canvas.Screen,0_3_0_2_0_11,-999,skipped,,179433,,,179349,,179433,2021-10-27T22:00:49.355Z,179466.62,1635371812,full,ni_sequenzen,NI_Sequenzen,12,2,,,,,,,,,,,,
,Move,canvas.Screen,0_3_0_2_0_12,-999,skipped,,179439,,,179349,,179440,2021-10-27T22:00:49.363Z,179466.62,1635371812,full,ni_sequenzen,NI_Sequenzen,13,2,,,,,,,,,,,,
,Move,canvas.Screen,0_3_0_2_0_13,-999,skipped,,179448,,,179349,,179448,2021-10-27T22:00:49.371Z,179466.62,1635371812,full,ni_sequenzen,NI_Sequenzen,14,2,,,,,,,,,,,,
,Move,canvas.Screen,0_3_0_2_0_14,-999,skipped,,179458,,,179349,,179458,2021-10-27T22:00:49.382Z,179466.62,1635371812,full,ni_sequenzen,NI_Sequenzen,15,2,,,,,,,,,,,,
,Loop,flow.Loop,0_3_0_2_0,-999,completion,,174596,174604.64,174609.52,179349,4739.4800000000105,179458,2021-10-27T22:00:49.382Z,179466.62,1635371812,full,ni_sequenzen,NI_Sequenzen,,2,,,,,,,,,,,,
,Feedback,canvas.Screen,0_3_0_2_1,,timeout,,179467,179466.32,179466.62,183458.04,4011.3000000000175,183458,2021-10-27T22:00:53.382Z,183477.92,1635371812,full,ni_sequenzen,NI_Sequenzen,,2,,,,,,,,,,,,
,Trial,flow.Sequence,0_3_0_2,,completion,,174586,174604.64,174609.52,183458.04,8848.520000000019,183459,2021-10-27T22:00:53.382Z,183483.04,1635371812,full,ni_sequenzen,NI_Sequenzen,,2,,,,,,,,,,,,
,Move,canvas.Screen,0_3_0_3_0_0,down,response,,183478,183477.92,183483.04,189927,6443.959999999992,189934,2021-10-27T22:00:59.857Z,189943.8,1635371812,full,ni_sequenzen,NI_Sequenzen,1,3,,,,,,,,,,,,
,Move,canvas.Screen,0_3_0_3_0_1,left,response,,189944,189943.58,189943.8,190989,1045.2000000000116,190991,2021-10-27T22:01:00.914Z,191001.32,1635371812,full,ni_sequenzen,NI_Sequenzen,2,3,,,,,,,,,,,,
,Move,canvas.Screen,0_3_0_3_0_2,down,response,,191001,191001.1,191001.32,192254,1252.679999999993,192267,2021-10-27T22:01:02.190Z,192289.58,1635371812,full,ni_sequenzen,NI_Sequenzen,3,3,,,,,,,,,,,,
,Move,canvas.Screen,0_3_0_3_0_3,left,response,,192289,192289.32,192289.58,192661,371.4200000000128,192671,2021-10-27T22:01:02.595Z,192793.6,1635371812,full,ni_sequenzen,NI_Sequenzen,4,3,,,,,,,,,,,,
,Move,canvas.Screen,0_3_0_3_0_4,-999,skipped,,192688,,,192661,,192688,2021-10-27T22:01:02.611Z,192793.6,1635371812,full,ni_sequenzen,NI_Sequenzen,5,3,,,,,,,,,,,,
,Move,canvas.Screen,0_3_0_3_0_5,-999,skipped,,192702,,,192661,,192703,2021-10-27T22:01:02.626Z,192793.6,1635371812,full,ni_sequenzen,NI_Sequenzen,6,3,,,,,,,,,,,,
,Move,canvas.Screen,0_3_0_3_0_6,-999,skipped,,192716,,,192661,,192716,2021-10-27T22:01:02.639Z,192793.6,1635371812,full,ni_sequenzen,NI_Sequenzen,7,3,,,,,,,,,,,,
,Move,canvas.Screen,0_3_0_3_0_7,-999,skipped,,192726,,,192661,,192726,2021-10-27T22:01:02.649Z,192793.6,1635371812,full,ni_sequenzen,NI_Sequenzen,8,3,,,,,,,,,,,,
,Move,canvas.Screen,0_3_0_3_0_8,-999,skipped,,192736,,,192661,,192736,2021-10-27T22:01:02.658Z,192793.6,1635371812,full,ni_sequenzen,NI_Sequenzen,9,3,,,,,,,,,,,,
,Move,canvas.Screen,0_3_0_3_0_9,-999,skipped,,192746,,,192661,,192746,2021-10-27T22:01:02.669Z,192793.6,1635371812,full,ni_sequenzen,NI_Sequenzen,10,3,,,,,,,,,,,,
,Move,canvas.Screen,0_3_0_3_0_10,-999,skipped,,192754,,,192661,,192754,2021-10-27T22:01:02.677Z,192793.6,1635371812,full,ni_sequenzen,NI_Sequenzen,11,3,,,,,,,,,,,,
,Move,canvas.Screen,0_3_0_3_0_11,-999,skipped,,192762,,,192661,,192762,2021-10-27T22:01:02.686Z,192793.6,1635371812,full,ni_sequenzen,NI_Sequenzen,12,3,,,,,,,,,,,,
,Move,canvas.Screen,0_3_0_3_0_12,-999,skipped,,192769,,,192661,,192769,2021-10-27T22:01:02.692Z,192793.6,1635371812,full,ni_sequenzen,NI_Sequenzen,13,3,,,,,,,,,,,,
,Move,canvas.Screen,0_3_0_3_0_13,-999,skipped,,192777,,,192661,,192777,2021-10-27T22:01:02.701Z,192793.6,1635371812,full,ni_sequenzen,NI_Sequenzen,14,3,,,,,,,,,,,,
,Move,canvas.Screen,0_3_0_3_0_14,-999,skipped,,192783,,,192661,,192783,2021-10-27T22:01:02.706Z,192793.6,1635371812,full,ni_sequenzen,NI_Sequenzen,15,3,,,,,,,,,,,,
,Loop,flow.Loop,0_3_0_3_0,-999,completion,,183469,183477.92,183483.04,192661,9177.959999999992,192783,2021-10-27T22:01:02.707Z,192793.6,1635371812,full,ni_sequenzen,NI_Sequenzen,,3,,,,,,,,,,,,
,Feedback,canvas.Screen,0_3_0_3_1,,timeout,,192793,192793.4,192793.6,196789.1,4045.1600000000035,196790,2021-10-27T22:01:06.714Z,196838.76,1635371812,full,ni_sequenzen,NI_Sequenzen,,3,,,,,,,,,,,,
,Trial,flow.Sequence,0_3_0_3,,completion,,183459,183477.92,183483.04,196789.1,13306.059999999998,196792,2021-10-27T22:01:06.715Z,196839.1,1635371812,full,ni_sequenzen,NI_Sequenzen,,3,,,,,,,,,,,,
,Move,canvas.Screen,0_3_0_4_0_0,right,response,,196839,196838.76,196839.1,198863,2023.8999999999942,198876,2021-10-27T22:01:08.800Z,198893.62,1635371812,full,ni_sequenzen,NI_Sequenzen,1,4,,,,,,,,,,,,
,Move,canvas.Screen,0_3_0_4_0_1,down,response,,198894,198893.36,198893.62,199224,330.38000000000466,199235,2021-10-27T22:01:09.158Z,199251.36,1635371812,full,ni_sequenzen,NI_Sequenzen,2,4,,,,,,,,,,,,
,Move,canvas.Screen,0_3_0_4_0_2,right,response,,199251,199251.1,199251.36,199552,300.64000000001397,199559,2021-10-27T22:01:09.483Z,199574.32,1635371812,full,ni_sequenzen,NI_Sequenzen,3,4,,,,,,,,,,,,
,Move,canvas.Screen,0_3_0_4_0_3,down,response,,199574,199574.04,199574.32,199941,366.679999999993,199949,2021-10-27T22:01:09.872Z,200059.96,1635371812,full,ni_sequenzen,NI_Sequenzen,4,4,,,,,,,,,,,,
,Move,canvas.Screen,0_3_0_4_0_4,-999,skipped,,199964,,,199941,,199965,2021-10-27T22:01:09.888Z,200059.96,1635371812,full,ni_sequenzen,NI_Sequenzen,5,4,,,,,,,,,,,,
,Move,canvas.Screen,0_3_0_4_0_5,-999,skipped,,199976,,,199941,,199976,2021-10-27T22:01:09.899Z,200059.96,1635371812,full,ni_sequenzen,NI_Sequenzen,6,4,,,,,,,,,,,,
,Move,canvas.Screen,0_3_0_4_0_6,-999,skipped,,199986,,,199941,,199986,2021-10-27T22:01:09.909Z,200059.96,1635371812,full,ni_sequenzen,NI_Sequenzen,7,4,,,,,,,,,,,,
,Move,canvas.Screen,0_3_0_4_0_7,-999,skipped,,199996,,,199941,,199996,2021-10-27T22:01:09.919Z,200059.96,1635371812,full,ni_sequenzen,NI_Sequenzen,8,4,,,,,,,,,,,,
,Move,canvas.Screen,0_3_0_4_0_8,-999,skipped,,200005,,,199941,,200005,2021-10-27T22:01:09.928Z,200059.96,1635371812,full,ni_sequenzen,NI_Sequenzen,9,4,,,,,,,,,,,,
,Move,canvas.Screen,0_3_0_4_0_9,-999,skipped,,200014,,,199941,,200014,2021-10-27T22:01:09.937Z,200059.96,1635371812,full,ni_sequenzen,NI_Sequenzen,10,4,,,,,,,,,,,,
,Move,canvas.Screen,0_3_0_4_0_10,-999,skipped,,200022,,,199941,,200023,2021-10-27T22:01:09.945Z,200059.96,1635371812,full,ni_sequenzen,NI_Sequenzen,11,4,,,,,,,,,,,,
,Move,canvas.Screen,0_3_0_4_0_11,-999,skipped,,200030,,,199941,,200030,2021-10-27T22:01:09.953Z,200059.96,1635371812,full,ni_sequenzen,NI_Sequenzen,12,4,,,,,,,,,,,,
,Move,canvas.Screen,0_3_0_4_0_12,-999,skipped,,200037,,,199941,,200037,2021-10-27T22:01:09.961Z,200059.96,1635371812,full,ni_sequenzen,NI_Sequenzen,13,4,,,,,,,,,,,,
,Move,canvas.Screen,0_3_0_4_0_13,-999,skipped,,200045,,,199941,,200045,2021-10-27T22:01:09.969Z,200059.96,1635371812,full,ni_sequenzen,NI_Sequenzen,14,4,,,,,,,,,,,,
,Move,canvas.Screen,0_3_0_4_0_14,-999,skipped,,200053,,,199941,,200053,2021-10-27T22:01:09.976Z,200059.96,1635371812,full,ni_sequenzen,NI_Sequenzen,15,4,,,,,,,,,,,,
,Loop,flow.Loop,0_3_0_4_0,-999,completion,,196822,196838.76,196839.1,199941,3101.899999999994,200053,2021-10-27T22:01:09.976Z,200059.96,1635371812,full,ni_sequenzen,NI_Sequenzen,,4,,,,,,,,,,,,
,Feedback,canvas.Screen,0_3_0_4_1,,timeout,,200060,200059.58,200059.96,204054.6,4023.5200000000186,204055,2021-10-27T22:01:13.979Z,204083.48,1635371812,full,ni_sequenzen,NI_Sequenzen,,4,,,,,,,,,,,,
,Trial,flow.Sequence,0_3_0_4,,completion,,196794,196838.76,196839.1,204054.6,7215.5,204055,2021-10-27T22:01:13.979Z,204087.88,1635371812,full,ni_sequenzen,NI_Sequenzen,,4,,,,,,,,,,,,
,Move,canvas.Screen,0_3_0_5_0_0,down,response,,204084,204083.48,204087.88,213894,9806.119999999995,213901,2021-10-27T22:01:23.825Z,213911.6,1635371812,full,ni_sequenzen,NI_Sequenzen,1,5,,,,,,,,,,,,
,Move,canvas.Screen,0_3_0_5_0_1,left,response,,213911,213911.36,213911.6,214333,421.3999999999942,214336,2021-10-27T22:01:24.259Z,214346.84,1635371812,full,ni_sequenzen,NI_Sequenzen,2,5,,,,,,,,,,,,
,Move,canvas.Screen,0_3_0_5_0_2,down,response,,214347,214346.5,214346.84,215036,689.1600000000035,215050,2021-10-27T22:01:24.974Z,215061.48,1635371812,full,ni_sequenzen,NI_Sequenzen,3,5,,,,,,,,,,,,
,Move,canvas.Screen,0_3_0_5_0_3,left,response,,215061,215061.24,215061.48,215302,240.51999999998952,215314,2021-10-27T22:01:25.237Z,215424.64,1635371812,full,ni_sequenzen,NI_Sequenzen,4,5,,,,,,,,,,,,
,Move,canvas.Screen,0_3_0_5_0_4,-999,skipped,,215325,,,215302,,215325,2021-10-27T22:01:25.248Z,215424.64,1635371812,full,ni_sequenzen,NI_Sequenzen,5,5,,,,,,,,,,,,
,Move,canvas.Screen,0_3_0_5_0_5,-999,skipped,,215336,,,215302,,215336,2021-10-27T22:01:25.258Z,215424.64,1635371812,full,ni_sequenzen,NI_Sequenzen,6,5,,,,,,,,,,,,
,Move,canvas.Screen,0_3_0_5_0_6,-999,skipped,,215344,,,215302,,215344,2021-10-27T22:01:25.267Z,215424.64,1635371812,full,ni_sequenzen,NI_Sequenzen,7,5,,,,,,,,,,,,
,Move,canvas.Screen,0_3_0_5_0_7,-999,skipped,,215354,,,215302,,215354,2021-10-27T22:01:25.276Z,215424.64,1635371812,full,ni_sequenzen,NI_Sequenzen,8,5,,,,,,,,,,,,
,Move,canvas.Screen,0_3_0_5_0_8,-999,skipped,,215362,,,215302,,215362,2021-10-27T22:01:25.285Z,215424.64,1635371812,full,ni_sequenzen,NI_Sequenzen,9,5,,,,,,,,,,,,
,Move,canvas.Screen,0_3_0_5_0_9,-999,skipped,,215370,,,215302,,215371,2021-10-27T22:01:25.294Z,215424.64,1635371812,full,ni_sequenzen,NI_Sequenzen,10,5,,,,,,,,,,,,
,Move,canvas.Screen,0_3_0_5_0_10,-999,skipped,,215380,,,215302,,215380,2021-10-27T22:01:25.303Z,215424.64,1635371812,full,ni_sequenzen,NI_Sequenzen,11,5,,,,,,,,,,,,
,Move,canvas.Screen,0_3_0_5_0_11,-999,skipped,,215390,,,215302,,215390,2021-10-27T22:01:25.314Z,215424.64,1635371812,full,ni_sequenzen,NI_Sequenzen,12,5,,,,,,,,,,,,
,Move,canvas.Screen,0_3_0_5_0_12,-999,skipped,,215400,,,215302,,215400,2021-10-27T22:01:25.323Z,215424.64,1635371812,full,ni_sequenzen,NI_Sequenzen,13,5,,,,,,,,,,,,
,Move,canvas.Screen,0_3_0_5_0_13,-999,skipped,,215409,,,215302,,215409,2021-10-27T22:01:25.333Z,215424.64,1635371812,full,ni_sequenzen,NI_Sequenzen,14,5,,,,,,,,,,,,
,Move,canvas.Screen,0_3_0_5_0_14,-999,skipped,,215418,,,215302,,215418,2021-10-27T22:01:25.341Z,215424.64,1635371812,full,ni_sequenzen,NI_Sequenzen,15,5,,,,,,,,,,,,
,Loop,flow.Loop,0_3_0_5_0,-999,completion,,204073,204083.48,204087.88,215302,11214.119999999995,215418,2021-10-27T22:01:25.341Z,215424.64,1635371812,full,ni_sequenzen,NI_Sequenzen,,5,,,,,,,,,,,,
,Feedback,canvas.Screen,0_3_0_5_1,,timeout,,215424,215424.28,215424.64,219418.64,4017.4799999999814,219419,2021-10-27T22:01:29.342Z,219442.12,1635371812,full,ni_sequenzen,NI_Sequenzen,,5,,,,,,,,,,,,
,Trial,flow.Sequence,0_3_0_5,,completion,,204056,204083.48,204087.88,219418.64,15330.76000000001,219420,2021-10-27T22:01:29.343Z,219443.64,1635371812,full,ni_sequenzen,NI_Sequenzen,,5,,,,,,,,,,,,
,Move,canvas.Screen,0_3_0_6_0_0,right,response,,219442,219442.12,219443.64,224488,5044.359999999986,224499,2021-10-27T22:01:34.422Z,224508.82,1635371812,full,ni_sequenzen,NI_Sequenzen,1,6,,,,,,,,,,,,
,Move,canvas.Screen,0_3_0_6_0_1,down,response,,224509,224508.56,224508.82,225880,1371.179999999993,225896,2021-10-27T22:01:35.820Z,225906.88,1635371812,full,ni_sequenzen,NI_Sequenzen,2,6,,,,,,,,,,,,
,Move,canvas.Screen,0_3_0_6_0_2,right,response,,225907,225906.62,225906.88,226974,1067.1199999999953,226977,2021-10-27T22:01:36.901Z,226987.84,1635371812,full,ni_sequenzen,NI_Sequenzen,3,6,,,,,,,,,,,,
,Move,canvas.Screen,0_3_0_6_0_3,down,response,,226988,226987.46,226987.84,227348,360.1600000000035,227353,2021-10-27T22:01:37.276Z,227467.26,1635371812,full,ni_sequenzen,NI_Sequenzen,4,6,,,,,,,,,,,,
,Move,canvas.Screen,0_3_0_6_0_4,-999,skipped,,227363,,,227348,,227363,2021-10-27T22:01:37.286Z,227467.26,1635371812,full,ni_sequenzen,NI_Sequenzen,5,6,,,,,,,,,,,,
,Move,canvas.Screen,0_3_0_6_0_5,-999,skipped,,227372,,,227348,,227373,2021-10-27T22:01:37.296Z,227467.26,1635371812,full,ni_sequenzen,NI_Sequenzen,6,6,,,,,,,,,,,,
,Move,canvas.Screen,0_3_0_6_0_6,-999,skipped,,227381,,,227348,,227381,2021-10-27T22:01:37.304Z,227467.26,1635371812,full,ni_sequenzen,NI_Sequenzen,7,6,,,,,,,,,,,,
,Move,canvas.Screen,0_3_0_6_0_7,-999,skipped,,227389,,,227348,,227389,2021-10-27T22:01:37.313Z,227467.26,1635371812,full,ni_sequenzen,NI_Sequenzen,8,6,,,,,,,,,,,,
,Move,canvas.Screen,0_3_0_6_0_8,-999,skipped,,227398,,,227348,,227398,2021-10-27T22:01:37.321Z,227467.26,1635371812,full,ni_sequenzen,NI_Sequenzen,9,6,,,,,,,,,,,,
,Move,canvas.Screen,0_3_0_6_0_9,-999,skipped,,227407,,,227348,,227408,2021-10-27T22:01:37.331Z,227467.26,1635371812,full,ni_sequenzen,NI_Sequenzen,10,6,,,,,,,,,,,,
,Move,canvas.Screen,0_3_0_6_0_10,-999,skipped,,227417,,,227348,,227417,2021-10-27T22:01:37.341Z,227467.26,1635371812,full,ni_sequenzen,NI_Sequenzen,11,6,,,,,,,,,,,,
,Move,canvas.Screen,0_3_0_6_0_11,-999,skipped,,227428,,,227348,,227428,2021-10-27T22:01:37.351Z,227467.26,1635371812,full,ni_sequenzen,NI_Sequenzen,12,6,,,,,,,,,,,,
,Move,canvas.Screen,0_3_0_6_0_12,-999,skipped,,227437,,,227348,,227438,2021-10-27T22:01:37.361Z,227467.26,1635371812,full,ni_sequenzen,NI_Sequenzen,13,6,,,,,,,,,,,,
,Move,canvas.Screen,0_3_0_6_0_13,-999,skipped,,227447,,,227348,,227447,2021-10-27T22:01:37.371Z,227467.26,1635371812,full,ni_sequenzen,NI_Sequenzen,14,6,,,,,,,,,,,,
,Move,canvas.Screen,0_3_0_6_0_14,-999,skipped,,227457,,,227348,,227457,2021-10-27T22:01:37.381Z,227467.26,1635371812,full,ni_sequenzen,NI_Sequenzen,15,6,,,,,,,,,,,,
,Loop,flow.Loop,0_3_0_6_0,-999,completion,,219433,219442.12,219443.64,227348,7904.359999999986,227457,2021-10-27T22:01:37.381Z,227467.26,1635371812,full,ni_sequenzen,NI_Sequenzen,,6,,,,,,,,,,,,
,Feedback,canvas.Screen,0_3_0_6_1,,timeout,,227466,227465.38,227467.26,231458.28,4011.1600000000035,231459,2021-10-27T22:01:41.382Z,231478.42,1635371812,full,ni_sequenzen,NI_Sequenzen,,6,,,,,,,,,,,,
,Trial,flow.Sequence,0_3_0_6,,completion,,219420,219442.12,219443.64,231458.28,12014.639999999985,231459,2021-10-27T22:01:41.383Z,231483.28,1635371812,full,ni_sequenzen,NI_Sequenzen,,6,,,,,,,,,,,,
,Move,canvas.Screen,0_3_0_7_0_0,right,response,,231478,231478.42,231483.28,232880,1396.7200000000012,232889,2021-10-27T22:01:42.813Z,232899.26,1635371812,full,ni_sequenzen,NI_Sequenzen,1,7,,,,,,,,,,,,
,Move,canvas.Screen,0_3_0_7_0_1,down,response,,232899,232898.96,232899.26,233145,245.7399999999907,233154,2021-10-27T22:01:43.078Z,233163.72,1635371812,full,ni_sequenzen,NI_Sequenzen,2,7,,,,,,,,,,,,
,Move,canvas.Screen,0_3_0_7_0_2,right,response,,233163,233163.46,233163.72,233349,185.27999999999884,233356,2021-10-27T22:01:43.279Z,233365.78,1635371812,full,ni_sequenzen,NI_Sequenzen,3,7,,,,,,,,,,,,
,Move,canvas.Screen,0_3_0_7_0_3,down,response,,233365,233365.58,233365.78,233566,200.22000000000116,233569,2021-10-27T22:01:43.493Z,233661.26,1635371812,full,ni_sequenzen,NI_Sequenzen,4,7,,,,,,,,,,,,
,Move,canvas.Screen,0_3_0_7_0_4,-999,skipped,,233579,,,233566,,233579,2021-10-27T22:01:43.503Z,233661.26,1635371812,full,ni_sequenzen,NI_Sequenzen,5,7,,,,,,,,,,,,
,Move,canvas.Screen,0_3_0_7_0_5,-999,skipped,,233588,,,233566,,233588,2021-10-27T22:01:43.512Z,233661.26,1635371812,full,ni_sequenzen,NI_Sequenzen,6,7,,,,,,,,,,,,
,Move,canvas.Screen,0_3_0_7_0_6,-999,skipped,,233597,,,233566,,233597,2021-10-27T22:01:43.520Z,233661.26,1635371812,full,ni_sequenzen,NI_Sequenzen,7,7,,,,,,,,,,,,
,Move,canvas.Screen,0_3_0_7_0_7,-999,skipped,,233605,,,233566,,233605,2021-10-27T22:01:43.528Z,233661.26,1635371812,full,ni_sequenzen,NI_Sequenzen,8,7,,,,,,,,,,,,
,Move,canvas.Screen,0_3_0_7_0_8,-999,skipped,,233613,,,233566,,233613,2021-10-27T22:01:43.537Z,233661.26,1635371812,full,ni_sequenzen,NI_Sequenzen,9,7,,,,,,,,,,,,
,Move,canvas.Screen,0_3_0_7_0_9,-999,skipped,,233621,,,233566,,233621,2021-10-27T22:01:43.545Z,233661.26,1635371812,full,ni_sequenzen,NI_Sequenzen,10,7,,,,,,,,,,,,
,Move,canvas.Screen,0_3_0_7_0_10,-999,skipped,,233628,,,233566,,233628,2021-10-27T22:01:43.552Z,233661.26,1635371812,full,ni_sequenzen,NI_Sequenzen,11,7,,,,,,,,,,,,
,Move,canvas.Screen,0_3_0_7_0_11,-999,skipped,,233635,,,233566,,233636,2021-10-27T22:01:43.559Z,233661.26,1635371812,full,ni_sequenzen,NI_Sequenzen,12,7,,,,,,,,,,,,
,Move,canvas.Screen,0_3_0_7_0_12,-999,skipped,,233642,,,233566,,233642,2021-10-27T22:01:43.565Z,233661.26,1635371812,full,ni_sequenzen,NI_Sequenzen,13,7,,,,,,,,,,,,
,Move,canvas.Screen,0_3_0_7_0_13,-999,skipped,,233649,,,233566,,233649,2021-10-27T22:01:43.572Z,233661.26,1635371812,full,ni_sequenzen,NI_Sequenzen,14,7,,,,,,,,,,,,
,Move,canvas.Screen,0_3_0_7_0_14,-999,skipped,,233655,,,233566,,233655,2021-10-27T22:01:43.579Z,233661.26,1635371812,full,ni_sequenzen,NI_Sequenzen,15,7,,,,,,,,,,,,
,Loop,flow.Loop,0_3_0_7_0,-999,completion,,231469,231478.42,231483.28,233566,2082.720000000001,233656,2021-10-27T22:01:43.579Z,233661.26,1635371812,full,ni_sequenzen,NI_Sequenzen,,7,,,,,,,,,,,,
,Feedback,canvas.Screen,0_3_0_7_1,,timeout,,233661,233660.92,233661.26,237648.88,4007.220000000001,237649,2021-10-27T22:01:47.572Z,237668.48,1635371812,full,ni_sequenzen,NI_Sequenzen,,7,,,,,,,,,,,,
,Trial,flow.Sequence,0_3_0_7,,completion,,231460,231478.42,231483.28,237648.88,6165.600000000006,237650,2021-10-27T22:01:47.573Z,237673.88,1635371812,full,ni_sequenzen,NI_Sequenzen,,7,,,,,,,,,,,,
,Move,canvas.Screen,0_3_0_8_0_0,right,response,,237668,237668.48,237673.88,238177,503.11999999999534,238189,2021-10-27T22:01:48.112Z,238198.68,1635371812,full,ni_sequenzen,NI_Sequenzen,1,8,,,,,,,,,,,,
,Move,canvas.Screen,0_3_0_8_0_1,down,response,,238198,238198.38,238198.68,238380,181.32000000000698,238387,2021-10-27T22:01:48.311Z,238398.78,1635371812,full,ni_sequenzen,NI_Sequenzen,2,8,,,,,,,,,,,,
,Move,canvas.Screen,0_3_0_8_0_2,right,response,,238397,238397.44,238398.78,238551,152.22000000000116,238556,2021-10-27T22:01:48.479Z,238565.48,1635371812,full,ni_sequenzen,NI_Sequenzen,3,8,,,,,,,,,,,,
,Move,canvas.Screen,0_3_0_8_0_3,down,response,,238565,238565.26,238565.48,238676,110.51999999998952,238691,2021-10-27T22:01:48.614Z,238792.58,1635371812,full,ni_sequenzen,NI_Sequenzen,4,8,,,,,,,,,,,,
,Move,canvas.Screen,0_3_0_8_0_4,-999,skipped,,238701,,,238676,,238701,2021-10-27T22:01:48.624Z,238792.58,1635371812,full,ni_sequenzen,NI_Sequenzen,5,8,,,,,,,,,,,,
,Move,canvas.Screen,0_3_0_8_0_5,-999,skipped,,238710,,,238676,,238710,2021-10-27T22:01:48.634Z,238792.58,1635371812,full,ni_sequenzen,NI_Sequenzen,6,8,,,,,,,,,,,,
,Move,canvas.Screen,0_3_0_8_0_6,-999,skipped,,238719,,,238676,,238719,2021-10-27T22:01:48.642Z,238792.58,1635371812,full,ni_sequenzen,NI_Sequenzen,7,8,,,,,,,,,,,,
,Move,canvas.Screen,0_3_0_8_0_7,-999,skipped,,238728,,,238676,,238728,2021-10-27T22:01:48.651Z,238792.58,1635371812,full,ni_sequenzen,NI_Sequenzen,8,8,,,,,,,,,,,,
,Move,canvas.Screen,0_3_0_8_0_8,-999,skipped,,238736,,,238676,,238736,2021-10-27T22:01:48.659Z,238792.58,1635371812,full,ni_sequenzen,NI_Sequenzen,9,8,,,,,,,,,,,,
,Move,canvas.Screen,0_3_0_8_0_9,-999,skipped,,238743,,,238676,,238745,2021-10-27T22:01:48.667Z,238792.58,1635371812,full,ni_sequenzen,NI_Sequenzen,10,8,,,,,,,,,,,,
,Move,canvas.Screen,0_3_0_8_0_10,-999,skipped,,238751,,,238676,,238751,2021-10-27T22:01:48.674Z,238792.58,1635371812,full,ni_sequenzen,NI_Sequenzen,11,8,,,,,,,,,,,,
,Move,canvas.Screen,0_3_0_8_0_11,-999,skipped,,238758,,,238676,,238758,2021-10-27T22:01:48.682Z,238792.58,1635371812,full,ni_sequenzen,NI_Sequenzen,12,8,,,,,,,,,,,,
,Move,canvas.Screen,0_3_0_8_0_12,-999,skipped,,238765,,,238676,,238765,2021-10-27T22:01:48.688Z,238792.58,1635371812,full,ni_sequenzen,NI_Sequenzen,13,8,,,,,,,,,,,,
,Move,canvas.Screen,0_3_0_8_0_13,-999,skipped,,238775,,,238676,,238775,2021-10-27T22:01:48.698Z,238792.58,1635371812,full,ni_sequenzen,NI_Sequenzen,14,8,,,,,,,,,,,,
,Move,canvas.Screen,0_3_0_8_0_14,-999,skipped,,238784,,,238676,,238784,2021-10-27T22:01:48.707Z,238792.58,1635371812,full,ni_sequenzen,NI_Sequenzen,15,8,,,,,,,,,,,,
,Loop,flow.Loop,0_3_0_8_0,-999,completion,,237660,237668.48,237673.88,238676,1002.1199999999953,238785,2021-10-27T22:01:48.708Z,238792.58,1635371812,full,ni_sequenzen,NI_Sequenzen,,8,,,,,,,,,,,,
,Feedback,canvas.Screen,0_3_0_8_1,,timeout,,238792,238792.26,238792.58,242781.36,4011.220000000001,242782,2021-10-27T22:01:52.705Z,242803.8,1635371812,full,ni_sequenzen,NI_Sequenzen,,8,,,,,,,,,,,,
,Trial,flow.Sequence,0_3_0_8,,completion,,237651,237668.48,237673.88,242781.36,5107.479999999981,242782,2021-10-27T22:01:52.706Z,242806.36,1635371812,full,ni_sequenzen,NI_Sequenzen,,8,,,,,,,,,,,,
,Move,canvas.Screen,0_3_0_9_0_0,right,response,,242804,242803.8,242806.36,243989,1182.640000000014,243996,2021-10-27T22:01:53.919Z,244005.6,1635371812,full,ni_sequenzen,NI_Sequenzen,1,9,,,,,,,,,,,,
,Move,canvas.Screen,0_3_0_9_0_1,down,response,,244006,244005.3,244005.6,244208,202.39999999999418,244210,2021-10-27T22:01:54.133Z,244219.72,1635371812,full,ni_sequenzen,NI_Sequenzen,2,9,,,,,,,,,,,,
,Move,canvas.Screen,0_3_0_9_0_2,right,response,,244219,244219.48,244219.72,244379,159.27999999999884,244389,2021-10-27T22:01:54.313Z,244399.04,1635371812,full,ni_sequenzen,NI_Sequenzen,3,9,,,,,,,,,,,,
,Move,canvas.Screen,0_3_0_9_0_3,down,response,,244399,244398.74,244399.04,244583,183.95999999999185,244586,2021-10-27T22:01:54.510Z,244692.08,1635371812,full,ni_sequenzen,NI_Sequenzen,4,9,,,,,,,,,,,,
,Move,canvas.Screen,0_3_0_9_0_4,-999,skipped,,244597,,,244583,,244597,2021-10-27T22:01:54.520Z,244692.08,1635371812,full,ni_sequenzen,NI_Sequenzen,5,9,,,,,,,,,,,,
,Move,canvas.Screen,0_3_0_9_0_5,-999,skipped,,244606,,,244583,,244606,2021-10-27T22:01:54.530Z,244692.08,1635371812,full,ni_sequenzen,NI_Sequenzen,6,9,,,,,,,,,,,,
,Move,canvas.Screen,0_3_0_9_0_6,-999,skipped,,244616,,,244583,,244616,2021-10-27T22:01:54.538Z,244692.08,1635371812,full,ni_sequenzen,NI_Sequenzen,7,9,,,,,,,,,,,,
,Move,canvas.Screen,0_3_0_9_0_7,-999,skipped,,244624,,,244583,,244625,2021-10-27T22:01:54.549Z,244692.08,1635371812,full,ni_sequenzen,NI_Sequenzen,8,9,,,,,,,,,,,,
,Move,canvas.Screen,0_3_0_9_0_8,-999,skipped,,244634,,,244583,,244634,2021-10-27T22:01:54.557Z,244692.08,1635371812,full,ni_sequenzen,NI_Sequenzen,9,9,,,,,,,,,,,,
,Move,canvas.Screen,0_3_0_9_0_9,-999,skipped,,244642,,,244583,,244642,2021-10-27T22:01:54.566Z,244692.08,1635371812,full,ni_sequenzen,NI_Sequenzen,10,9,,,,,,,,,,,,
,Move,canvas.Screen,0_3_0_9_0_10,-999,skipped,,244649,,,244583,,244649,2021-10-27T22:01:54.572Z,244692.08,1635371812,full,ni_sequenzen,NI_Sequenzen,11,9,,,,,,,,,,,,
,Move,canvas.Screen,0_3_0_9_0_11,-999,skipped,,244656,,,244583,,244656,2021-10-27T22:01:54.579Z,244692.08,1635371812,full,ni_sequenzen,NI_Sequenzen,12,9,,,,,,,,,,,,
,Move,canvas.Screen,0_3_0_9_0_12,-999,skipped,,244665,,,244583,,244665,2021-10-27T22:01:54.589Z,244692.08,1635371812,full,ni_sequenzen,NI_Sequenzen,13,9,,,,,,,,,,,,
,Move,canvas.Screen,0_3_0_9_0_13,-999,skipped,,244674,,,244583,,244674,2021-10-27T22:01:54.598Z,244692.08,1635371812,full,ni_sequenzen,NI_Sequenzen,14,9,,,,,,,,,,,,
,Move,canvas.Screen,0_3_0_9_0_14,-999,skipped,,244683,,,244583,,244683,2021-10-27T22:01:54.607Z,244692.08,1635371812,full,ni_sequenzen,NI_Sequenzen,15,9,,,,,,,,,,,,
,Loop,flow.Loop,0_3_0_9_0,-999,completion,,242794,242803.8,242806.36,244583,1776.640000000014,244684,2021-10-27T22:01:54.607Z,244692.08,1635371812,full,ni_sequenzen,NI_Sequenzen,,9,,,,,,,,,,,,
,Feedback,canvas.Screen,0_3_0_9_1,,timeout,,244692,244691.68,244692.08,248680.38,4081.680000000022,248681,2021-10-27T22:01:58.605Z,248773.76,1635371812,full,ni_sequenzen,NI_Sequenzen,,9,,,,,,,,,,,,
,Trial,flow.Sequence,0_3_0_9,,completion,,242782,242803.8,242806.36,248680.38,5874.020000000019,248681,2021-10-27T22:01:58.605Z,248796.98,1635371812,full,ni_sequenzen,NI_Sequenzen,,9,,,,,,,,,,,,
,Block,flow.Loop,0_3_0,,completion,,156616,156642.88,156654.26,248680.38,92026.12,248681,2021-10-27T22:01:58.605Z,248796.98,1635371812,full,ni_sequenzen,NI_Sequenzen,,,,,,,,,,,,,,
,Training_II,flow.Sequence,0_3,,completion,,156587,156642.88,156654.26,248680.38,92026.12,248681,2021-10-27T22:01:58.605Z,248796.98,1635371812,full,ni_sequenzen,NI_Sequenzen,,,,,,,,,,,,,,
,Screen_1,canvas.Screen,0_4_0_0,cont,response,1,248773,248773.76,248796.98,260567,11770.01999999999,260582,2021-10-27T22:02:10.506Z,260603.38,1635371812,full,ni_sequenzen,NI_Sequenzen,,,,,,,,,,,,,,
,Screen_2,canvas.Screen,0_4_0_1,cont,response,1,260591,260591.34,260603.38,273130,12526.619999999995,273138,2021-10-27T22:02:23.061Z,273551.14,1635371812,full,ni_sequenzen,NI_Sequenzen,,,,,,,,,,,,,,
,Screen_3,canvas.Screen,0_4_0_2,cont,response,1,273538,273537.94,273551.14,291349,17797.859999999986,291362,2021-10-27T22:02:41.285Z,291589.76,1635371812,full,ni_sequenzen,NI_Sequenzen,,,,,,,,,,,,,,
,Sequence,flow.Sequence,0_4_0,,completion,1,248717,248773.76,248796.98,291349,42552.01999999999,291363,2021-10-27T22:02:41.286Z,291589.76,1635371812,full,ni_sequenzen,NI_Sequenzen,,,,,,,,,,,,,,
,Screen_1,canvas.Screen,0_4_1_0,,skipped,2,291369,,,291369,,291369,2021-10-27T22:02:41.292Z,291589.76,1635371812,full,ni_sequenzen,NI_Sequenzen,,,,,,,,,,,,,,
,Screen_2,canvas.Screen,0_4_1_1,,skipped,2,291372,,,291369,,291372,2021-10-27T22:02:41.295Z,291589.76,1635371812,full,ni_sequenzen,NI_Sequenzen,,,,,,,,,,,,,,
,Screen_3,canvas.Screen,0_4_1_2,,skipped,2,291375,,,291369,,291376,2021-10-27T22:02:41.299Z,291589.76,1635371812,full,ni_sequenzen,NI_Sequenzen,,,,,,,,,,,,,,
,Sequence,flow.Sequence,0_4_1,,completion,2,291365,,,291369,,291376,2021-10-27T22:02:41.299Z,291589.76,1635371812,full,ni_sequenzen,NI_Sequenzen,,,,,,,,,,,,,,
,Screen_1,canvas.Screen,0_4_2_0,,skipped,3,291381,,,291381,,291381,2021-10-27T22:02:41.303Z,291589.76,1635371812,full,ni_sequenzen,NI_Sequenzen,,,,,,,,,,,,,,
,Screen_2,canvas.Screen,0_4_2_1,,skipped,3,291383,,,291381,,291383,2021-10-27T22:02:41.307Z,291589.76,1635371812,full,ni_sequenzen,NI_Sequenzen,,,,,,,,,,,,,,
,Screen_3,canvas.Screen,0_4_2_2,,skipped,3,291387,,,291381,,291387,2021-10-27T22:02:41.310Z,291589.76,1635371812,full,ni_sequenzen,NI_Sequenzen,,,,,,,,,,,,,,
,Sequence,flow.Sequence,0_4_2,,completion,3,291378,,,291381,,291388,2021-10-27T22:02:41.311Z,291589.76,1635371812,full,ni_sequenzen,NI_Sequenzen,,,,,,,,,,,,,,
,Screen_1,canvas.Screen,0_4_3_0,,skipped,4,291392,,,291392,,291392,2021-10-27T22:02:41.315Z,291589.76,1635371812,full,ni_sequenzen,NI_Sequenzen,,,,,,,,,,,,,,
,Screen_2,canvas.Screen,0_4_3_1,,skipped,4,291396,,,291392,,291396,2021-10-27T22:02:41.319Z,291589.76,1635371812,full,ni_sequenzen,NI_Sequenzen,,,,,,,,,,,,,,
,Screen_3,canvas.Screen,0_4_3_2,,skipped,4,291400,,,291392,,291400,2021-10-27T22:02:41.323Z,291589.76,1635371812,full,ni_sequenzen,NI_Sequenzen,,,,,,,,,,,,,,
,Sequence,flow.Sequence,0_4_3,,completion,4,291390,,,291392,,291400,2021-10-27T22:02:41.323Z,291589.76,1635371812,full,ni_sequenzen,NI_Sequenzen,,,,,,,,,,,,,,
,Screen_1,canvas.Screen,0_4_4_0,,skipped,5,291403,,,291403,,291403,2021-10-27T22:02:41.326Z,291589.76,1635371812,full,ni_sequenzen,NI_Sequenzen,,,,,,,,,,,,,,
,Screen_2,canvas.Screen,0_4_4_1,,skipped,5,291406,,,291403,,291406,2021-10-27T22:02:41.329Z,291589.76,1635371812,full,ni_sequenzen,NI_Sequenzen,,,,,,,,,,,,,,
,Screen_3,canvas.Screen,0_4_4_2,,skipped,5,291409,,,291403,,291410,2021-10-27T22:02:41.332Z,291589.76,1635371812,full,ni_sequenzen,NI_Sequenzen,,,,,,,,,,,,,,
,Sequence,flow.Sequence,0_4_4,,completion,5,291401,,,291403,,291410,2021-10-27T22:02:41.333Z,291589.76,1635371812,full,ni_sequenzen,NI_Sequenzen,,,,,,,,,,,,,,
,Screen_1,canvas.Screen,0_4_5_0,,skipped,6,291413,,,291413,,291413,2021-10-27T22:02:41.336Z,291589.76,1635371812,full,ni_sequenzen,NI_Sequenzen,,,,,,,,,,,,,,
,Screen_2,canvas.Screen,0_4_5_1,,skipped,6,291415,,,291413,,291415,2021-10-27T22:02:41.339Z,291589.76,1635371812,full,ni_sequenzen,NI_Sequenzen,,,,,,,,,,,,,,
,Screen_3,canvas.Screen,0_4_5_2,,skipped,6,291418,,,291413,,291418,2021-10-27T22:02:41.341Z,291589.76,1635371812,full,ni_sequenzen,NI_Sequenzen,,,,,,,,,,,,,,
,Sequence,flow.Sequence,0_4_5,,completion,6,291411,,,291413,,291418,2021-10-27T22:02:41.341Z,291589.76,1635371812,full,ni_sequenzen,NI_Sequenzen,,,,,,,,,,,,,,
,Screen_1,canvas.Screen,0_4_6_0,,skipped,7,291421,,,291421,,291422,2021-10-27T22:02:41.345Z,291589.76,1635371812,full,ni_sequenzen,NI_Sequenzen,,,,,,,,,,,,,,
,Screen_2,canvas.Screen,0_4_6_1,,skipped,7,291423,,,291421,,291423,2021-10-27T22:02:41.347Z,291589.76,1635371812,full,ni_sequenzen,NI_Sequenzen,,,,,,,,,,,,,,
,Screen_3,canvas.Screen,0_4_6_2,,skipped,7,291426,,,291421,,291426,2021-10-27T22:02:41.349Z,291589.76,1635371812,full,ni_sequenzen,NI_Sequenzen,,,,,,,,,,,,,,
,Sequence,flow.Sequence,0_4_6,,completion,7,291419,,,291421,,291426,2021-10-27T22:02:41.349Z,291589.76,1635371812,full,ni_sequenzen,NI_Sequenzen,,,,,,,,,,,,,,
,Screen_1,canvas.Screen,0_4_7_0,,skipped,8,291429,,,291429,,291430,2021-10-27T22:02:41.353Z,291589.76,1635371812,full,ni_sequenzen,NI_Sequenzen,,,,,,,,,,,,,,
,Screen_2,canvas.Screen,0_4_7_1,,skipped,8,291432,,,291429,,291432,2021-10-27T22:02:41.355Z,291589.76,1635371812,full,ni_sequenzen,NI_Sequenzen,,,,,,,,,,,,,,
,Screen_3,canvas.Screen,0_4_7_2,,skipped,8,291434,,,291429,,291434,2021-10-27T22:02:41.357Z,291589.76,1635371812,full,ni_sequenzen,NI_Sequenzen,,,,,,,,,,,,,,
,Sequence,flow.Sequence,0_4_7,,completion,8,291427,,,291429,,291434,2021-10-27T22:02:41.357Z,291589.76,1635371812,full,ni_sequenzen,NI_Sequenzen,,,,,,,,,,,,,,
,Screen_1,canvas.Screen,0_4_8_0,,skipped,9,291437,,,291437,,291437,2021-10-27T22:02:41.360Z,291589.76,1635371812,full,ni_sequenzen,NI_Sequenzen,,,,,,,,,,,,,,
,Screen_2,canvas.Screen,0_4_8_1,,skipped,9,291439,,,291437,,291440,2021-10-27T22:02:41.363Z,291589.76,1635371812,full,ni_sequenzen,NI_Sequenzen,,,,,,,,,,,,,,
,Screen_3,canvas.Screen,0_4_8_2,,skipped,9,291443,,,291437,,291443,2021-10-27T22:02:41.366Z,291589.76,1635371812,full,ni_sequenzen,NI_Sequenzen,,,,,,,,,,,,,,
,Sequence,flow.Sequence,0_4_8,,completion,9,291435,,,291437,,291443,2021-10-27T22:02:41.366Z,291589.76,1635371812,full,ni_sequenzen,NI_Sequenzen,,,,,,,,,,,,,,
,Screen_1,canvas.Screen,0_4_9_0,,skipped,10,291446,,,291446,,291446,2021-10-27T22:02:41.369Z,291589.76,1635371812,full,ni_sequenzen,NI_Sequenzen,,,,,,,,,,,,,,
,Screen_2,canvas.Screen,0_4_9_1,,skipped,10,291447,,,291446,,291447,2021-10-27T22:02:41.370Z,291589.76,1635371812,full,ni_sequenzen,NI_Sequenzen,,,,,,,,,,,,,,
,Screen_3,canvas.Screen,0_4_9_2,,skipped,10,291449,,,291446,,291449,2021-10-27T22:02:41.372Z,291589.76,1635371812,full,ni_sequenzen,NI_Sequenzen,,,,,,,,,,,,,,
,Sequence,flow.Sequence,0_4_9,,completion,10,291444,,,291446,,291449,2021-10-27T22:02:41.372Z,291589.76,1635371812,full,ni_sequenzen,NI_Sequenzen,,,,,,,,,,,,,,
,Screen_1,canvas.Screen,0_4_10_0,,skipped,11,291452,,,291452,,291452,2021-10-27T22:02:41.375Z,291589.76,1635371812,full,ni_sequenzen,NI_Sequenzen,,,,,,,,,,,,,,
,Screen_2,canvas.Screen,0_4_10_1,,skipped,11,291454,,,291452,,291454,2021-10-27T22:02:41.377Z,291589.76,1635371812,full,ni_sequenzen,NI_Sequenzen,,,,,,,,,,,,,,
,Screen_3,canvas.Screen,0_4_10_2,,skipped,11,291455,,,291452,,291455,2021-10-27T22:02:41.379Z,291589.76,1635371812,full,ni_sequenzen,NI_Sequenzen,,,,,,,,,,,,,,
,Sequence,flow.Sequence,0_4_10,,completion,11,291450,,,291452,,291456,2021-10-27T22:02:41.379Z,291589.76,1635371812,full,ni_sequenzen,NI_Sequenzen,,,,,,,,,,,,,,
,Screen_1,canvas.Screen,0_4_11_0,,skipped,12,291458,,,291458,,291459,2021-10-27T22:02:41.382Z,291589.76,1635371812,full,ni_sequenzen,NI_Sequenzen,,,,,,,,,,,,,,
,Screen_2,canvas.Screen,0_4_11_1,,skipped,12,291460,,,291458,,291461,2021-10-27T22:02:41.383Z,291589.76,1635371812,full,ni_sequenzen,NI_Sequenzen,,,,,,,,,,,,,,
,Screen_3,canvas.Screen,0_4_11_2,,skipped,12,291463,,,291458,,291463,2021-10-27T22:02:41.385Z,291589.76,1635371812,full,ni_sequenzen,NI_Sequenzen,,,,,,,,,,,,,,
,Sequence,flow.Sequence,0_4_11,,completion,12,291457,,,291458,,291463,2021-10-27T22:02:41.386Z,291589.76,1635371812,full,ni_sequenzen,NI_Sequenzen,,,,,,,,,,,,,,
,Screen_1,canvas.Screen,0_4_12_0,,skipped,13,291465,,,291465,,291465,2021-10-27T22:02:41.388Z,291589.76,1635371812,full,ni_sequenzen,NI_Sequenzen,,,,,,,,,,,,,,
,Screen_2,canvas.Screen,0_4_12_1,,skipped,13,291467,,,291465,,291467,2021-10-27T22:02:41.390Z,291589.76,1635371812,full,ni_sequenzen,NI_Sequenzen,,,,,,,,,,,,,,
,Screen_3,canvas.Screen,0_4_12_2,,skipped,13,291468,,,291465,,291469,2021-10-27T22:02:41.392Z,291589.76,1635371812,full,ni_sequenzen,NI_Sequenzen,,,,,,,,,,,,,,
,Sequence,flow.Sequence,0_4_12,,completion,13,291464,,,291465,,291469,2021-10-27T22:02:41.392Z,291589.76,1635371812,full,ni_sequenzen,NI_Sequenzen,,,,,,,,,,,,,,
,Screen_1,canvas.Screen,0_4_13_0,,skipped,14,291470,,,291470,,291471,2021-10-27T22:02:41.394Z,291589.76,1635371812,full,ni_sequenzen,NI_Sequenzen,,,,,,,,,,,,,,
,Screen_2,canvas.Screen,0_4_13_1,,skipped,14,291472,,,291470,,291472,2021-10-27T22:02:41.395Z,291589.76,1635371812,full,ni_sequenzen,NI_Sequenzen,,,,,,,,,,,,,,
,Screen_3,canvas.Screen,0_4_13_2,,skipped,14,291475,,,291470,,291475,2021-10-27T22:02:41.398Z,291589.76,1635371812,full,ni_sequenzen,NI_Sequenzen,,,,,,,,,,,,,,
,Sequence,flow.Sequence,0_4_13,,completion,14,291469,,,291470,,291475,2021-10-27T22:02:41.398Z,291589.76,1635371812,full,ni_sequenzen,NI_Sequenzen,,,,,,,,,,,,,,
,Screen_1,canvas.Screen,0_4_14_0,,skipped,15,291478,,,291478,,291478,2021-10-27T22:02:41.400Z,291589.76,1635371812,full,ni_sequenzen,NI_Sequenzen,,,,,,,,,,,,,,
,Screen_2,canvas.Screen,0_4_14_1,,skipped,15,291480,,,291478,,291480,2021-10-27T22:02:41.402Z,291589.76,1635371812,full,ni_sequenzen,NI_Sequenzen,,,,,,,,,,,,,,
,Screen_3,canvas.Screen,0_4_14_2,,skipped,15,291481,,,291478,,291481,2021-10-27T22:02:41.404Z,291589.76,1635371812,full,ni_sequenzen,NI_Sequenzen,,,,,,,,,,,,,,
,Sequence,flow.Sequence,0_4_14,,completion,15,291476,,,291478,,291481,2021-10-27T22:02:41.404Z,291589.76,1635371812,full,ni_sequenzen,NI_Sequenzen,,,,,,,,,,,,,,
,Screen_1,canvas.Screen,0_4_15_0,,skipped,16,291483,,,291483,,291483,2021-10-27T22:02:41.406Z,291589.76,1635371812,full,ni_sequenzen,NI_Sequenzen,,,,,,,,,,,,,,
,Screen_2,canvas.Screen,0_4_15_1,,skipped,16,291485,,,291483,,291485,2021-10-27T22:02:41.408Z,291589.76,1635371812,full,ni_sequenzen,NI_Sequenzen,,,,,,,,,,,,,,
,Screen_3,canvas.Screen,0_4_15_2,,skipped,16,291486,,,291483,,291486,2021-10-27T22:02:41.409Z,291589.76,1635371812,full,ni_sequenzen,NI_Sequenzen,,,,,,,,,,,,,,
,Sequence,flow.Sequence,0_4_15,,completion,16,291482,,,291483,,291487,2021-10-27T22:02:41.410Z,291589.76,1635371812,full,ni_sequenzen,NI_Sequenzen,,,,,,,,,,,,,,
,Screen_1,canvas.Screen,0_4_16_0,,skipped,17,291488,,,291488,,291488,2021-10-27T22:02:41.411Z,291589.76,1635371812,full,ni_sequenzen,NI_Sequenzen,,,,,,,,,,,,,,
,Screen_2,canvas.Screen,0_4_16_1,,skipped,17,291490,,,291488,,291490,2021-10-27T22:02:41.413Z,291589.76,1635371812,full,ni_sequenzen,NI_Sequenzen,,,,,,,,,,,,,,
,Screen_3,canvas.Screen,0_4_16_2,,skipped,17,291493,,,291488,,291493,2021-10-27T22:02:41.416Z,291589.76,1635371812,full,ni_sequenzen,NI_Sequenzen,,,,,,,,,,,,,,
