meta,sender,sender_type,sender_id,response,ended_on,instrCount,time_run,time_render,time_show,time_end,duration,time_commit,timestamp,time_switch,openLabId,type,task,project,move,trialN,blockN_Train,blockN,moveCount,currPP,points,movesTrial,visitedFields,diff,reward,Strategie,Zweck,Probleme
[object Object],Screen_1,canvas.Screen,0_0_0_0,cont,response,1,550,549.98,573.64,9761,9187.36,9772,2021-10-27T13:11:01.893Z,9857.1,1635340246,full,ni_sequenzen,NI_Sequenzen,,,,,,,,,,,,,,
,Screen_2,canvas.Screen,0_0_0_1,cont,response,1,9856,9856.12,9857.1,17464,7606.9,17475,2021-10-27T13:11:09.596Z,17557.2,1635340246,full,ni_sequenzen,NI_Sequenzen,,,,,,,,,,,,,,
,Screen_3,canvas.Screen,0_0_0_2,cont,response,1,17554,17553.78,17557.2,27355,9797.8,27368,2021-10-27T13:11:19.491Z,27374,1635340246,full,ni_sequenzen,NI_Sequenzen,,,,,,,,,,,,,,
,Screen_4,canvas.Screen,0_0_0_3,cont,response,1,27371,27371.6,27374,32089,4715,32096,2021-10-27T13:11:24.218Z,32207.4,1635340246,full,ni_sequenzen,NI_Sequenzen,,,,,,,,,,,,,,
,Sequence,flow.Sequence,0_0_0,,completion,1,506,549.98,573.64,32089,31515.36,32097,2021-10-27T13:11:24.218Z,32207.4,1635340246,full,ni_sequenzen,NI_Sequenzen,,,,,,,,,,,,,,
,Screen_1,canvas.Screen,0_0_1_0,,skipped,2,32099,,,32099,,32099,2021-10-27T13:11:24.221Z,32207.4,1635340246,full,ni_sequenzen,NI_Sequenzen,,,,,,,,,,,,,,
,Screen_2,canvas.Screen,0_0_1_1,,skipped,2,32101,,,32099,,32101,2021-10-27T13:11:24.223Z,32207.4,1635340246,full,ni_sequenzen,NI_Sequenzen,,,,,,,,,,,,,,
,Screen_3,canvas.Screen,0_0_1_2,,skipped,2,32102,,,32099,,32102,2021-10-27T13:11:24.224Z,32207.4,1635340246,full,ni_sequenzen,NI_Sequenzen,,,,,,,,,,,,,,
,Screen_4,canvas.Screen,0_0_1_3,,skipped,2,32103,,,32099,,32103,2021-10-27T13:11:24.225Z,32207.4,1635340246,full,ni_sequenzen,NI_Sequenzen,,,,,,,,,,,,,,
,Sequence,flow.Sequence,0_0_1,,completion,2,32098,,,32099,,32103,2021-10-27T13:11:24.225Z,32207.4,1635340246,full,ni_sequenzen,NI_Sequenzen,,,,,,,,,,,,,,
,Screen_1,canvas.Screen,0_0_2_0,,skipped,3,32104,,,32104,,32104,2021-10-27T13:11:24.226Z,32207.4,1635340246,full,ni_sequenzen,NI_Sequenzen,,,,,,,,,,,,,,
,Screen_2,canvas.Screen,0_0_2_1,,skipped,3,32106,,,32104,,32106,2021-10-27T13:11:24.228Z,32207.4,1635340246,full,ni_sequenzen,NI_Sequenzen,,,,,,,,,,,,,,
,Screen_3,canvas.Screen,0_0_2_2,,skipped,3,32107,,,32104,,32107,2021-10-27T13:11:24.229Z,32207.4,1635340246,full,ni_sequenzen,NI_Sequenzen,,,,,,,,,,,,,,
,Screen_4,canvas.Screen,0_0_2_3,,skipped,3,32108,,,32104,,32108,2021-10-27T13:11:24.230Z,32207.4,1635340246,full,ni_sequenzen,NI_Sequenzen,,,,,,,,,,,,,,
,Sequence,flow.Sequence,0_0_2,,completion,3,32103,,,32104,,32108,2021-10-27T13:11:24.230Z,32207.4,1635340246,full,ni_sequenzen,NI_Sequenzen,,,,,,,,,,,,,,
,Screen_1,canvas.Screen,0_0_3_0,,skipped,4,32110,,,32110,,32110,2021-10-27T13:11:24.231Z,32207.4,1635340246,full,ni_sequenzen,NI_Sequenzen,,,,,,,,,,,,,,
,Screen_2,canvas.Screen,0_0_3_1,,skipped,4,32111,,,32110,,32111,2021-10-27T13:11:24.233Z,32207.4,1635340246,full,ni_sequenzen,NI_Sequenzen,,,,,,,,,,,,,,
,Screen_3,canvas.Screen,0_0_3_2,,skipped,4,32113,,,32110,,32113,2021-10-27T13:11:24.235Z,32207.4,1635340246,full,ni_sequenzen,NI_Sequenzen,,,,,,,,,,,,,,
,Screen_4,canvas.Screen,0_0_3_3,,skipped,4,32115,,,32110,,32115,2021-10-27T13:11:24.237Z,32207.4,1635340246,full,ni_sequenzen,NI_Sequenzen,,,,,,,,,,,,,,
,Sequence,flow.Sequence,0_0_3,,completion,4,32109,,,32110,,32115,2021-10-27T13:11:24.237Z,32207.4,1635340246,full,ni_sequenzen,NI_Sequenzen,,,,,,,,,,,,,,
,Screen_1,canvas.Screen,0_0_4_0,,skipped,5,32116,,,32116,,32116,2021-10-27T13:11:24.238Z,32207.4,1635340246,full,ni_sequenzen,NI_Sequenzen,,,,,,,,,,,,,,
,Screen_2,canvas.Screen,0_0_4_1,,skipped,5,32117,,,32116,,32117,2021-10-27T13:11:24.239Z,32207.4,1635340246,full,ni_sequenzen,NI_Sequenzen,,,,,,,,,,,,,,
,Screen_3,canvas.Screen,0_0_4_2,,skipped,5,32118,,,32116,,32118,2021-10-27T13:11:24.240Z,32207.4,1635340246,full,ni_sequenzen,NI_Sequenzen,,,,,,,,,,,,,,
,Screen_4,canvas.Screen,0_0_4_3,,skipped,5,32119,,,32116,,32119,2021-10-27T13:11:24.240Z,32207.4,1635340246,full,ni_sequenzen,NI_Sequenzen,,,,,,,,,,,,,,
,Sequence,flow.Sequence,0_0_4,,completion,5,32116,,,32116,,32119,2021-10-27T13:11:24.241Z,32207.4,1635340246,full,ni_sequenzen,NI_Sequenzen,,,,,,,,,,,,,,
,Screen_1,canvas.Screen,0_0_5_0,,skipped,6,32120,,,32120,,32120,2021-10-27T13:11:24.242Z,32207.4,1635340246,full,ni_sequenzen,NI_Sequenzen,,,,,,,,,,,,,,
,Screen_2,canvas.Screen,0_0_5_1,,skipped,6,32121,,,32120,,32121,2021-10-27T13:11:24.243Z,32207.4,1635340246,full,ni_sequenzen,NI_Sequenzen,,,,,,,,,,,,,,
,Screen_3,canvas.Screen,0_0_5_2,,skipped,6,32122,,,32120,,32122,2021-10-27T13:11:24.244Z,32207.4,1635340246,full,ni_sequenzen,NI_Sequenzen,,,,,,,,,,,,,,
,Screen_4,canvas.Screen,0_0_5_3,,skipped,6,32123,,,32120,,32123,2021-10-27T13:11:24.245Z,32207.4,1635340246,full,ni_sequenzen,NI_Sequenzen,,,,,,,,,,,,,,
,Sequence,flow.Sequence,0_0_5,,completion,6,32119,,,32120,,32123,2021-10-27T13:11:24.245Z,32207.4,1635340246,full,ni_sequenzen,NI_Sequenzen,,,,,,,,,,,,,,
,Screen_1,canvas.Screen,0_0_6_0,,skipped,7,32125,,,32125,,32125,2021-10-27T13:11:24.246Z,32207.4,1635340246,full,ni_sequenzen,NI_Sequenzen,,,,,,,,,,,,,,
,Screen_2,canvas.Screen,0_0_6_1,,skipped,7,32126,,,32125,,32126,2021-10-27T13:11:24.247Z,32207.4,1635340246,full,ni_sequenzen,NI_Sequenzen,,,,,,,,,,,,,,
,Screen_3,canvas.Screen,0_0_6_2,,skipped,7,32127,,,32125,,32127,2021-10-27T13:11:24.248Z,32207.4,1635340246,full,ni_sequenzen,NI_Sequenzen,,,,,,,,,,,,,,
,Screen_4,canvas.Screen,0_0_6_3,,skipped,7,32128,,,32125,,32128,2021-10-27T13:11:24.250Z,32207.4,1635340246,full,ni_sequenzen,NI_Sequenzen,,,,,,,,,,,,,,
,Sequence,flow.Sequence,0_0_6,,completion,7,32124,,,32125,,32128,2021-10-27T13:11:24.250Z,32207.4,1635340246,full,ni_sequenzen,NI_Sequenzen,,,,,,,,,,,,,,
,Screen_1,canvas.Screen,0_0_7_0,,skipped,8,32129,,,32129,,32129,2021-10-27T13:11:24.251Z,32207.4,1635340246,full,ni_sequenzen,NI_Sequenzen,,,,,,,,,,,,,,
,Screen_2,canvas.Screen,0_0_7_1,,skipped,8,32130,,,32129,,32130,2021-10-27T13:11:24.251Z,32207.4,1635340246,full,ni_sequenzen,NI_Sequenzen,,,,,,,,,,,,,,
,Screen_3,canvas.Screen,0_0_7_2,,skipped,8,32132,,,32129,,32132,2021-10-27T13:11:24.253Z,32207.4,1635340246,full,ni_sequenzen,NI_Sequenzen,,,,,,,,,,,,,,
,Screen_4,canvas.Screen,0_0_7_3,,skipped,8,32133,,,32129,,32134,2021-10-27T13:11:24.255Z,32207.4,1635340246,full,ni_sequenzen,NI_Sequenzen,,,,,,,,,,,,,,
,Sequence,flow.Sequence,0_0_7,,completion,8,32128,,,32129,,32134,2021-10-27T13:11:24.255Z,32207.4,1635340246,full,ni_sequenzen,NI_Sequenzen,,,,,,,,,,,,,,
,Screen_1,canvas.Screen,0_0_8_0,,skipped,9,32134,,,32134,,32134,2021-10-27T13:11:24.256Z,32207.4,1635340246,full,ni_sequenzen,NI_Sequenzen,,,,,,,,,,,,,,
,Screen_2,canvas.Screen,0_0_8_1,,skipped,9,32135,,,32134,,32135,2021-10-27T13:11:24.257Z,32207.4,1635340246,full,ni_sequenzen,NI_Sequenzen,,,,,,,,,,,,,,
,Screen_3,canvas.Screen,0_0_8_2,,skipped,9,32136,,,32134,,32136,2021-10-27T13:11:24.257Z,32207.4,1635340246,full,ni_sequenzen,NI_Sequenzen,,,,,,,,,,,,,,
,Screen_4,canvas.Screen,0_0_8_3,,skipped,9,32137,,,32134,,32137,2021-10-27T13:11:24.259Z,32207.4,1635340246,full,ni_sequenzen,NI_Sequenzen,,,,,,,,,,,,,,
,Sequence,flow.Sequence,0_0_8,,completion,9,32134,,,32134,,32137,2021-10-27T13:11:24.259Z,32207.4,1635340246,full,ni_sequenzen,NI_Sequenzen,,,,,,,,,,,,,,
,Screen_1,canvas.Screen,0_0_9_0,,skipped,10,32138,,,32138,,32138,2021-10-27T13:11:24.260Z,32207.4,1635340246,full,ni_sequenzen,NI_Sequenzen,,,,,,,,,,,,,,
,Screen_2,canvas.Screen,0_0_9_1,,skipped,10,32139,,,32138,,32139,2021-10-27T13:11:24.261Z,32207.4,1635340246,full,ni_sequenzen,NI_Sequenzen,,,,,,,,,,,,,,
,Screen_3,canvas.Screen,0_0_9_2,,skipped,10,32140,,,32138,,32140,2021-10-27T13:11:24.262Z,32207.4,1635340246,full,ni_sequenzen,NI_Sequenzen,,,,,,,,,,,,,,
,Screen_4,canvas.Screen,0_0_9_3,,skipped,10,32141,,,32138,,32141,2021-10-27T13:11:24.263Z,32207.4,1635340246,full,ni_sequenzen,NI_Sequenzen,,,,,,,,,,,,,,
,Sequence,flow.Sequence,0_0_9,,completion,10,32138,,,32138,,32141,2021-10-27T13:11:24.263Z,32207.4,1635340246,full,ni_sequenzen,NI_Sequenzen,,,,,,,,,,,,,,
,Screen_1,canvas.Screen,0_0_10_0,,skipped,11,32143,,,32143,,32143,2021-10-27T13:11:24.265Z,32207.4,1635340246,full,ni_sequenzen,NI_Sequenzen,,,,,,,,,,,,,,
,Screen_2,canvas.Screen,0_0_10_1,,skipped,11,32144,,,32143,,32144,2021-10-27T13:11:24.265Z,32207.4,1635340246,full,ni_sequenzen,NI_Sequenzen,,,,,,,,,,,,,,
,Screen_3,canvas.Screen,0_0_10_2,,skipped,11,32144,,,32143,,32145,2021-10-27T13:11:24.266Z,32207.4,1635340246,full,ni_sequenzen,NI_Sequenzen,,,,,,,,,,,,,,
,Screen_4,canvas.Screen,0_0_10_3,,skipped,11,32146,,,32143,,32146,2021-10-27T13:11:24.267Z,32207.4,1635340246,full,ni_sequenzen,NI_Sequenzen,,,,,,,,,,,,,,
,Sequence,flow.Sequence,0_0_10,,completion,11,32141,,,32143,,32146,2021-10-27T13:11:24.267Z,32207.4,1635340246,full,ni_sequenzen,NI_Sequenzen,,,,,,,,,,,,,,
,Screen_1,canvas.Screen,0_0_11_0,,skipped,12,32147,,,32147,,32147,2021-10-27T13:11:24.268Z,32207.4,1635340246,full,ni_sequenzen,NI_Sequenzen,,,,,,,,,,,,,,
,Screen_2,canvas.Screen,0_0_11_1,,skipped,12,32148,,,32147,,32148,2021-10-27T13:11:24.269Z,32207.4,1635340246,full,ni_sequenzen,NI_Sequenzen,,,,,,,,,,,,,,
,Screen_3,canvas.Screen,0_0_11_2,,skipped,12,32149,,,32147,,32149,2021-10-27T13:11:24.270Z,32207.4,1635340246,full,ni_sequenzen,NI_Sequenzen,,,,,,,,,,,,,,
,Screen_4,canvas.Screen,0_0_11_3,,skipped,12,32150,,,32147,,32150,2021-10-27T13:11:24.272Z,32207.4,1635340246,full,ni_sequenzen,NI_Sequenzen,,,,,,,,,,,,,,
,Sequence,flow.Sequence,0_0_11,,completion,12,32147,,,32147,,32150,2021-10-27T13:11:24.272Z,32207.4,1635340246,full,ni_sequenzen,NI_Sequenzen,,,,,,,,,,,,,,
,Screen_1,canvas.Screen,0_0_12_0,,skipped,13,32151,,,32151,,32152,2021-10-27T13:11:24.274Z,32207.4,1635340246,full,ni_sequenzen,NI_Sequenzen,,,,,,,,,,,,,,
,Screen_2,canvas.Screen,0_0_12_1,,skipped,13,32153,,,32151,,32153,2021-10-27T13:11:24.275Z,32207.4,1635340246,full,ni_sequenzen,NI_Sequenzen,,,,,,,,,,,,,,
,Screen_3,canvas.Screen,0_0_12_2,,skipped,13,32154,,,32151,,32154,2021-10-27T13:11:24.276Z,32207.4,1635340246,full,ni_sequenzen,NI_Sequenzen,,,,,,,,,,,,,,
,Screen_4,canvas.Screen,0_0_12_3,,skipped,13,32155,,,32151,,32155,2021-10-27T13:11:24.277Z,32207.4,1635340246,full,ni_sequenzen,NI_Sequenzen,,,,,,,,,,,,,,
,Sequence,flow.Sequence,0_0_12,,completion,13,32151,,,32151,,32155,2021-10-27T13:11:24.277Z,32207.4,1635340246,full,ni_sequenzen,NI_Sequenzen,,,,,,,,,,,,,,
,Screen_1,canvas.Screen,0_0_13_0,,skipped,14,32157,,,32157,,32157,2021-10-27T13:11:24.279Z,32207.4,1635340246,full,ni_sequenzen,NI_Sequenzen,,,,,,,,,,,,,,
,Screen_2,canvas.Screen,0_0_13_1,,skipped,14,32158,,,32157,,32158,2021-10-27T13:11:24.280Z,32207.4,1635340246,full,ni_sequenzen,NI_Sequenzen,,,,,,,,,,,,,,
,Screen_3,canvas.Screen,0_0_13_2,,skipped,14,32159,,,32157,,32159,2021-10-27T13:11:24.281Z,32207.4,1635340246,full,ni_sequenzen,NI_Sequenzen,,,,,,,,,,,,,,
,Screen_4,canvas.Screen,0_0_13_3,,skipped,14,32160,,,32157,,32160,2021-10-27T13:11:24.282Z,32207.4,1635340246,full,ni_sequenzen,NI_Sequenzen,,,,,,,,,,,,,,
,Sequence,flow.Sequence,0_0_13,,completion,14,32156,,,32157,,32160,2021-10-27T13:11:24.282Z,32207.4,1635340246,full,ni_sequenzen,NI_Sequenzen,,,,,,,,,,,,,,
,Screen_1,canvas.Screen,0_0_14_0,,skipped,15,32163,,,32163,,32163,2021-10-27T13:11:24.284Z,32207.4,1635340246,full,ni_sequenzen,NI_Sequenzen,,,,,,,,,,,,,,
,Screen_2,canvas.Screen,0_0_14_1,,skipped,15,32164,,,32163,,32164,2021-10-27T13:11:24.285Z,32207.4,1635340246,full,ni_sequenzen,NI_Sequenzen,,,,,,,,,,,,,,
,Screen_3,canvas.Screen,0_0_14_2,,skipped,15,32164,,,32163,,32164,2021-10-27T13:11:24.286Z,32207.4,1635340246,full,ni_sequenzen,NI_Sequenzen,,,,,,,,,,,,,,
,Screen_4,canvas.Screen,0_0_14_3,,skipped,15,32165,,,32163,,32165,2021-10-27T13:11:24.287Z,32207.4,1635340246,full,ni_sequenzen,NI_Sequenzen,,,,,,,,,,,,,,
,Sequence,flow.Sequence,0_0_14,,completion,15,32161,,,32163,,32165,2021-10-27T13:11:24.287Z,32207.4,1635340246,full,ni_sequenzen,NI_Sequenzen,,,,,,,,,,,,,,
,Screen_1,canvas.Screen,0_0_15_0,,skipped,16,32166,,,32166,,32166,2021-10-27T13:11:24.288Z,32207.4,1635340246,full,ni_sequenzen,NI_Sequenzen,,,,,,,,,,,,,,
,Screen_2,canvas.Screen,0_0_15_1,,skipped,16,32166,,,32166,,32166,2021-10-27T13:11:24.288Z,32207.4,1635340246,full,ni_sequenzen,NI_Sequenzen,,,,,,,,,,,,,,
,Screen_3,canvas.Screen,0_0_15_2,,skipped,16,32167,,,32166,,32167,2021-10-27T13:11:24.289Z,32207.4,1635340246,full,ni_sequenzen,NI_Sequenzen,,,,,,,,,,,,,,
,Screen_4,canvas.Screen,0_0_15_3,,skipped,16,32168,,,32166,,32168,2021-10-27T13:11:24.290Z,32207.4,1635340246,full,ni_sequenzen,NI_Sequenzen,,,,,,,,,,,,,,
,Sequence,flow.Sequence,0_0_15,,completion,16,32166,,,32166,,32168,2021-10-27T13:11:24.290Z,32207.4,1635340246,full,ni_sequenzen,NI_Sequenzen,,,,,,,,,,,,,,
,Screen_1,canvas.Screen,0_0_16_0,,skipped,17,32169,,,32169,,32169,2021-10-27T13:11:24.291Z,32207.4,1635340246,full,ni_sequenzen,NI_Sequenzen,,,,,,,,,,,,,,
,Screen_2,canvas.Screen,0_0_16_1,,skipped,17,32170,,,32169,,32170,2021-10-27T13:11:24.292Z,32207.4,1635340246,full,ni_sequenzen,NI_Sequenzen,,,,,,,,,,,,,,
,Screen_3,canvas.Screen,0_0_16_2,,skipped,17,32171,,,32169,,32171,2021-10-27T13:11:24.293Z,32207.4,1635340246,full,ni_sequenzen,NI_Sequenzen,,,,,,,,,,,,,,
,Screen_4,canvas.Screen,0_0_16_3,,skipped,17,32173,,,32169,,32173,2021-10-27T13:11:24.294Z,32207.4,1635340246,full,ni_sequenzen,NI_Sequenzen,,,,,,,,,,,,,,
,Sequence,flow.Sequence,0_0_16,,completion,17,32169,,,32169,,32173,2021-10-27T13:11:24.294Z,32207.4,1635340246,full,ni_sequenzen,NI_Sequenzen,,,,,,,,,,,,,,
,Screen_1,canvas.Screen,0_0_17_0,,skipped,18,32174,,,32174,,32174,2021-10-27T13:11:24.295Z,32207.4,1635340246,full,ni_sequenzen,NI_Sequenzen,,,,,,,,,,,,,,
,Screen_2,canvas.Screen,0_0_17_1,,skipped,18,32174,,,32174,,32174,2021-10-27T13:11:24.296Z,32207.4,1635340246,full,ni_sequenzen,NI_Sequenzen,,,,,,,,,,,,,,
,Screen_3,canvas.Screen,0_0_17_2,,skipped,18,32175,,,32174,,32175,2021-10-27T13:11:24.297Z,32207.4,1635340246,full,ni_sequenzen,NI_Sequenzen,,,,,,,,,,,,,,
,Screen_4,canvas.Screen,0_0_17_3,,skipped,18,32176,,,32174,,32177,2021-10-27T13:11:24.298Z,32207.4,1635340246,full,ni_sequenzen,NI_Sequenzen,,,,,,,,,,,,,,
,Sequence,flow.Sequence,0_0_17,,completion,18,32173,,,32174,,32177,2021-10-27T13:11:24.298Z,32207.4,1635340246,full,ni_sequenzen,NI_Sequenzen,,,,,,,,,,,,,,
,Screen_1,canvas.Screen,0_0_18_0,,skipped,19,32178,,,32178,,32178,2021-10-27T13:11:24.299Z,32207.4,1635340246,full,ni_sequenzen,NI_Sequenzen,,,,,,,,,,,,,,
,Screen_2,canvas.Screen,0_0_18_1,,skipped,19,32179,,,32178,,32179,2021-10-27T13:11:24.300Z,32207.4,1635340246,full,ni_sequenzen,NI_Sequenzen,,,,,,,,,,,,,,
,Screen_3,canvas.Screen,0_0_18_2,,skipped,19,32180,,,32178,,32180,2021-10-27T13:11:24.301Z,32207.4,1635340246,full,ni_sequenzen,NI_Sequenzen,,,,,,,,,,,,,,
,Screen_4,canvas.Screen,0_0_18_3,,skipped,19,32181,,,32178,,32181,2021-10-27T13:11:24.302Z,32207.4,1635340246,full,ni_sequenzen,NI_Sequenzen,,,,,,,,,,,,,,
,Sequence,flow.Sequence,0_0_18,,completion,19,32177,,,32178,,32181,2021-10-27T13:11:24.302Z,32207.4,1635340246,full,ni_sequenzen,NI_Sequenzen,,,,,,,,,,,,,,
,Screen_1,canvas.Screen,0_0_19_0,,skipped,20,32182,,,32182,,32182,2021-10-27T13:11:24.303Z,32207.4,1635340246,full,ni_sequenzen,NI_Sequenzen,,,,,,,,,,,,,,
,Screen_2,canvas.Screen,0_0_19_1,,skipped,20,32183,,,32182,,32183,2021-10-27T13:11:24.304Z,32207.4,1635340246,full,ni_sequenzen,NI_Sequenzen,,,,,,,,,,,,,,
,Screen_3,canvas.Screen,0_0_19_2,,skipped,20,32183,,,32182,,32183,2021-10-27T13:11:24.305Z,32207.4,1635340246,full,ni_sequenzen,NI_Sequenzen,,,,,,,,,,,,,,
,Screen_4,canvas.Screen,0_0_19_3,,skipped,20,32183,,,32182,,32183,2021-10-27T13:11:24.305Z,32207.4,1635340246,full,ni_sequenzen,NI_Sequenzen,,,,,,,,,,,,,,
,Sequence,flow.Sequence,0_0_19,,completion,20,32181,,,32182,,32183,2021-10-27T13:11:24.305Z,32207.4,1635340246,full,ni_sequenzen,NI_Sequenzen,,,,,,,,,,,,,,
,Instructions_I,flow.Loop,0_0,,completion,,505,549.98,573.64,32182,31608.36,32184,2021-10-27T13:11:24.305Z,32207.4,1635340246,full,ni_sequenzen,NI_Sequenzen,,,,,,,,,,,,,,
,Move,canvas.Screen,0_1_0_0,left,response,,32198,32197.74,32207.4,33511,1303.5999999999985,33520,2021-10-27T13:11:25.643Z,33540.74,1635340246,full,ni_sequenzen,NI_Sequenzen,1,,,,,,,,,,,,,
,Move,canvas.Screen,0_1_0_1,right,response,,33527,33527.24,33540.74,34355,814.260000000002,34362,2021-10-27T13:11:26.482Z,34374.1,1635340246,full,ni_sequenzen,NI_Sequenzen,2,,,,,,,,,,,,,
,Move,canvas.Screen,0_1_0_2,down,response,,34366,34366.68,34374.1,34698,323.90000000000146,34715,2021-10-27T13:11:26.836Z,34724.1,1635340246,full,ni_sequenzen,NI_Sequenzen,3,,,,,,,,,,,,,
,Move,canvas.Screen,0_1_0_3,right,response,,34721,34721.48,34724.1,35120,395.90000000000146,35137,2021-10-27T13:11:27.258Z,35157.44,1635340246,full,ni_sequenzen,NI_Sequenzen,4,,,,,,,,,,,,,
,Move,canvas.Screen,0_1_0_4,down,response,,35157,35157.02,35157.44,35495,337.5599999999977,35501,2021-10-27T13:11:27.622Z,35524.1,1635340246,full,ni_sequenzen,NI_Sequenzen,5,,,,,,,,,,,,,
,Move,canvas.Screen,0_1_0_5,right,response,,35510,35509.9,35524.1,35855,330.90000000000146,35866,2021-10-27T13:11:27.988Z,35890.78,1635340246,full,ni_sequenzen,NI_Sequenzen,6,,,,,,,,,,,,,
,Move,canvas.Screen,0_1_0_6,down,response,,35875,35875.04,35890.78,36198,307.22000000000116,36216,2021-10-27T13:11:28.338Z,36224.12,1635340246,full,ni_sequenzen,NI_Sequenzen,7,,,,,,,,,,,,,
,Move,canvas.Screen,0_1_0_7,left,response,,36223,36222.94,36224.12,37402,1177.8799999999974,37418,2021-10-27T13:11:29.540Z,37440.8,1635340246,full,ni_sequenzen,NI_Sequenzen,8,,,,,,,,,,,,,
,Move,canvas.Screen,0_1_0_8,down,response,,37424,37424.4,37440.8,37730,289.1999999999971,37745,2021-10-27T13:11:29.867Z,37757.48,1635340246,full,ni_sequenzen,NI_Sequenzen,9,,,,,,,,,,,,,
,Move,canvas.Screen,0_1_0_9,down,response,,37749,37749.12,37757.48,38151,393.5199999999968,38168,2021-10-27T13:11:30.289Z,38190.8,1635340246,full,ni_sequenzen,NI_Sequenzen,10,,,,,,,,,,,,,
,Move,canvas.Screen,0_1_0_10,left,response,,38179,38179.9,38190.8,38464,273.1999999999971,38480,2021-10-27T13:11:30.602Z,38490.82,1635340246,full,ni_sequenzen,NI_Sequenzen,11,,,,,,,,,,,,,
,Move,canvas.Screen,0_1_0_11,down,response,,38484,38483.84,38490.82,38809,318.1800000000003,38823,2021-10-27T13:11:30.944Z,38840.82,1635340246,full,ni_sequenzen,NI_Sequenzen,12,,,,,,,,,,,,,
,Move,canvas.Screen,0_1_0_12,left,response,,38826,38826.3,38840.82,39105,264.1800000000003,39113,2021-10-27T13:11:31.235Z,39140.82,1635340246,full,ni_sequenzen,NI_Sequenzen,13,,,,,,,,,,,,,
,Move,canvas.Screen,0_1_0_13,down,response,,39126,39125.42,39140.82,39355,214.1800000000003,39366,2021-10-27T13:11:31.488Z,39390.82,1635340246,full,ni_sequenzen,NI_Sequenzen,14,,,,,,,,,,,,,
,Move,canvas.Screen,0_1_0_14,left,response,,39379,39378.6,39390.82,39620,229.1800000000003,39629,2021-10-27T13:11:31.751Z,39640.82,1635340246,full,ni_sequenzen,NI_Sequenzen,15,,,,,,,,,,,,,
,Move,canvas.Screen,0_1_0_15,down,response,,39636,39635.56,39640.82,39980,339.1800000000003,39998,2021-10-27T13:11:32.120Z,40024.16,1635340246,full,ni_sequenzen,NI_Sequenzen,16,,,,,,,,,,,,,
,Move,canvas.Screen,0_1_0_16,down,response,,40011,40010.6,40024.16,40245,220.8399999999965,40264,2021-10-27T13:11:32.386Z,40290.84,1635340246,full,ni_sequenzen,NI_Sequenzen,17,,,,,,,,,,,,,
,Move,canvas.Screen,0_1_0_17,down,response,,40275,40275.46,40290.84,40558,267.1600000000035,40564,2021-10-27T13:11:32.686Z,40574.18,1635340246,full,ni_sequenzen,NI_Sequenzen,18,,,,,,,,,,,,,
,Move,canvas.Screen,0_1_0_18,right,response,,40570,40569.56,40574.18,40776,201.8199999999997,40780,2021-10-27T13:11:32.902Z,40790.84,1635340246,full,ni_sequenzen,NI_Sequenzen,19,,,,,,,,,,,,,
,Move,canvas.Screen,0_1_0_19,down,response,,40790,40790.04,40790.84,41183,392.1600000000035,41195,2021-10-27T13:11:33.316Z,41207.52,1635340246,full,ni_sequenzen,NI_Sequenzen,20,,,,,,,,,,,,,
,Move,canvas.Screen,0_1_0_20,right,response,,41201,41201.74,41207.52,41495,287.4800000000032,41500,2021-10-27T13:11:33.622Z,41507.52,1635340246,full,ni_sequenzen,NI_Sequenzen,21,,,,,,,,,,,,,
,Move,canvas.Screen,0_1_0_21,down,response,,41506,41506.78,41507.52,41776,268.4800000000032,41780,2021-10-27T13:11:33.902Z,41807.52,1635340246,full,ni_sequenzen,NI_Sequenzen,22,,,,,,,,,,,,,
,Move,canvas.Screen,0_1_0_22,right,response,,41792,41791.94,41807.52,43948,2140.480000000003,43955,2021-10-27T13:11:36.077Z,43957.56,1635340246,full,ni_sequenzen,NI_Sequenzen,23,,,,,,,,,,,,,
,Move,canvas.Screen,0_1_0_23,down,response,,43958,43957.54,43957.56,44230,272.4400000000023,44243,2021-10-27T13:11:36.364Z,44257.56,1635340246,full,ni_sequenzen,NI_Sequenzen,24,,,,,,,,,,,,,
,Move,canvas.Screen,0_1_0_24,right,response,,44253,44253.16,44257.56,44558,300.4400000000023,44572,2021-10-27T13:11:36.693Z,44590.9,1635340246,full,ni_sequenzen,NI_Sequenzen,25,,,,,,,,,,,,,
,Move,canvas.Screen,0_1_0_25,down,response,,44575,44574.62,44590.9,44839,248.09999999999854,44851,2021-10-27T13:11:36.974Z,44874.24,1635340246,full,ni_sequenzen,NI_Sequenzen,26,,,,,,,,,,,,,
,Move,canvas.Screen,0_1_0_26,right,response,,44858,44858.28,44874.24,45120,245.76000000000204,45131,2021-10-27T13:11:37.253Z,45140.9,1635340246,full,ni_sequenzen,NI_Sequenzen,27,,,,,,,,,,,,,
,Move,canvas.Screen,0_1_0_27,left,response,,45134,45133.92,45140.9,46151,1010.0999999999985,46158,2021-10-27T13:11:38.280Z,46174.24,1635340246,full,ni_sequenzen,NI_Sequenzen,28,,,,,,,,,,,,,
,Move,canvas.Screen,0_1_0_28,left,response,,46171,46170.6,46174.24,46698,523.760000000002,46709,2021-10-27T13:11:38.831Z,46724.26,1635340246,full,ni_sequenzen,NI_Sequenzen,29,,,,,,,,,,,,,
,Move,canvas.Screen,0_1_0_29,left,response,,46715,46715.14,46724.26,46980,255.73999999999796,46994,2021-10-27T13:11:39.115Z,47040.92,1635340246,full,ni_sequenzen,NI_Sequenzen,30,,,,,,,,,,,,,
,Loop,flow.Loop,0_1_0,-999,completion,,32196,32197.74,32207.4,46980,14772.599999999999,46995,2021-10-27T13:11:39.116Z,47040.92,1635340246,full,ni_sequenzen,NI_Sequenzen,,,,,,,,,,,,,,
,Training_I,flow.Sequence,0_1,,completion,,32184,32197.74,32207.4,46980,14772.599999999999,46995,2021-10-27T13:11:39.116Z,47040.92,1635340246,full,ni_sequenzen,NI_Sequenzen,,,,,,,,,,,,,,
,Screen_1,canvas.Screen,0_2_0_0,cont,response,1,47027,47026.8,47040.92,55887,8846.080000000002,55893,2021-10-27T13:11:48.015Z,56008.98,1635340246,full,ni_sequenzen,NI_Sequenzen,,,,,,,,,,,,,,
,Screen_2,canvas.Screen,0_2_0_1,cont,response,1,55998,55998.12,56008.98,63121,7112.019999999997,63125,2021-10-27T13:11:55.248Z,63142.4,1635340246,full,ni_sequenzen,NI_Sequenzen,,,,,,,,,,,,,,
,Screen_3,canvas.Screen,0_2_0_2,cont,response,1,63134,63133.7,63142.4,71808,8665.599999999999,71821,2021-10-27T13:12:03.943Z,71909.18,1635340246,full,ni_sequenzen,NI_Sequenzen,,,,,,,,,,,,,,
,Screen_4,canvas.Screen,0_2_0_3,cont,response,1,71902,71901.72,71909.18,78261,6351.820000000007,78277,2021-10-27T13:12:10.399Z,78292.6,1635340246,full,ni_sequenzen,NI_Sequenzen,,,,,,,,,,,,,,
,Screen_5,canvas.Screen,0_2_0_4,cont,response,1,78282,78282.06,78292.6,81386,3093.399999999994,81395,2021-10-27T13:12:13.517Z,81475.98,1635340246,full,ni_sequenzen,NI_Sequenzen,,,,,,,,,,,,,,
,Screen_6,canvas.Screen,0_2_0_5,cont,response,1,81473,81472.3,81475.98,89058,7582.020000000004,89069,2021-10-27T13:12:21.191Z,89276.08,1635340246,full,ni_sequenzen,NI_Sequenzen,,,,,,,,,,,,,,
,Sequence,flow.Sequence,0_2_0,,completion,1,47025,47026.8,47040.92,89058,42017.08,89070,2021-10-27T13:12:21.192Z,89276.08,1635340246,full,ni_sequenzen,NI_Sequenzen,,,,,,,,,,,,,,
,Screen_1,canvas.Screen,0_2_1_0,,skipped,2,89073,,,89073,,89073,2021-10-27T13:12:21.195Z,89276.08,1635340246,full,ni_sequenzen,NI_Sequenzen,,,,,,,,,,,,,,
,Screen_2,canvas.Screen,0_2_1_1,,skipped,2,89075,,,89073,,89075,2021-10-27T13:12:21.197Z,89276.08,1635340246,full,ni_sequenzen,NI_Sequenzen,,,,,,,,,,,,,,
,Screen_3,canvas.Screen,0_2_1_2,,skipped,2,89076,,,89073,,89076,2021-10-27T13:12:21.198Z,89276.08,1635340246,full,ni_sequenzen,NI_Sequenzen,,,,,,,,,,,,,,
,Screen_4,canvas.Screen,0_2_1_3,,skipped,2,89077,,,89073,,89078,2021-10-27T13:12:21.199Z,89276.08,1635340246,full,ni_sequenzen,NI_Sequenzen,,,,,,,,,,,,,,
,Screen_5,canvas.Screen,0_2_1_4,,skipped,2,89078,,,89073,,89078,2021-10-27T13:12:21.200Z,89276.08,1635340246,full,ni_sequenzen,NI_Sequenzen,,,,,,,,,,,,,,
,Screen_6,canvas.Screen,0_2_1_5,,skipped,2,89079,,,89073,,89079,2021-10-27T13:12:21.202Z,89276.08,1635340246,full,ni_sequenzen,NI_Sequenzen,,,,,,,,,,,,,,
,Sequence,flow.Sequence,0_2_1,,completion,2,89071,,,89073,,89080,2021-10-27T13:12:21.202Z,89276.08,1635340246,full,ni_sequenzen,NI_Sequenzen,,,,,,,,,,,,,,
,Screen_1,canvas.Screen,0_2_2_0,,skipped,3,89081,,,89081,,89081,2021-10-27T13:12:21.203Z,89276.08,1635340246,full,ni_sequenzen,NI_Sequenzen,,,,,,,,,,,,,,
,Screen_2,canvas.Screen,0_2_2_1,,skipped,3,89082,,,89081,,89082,2021-10-27T13:12:21.204Z,89276.08,1635340246,full,ni_sequenzen,NI_Sequenzen,,,,,,,,,,,,,,
,Screen_3,canvas.Screen,0_2_2_2,,skipped,3,89083,,,89081,,89083,2021-10-27T13:12:21.205Z,89276.08,1635340246,full,ni_sequenzen,NI_Sequenzen,,,,,,,,,,,,,,
,Screen_4,canvas.Screen,0_2_2_3,,skipped,3,89085,,,89081,,89085,2021-10-27T13:12:21.206Z,89276.08,1635340246,full,ni_sequenzen,NI_Sequenzen,,,,,,,,,,,,,,
,Screen_5,canvas.Screen,0_2_2_4,,skipped,3,89086,,,89081,,89086,2021-10-27T13:12:21.207Z,89276.08,1635340246,full,ni_sequenzen,NI_Sequenzen,,,,,,,,,,,,,,
,Screen_6,canvas.Screen,0_2_2_5,,skipped,3,89087,,,89081,,89087,2021-10-27T13:12:21.208Z,89276.08,1635340246,full,ni_sequenzen,NI_Sequenzen,,,,,,,,,,,,,,
,Sequence,flow.Sequence,0_2_2,,completion,3,89080,,,89081,,89087,2021-10-27T13:12:21.209Z,89276.08,1635340246,full,ni_sequenzen,NI_Sequenzen,,,,,,,,,,,,,,
,Screen_1,canvas.Screen,0_2_3_0,,skipped,4,89088,,,89088,,89088,2021-10-27T13:12:21.210Z,89276.08,1635340246,full,ni_sequenzen,NI_Sequenzen,,,,,,,,,,,,,,
,Screen_2,canvas.Screen,0_2_3_1,,skipped,4,89089,,,89088,,89089,2021-10-27T13:12:21.211Z,89276.08,1635340246,full,ni_sequenzen,NI_Sequenzen,,,,,,,,,,,,,,
,Screen_3,canvas.Screen,0_2_3_2,,skipped,4,89090,,,89088,,89090,2021-10-27T13:12:21.212Z,89276.08,1635340246,full,ni_sequenzen,NI_Sequenzen,,,,,,,,,,,,,,
,Screen_4,canvas.Screen,0_2_3_3,,skipped,4,89091,,,89088,,89091,2021-10-27T13:12:21.212Z,89276.08,1635340246,full,ni_sequenzen,NI_Sequenzen,,,,,,,,,,,,,,
,Screen_5,canvas.Screen,0_2_3_4,,skipped,4,89093,,,89088,,89093,2021-10-27T13:12:21.214Z,89276.08,1635340246,full,ni_sequenzen,NI_Sequenzen,,,,,,,,,,,,,,
,Screen_6,canvas.Screen,0_2_3_5,,skipped,4,89094,,,89088,,89094,2021-10-27T13:12:21.215Z,89276.08,1635340246,full,ni_sequenzen,NI_Sequenzen,,,,,,,,,,,,,,
,Sequence,flow.Sequence,0_2_3,,completion,4,89087,,,89088,,89094,2021-10-27T13:12:21.215Z,89276.08,1635340246,full,ni_sequenzen,NI_Sequenzen,,,,,,,,,,,,,,
,Screen_1,canvas.Screen,0_2_4_0,,skipped,5,89094,,,89094,,89094,2021-10-27T13:12:21.217Z,89276.08,1635340246,full,ni_sequenzen,NI_Sequenzen,,,,,,,,,,,,,,
,Screen_2,canvas.Screen,0_2_4_1,,skipped,5,89095,,,89094,,89095,2021-10-27T13:12:21.217Z,89276.08,1635340246,full,ni_sequenzen,NI_Sequenzen,,,,,,,,,,,,,,
,Screen_3,canvas.Screen,0_2_4_2,,skipped,5,89097,,,89094,,89097,2021-10-27T13:12:21.218Z,89276.08,1635340246,full,ni_sequenzen,NI_Sequenzen,,,,,,,,,,,,,,
,Screen_4,canvas.Screen,0_2_4_3,,skipped,5,89098,,,89094,,89098,2021-10-27T13:12:21.219Z,89276.08,1635340246,full,ni_sequenzen,NI_Sequenzen,,,,,,,,,,,,,,
,Screen_5,canvas.Screen,0_2_4_4,,skipped,5,89098,,,89094,,89099,2021-10-27T13:12:21.220Z,89276.08,1635340246,full,ni_sequenzen,NI_Sequenzen,,,,,,,,,,,,,,
,Screen_6,canvas.Screen,0_2_4_5,,skipped,5,89099,,,89094,,89099,2021-10-27T13:12:21.221Z,89276.08,1635340246,full,ni_sequenzen,NI_Sequenzen,,,,,,,,,,,,,,
,Sequence,flow.Sequence,0_2_4,,completion,5,89094,,,89094,,89100,2021-10-27T13:12:21.221Z,89276.08,1635340246,full,ni_sequenzen,NI_Sequenzen,,,,,,,,,,,,,,
,Screen_1,canvas.Screen,0_2_5_0,,skipped,6,89101,,,89101,,89101,2021-10-27T13:12:21.223Z,89276.08,1635340246,full,ni_sequenzen,NI_Sequenzen,,,,,,,,,,,,,,
,Screen_2,canvas.Screen,0_2_5_1,,skipped,6,89102,,,89101,,89102,2021-10-27T13:12:21.224Z,89276.08,1635340246,full,ni_sequenzen,NI_Sequenzen,,,,,,,,,,,,,,
,Screen_3,canvas.Screen,0_2_5_2,,skipped,6,89103,,,89101,,89103,2021-10-27T13:12:21.225Z,89276.08,1635340246,full,ni_sequenzen,NI_Sequenzen,,,,,,,,,,,,,,
,Screen_4,canvas.Screen,0_2_5_3,,skipped,6,89104,,,89101,,89104,2021-10-27T13:12:21.226Z,89276.08,1635340246,full,ni_sequenzen,NI_Sequenzen,,,,,,,,,,,,,,
,Screen_5,canvas.Screen,0_2_5_4,,skipped,6,89105,,,89101,,89105,2021-10-27T13:12:21.227Z,89276.08,1635340246,full,ni_sequenzen,NI_Sequenzen,,,,,,,,,,,,,,
,Screen_6,canvas.Screen,0_2_5_5,,skipped,6,89106,,,89101,,89106,2021-10-27T13:12:21.228Z,89276.08,1635340246,full,ni_sequenzen,NI_Sequenzen,,,,,,,,,,,,,,
,Sequence,flow.Sequence,0_2_5,,completion,6,89100,,,89101,,89106,2021-10-27T13:12:21.228Z,89276.08,1635340246,full,ni_sequenzen,NI_Sequenzen,,,,,,,,,,,,,,
,Screen_1,canvas.Screen,0_2_6_0,,skipped,7,89107,,,89107,,89107,2021-10-27T13:12:21.229Z,89276.08,1635340246,full,ni_sequenzen,NI_Sequenzen,,,,,,,,,,,,,,
,Screen_2,canvas.Screen,0_2_6_1,,skipped,7,89108,,,89107,,89108,2021-10-27T13:12:21.230Z,89276.08,1635340246,full,ni_sequenzen,NI_Sequenzen,,,,,,,,,,,,,,
,Screen_3,canvas.Screen,0_2_6_2,,skipped,7,89109,,,89107,,89109,2021-10-27T13:12:21.231Z,89276.08,1635340246,full,ni_sequenzen,NI_Sequenzen,,,,,,,,,,,,,,
,Screen_4,canvas.Screen,0_2_6_3,,skipped,7,89109,,,89107,,89109,2021-10-27T13:12:21.231Z,89276.08,1635340246,full,ni_sequenzen,NI_Sequenzen,,,,,,,,,,,,,,
,Screen_5,canvas.Screen,0_2_6_4,,skipped,7,89110,,,89107,,89110,2021-10-27T13:12:21.232Z,89276.08,1635340246,full,ni_sequenzen,NI_Sequenzen,,,,,,,,,,,,,,
,Screen_6,canvas.Screen,0_2_6_5,,skipped,7,89112,,,89107,,89112,2021-10-27T13:12:21.234Z,89276.08,1635340246,full,ni_sequenzen,NI_Sequenzen,,,,,,,,,,,,,,
,Sequence,flow.Sequence,0_2_6,,completion,7,89107,,,89107,,89112,2021-10-27T13:12:21.235Z,89276.08,1635340246,full,ni_sequenzen,NI_Sequenzen,,,,,,,,,,,,,,
,Screen_1,canvas.Screen,0_2_7_0,,skipped,8,89114,,,89114,,89114,2021-10-27T13:12:21.236Z,89276.08,1635340246,full,ni_sequenzen,NI_Sequenzen,,,,,,,,,,,,,,
,Screen_2,canvas.Screen,0_2_7_1,,skipped,8,89115,,,89114,,89115,2021-10-27T13:12:21.236Z,89276.08,1635340246,full,ni_sequenzen,NI_Sequenzen,,,,,,,,,,,,,,
,Screen_3,canvas.Screen,0_2_7_2,,skipped,8,89115,,,89114,,89115,2021-10-27T13:12:21.238Z,89276.08,1635340246,full,ni_sequenzen,NI_Sequenzen,,,,,,,,,,,,,,
,Screen_4,canvas.Screen,0_2_7_3,,skipped,8,89116,,,89114,,89116,2021-10-27T13:12:21.238Z,89276.08,1635340246,full,ni_sequenzen,NI_Sequenzen,,,,,,,,,,,,,,
,Screen_5,canvas.Screen,0_2_7_4,,skipped,8,89117,,,89114,,89118,2021-10-27T13:12:21.239Z,89276.08,1635340246,full,ni_sequenzen,NI_Sequenzen,,,,,,,,,,,,,,
,Screen_6,canvas.Screen,0_2_7_5,,skipped,8,89118,,,89114,,89118,2021-10-27T13:12:21.240Z,89276.08,1635340246,full,ni_sequenzen,NI_Sequenzen,,,,,,,,,,,,,,
,Sequence,flow.Sequence,0_2_7,,completion,8,89113,,,89114,,89119,2021-10-27T13:12:21.240Z,89276.08,1635340246,full,ni_sequenzen,NI_Sequenzen,,,,,,,,,,,,,,
,Screen_1,canvas.Screen,0_2_8_0,,skipped,9,89120,,,89120,,89120,2021-10-27T13:12:21.241Z,89276.08,1635340246,full,ni_sequenzen,NI_Sequenzen,,,,,,,,,,,,,,
,Screen_2,canvas.Screen,0_2_8_1,,skipped,9,89120,,,89120,,89120,2021-10-27T13:12:21.242Z,89276.08,1635340246,full,ni_sequenzen,NI_Sequenzen,,,,,,,,,,,,,,
,Screen_3,canvas.Screen,0_2_8_2,,skipped,9,89121,,,89120,,89121,2021-10-27T13:12:21.243Z,89276.08,1635340246,full,ni_sequenzen,NI_Sequenzen,,,,,,,,,,,,,,
,Screen_4,canvas.Screen,0_2_8_3,,skipped,9,89123,,,89120,,89123,2021-10-27T13:12:21.244Z,89276.08,1635340246,full,ni_sequenzen,NI_Sequenzen,,,,,,,,,,,,,,
,Screen_5,canvas.Screen,0_2_8_4,,skipped,9,89124,,,89120,,89124,2021-10-27T13:12:21.245Z,89276.08,1635340246,full,ni_sequenzen,NI_Sequenzen,,,,,,,,,,,,,,
,Screen_6,canvas.Screen,0_2_8_5,,skipped,9,89125,,,89120,,89125,2021-10-27T13:12:21.246Z,89276.08,1635340246,full,ni_sequenzen,NI_Sequenzen,,,,,,,,,,,,,,
,Sequence,flow.Sequence,0_2_8,,completion,9,89119,,,89120,,89125,2021-10-27T13:12:21.246Z,89276.08,1635340246,full,ni_sequenzen,NI_Sequenzen,,,,,,,,,,,,,,
,Screen_1,canvas.Screen,0_2_9_0,,skipped,10,89126,,,89126,,89126,2021-10-27T13:12:21.248Z,89276.08,1635340246,full,ni_sequenzen,NI_Sequenzen,,,,,,,,,,,,,,
,Screen_2,canvas.Screen,0_2_9_1,,skipped,10,89128,,,89126,,89128,2021-10-27T13:12:21.250Z,89276.08,1635340246,full,ni_sequenzen,NI_Sequenzen,,,,,,,,,,,,,,
,Screen_3,canvas.Screen,0_2_9_2,,skipped,10,89129,,,89126,,89129,2021-10-27T13:12:21.251Z,89276.08,1635340246,full,ni_sequenzen,NI_Sequenzen,,,,,,,,,,,,,,
,Screen_4,canvas.Screen,0_2_9_3,,skipped,10,89130,,,89126,,89130,2021-10-27T13:12:21.252Z,89276.08,1635340246,full,ni_sequenzen,NI_Sequenzen,,,,,,,,,,,,,,
,Screen_5,canvas.Screen,0_2_9_4,,skipped,10,89132,,,89126,,89132,2021-10-27T13:12:21.253Z,89276.08,1635340246,full,ni_sequenzen,NI_Sequenzen,,,,,,,,,,,,,,
,Screen_6,canvas.Screen,0_2_9_5,,skipped,10,89133,,,89126,,89133,2021-10-27T13:12:21.254Z,89276.08,1635340246,full,ni_sequenzen,NI_Sequenzen,,,,,,,,,,,,,,
,Sequence,flow.Sequence,0_2_9,,completion,10,89126,,,89126,,89133,2021-10-27T13:12:21.254Z,89276.08,1635340246,full,ni_sequenzen,NI_Sequenzen,,,,,,,,,,,,,,
,Screen_1,canvas.Screen,0_2_10_0,,skipped,11,89134,,,89134,,89134,2021-10-27T13:12:21.255Z,89276.08,1635340246,full,ni_sequenzen,NI_Sequenzen,,,,,,,,,,,,,,
,Screen_2,canvas.Screen,0_2_10_1,,skipped,11,89135,,,89134,,89135,2021-10-27T13:12:21.256Z,89276.08,1635340246,full,ni_sequenzen,NI_Sequenzen,,,,,,,,,,,,,,
,Screen_3,canvas.Screen,0_2_10_2,,skipped,11,89136,,,89134,,89136,2021-10-27T13:12:21.257Z,89276.08,1635340246,full,ni_sequenzen,NI_Sequenzen,,,,,,,,,,,,,,
,Screen_4,canvas.Screen,0_2_10_3,,skipped,11,89137,,,89134,,89137,2021-10-27T13:12:21.258Z,89276.08,1635340246,full,ni_sequenzen,NI_Sequenzen,,,,,,,,,,,,,,
,Screen_5,canvas.Screen,0_2_10_4,,skipped,11,89137,,,89134,,89137,2021-10-27T13:12:21.259Z,89276.08,1635340246,full,ni_sequenzen,NI_Sequenzen,,,,,,,,,,,,,,
,Screen_6,canvas.Screen,0_2_10_5,,skipped,11,89138,,,89134,,89138,2021-10-27T13:12:21.259Z,89276.08,1635340246,full,ni_sequenzen,NI_Sequenzen,,,,,,,,,,,,,,
,Sequence,flow.Sequence,0_2_10,,completion,11,89133,,,89134,,89139,2021-10-27T13:12:21.260Z,89276.08,1635340246,full,ni_sequenzen,NI_Sequenzen,,,,,,,,,,,,,,
,Screen_1,canvas.Screen,0_2_11_0,,skipped,12,89140,,,89140,,89140,2021-10-27T13:12:21.261Z,89276.08,1635340246,full,ni_sequenzen,NI_Sequenzen,,,,,,,,,,,,,,
,Screen_2,canvas.Screen,0_2_11_1,,skipped,12,89140,,,89140,,89140,2021-10-27T13:12:21.262Z,89276.08,1635340246,full,ni_sequenzen,NI_Sequenzen,,,,,,,,,,,,,,
,Screen_3,canvas.Screen,0_2_11_2,,skipped,12,89141,,,89140,,89141,2021-10-27T13:12:21.263Z,89276.08,1635340246,full,ni_sequenzen,NI_Sequenzen,,,,,,,,,,,,,,
,Screen_4,canvas.Screen,0_2_11_3,,skipped,12,89143,,,89140,,89143,2021-10-27T13:12:21.264Z,89276.08,1635340246,full,ni_sequenzen,NI_Sequenzen,,,,,,,,,,,,,,
,Screen_5,canvas.Screen,0_2_11_4,,skipped,12,89144,,,89140,,89144,2021-10-27T13:12:21.265Z,89276.08,1635340246,full,ni_sequenzen,NI_Sequenzen,,,,,,,,,,,,,,
,Screen_6,canvas.Screen,0_2_11_5,,skipped,12,89144,,,89140,,89144,2021-10-27T13:12:21.266Z,89276.08,1635340246,full,ni_sequenzen,NI_Sequenzen,,,,,,,,,,,,,,
,Sequence,flow.Sequence,0_2_11,,completion,12,89139,,,89140,,89144,2021-10-27T13:12:21.266Z,89276.08,1635340246,full,ni_sequenzen,NI_Sequenzen,,,,,,,,,,,,,,
,Screen_1,canvas.Screen,0_2_12_0,,skipped,13,89145,,,89145,,89146,2021-10-27T13:12:21.267Z,89276.08,1635340246,full,ni_sequenzen,NI_Sequenzen,,,,,,,,,,,,,,
,Screen_2,canvas.Screen,0_2_12_1,,skipped,13,89146,,,89145,,89146,2021-10-27T13:12:21.268Z,89276.08,1635340246,full,ni_sequenzen,NI_Sequenzen,,,,,,,,,,,,,,
,Screen_3,canvas.Screen,0_2_12_2,,skipped,13,89147,,,89145,,89147,2021-10-27T13:12:21.268Z,89276.08,1635340246,full,ni_sequenzen,NI_Sequenzen,,,,,,,,,,,,,,
,Screen_4,canvas.Screen,0_2_12_3,,skipped,13,89148,,,89145,,89148,2021-10-27T13:12:21.269Z,89276.08,1635340246,full,ni_sequenzen,NI_Sequenzen,,,,,,,,,,,,,,
,Screen_5,canvas.Screen,0_2_12_4,,skipped,13,89148,,,89145,,89148,2021-10-27T13:12:21.270Z,89276.08,1635340246,full,ni_sequenzen,NI_Sequenzen,,,,,,,,,,,,,,
,Screen_6,canvas.Screen,0_2_12_5,,skipped,13,89149,,,89145,,89149,2021-10-27T13:12:21.270Z,89276.08,1635340246,full,ni_sequenzen,NI_Sequenzen,,,,,,,,,,,,,,
,Sequence,flow.Sequence,0_2_12,,completion,13,89145,,,89145,,89149,2021-10-27T13:12:21.270Z,89276.08,1635340246,full,ni_sequenzen,NI_Sequenzen,,,,,,,,,,,,,,
,Screen_1,canvas.Screen,0_2_13_0,,skipped,14,89150,,,89150,,89150,2021-10-27T13:12:21.271Z,89276.08,1635340246,full,ni_sequenzen,NI_Sequenzen,,,,,,,,,,,,,,
,Screen_2,canvas.Screen,0_2_13_1,,skipped,14,89151,,,89150,,89151,2021-10-27T13:12:21.272Z,89276.08,1635340246,full,ni_sequenzen,NI_Sequenzen,,,,,,,,,,,,,,
,Screen_3,canvas.Screen,0_2_13_2,,skipped,14,89153,,,89150,,89153,2021-10-27T13:12:21.274Z,89276.08,1635340246,full,ni_sequenzen,NI_Sequenzen,,,,,,,,,,,,,,
,Screen_4,canvas.Screen,0_2_13_3,,skipped,14,89153,,,89150,,89153,2021-10-27T13:12:21.275Z,89276.08,1635340246,full,ni_sequenzen,NI_Sequenzen,,,,,,,,,,,,,,
,Screen_5,canvas.Screen,0_2_13_4,,skipped,14,89154,,,89150,,89154,2021-10-27T13:12:21.276Z,89276.08,1635340246,full,ni_sequenzen,NI_Sequenzen,,,,,,,,,,,,,,
,Screen_6,canvas.Screen,0_2_13_5,,skipped,14,89156,,,89150,,89156,2021-10-27T13:12:21.278Z,89276.08,1635340246,full,ni_sequenzen,NI_Sequenzen,,,,,,,,,,,,,,
,Sequence,flow.Sequence,0_2_13,,completion,14,89149,,,89150,,89156,2021-10-27T13:12:21.278Z,89276.08,1635340246,full,ni_sequenzen,NI_Sequenzen,,,,,,,,,,,,,,
,Screen_1,canvas.Screen,0_2_14_0,,skipped,15,89157,,,89157,,89157,2021-10-27T13:12:21.279Z,89276.08,1635340246,full,ni_sequenzen,NI_Sequenzen,,,,,,,,,,,,,,
,Screen_2,canvas.Screen,0_2_14_1,,skipped,15,89158,,,89157,,89158,2021-10-27T13:12:21.280Z,89276.08,1635340246,full,ni_sequenzen,NI_Sequenzen,,,,,,,,,,,,,,
,Screen_3,canvas.Screen,0_2_14_2,,skipped,15,89158,,,89157,,89158,2021-10-27T13:12:21.280Z,89276.08,1635340246,full,ni_sequenzen,NI_Sequenzen,,,,,,,,,,,,,,
,Screen_4,canvas.Screen,0_2_14_3,,skipped,15,89159,,,89157,,89159,2021-10-27T13:12:21.281Z,89276.08,1635340246,full,ni_sequenzen,NI_Sequenzen,,,,,,,,,,,,,,
,Screen_5,canvas.Screen,0_2_14_4,,skipped,15,89160,,,89157,,89160,2021-10-27T13:12:21.282Z,89276.08,1635340246,full,ni_sequenzen,NI_Sequenzen,,,,,,,,,,,,,,
,Screen_6,canvas.Screen,0_2_14_5,,skipped,15,89161,,,89157,,89161,2021-10-27T13:12:21.283Z,89276.08,1635340246,full,ni_sequenzen,NI_Sequenzen,,,,,,,,,,,,,,
,Sequence,flow.Sequence,0_2_14,,completion,15,89157,,,89157,,89161,2021-10-27T13:12:21.283Z,89276.08,1635340246,full,ni_sequenzen,NI_Sequenzen,,,,,,,,,,,,,,
,Screen_1,canvas.Screen,0_2_15_0,,skipped,16,89162,,,89162,,89162,2021-10-27T13:12:21.284Z,89276.08,1635340246,full,ni_sequenzen,NI_Sequenzen,,,,,,,,,,,,,,
,Screen_2,canvas.Screen,0_2_15_1,,skipped,16,89163,,,89162,,89163,2021-10-27T13:12:21.285Z,89276.08,1635340246,full,ni_sequenzen,NI_Sequenzen,,,,,,,,,,,,,,
,Screen_3,canvas.Screen,0_2_15_2,,skipped,16,89164,,,89162,,89164,2021-10-27T13:12:21.286Z,89276.08,1635340246,full,ni_sequenzen,NI_Sequenzen,,,,,,,,,,,,,,
,Screen_4,canvas.Screen,0_2_15_3,,skipped,16,89165,,,89162,,89165,2021-10-27T13:12:21.286Z,89276.08,1635340246,full,ni_sequenzen,NI_Sequenzen,,,,,,,,,,,,,,
,Screen_5,canvas.Screen,0_2_15_4,,skipped,16,89165,,,89162,,89165,2021-10-27T13:12:21.287Z,89276.08,1635340246,full,ni_sequenzen,NI_Sequenzen,,,,,,,,,,,,,,
,Screen_6,canvas.Screen,0_2_15_5,,skipped,16,89166,,,89162,,89166,2021-10-27T13:12:21.288Z,89276.08,1635340246,full,ni_sequenzen,NI_Sequenzen,,,,,,,,,,,,,,
,Sequence,flow.Sequence,0_2_15,,completion,16,89162,,,89162,,89166,2021-10-27T13:12:21.288Z,89276.08,1635340246,full,ni_sequenzen,NI_Sequenzen,,,,,,,,,,,,,,
,Screen_1,canvas.Screen,0_2_16_0,,skipped,17,89167,,,89167,,89167,2021-10-27T13:12:21.289Z,89276.08,1635340246,full,ni_sequenzen,NI_Sequenzen,,,,,,,,,,,,,,
,Screen_2,canvas.Screen,0_2_16_1,,skipped,17,89168,,,89167,,89168,2021-10-27T13:12:21.290Z,89276.08,1635340246,full,ni_sequenzen,NI_Sequenzen,,,,,,,,,,,,,,
,Screen_3,canvas.Screen,0_2_16_2,,skipped,17,89169,,,89167,,89169,2021-10-27T13:12:21.290Z,89276.08,1635340246,full,ni_sequenzen,NI_Sequenzen,,,,,,,,,,,,,,
,Screen_4,canvas.Screen,0_2_16_3,,skipped,17,89169,,,89167,,89169,2021-10-27T13:12:21.291Z,89276.08,1635340246,full,ni_sequenzen,NI_Sequenzen,,,,,,,,,,,,,,
,Screen_5,canvas.Screen,0_2_16_4,,skipped,17,89169,,,89167,,89169,2021-10-27T13:12:21.291Z,89276.08,1635340246,full,ni_sequenzen,NI_Sequenzen,,,,,,,,,,,,,,
,Screen_6,canvas.Screen,0_2_16_5,,skipped,17,89170,,,89167,,89171,2021-10-27T13:12:21.292Z,89276.08,1635340246,full,ni_sequenzen,NI_Sequenzen,,,,,,,,,,,,,,
,Sequence,flow.Sequence,0_2_16,,completion,17,89167,,,89167,,89171,2021-10-27T13:12:21.292Z,89276.08,1635340246,full,ni_sequenzen,NI_Sequenzen,,,,,,,,,,,,,,
,Screen_1,canvas.Screen,0_2_17_0,,skipped,18,89172,,,89172,,89172,2021-10-27T13:12:21.294Z,89276.08,1635340246,full,ni_sequenzen,NI_Sequenzen,,,,,,,,,,,,,,
,Screen_2,canvas.Screen,0_2_17_1,,skipped,18,89173,,,89172,,89173,2021-10-27T13:12:21.296Z,89276.08,1635340246,full,ni_sequenzen,NI_Sequenzen,,,,,,,,,,,,,,
,Screen_3,canvas.Screen,0_2_17_2,,skipped,18,89174,,,89172,,89174,2021-10-27T13:12:21.296Z,89276.08,1635340246,full,ni_sequenzen,NI_Sequenzen,,,,,,,,,,,,,,
,Screen_4,canvas.Screen,0_2_17_3,,skipped,18,89175,,,89172,,89175,2021-10-27T13:12:21.297Z,89276.08,1635340246,full,ni_sequenzen,NI_Sequenzen,,,,,,,,,,,,,,
,Screen_5,canvas.Screen,0_2_17_4,,skipped,18,89176,,,89172,,89176,2021-10-27T13:12:21.297Z,89276.08,1635340246,full,ni_sequenzen,NI_Sequenzen,,,,,,,,,,,,,,
,Screen_6,canvas.Screen,0_2_17_5,,skipped,18,89177,,,89172,,89177,2021-10-27T13:12:21.299Z,89276.08,1635340246,full,ni_sequenzen,NI_Sequenzen,,,,,,,,,,,,,,
,Sequence,flow.Sequence,0_2_17,,completion,18,89171,,,89172,,89177,2021-10-27T13:12:21.299Z,89276.08,1635340246,full,ni_sequenzen,NI_Sequenzen,,,,,,,,,,,,,,
,Screen_1,canvas.Screen,0_2_18_0,,skipped,19,89178,,,89178,,89178,2021-10-27T13:12:21.300Z,89276.08,1635340246,full,ni_sequenzen,NI_Sequenzen,,,,,,,,,,,,,,
,Screen_2,canvas.Screen,0_2_18_1,,skipped,19,89178,,,89178,,89178,2021-10-27T13:12:21.300Z,89276.08,1635340246,full,ni_sequenzen,NI_Sequenzen,,,,,,,,,,,,,,
,Screen_3,canvas.Screen,0_2_18_2,,skipped,19,89179,,,89178,,89179,2021-10-27T13:12:21.301Z,89276.08,1635340246,full,ni_sequenzen,NI_Sequenzen,,,,,,,,,,,,,,
,Screen_4,canvas.Screen,0_2_18_3,,skipped,19,89180,,,89178,,89180,2021-10-27T13:12:21.302Z,89276.08,1635340246,full,ni_sequenzen,NI_Sequenzen,,,,,,,,,,,,,,
,Screen_5,canvas.Screen,0_2_18_4,,skipped,19,89181,,,89178,,89181,2021-10-27T13:12:21.303Z,89276.08,1635340246,full,ni_sequenzen,NI_Sequenzen,,,,,,,,,,,,,,
,Screen_6,canvas.Screen,0_2_18_5,,skipped,19,89182,,,89178,,89182,2021-10-27T13:12:21.303Z,89276.08,1635340246,full,ni_sequenzen,NI_Sequenzen,,,,,,,,,,,,,,
,Sequence,flow.Sequence,0_2_18,,completion,19,89177,,,89178,,89182,2021-10-27T13:12:21.303Z,89276.08,1635340246,full,ni_sequenzen,NI_Sequenzen,,,,,,,,,,,,,,
,Screen_1,canvas.Screen,0_2_19_0,,skipped,20,89183,,,89183,,89183,2021-10-27T13:12:21.304Z,89276.08,1635340246,full,ni_sequenzen,NI_Sequenzen,,,,,,,,,,,,,,
,Screen_2,canvas.Screen,0_2_19_1,,skipped,20,89184,,,89183,,89184,2021-10-27T13:12:21.305Z,89276.08,1635340246,full,ni_sequenzen,NI_Sequenzen,,,,,,,,,,,,,,
,Screen_3,canvas.Screen,0_2_19_2,,skipped,20,89184,,,89183,,89184,2021-10-27T13:12:21.306Z,89276.08,1635340246,full,ni_sequenzen,NI_Sequenzen,,,,,,,,,,,,,,
,Screen_4,canvas.Screen,0_2_19_3,,skipped,20,89185,,,89183,,89185,2021-10-27T13:12:21.307Z,89276.08,1635340246,full,ni_sequenzen,NI_Sequenzen,,,,,,,,,,,,,,
,Screen_5,canvas.Screen,0_2_19_4,,skipped,20,89185,,,89183,,89185,2021-10-27T13:12:21.307Z,89276.08,1635340246,full,ni_sequenzen,NI_Sequenzen,,,,,,,,,,,,,,
,Screen_6,canvas.Screen,0_2_19_5,,skipped,20,89185,,,89183,,89185,2021-10-27T13:12:21.307Z,89276.08,1635340246,full,ni_sequenzen,NI_Sequenzen,,,,,,,,,,,,,,
,Sequence,flow.Sequence,0_2_19,,completion,20,89182,,,89183,,89185,2021-10-27T13:12:21.307Z,89276.08,1635340246,full,ni_sequenzen,NI_Sequenzen,,,,,,,,,,,,,,
,Screen_1,canvas.Screen,0_2_20_0,,skipped,21,89186,,,89186,,89186,2021-10-27T13:12:21.308Z,89276.08,1635340246,full,ni_sequenzen,NI_Sequenzen,,,,,,,,,,,,,,
,Screen_2,canvas.Screen,0_2_20_1,,skipped,21,89188,,,89186,,89188,2021-10-27T13:12:21.309Z,89276.08,1635340246,full,ni_sequenzen,NI_Sequenzen,,,,,,,,,,,,,,
,Screen_3,canvas.Screen,0_2_20_2,,skipped,21,89188,,,89186,,89188,2021-10-27T13:12:21.310Z,89276.08,1635340246,full,ni_sequenzen,NI_Sequenzen,,,,,,,,,,,,,,
,Screen_4,canvas.Screen,0_2_20_3,,skipped,21,89189,,,89186,,89189,2021-10-27T13:12:21.311Z,89276.08,1635340246,full,ni_sequenzen,NI_Sequenzen,,,,,,,,,,,,,,
,Screen_5,canvas.Screen,0_2_20_4,,skipped,21,89190,,,89186,,89190,2021-10-27T13:12:21.312Z,89276.08,1635340246,full,ni_sequenzen,NI_Sequenzen,,,,,,,,,,,,,,
,Screen_6,canvas.Screen,0_2_20_5,,skipped,21,89192,,,89186,,89192,2021-10-27T13:12:21.313Z,89276.08,1635340246,full,ni_sequenzen,NI_Sequenzen,,,,,,,,,,,,,,
,Sequence,flow.Sequence,0_2_20,,completion,21,89186,,,89186,,89192,2021-10-27T13:12:21.314Z,89276.08,1635340246,full,ni_sequenzen,NI_Sequenzen,,,,,,,,,,,,,,
,Screen_1,canvas.Screen,0_2_21_0,,skipped,22,89194,,,89194,,89194,2021-10-27T13:12:21.316Z,89276.08,1635340246,full,ni_sequenzen,NI_Sequenzen,,,,,,,,,,,,,,
,Screen_2,canvas.Screen,0_2_21_1,,skipped,22,89194,,,89194,,89194,2021-10-27T13:12:21.316Z,89276.08,1635340246,full,ni_sequenzen,NI_Sequenzen,,,,,,,,,,,,,,
,Screen_3,canvas.Screen,0_2_21_2,,skipped,22,89195,,,89194,,89195,2021-10-27T13:12:21.317Z,89276.08,1635340246,full,ni_sequenzen,NI_Sequenzen,,,,,,,,,,,,,,
,Screen_4,canvas.Screen,0_2_21_3,,skipped,22,89196,,,89194,,89196,2021-10-27T13:12:21.318Z,89276.08,1635340246,full,ni_sequenzen,NI_Sequenzen,,,,,,,,,,,,,,
,Screen_5,canvas.Screen,0_2_21_4,,skipped,22,89197,,,89194,,89197,2021-10-27T13:12:21.318Z,89276.08,1635340246,full,ni_sequenzen,NI_Sequenzen,,,,,,,,,,,,,,
,Screen_6,canvas.Screen,0_2_21_5,,skipped,22,89198,,,89194,,89198,2021-10-27T13:12:21.319Z,89276.08,1635340246,full,ni_sequenzen,NI_Sequenzen,,,,,,,,,,,,,,
,Sequence,flow.Sequence,0_2_21,,completion,22,89193,,,89194,,89198,2021-10-27T13:12:21.319Z,89276.08,1635340246,full,ni_sequenzen,NI_Sequenzen,,,,,,,,,,,,,,
,Screen_1,canvas.Screen,0_2_22_0,,skipped,23,89199,,,89199,,89199,2021-10-27T13:12:21.320Z,89276.08,1635340246,full,ni_sequenzen,NI_Sequenzen,,,,,,,,,,,,,,
,Screen_2,canvas.Screen,0_2_22_1,,skipped,23,89200,,,89199,,89200,2021-10-27T13:12:21.321Z,89276.08,1635340246,full,ni_sequenzen,NI_Sequenzen,,,,,,,,,,,,,,
,Screen_3,canvas.Screen,0_2_22_2,,skipped,23,89201,,,89199,,89201,2021-10-27T13:12:21.322Z,89276.08,1635340246,full,ni_sequenzen,NI_Sequenzen,,,,,,,,,,,,,,
,Screen_4,canvas.Screen,0_2_22_3,,skipped,23,89201,,,89199,,89201,2021-10-27T13:12:21.323Z,89276.08,1635340246,full,ni_sequenzen,NI_Sequenzen,,,,,,,,,,,,,,
,Screen_5,canvas.Screen,0_2_22_4,,skipped,23,89203,,,89199,,89203,2021-10-27T13:12:21.323Z,89276.08,1635340246,full,ni_sequenzen,NI_Sequenzen,,,,,,,,,,,,,,
,Screen_6,canvas.Screen,0_2_22_5,,skipped,23,89203,,,89199,,89203,2021-10-27T13:12:21.324Z,89276.08,1635340246,full,ni_sequenzen,NI_Sequenzen,,,,,,,,,,,,,,
,Sequence,flow.Sequence,0_2_22,,completion,23,89198,,,89199,,89203,2021-10-27T13:12:21.324Z,89276.08,1635340246,full,ni_sequenzen,NI_Sequenzen,,,,,,,,,,,,,,
,Screen_1,canvas.Screen,0_2_23_0,,skipped,24,89205,,,89205,,89205,2021-10-27T13:12:21.326Z,89276.08,1635340246,full,ni_sequenzen,NI_Sequenzen,,,,,,,,,,,,,,
,Screen_2,canvas.Screen,0_2_23_1,,skipped,24,89208,,,89205,,89208,2021-10-27T13:12:21.330Z,89276.08,1635340246,full,ni_sequenzen,NI_Sequenzen,,,,,,,,,,,,,,
,Screen_3,canvas.Screen,0_2_23_2,,skipped,24,89209,,,89205,,89209,2021-10-27T13:12:21.330Z,89276.08,1635340246,full,ni_sequenzen,NI_Sequenzen,,,,,,,,,,,,,,
,Screen_4,canvas.Screen,0_2_23_3,,skipped,24,89210,,,89205,,89210,2021-10-27T13:12:21.331Z,89276.08,1635340246,full,ni_sequenzen,NI_Sequenzen,,,,,,,,,,,,,,
,Screen_5,canvas.Screen,0_2_23_4,,skipped,24,89211,,,89205,,89211,2021-10-27T13:12:21.332Z,89276.08,1635340246,full,ni_sequenzen,NI_Sequenzen,,,,,,,,,,,,,,
,Screen_6,canvas.Screen,0_2_23_5,,skipped,24,89212,,,89205,,89212,2021-10-27T13:12:21.333Z,89276.08,1635340246,full,ni_sequenzen,NI_Sequenzen,,,,,,,,,,,,,,
,Sequence,flow.Sequence,0_2_23,,completion,24,89204,,,89205,,89212,2021-10-27T13:12:21.333Z,89276.08,1635340246,full,ni_sequenzen,NI_Sequenzen,,,,,,,,,,,,,,
,Screen_1,canvas.Screen,0_2_24_0,,skipped,25,89213,,,89213,,89213,2021-10-27T13:12:21.334Z,89276.08,1635340246,full,ni_sequenzen,NI_Sequenzen,,,,,,,,,,,,,,
,Screen_2,canvas.Screen,0_2_24_1,,skipped,25,89213,,,89213,,89213,2021-10-27T13:12:21.334Z,89276.08,1635340246,full,ni_sequenzen,NI_Sequenzen,,,,,,,,,,,,,,
,Screen_3,canvas.Screen,0_2_24_2,,skipped,25,89214,,,89213,,89214,2021-10-27T13:12:21.335Z,89276.08,1635340246,full,ni_sequenzen,NI_Sequenzen,,,,,,,,,,,,,,
,Screen_4,canvas.Screen,0_2_24_3,,skipped,25,89215,,,89213,,89215,2021-10-27T13:12:21.336Z,89276.08,1635340246,full,ni_sequenzen,NI_Sequenzen,,,,,,,,,,,,,,
,Screen_5,canvas.Screen,0_2_24_4,,skipped,25,89216,,,89213,,89216,2021-10-27T13:12:21.337Z,89276.08,1635340246,full,ni_sequenzen,NI_Sequenzen,,,,,,,,,,,,,,
,Screen_6,canvas.Screen,0_2_24_5,,skipped,25,89216,,,89213,,89216,2021-10-27T13:12:21.337Z,89276.08,1635340246,full,ni_sequenzen,NI_Sequenzen,,,,,,,,,,,,,,
,Sequence,flow.Sequence,0_2_24,,completion,25,89212,,,89213,,89216,2021-10-27T13:12:21.337Z,89276.08,1635340246,full,ni_sequenzen,NI_Sequenzen,,,,,,,,,,,,,,
,Screen_1,canvas.Screen,0_2_25_0,,skipped,26,89217,,,89217,,89217,2021-10-27T13:12:21.338Z,89276.08,1635340246,full,ni_sequenzen,NI_Sequenzen,,,,,,,,,,,,,,
,Screen_2,canvas.Screen,0_2_25_1,,skipped,26,89218,,,89217,,89218,2021-10-27T13:12:21.339Z,89276.08,1635340246,full,ni_sequenzen,NI_Sequenzen,,,,,,,,,,,,,,
,Screen_3,canvas.Screen,0_2_25_2,,skipped,26,89219,,,89217,,89219,2021-10-27T13:12:21.340Z,89276.08,1635340246,full,ni_sequenzen,NI_Sequenzen,,,,,,,,,,,,,,
,Screen_4,canvas.Screen,0_2_25_3,,skipped,26,89219,,,89217,,89219,2021-10-27T13:12:21.341Z,89276.08,1635340246,full,ni_sequenzen,NI_Sequenzen,,,,,,,,,,,,,,
,Screen_5,canvas.Screen,0_2_25_4,,skipped,26,89219,,,89217,,89219,2021-10-27T13:12:21.341Z,89276.08,1635340246,full,ni_sequenzen,NI_Sequenzen,,,,,,,,,,,,,,
,Screen_6,canvas.Screen,0_2_25_5,,skipped,26,89221,,,89217,,89221,2021-10-27T13:12:21.342Z,89276.08,1635340246,full,ni_sequenzen,NI_Sequenzen,,,,,,,,,,,,,,
,Sequence,flow.Sequence,0_2_25,,completion,26,89217,,,89217,,89221,2021-10-27T13:12:21.343Z,89276.08,1635340246,full,ni_sequenzen,NI_Sequenzen,,,,,,,,,,,,,,
,Screen_1,canvas.Screen,0_2_26_0,,skipped,27,89222,,,89222,,89222,2021-10-27T13:12:21.344Z,89276.08,1635340246,full,ni_sequenzen,NI_Sequenzen,,,,,,,,,,,,,,
,Screen_2,canvas.Screen,0_2_26_1,,skipped,27,89222,,,89222,,89222,2021-10-27T13:12:21.345Z,89276.08,1635340246,full,ni_sequenzen,NI_Sequenzen,,,,,,,,,,,,,,
,Screen_3,canvas.Screen,0_2_26_2,,skipped,27,89223,,,89222,,89223,2021-10-27T13:12:21.345Z,89276.08,1635340246,full,ni_sequenzen,NI_Sequenzen,,,,,,,,,,,,,,
,Screen_4,canvas.Screen,0_2_26_3,,skipped,27,89223,,,89222,,89224,2021-10-27T13:12:21.346Z,89276.08,1635340246,full,ni_sequenzen,NI_Sequenzen,,,,,,,,,,,,,,
,Screen_5,canvas.Screen,0_2_26_4,,skipped,27,89224,,,89222,,89224,2021-10-27T13:12:21.346Z,89276.08,1635340246,full,ni_sequenzen,NI_Sequenzen,,,,,,,,,,,,,,
,Screen_6,canvas.Screen,0_2_26_5,,skipped,27,89225,,,89222,,89225,2021-10-27T13:12:21.347Z,89276.08,1635340246,full,ni_sequenzen,NI_Sequenzen,,,,,,,,,,,,,,
,Sequence,flow.Sequence,0_2_26,,completion,27,89222,,,89222,,89225,2021-10-27T13:12:21.347Z,89276.08,1635340246,full,ni_sequenzen,NI_Sequenzen,,,,,,,,,,,,,,
,Screen_1,canvas.Screen,0_2_27_0,,skipped,28,89226,,,89226,,89226,2021-10-27T13:12:21.348Z,89276.08,1635340246,full,ni_sequenzen,NI_Sequenzen,,,,,,,,,,,,,,
,Screen_2,canvas.Screen,0_2_27_1,,skipped,28,89227,,,89226,,89227,2021-10-27T13:12:21.348Z,89276.08,1635340246,full,ni_sequenzen,NI_Sequenzen,,,,,,,,,,,,,,
,Screen_3,canvas.Screen,0_2_27_2,,skipped,28,89228,,,89226,,89228,2021-10-27T13:12:21.350Z,89276.08,1635340246,full,ni_sequenzen,NI_Sequenzen,,,,,,,,,,,,,,
,Screen_4,canvas.Screen,0_2_27_3,,skipped,28,89230,,,89226,,89230,2021-10-27T13:12:21.351Z,89276.08,1635340246,full,ni_sequenzen,NI_Sequenzen,,,,,,,,,,,,,,
,Screen_5,canvas.Screen,0_2_27_4,,skipped,28,89230,,,89226,,89230,2021-10-27T13:12:21.352Z,89276.08,1635340246,full,ni_sequenzen,NI_Sequenzen,,,,,,,,,,,,,,
,Screen_6,canvas.Screen,0_2_27_5,,skipped,28,89232,,,89226,,89232,2021-10-27T13:12:21.353Z,89276.08,1635340246,full,ni_sequenzen,NI_Sequenzen,,,,,,,,,,,,,,
,Sequence,flow.Sequence,0_2_27,,completion,28,89225,,,89226,,89232,2021-10-27T13:12:21.353Z,89276.08,1635340246,full,ni_sequenzen,NI_Sequenzen,,,,,,,,,,,,,,
,Screen_1,canvas.Screen,0_2_28_0,,skipped,29,89233,,,89233,,89233,2021-10-27T13:12:21.355Z,89276.08,1635340246,full,ni_sequenzen,NI_Sequenzen,,,,,,,,,,,,,,
,Screen_2,canvas.Screen,0_2_28_1,,skipped,29,89233,,,89233,,89233,2021-10-27T13:12:21.355Z,89276.08,1635340246,full,ni_sequenzen,NI_Sequenzen,,,,,,,,,,,,,,
,Screen_3,canvas.Screen,0_2_28_2,,skipped,29,89234,,,89233,,89234,2021-10-27T13:12:21.356Z,89276.08,1635340246,full,ni_sequenzen,NI_Sequenzen,,,,,,,,,,,,,,
,Screen_4,canvas.Screen,0_2_28_3,,skipped,29,89235,,,89233,,89235,2021-10-27T13:12:21.357Z,89276.08,1635340246,full,ni_sequenzen,NI_Sequenzen,,,,,,,,,,,,,,
,Screen_5,canvas.Screen,0_2_28_4,,skipped,29,89237,,,89233,,89237,2021-10-27T13:12:21.358Z,89276.08,1635340246,full,ni_sequenzen,NI_Sequenzen,,,,,,,,,,,,,,
,Screen_6,canvas.Screen,0_2_28_5,,skipped,29,89238,,,89233,,89238,2021-10-27T13:12:21.359Z,89276.08,1635340246,full,ni_sequenzen,NI_Sequenzen,,,,,,,,,,,,,,
,Sequence,flow.Sequence,0_2_28,,completion,29,89233,,,89233,,89238,2021-10-27T13:12:21.359Z,89276.08,1635340246,full,ni_sequenzen,NI_Sequenzen,,,,,,,,,,,,,,
,Screen_1,canvas.Screen,0_2_29_0,,skipped,30,89238,,,89238,,89238,2021-10-27T13:12:21.360Z,89276.08,1635340246,full,ni_sequenzen,NI_Sequenzen,,,,,,,,,,,,,,
,Screen_2,canvas.Screen,0_2_29_1,,skipped,30,89238,,,89238,,89238,2021-10-27T13:12:21.361Z,89276.08,1635340246,full,ni_sequenzen,NI_Sequenzen,,,,,,,,,,,,,,
,Screen_3,canvas.Screen,0_2_29_2,,skipped,30,89239,,,89238,,89239,2021-10-27T13:12:21.361Z,89276.08,1635340246,full,ni_sequenzen,NI_Sequenzen,,,,,,,,,,,,,,
,Screen_4,canvas.Screen,0_2_29_3,,skipped,30,89240,,,89238,,89240,2021-10-27T13:12:21.361Z,89276.08,1635340246,full,ni_sequenzen,NI_Sequenzen,,,,,,,,,,,,,,
,Screen_5,canvas.Screen,0_2_29_4,,skipped,30,89241,,,89238,,89241,2021-10-27T13:12:21.363Z,89276.08,1635340246,full,ni_sequenzen,NI_Sequenzen,,,,,,,,,,,,,,
,Screen_6,canvas.Screen,0_2_29_5,,skipped,30,89242,,,89238,,89242,2021-10-27T13:12:21.363Z,89276.08,1635340246,full,ni_sequenzen,NI_Sequenzen,,,,,,,,,,,,,,
,Sequence,flow.Sequence,0_2_29,,completion,30,89238,,,89238,,89242,2021-10-27T13:12:21.364Z,89276.08,1635340246,full,ni_sequenzen,NI_Sequenzen,,,,,,,,,,,,,,
,Instructions_II,flow.Loop,0_2,,completion,,47025,47026.8,47040.92,89238,42197.08,89242,2021-10-27T13:12:21.364Z,89276.08,1635340246,full,ni_sequenzen,NI_Sequenzen,,,,,,,,,,,,,,
,Move,canvas.Screen,0_3_0_0_0_0,right,response,,89267,89266.6,89276.08,91839,2562.9199999999983,91858,2021-10-27T13:12:23.980Z,91892.78,1635340246,full,ni_sequenzen,NI_Sequenzen,1,0,,,,,,,,,,,,
,Move,canvas.Screen,0_3_0_0_0_1,down,response,,91878,91877.8,91892.78,92324,431.22000000000116,92338,2021-10-27T13:12:24.460Z,92359.46,1635340246,full,ni_sequenzen,NI_Sequenzen,2,0,,,,,,,,,,,,
,Move,canvas.Screen,0_3_0_0_0_2,right,response,,92349,92348.7,92359.46,93011,651.5399999999936,93018,2021-10-27T13:12:25.139Z,93026.12,1635340246,full,ni_sequenzen,NI_Sequenzen,3,0,,,,,,,,,,,,
,Move,canvas.Screen,0_3_0_0_0_3,down,response,,93022,93022.96,93026.12,93651,624.8800000000047,93661,2021-10-27T13:12:25.782Z,93709.48,1635340246,full,ni_sequenzen,NI_Sequenzen,4,0,,,,,,,,,,,,
,Move,canvas.Screen,0_3_0_0_0_4,-999,skipped,,93667,,,93651,,93667,2021-10-27T13:12:25.789Z,93709.48,1635340246,full,ni_sequenzen,NI_Sequenzen,5,0,,,,,,,,,,,,
,Move,canvas.Screen,0_3_0_0_0_5,-999,skipped,,93671,,,93651,,93671,2021-10-27T13:12:25.792Z,93709.48,1635340246,full,ni_sequenzen,NI_Sequenzen,6,0,,,,,,,,,,,,
,Move,canvas.Screen,0_3_0_0_0_6,-999,skipped,,93675,,,93651,,93675,2021-10-27T13:12:25.796Z,93709.48,1635340246,full,ni_sequenzen,NI_Sequenzen,7,0,,,,,,,,,,,,
,Move,canvas.Screen,0_3_0_0_0_7,-999,skipped,,93679,,,93651,,93679,2021-10-27T13:12:25.800Z,93709.48,1635340246,full,ni_sequenzen,NI_Sequenzen,8,0,,,,,,,,,,,,
,Move,canvas.Screen,0_3_0_0_0_8,-999,skipped,,93681,,,93651,,93681,2021-10-27T13:12:25.804Z,93709.48,1635340246,full,ni_sequenzen,NI_Sequenzen,9,0,,,,,,,,,,,,
,Move,canvas.Screen,0_3_0_0_0_9,-999,skipped,,93685,,,93651,,93685,2021-10-27T13:12:25.807Z,93709.48,1635340246,full,ni_sequenzen,NI_Sequenzen,10,0,,,,,,,,,,,,
,Move,canvas.Screen,0_3_0_0_0_10,-999,skipped,,93688,,,93651,,93688,2021-10-27T13:12:25.809Z,93709.48,1635340246,full,ni_sequenzen,NI_Sequenzen,11,0,,,,,,,,,,,,
,Move,canvas.Screen,0_3_0_0_0_11,-999,skipped,,93691,,,93651,,93691,2021-10-27T13:12:25.813Z,93709.48,1635340246,full,ni_sequenzen,NI_Sequenzen,12,0,,,,,,,,,,,,
,Move,canvas.Screen,0_3_0_0_0_12,-999,skipped,,93695,,,93651,,93695,2021-10-27T13:12:25.817Z,93709.48,1635340246,full,ni_sequenzen,NI_Sequenzen,13,0,,,,,,,,,,,,
,Move,canvas.Screen,0_3_0_0_0_13,-999,skipped,,93698,,,93651,,93698,2021-10-27T13:12:25.820Z,93709.48,1635340246,full,ni_sequenzen,NI_Sequenzen,14,0,,,,,,,,,,,,
,Move,canvas.Screen,0_3_0_0_0_14,-999,skipped,,93701,,,93651,,93701,2021-10-27T13:12:25.822Z,93709.48,1635340246,full,ni_sequenzen,NI_Sequenzen,15,0,,,,,,,,,,,,
,Loop,flow.Loop,0_3_0_0_0,-999,completion,,89262,89266.6,89276.08,93651,4374.919999999998,93701,2021-10-27T13:12:25.822Z,93709.48,1635340246,full,ni_sequenzen,NI_Sequenzen,,0,,,,,,,,,,,,
,Feedback,canvas.Screen,0_3_0_0_1,,timeout,,93704,93703.56,93709.48,97692.86,4000.040000000008,97694,2021-10-27T13:12:29.816Z,97709.52,1635340246,full,ni_sequenzen,NI_Sequenzen,,0,,,,,,,,,,,,
,Trial,flow.Sequence,0_3_0_0,,completion,,89256,89266.6,89276.08,97692.86,8416.779999999999,97694,2021-10-27T13:12:29.816Z,97726.18,1635340246,full,ni_sequenzen,NI_Sequenzen,,0,,,,,,,,,,,,
,Move,canvas.Screen,0_3_0_1_0_0,down,response,,97702,97709.52,97726.18,101198,3471.820000000007,101212,2021-10-27T13:12:33.333Z,101226.24,1635340246,full,ni_sequenzen,NI_Sequenzen,1,1,,,,,,,,,,,,
,Move,canvas.Screen,0_3_0_1_0_1,left,response,,101220,101219.94,101226.24,101715,488.75999999999476,101735,2021-10-27T13:12:33.856Z,101759.58,1635340246,full,ni_sequenzen,NI_Sequenzen,2,1,,,,,,,,,,,,
,Move,canvas.Screen,0_3_0_1_0_2,down,response,,101745,101744.98,101759.58,105292,3532.4199999999983,105312,2021-10-27T13:12:37.434Z,105326.4,1635340246,full,ni_sequenzen,NI_Sequenzen,3,1,,,,,,,,,,,,
,Move,canvas.Screen,0_3_0_1_0_3,left,response,,105317,105316.44,105326.4,105651,324.6000000000058,105662,2021-10-27T13:12:37.784Z,105709.74,1635340246,full,ni_sequenzen,NI_Sequenzen,4,1,,,,,,,,,,,,
,Move,canvas.Screen,0_3_0_1_0_4,-999,skipped,,105668,,,105651,,105668,2021-10-27T13:12:37.789Z,105709.74,1635340246,full,ni_sequenzen,NI_Sequenzen,5,1,,,,,,,,,,,,
,Move,canvas.Screen,0_3_0_1_0_5,-999,skipped,,105672,,,105651,,105672,2021-10-27T13:12:37.793Z,105709.74,1635340246,full,ni_sequenzen,NI_Sequenzen,6,1,,,,,,,,,,,,
,Move,canvas.Screen,0_3_0_1_0_6,-999,skipped,,105675,,,105651,,105675,2021-10-27T13:12:37.796Z,105709.74,1635340246,full,ni_sequenzen,NI_Sequenzen,7,1,,,,,,,,,,,,
,Move,canvas.Screen,0_3_0_1_0_7,-999,skipped,,105678,,,105651,,105678,2021-10-27T13:12:37.800Z,105709.74,1635340246,full,ni_sequenzen,NI_Sequenzen,8,1,,,,,,,,,,,,
,Move,canvas.Screen,0_3_0_1_0_8,-999,skipped,,105682,,,105651,,105682,2021-10-27T13:12:37.804Z,105709.74,1635340246,full,ni_sequenzen,NI_Sequenzen,9,1,,,,,,,,,,,,
,Move,canvas.Screen,0_3_0_1_0_9,-999,skipped,,105686,,,105651,,105686,2021-10-27T13:12:37.807Z,105709.74,1635340246,full,ni_sequenzen,NI_Sequenzen,10,1,,,,,,,,,,,,
,Move,canvas.Screen,0_3_0_1_0_10,-999,skipped,,105690,,,105651,,105690,2021-10-27T13:12:37.811Z,105709.74,1635340246,full,ni_sequenzen,NI_Sequenzen,11,1,,,,,,,,,,,,
,Move,canvas.Screen,0_3_0_1_0_11,-999,skipped,,105692,,,105651,,105692,2021-10-27T13:12:37.813Z,105709.74,1635340246,full,ni_sequenzen,NI_Sequenzen,12,1,,,,,,,,,,,,
,Move,canvas.Screen,0_3_0_1_0_12,-999,skipped,,105695,,,105651,,105695,2021-10-27T13:12:37.816Z,105709.74,1635340246,full,ni_sequenzen,NI_Sequenzen,13,1,,,,,,,,,,,,
,Move,canvas.Screen,0_3_0_1_0_13,-999,skipped,,105700,,,105651,,105700,2021-10-27T13:12:37.821Z,105709.74,1635340246,full,ni_sequenzen,NI_Sequenzen,14,1,,,,,,,,,,,,
,Move,canvas.Screen,0_3_0_1_0_14,-999,skipped,,105703,,,105651,,105703,2021-10-27T13:12:37.824Z,105709.74,1635340246,full,ni_sequenzen,NI_Sequenzen,15,1,,,,,,,,,,,,
,Loop,flow.Loop,0_3_0_1_0,-999,completion,,97698,97709.52,97726.18,105651,7924.820000000007,105703,2021-10-27T13:12:37.825Z,105709.74,1635340246,full,ni_sequenzen,NI_Sequenzen,,1,,,,,,,,,,,,
,Feedback,canvas.Screen,0_3_0_1_1,,timeout,,105706,105705.18,105709.74,109693.12,4000.0399999999936,109695,2021-10-27T13:12:41.816Z,109709.78,1635340246,full,ni_sequenzen,NI_Sequenzen,,1,,,,,,,,,,,,
,Trial,flow.Sequence,0_3_0_1,,completion,,97694,97709.52,97726.18,109693.12,11966.940000000002,109695,2021-10-27T13:12:41.816Z,109726.46,1635340246,full,ni_sequenzen,NI_Sequenzen,,1,,,,,,,,,,,,
,Move,canvas.Screen,0_3_0_2_0_0,down,response,,109702,109709.78,109726.46,114323,4596.539999999994,114330,2021-10-27T13:12:46.451Z,114343.18,1635340246,full,ni_sequenzen,NI_Sequenzen,1,2,,,,,,,,,,,,
,Move,canvas.Screen,0_3_0_2_0_1,left,response,,114340,114339.7,114343.18,115933,1589.820000000007,115947,2021-10-27T13:12:48.069Z,115959.88,1635340246,full,ni_sequenzen,NI_Sequenzen,2,2,,,,,,,,,,,,
,Move,canvas.Screen,0_3_0_2_0_2,down,response,,115957,115956.88,115959.88,116651,691.1199999999953,116662,2021-10-27T13:12:48.784Z,116676.54,1635340246,full,ni_sequenzen,NI_Sequenzen,3,2,,,,,,,,,,,,
,Move,canvas.Screen,0_3_0_2_0_3,left,response,,116673,116673.26,116676.54,117401,724.4600000000064,117413,2021-10-27T13:12:49.534Z,117476.56,1635340246,full,ni_sequenzen,NI_Sequenzen,4,2,,,,,,,,,,,,
,Move,canvas.Screen,0_3_0_2_0_4,-999,skipped,,117421,,,117401,,117421,2021-10-27T13:12:49.543Z,117476.56,1635340246,full,ni_sequenzen,NI_Sequenzen,5,2,,,,,,,,,,,,
,Move,canvas.Screen,0_3_0_2_0_5,-999,skipped,,117425,,,117401,,117425,2021-10-27T13:12:49.547Z,117476.56,1635340246,full,ni_sequenzen,NI_Sequenzen,6,2,,,,,,,,,,,,
,Move,canvas.Screen,0_3_0_2_0_6,-999,skipped,,117431,,,117401,,117431,2021-10-27T13:12:49.552Z,117476.56,1635340246,full,ni_sequenzen,NI_Sequenzen,7,2,,,,,,,,,,,,
,Move,canvas.Screen,0_3_0_2_0_7,-999,skipped,,117434,,,117401,,117434,2021-10-27T13:12:49.556Z,117476.56,1635340246,full,ni_sequenzen,NI_Sequenzen,8,2,,,,,,,,,,,,
,Move,canvas.Screen,0_3_0_2_0_8,-999,skipped,,117438,,,117401,,117438,2021-10-27T13:12:49.560Z,117476.56,1635340246,full,ni_sequenzen,NI_Sequenzen,9,2,,,,,,,,,,,,
,Move,canvas.Screen,0_3_0_2_0_9,-999,skipped,,117442,,,117401,,117442,2021-10-27T13:12:49.564Z,117476.56,1635340246,full,ni_sequenzen,NI_Sequenzen,10,2,,,,,,,,,,,,
,Move,canvas.Screen,0_3_0_2_0_10,-999,skipped,,117446,,,117401,,117446,2021-10-27T13:12:49.567Z,117476.56,1635340246,full,ni_sequenzen,NI_Sequenzen,11,2,,,,,,,,,,,,
,Move,canvas.Screen,0_3_0_2_0_11,-999,skipped,,117449,,,117401,,117449,2021-10-27T13:12:49.572Z,117476.56,1635340246,full,ni_sequenzen,NI_Sequenzen,12,2,,,,,,,,,,,,
,Move,canvas.Screen,0_3_0_2_0_12,-999,skipped,,117453,,,117401,,117453,2021-10-27T13:12:49.574Z,117476.56,1635340246,full,ni_sequenzen,NI_Sequenzen,13,2,,,,,,,,,,,,
,Move,canvas.Screen,0_3_0_2_0_13,-999,skipped,,117456,,,117401,,117456,2021-10-27T13:12:49.577Z,117476.56,1635340246,full,ni_sequenzen,NI_Sequenzen,14,2,,,,,,,,,,,,
,Move,canvas.Screen,0_3_0_2_0_14,-999,skipped,,117461,,,117401,,117461,2021-10-27T13:12:49.583Z,117476.56,1635340246,full,ni_sequenzen,NI_Sequenzen,15,2,,,,,,,,,,,,
,Loop,flow.Loop,0_3_0_2_0,-999,completion,,109699,109709.78,109726.46,117401,7674.539999999994,117461,2021-10-27T13:12:49.583Z,117476.56,1635340246,full,ni_sequenzen,NI_Sequenzen,,2,,,,,,,,,,,,
,Feedback,canvas.Screen,0_3_0_2_1,,timeout,,117464,117464.66,117476.56,121459.94,4018.7600000000093,121463,2021-10-27T13:12:53.585Z,121495.32,1635340246,full,ni_sequenzen,NI_Sequenzen,,2,,,,,,,,,,,,
,Trial,flow.Sequence,0_3_0_2,,completion,,109696,109709.78,109726.46,121459.94,11733.479999999996,121466,2021-10-27T13:12:53.587Z,121509.94,1635340246,full,ni_sequenzen,NI_Sequenzen,,2,,,,,,,,,,,,
,Move,canvas.Screen,0_3_0_3_0_0,right,response,,121496,121495.32,121509.94,134011,12501.059999999998,134018,2021-10-27T13:13:06.140Z,134043.44,1635340246,full,ni_sequenzen,NI_Sequenzen,1,3,,,,,,,,,,,,
,Move,canvas.Screen,0_3_0_3_0_1,down,response,,134040,134039.94,134043.44,134355,311.5599999999977,134362,2021-10-27T13:13:06.483Z,134376.78,1635340246,full,ni_sequenzen,NI_Sequenzen,2,3,,,,,,,,,,,,
,Move,canvas.Screen,0_3_0_3_0_2,right,response,,134372,134371.68,134376.78,135745,1368.2200000000012,135762,2021-10-27T13:13:07.884Z,135776.8,1635340246,full,ni_sequenzen,NI_Sequenzen,3,3,,,,,,,,,,,,
,Move,canvas.Screen,0_3_0_3_0_3,down,response,,135775,135774.44,135776.8,136261,484.20000000001164,136279,2021-10-27T13:13:08.400Z,136343.48,1635340246,full,ni_sequenzen,NI_Sequenzen,4,3,,,,,,,,,,,,
,Move,canvas.Screen,0_3_0_3_0_4,-999,skipped,,136289,,,136261,,136289,2021-10-27T13:13:08.410Z,136343.48,1635340246,full,ni_sequenzen,NI_Sequenzen,5,3,,,,,,,,,,,,
,Move,canvas.Screen,0_3_0_3_0_5,-999,skipped,,136294,,,136261,,136294,2021-10-27T13:13:08.415Z,136343.48,1635340246,full,ni_sequenzen,NI_Sequenzen,6,3,,,,,,,,,,,,
,Move,canvas.Screen,0_3_0_3_0_6,-999,skipped,,136298,,,136261,,136298,2021-10-27T13:13:08.420Z,136343.48,1635340246,full,ni_sequenzen,NI_Sequenzen,7,3,,,,,,,,,,,,
,Move,canvas.Screen,0_3_0_3_0_7,-999,skipped,,136303,,,136261,,136303,2021-10-27T13:13:08.425Z,136343.48,1635340246,full,ni_sequenzen,NI_Sequenzen,8,3,,,,,,,,,,,,
,Move,canvas.Screen,0_3_0_3_0_8,-999,skipped,,136306,,,136261,,136306,2021-10-27T13:13:08.428Z,136343.48,1635340246,full,ni_sequenzen,NI_Sequenzen,9,3,,,,,,,,,,,,
,Move,canvas.Screen,0_3_0_3_0_9,-999,skipped,,136310,,,136261,,136310,2021-10-27T13:13:08.432Z,136343.48,1635340246,full,ni_sequenzen,NI_Sequenzen,10,3,,,,,,,,,,,,
,Move,canvas.Screen,0_3_0_3_0_10,-999,skipped,,136313,,,136261,,136313,2021-10-27T13:13:08.436Z,136343.48,1635340246,full,ni_sequenzen,NI_Sequenzen,11,3,,,,,,,,,,,,
,Move,canvas.Screen,0_3_0_3_0_11,-999,skipped,,136319,,,136261,,136319,2021-10-27T13:13:08.440Z,136343.48,1635340246,full,ni_sequenzen,NI_Sequenzen,12,3,,,,,,,,,,,,
,Move,canvas.Screen,0_3_0_3_0_12,-999,skipped,,136322,,,136261,,136322,2021-10-27T13:13:08.443Z,136343.48,1635340246,full,ni_sequenzen,NI_Sequenzen,13,3,,,,,,,,,,,,
,Move,canvas.Screen,0_3_0_3_0_13,-999,skipped,,136325,,,136261,,136325,2021-10-27T13:13:08.447Z,136343.48,1635340246,full,ni_sequenzen,NI_Sequenzen,14,3,,,,,,,,,,,,
,Move,canvas.Screen,0_3_0_3_0_14,-999,skipped,,136329,,,136261,,136329,2021-10-27T13:13:08.450Z,136343.48,1635340246,full,ni_sequenzen,NI_Sequenzen,15,3,,,,,,,,,,,,
,Loop,flow.Loop,0_3_0_3_0,-999,completion,,121487,121495.32,121509.94,136261,14751.059999999998,136329,2021-10-27T13:13:08.451Z,136343.48,1635340246,full,ni_sequenzen,NI_Sequenzen,,3,,,,,,,,,,,,
,Feedback,canvas.Screen,0_3_0_3_1,,timeout,,136334,136333.3,136343.48,140326.86,4001.279999999999,140328,2021-10-27T13:13:12.450Z,140344.76,1635340246,full,ni_sequenzen,NI_Sequenzen,,3,,,,,,,,,,,,
,Trial,flow.Sequence,0_3_0_3,,completion,,121468,121495.32,121509.94,140326.86,18816.919999999984,140329,2021-10-27T13:13:12.451Z,140360.2,1635340246,full,ni_sequenzen,NI_Sequenzen,,3,,,,,,,,,,,,
,Move,canvas.Screen,0_3_0_4_0_0,down,response,,140345,140344.76,140360.2,144261,3900.7999999999884,144278,2021-10-27T13:13:16.400Z,144293.58,1635340246,full,ni_sequenzen,NI_Sequenzen,1,4,,,,,,,,,,,,
,Move,canvas.Screen,0_3_0_4_0_1,left,response,,144283,144283.06,144293.58,144792,498.4200000000128,144801,2021-10-27T13:13:16.922Z,144810.24,1635340246,full,ni_sequenzen,NI_Sequenzen,2,4,,,,,,,,,,,,
,Move,canvas.Screen,0_3_0_4_0_2,down,response,,144810,144809.54,144810.24,145448,637.7600000000093,145454,2021-10-27T13:13:17.576Z,145460.26,1635340246,full,ni_sequenzen,NI_Sequenzen,3,4,,,,,,,,,,,,
,Move,canvas.Screen,0_3_0_4_0_3,left,response,,145460,145459.36,145460.26,146386,925.7399999999907,146400,2021-10-27T13:13:18.522Z,146476.94,1635340246,full,ni_sequenzen,NI_Sequenzen,4,4,,,,,,,,,,,,
,Move,canvas.Screen,0_3_0_4_0_4,-999,skipped,,146418,,,146386,,146419,2021-10-27T13:13:18.541Z,146476.94,1635340246,full,ni_sequenzen,NI_Sequenzen,5,4,,,,,,,,,,,,
,Move,canvas.Screen,0_3_0_4_0_5,-999,skipped,,146428,,,146386,,146428,2021-10-27T13:13:18.550Z,146476.94,1635340246,full,ni_sequenzen,NI_Sequenzen,6,4,,,,,,,,,,,,
,Move,canvas.Screen,0_3_0_4_0_6,-999,skipped,,146431,,,146386,,146432,2021-10-27T13:13:18.554Z,146476.94,1635340246,full,ni_sequenzen,NI_Sequenzen,7,4,,,,,,,,,,,,
,Move,canvas.Screen,0_3_0_4_0_7,-999,skipped,,146435,,,146386,,146435,2021-10-27T13:13:18.556Z,146476.94,1635340246,full,ni_sequenzen,NI_Sequenzen,8,4,,,,,,,,,,,,
,Move,canvas.Screen,0_3_0_4_0_8,-999,skipped,,146439,,,146386,,146439,2021-10-27T13:13:18.561Z,146476.94,1635340246,full,ni_sequenzen,NI_Sequenzen,9,4,,,,,,,,,,,,
,Move,canvas.Screen,0_3_0_4_0_9,-999,skipped,,146443,,,146386,,146443,2021-10-27T13:13:18.564Z,146476.94,1635340246,full,ni_sequenzen,NI_Sequenzen,10,4,,,,,,,,,,,,
,Move,canvas.Screen,0_3_0_4_0_10,-999,skipped,,146445,,,146386,,146445,2021-10-27T13:13:18.568Z,146476.94,1635340246,full,ni_sequenzen,NI_Sequenzen,11,4,,,,,,,,,,,,
,Move,canvas.Screen,0_3_0_4_0_11,-999,skipped,,146448,,,146386,,146448,2021-10-27T13:13:18.570Z,146476.94,1635340246,full,ni_sequenzen,NI_Sequenzen,12,4,,,,,,,,,,,,
,Move,canvas.Screen,0_3_0_4_0_12,-999,skipped,,146452,,,146386,,146453,2021-10-27T13:13:18.574Z,146476.94,1635340246,full,ni_sequenzen,NI_Sequenzen,13,4,,,,,,,,,,,,
,Move,canvas.Screen,0_3_0_4_0_13,-999,skipped,,146456,,,146386,,146456,2021-10-27T13:13:18.577Z,146476.94,1635340246,full,ni_sequenzen,NI_Sequenzen,14,4,,,,,,,,,,,,
,Move,canvas.Screen,0_3_0_4_0_14,-999,skipped,,146461,,,146386,,146461,2021-10-27T13:13:18.582Z,146476.94,1635340246,full,ni_sequenzen,NI_Sequenzen,15,4,,,,,,,,,,,,
,Loop,flow.Loop,0_3_0_4_0,-999,completion,,140341,140344.76,140360.2,146386,6025.799999999988,146461,2021-10-27T13:13:18.582Z,146476.94,1635340246,full,ni_sequenzen,NI_Sequenzen,,4,,,,,,,,,,,,
,Feedback,canvas.Screen,0_3_0_4_1,,timeout,,146463,146462.94,146476.94,150460.32,4010.7000000000116,150462,2021-10-27T13:13:22.583Z,150487.64,1635340246,full,ni_sequenzen,NI_Sequenzen,,4,,,,,,,,,,,,
,Trial,flow.Sequence,0_3_0_4,,completion,,140331,140344.76,140360.2,150460.32,10100.119999999995,150463,2021-10-27T13:13:22.584Z,150493.66,1635340246,full,ni_sequenzen,NI_Sequenzen,,4,,,,,,,,,,,,
,Move,canvas.Screen,0_3_0_5_0_0,right,response,,150487,150487.64,150493.66,151651,1157.3399999999965,151660,2021-10-27T13:13:23.782Z,151677,1635340246,full,ni_sequenzen,NI_Sequenzen,1,5,,,,,,,,,,,,
,Move,canvas.Screen,0_3_0_5_0_1,down,response,,151671,151671.48,151677,152136,459,152151,2021-10-27T13:13:24.272Z,152177.02,1635340246,full,ni_sequenzen,NI_Sequenzen,2,5,,,,,,,,,,,,
,Move,canvas.Screen,0_3_0_5_0_2,right,response,,152161,152161.12,152177.02,152542,364.9800000000105,152560,2021-10-27T13:13:24.683Z,152577.02,1635340246,full,ni_sequenzen,NI_Sequenzen,3,5,,,,,,,,,,,,
,Move,canvas.Screen,0_3_0_5_0_3,down,response,,152569,152568.76,152577.02,152948,370.9800000000105,152966,2021-10-27T13:13:25.087Z,153027.02,1635340246,full,ni_sequenzen,NI_Sequenzen,4,5,,,,,,,,,,,,
,Move,canvas.Screen,0_3_0_5_0_4,-999,skipped,,152976,,,152948,,152976,2021-10-27T13:13:25.097Z,153027.02,1635340246,full,ni_sequenzen,NI_Sequenzen,5,5,,,,,,,,,,,,
,Move,canvas.Screen,0_3_0_5_0_5,-999,skipped,,152979,,,152948,,152979,2021-10-27T13:13:25.101Z,153027.02,1635340246,full,ni_sequenzen,NI_Sequenzen,6,5,,,,,,,,,,,,
,Move,canvas.Screen,0_3_0_5_0_6,-999,skipped,,152983,,,152948,,152983,2021-10-27T13:13:25.105Z,153027.02,1635340246,full,ni_sequenzen,NI_Sequenzen,7,5,,,,,,,,,,,,
,Move,canvas.Screen,0_3_0_5_0_7,-999,skipped,,152986,,,152948,,152986,2021-10-27T13:13:25.108Z,153027.02,1635340246,full,ni_sequenzen,NI_Sequenzen,8,5,,,,,,,,,,,,
,Move,canvas.Screen,0_3_0_5_0_8,-999,skipped,,152989,,,152948,,152990,2021-10-27T13:13:25.111Z,153027.02,1635340246,full,ni_sequenzen,NI_Sequenzen,9,5,,,,,,,,,,,,
,Move,canvas.Screen,0_3_0_5_0_9,-999,skipped,,152992,,,152948,,152992,2021-10-27T13:13:25.114Z,153027.02,1635340246,full,ni_sequenzen,NI_Sequenzen,10,5,,,,,,,,,,,,
,Move,canvas.Screen,0_3_0_5_0_10,-999,skipped,,152995,,,152948,,152995,2021-10-27T13:13:25.117Z,153027.02,1635340246,full,ni_sequenzen,NI_Sequenzen,11,5,,,,,,,,,,,,
,Move,canvas.Screen,0_3_0_5_0_11,-999,skipped,,152999,,,152948,,152999,2021-10-27T13:13:25.121Z,153027.02,1635340246,full,ni_sequenzen,NI_Sequenzen,12,5,,,,,,,,,,,,
,Move,canvas.Screen,0_3_0_5_0_12,-999,skipped,,153003,,,152948,,153003,2021-10-27T13:13:25.125Z,153027.02,1635340246,full,ni_sequenzen,NI_Sequenzen,13,5,,,,,,,,,,,,
,Move,canvas.Screen,0_3_0_5_0_13,-999,skipped,,153006,,,152948,,153006,2021-10-27T13:13:25.127Z,153027.02,1635340246,full,ni_sequenzen,NI_Sequenzen,14,5,,,,,,,,,,,,
,Move,canvas.Screen,0_3_0_5_0_14,-999,skipped,,153009,,,152948,,153009,2021-10-27T13:13:25.131Z,153027.02,1635340246,full,ni_sequenzen,NI_Sequenzen,15,5,,,,,,,,,,,,
,Loop,flow.Loop,0_3_0_5_0,-999,completion,,150483,150487.64,150493.66,152948,2454.3399999999965,153009,2021-10-27T13:13:25.131Z,153027.02,1635340246,full,ni_sequenzen,NI_Sequenzen,,5,,,,,,,,,,,,
,Feedback,canvas.Screen,0_3_0_5_1,,timeout,,153012,153011.94,153027.02,157010.4,4000.0599999999977,157013,2021-10-27T13:13:29.134Z,157027.08,1635340246,full,ni_sequenzen,NI_Sequenzen,,5,,,,,,,,,,,,
,Trial,flow.Sequence,0_3_0_5,,completion,,150464,150487.64,150493.66,157010.4,6516.739999999991,157014,2021-10-27T13:13:29.136Z,157043.74,1635340246,full,ni_sequenzen,NI_Sequenzen,,5,,,,,,,,,,,,
,Move,canvas.Screen,0_3_0_6_0_0,down,response,,157026,157027.08,157043.74,157745,701.2600000000093,157762,2021-10-27T13:13:29.884Z,157777.08,1635340246,full,ni_sequenzen,NI_Sequenzen,1,6,,,,,,,,,,,,
,Move,canvas.Screen,0_3_0_6_0_1,down,response,,157770,157770.16,157777.08,158495,717.9200000000128,158501,2021-10-27T13:13:30.623Z,158510.42,1635340246,full,ni_sequenzen,NI_Sequenzen,2,6,,,,,,,,,,,,
,Move,canvas.Screen,0_3_0_6_0_2,left,response,,158509,158509.34,158510.42,159183,672.5799999999872,159191,2021-10-27T13:13:31.313Z,159210.44,1635340246,full,ni_sequenzen,NI_Sequenzen,3,6,,,,,,,,,,,,
,Move,canvas.Screen,0_3_0_6_0_3,left,response,,159207,159206.58,159210.44,160339,1128.5599999999977,160347,2021-10-27T13:13:32.469Z,160393.78,1635340246,full,ni_sequenzen,NI_Sequenzen,4,6,,,,,,,,,,,,
,Move,canvas.Screen,0_3_0_6_0_4,-999,skipped,,160356,,,160339,,160356,2021-10-27T13:13:32.478Z,160393.78,1635340246,full,ni_sequenzen,NI_Sequenzen,5,6,,,,,,,,,,,,
,Move,canvas.Screen,0_3_0_6_0_5,-999,skipped,,160360,,,160339,,160360,2021-10-27T13:13:32.482Z,160393.78,1635340246,full,ni_sequenzen,NI_Sequenzen,6,6,,,,,,,,,,,,
,Move,canvas.Screen,0_3_0_6_0_6,-999,skipped,,160363,,,160339,,160363,2021-10-27T13:13:32.485Z,160393.78,1635340246,full,ni_sequenzen,NI_Sequenzen,7,6,,,,,,,,,,,,
,Move,canvas.Screen,0_3_0_6_0_7,-999,skipped,,160366,,,160339,,160366,2021-10-27T13:13:32.488Z,160393.78,1635340246,full,ni_sequenzen,NI_Sequenzen,8,6,,,,,,,,,,,,
,Move,canvas.Screen,0_3_0_6_0_8,-999,skipped,,160369,,,160339,,160369,2021-10-27T13:13:32.491Z,160393.78,1635340246,full,ni_sequenzen,NI_Sequenzen,9,6,,,,,,,,,,,,
,Move,canvas.Screen,0_3_0_6_0_9,-999,skipped,,160373,,,160339,,160373,2021-10-27T13:13:32.495Z,160393.78,1635340246,full,ni_sequenzen,NI_Sequenzen,10,6,,,,,,,,,,,,
,Move,canvas.Screen,0_3_0_6_0_10,-999,skipped,,160376,,,160339,,160376,2021-10-27T13:13:32.497Z,160393.78,1635340246,full,ni_sequenzen,NI_Sequenzen,11,6,,,,,,,,,,,,
,Move,canvas.Screen,0_3_0_6_0_11,-999,skipped,,160379,,,160339,,160379,2021-10-27T13:13:32.501Z,160393.78,1635340246,full,ni_sequenzen,NI_Sequenzen,12,6,,,,,,,,,,,,
,Move,canvas.Screen,0_3_0_6_0_12,-999,skipped,,160383,,,160339,,160383,2021-10-27T13:13:32.505Z,160393.78,1635340246,full,ni_sequenzen,NI_Sequenzen,13,6,,,,,,,,,,,,
,Move,canvas.Screen,0_3_0_6_0_13,-999,skipped,,160386,,,160339,,160386,2021-10-27T13:13:32.508Z,160393.78,1635340246,full,ni_sequenzen,NI_Sequenzen,14,6,,,,,,,,,,,,
,Move,canvas.Screen,0_3_0_6_0_14,-999,skipped,,160390,,,160339,,160390,2021-10-27T13:13:32.511Z,160393.78,1635340246,full,ni_sequenzen,NI_Sequenzen,15,6,,,,,,,,,,,,
,Loop,flow.Loop,0_3_0_6_0,-999,completion,,157023,157027.08,157043.74,160339,3295.2600000000093,160390,2021-10-27T13:13:32.511Z,160393.78,1635340246,full,ni_sequenzen,NI_Sequenzen,,6,,,,,,,,,,,,
,Feedback,canvas.Screen,0_3_0_6_1,,timeout,,160392,160392.02,160393.78,164377.18,4000.0599999999977,164378,2021-10-27T13:13:36.499Z,164393.84,1635340246,full,ni_sequenzen,NI_Sequenzen,,6,,,,,,,,,,,,
,Trial,flow.Sequence,0_3_0_6,,completion,,157015,157027.08,157043.74,164377.18,7333.440000000002,164378,2021-10-27T13:13:36.500Z,164410.5,1635340246,full,ni_sequenzen,NI_Sequenzen,,6,,,,,,,,,,,,
,Move,canvas.Screen,0_3_0_7_0_0,right,response,,164387,164393.84,164410.5,167573,3162.5,167587,2021-10-27T13:13:39.709Z,167610.54,1635340246,full,ni_sequenzen,NI_Sequenzen,1,7,,,,,,,,,,,,
,Move,canvas.Screen,0_3_0_7_0_1,down,response,,167602,167602.5,167610.54,169308,1697.4599999999919,169315,2021-10-27T13:13:41.436Z,169343.9,1635340246,full,ni_sequenzen,NI_Sequenzen,2,7,,,,,,,,,,,,
,Move,canvas.Screen,0_3_0_7_0_2,down,response,,169333,169333.08,169343.9,171151,1807.1000000000058,171164,2021-10-27T13:13:43.286Z,171177.26,1635340246,full,ni_sequenzen,NI_Sequenzen,3,7,,,,,,,,,,,,
,Move,canvas.Screen,0_3_0_7_0_3,right,response,,171174,171173.74,171177.26,171589,411.7399999999907,171600,2021-10-27T13:13:43.722Z,171660.6,1635340246,full,ni_sequenzen,NI_Sequenzen,4,7,,,,,,,,,,,,
,Move,canvas.Screen,0_3_0_7_0_4,-999,skipped,,171607,,,171589,,171607,2021-10-27T13:13:43.728Z,171660.6,1635340246,full,ni_sequenzen,NI_Sequenzen,5,7,,,,,,,,,,,,
,Move,canvas.Screen,0_3_0_7_0_5,-999,skipped,,171611,,,171589,,171611,2021-10-27T13:13:43.733Z,171660.6,1635340246,full,ni_sequenzen,NI_Sequenzen,6,7,,,,,,,,,,,,
,Move,canvas.Screen,0_3_0_7_0_6,-999,skipped,,171614,,,171589,,171614,2021-10-27T13:13:43.736Z,171660.6,1635340246,full,ni_sequenzen,NI_Sequenzen,7,7,,,,,,,,,,,,
,Move,canvas.Screen,0_3_0_7_0_7,-999,skipped,,171618,,,171589,,171619,2021-10-27T13:13:43.740Z,171660.6,1635340246,full,ni_sequenzen,NI_Sequenzen,8,7,,,,,,,,,,,,
,Move,canvas.Screen,0_3_0_7_0_8,-999,skipped,,171623,,,171589,,171623,2021-10-27T13:13:43.745Z,171660.6,1635340246,full,ni_sequenzen,NI_Sequenzen,9,7,,,,,,,,,,,,
,Move,canvas.Screen,0_3_0_7_0_9,-999,skipped,,171626,,,171589,,171626,2021-10-27T13:13:43.748Z,171660.6,1635340246,full,ni_sequenzen,NI_Sequenzen,10,7,,,,,,,,,,,,
,Move,canvas.Screen,0_3_0_7_0_10,-999,skipped,,171629,,,171589,,171629,2021-10-27T13:13:43.751Z,171660.6,1635340246,full,ni_sequenzen,NI_Sequenzen,11,7,,,,,,,,,,,,
,Move,canvas.Screen,0_3_0_7_0_11,-999,skipped,,171633,,,171589,,171633,2021-10-27T13:13:43.754Z,171660.6,1635340246,full,ni_sequenzen,NI_Sequenzen,12,7,,,,,,,,,,,,
,Move,canvas.Screen,0_3_0_7_0_12,-999,skipped,,171636,,,171589,,171636,2021-10-27T13:13:43.758Z,171660.6,1635340246,full,ni_sequenzen,NI_Sequenzen,13,7,,,,,,,,,,,,
,Move,canvas.Screen,0_3_0_7_0_13,-999,skipped,,171640,,,171589,,171640,2021-10-27T13:13:43.762Z,171660.6,1635340246,full,ni_sequenzen,NI_Sequenzen,14,7,,,,,,,,,,,,
,Move,canvas.Screen,0_3_0_7_0_14,-999,skipped,,171643,,,171589,,171643,2021-10-27T13:13:43.764Z,171660.6,1635340246,full,ni_sequenzen,NI_Sequenzen,15,7,,,,,,,,,,,,
,Loop,flow.Loop,0_3_0_7_0,-999,completion,,164384,164393.84,164410.5,171589,7178.5,171643,2021-10-27T13:13:43.764Z,171660.6,1635340246,full,ni_sequenzen,NI_Sequenzen,,7,,,,,,,,,,,,
,Feedback,canvas.Screen,0_3_0_7_1,,timeout,,171646,171645.68,171660.6,175643.98,4000.0599999999977,175645,2021-10-27T13:13:47.767Z,175660.66,1635340246,full,ni_sequenzen,NI_Sequenzen,,7,,,,,,,,,,,,
,Trial,flow.Sequence,0_3_0_7,,completion,,164379,164393.84,164410.5,175643.98,11233.48000000001,175646,2021-10-27T13:13:47.767Z,175677.32,1635340246,full,ni_sequenzen,NI_Sequenzen,,7,,,,,,,,,,,,
,Move,canvas.Screen,0_3_0_8_0_0,right,response,,175658,175660.66,175677.32,177245,1567.679999999993,177269,2021-10-27T13:13:49.391Z,177294,1635340246,full,ni_sequenzen,NI_Sequenzen,1,8,,,,,,,,,,,,
,Move,canvas.Screen,0_3_0_8_0_1,down,response,,177281,177280.86,177294,177668,374,177680,2021-10-27T13:13:49.802Z,177710.68,1635340246,full,ni_sequenzen,NI_Sequenzen,2,8,,,,,,,,,,,,
,Move,canvas.Screen,0_3_0_8_0_2,right,response,,177703,177702.5,177710.68,178042,331.320000000007,178051,2021-10-27T13:13:50.172Z,178077.36,1635340246,full,ni_sequenzen,NI_Sequenzen,3,8,,,,,,,,,,,,
,Move,canvas.Screen,0_3_0_8_0_3,down,response,,178063,178063.46,178077.36,178448,370.64000000001397,178462,2021-10-27T13:13:50.584Z,178527.36,1635340246,full,ni_sequenzen,NI_Sequenzen,4,8,,,,,,,,,,,,
,Move,canvas.Screen,0_3_0_8_0_4,-999,skipped,,178475,,,178448,,178475,2021-10-27T13:13:50.598Z,178527.36,1635340246,full,ni_sequenzen,NI_Sequenzen,5,8,,,,,,,,,,,,
,Move,canvas.Screen,0_3_0_8_0_5,-999,skipped,,178480,,,178448,,178481,2021-10-27T13:13:50.602Z,178527.36,1635340246,full,ni_sequenzen,NI_Sequenzen,6,8,,,,,,,,,,,,
,Move,canvas.Screen,0_3_0_8_0_6,-999,skipped,,178486,,,178448,,178486,2021-10-27T13:13:50.607Z,178527.36,1635340246,full,ni_sequenzen,NI_Sequenzen,7,8,,,,,,,,,,,,
,Move,canvas.Screen,0_3_0_8_0_7,-999,skipped,,178489,,,178448,,178489,2021-10-27T13:13:50.611Z,178527.36,1635340246,full,ni_sequenzen,NI_Sequenzen,8,8,,,,,,,,,,,,
,Move,canvas.Screen,0_3_0_8_0_8,-999,skipped,,178494,,,178448,,178495,2021-10-27T13:13:50.616Z,178527.36,1635340246,full,ni_sequenzen,NI_Sequenzen,9,8,,,,,,,,,,,,
,Move,canvas.Screen,0_3_0_8_0_9,-999,skipped,,178498,,,178448,,178498,2021-10-27T13:13:50.620Z,178527.36,1635340246,full,ni_sequenzen,NI_Sequenzen,10,8,,,,,,,,,,,,
,Move,canvas.Screen,0_3_0_8_0_10,-999,skipped,,178502,,,178448,,178502,2021-10-27T13:13:50.624Z,178527.36,1635340246,full,ni_sequenzen,NI_Sequenzen,11,8,,,,,,,,,,,,
,Move,canvas.Screen,0_3_0_8_0_11,-999,skipped,,178505,,,178448,,178505,2021-10-27T13:13:50.627Z,178527.36,1635340246,full,ni_sequenzen,NI_Sequenzen,12,8,,,,,,,,,,,,
,Move,canvas.Screen,0_3_0_8_0_12,-999,skipped,,178508,,,178448,,178509,2021-10-27T13:13:50.630Z,178527.36,1635340246,full,ni_sequenzen,NI_Sequenzen,13,8,,,,,,,,,,,,
,Move,canvas.Screen,0_3_0_8_0_13,-999,skipped,,178512,,,178448,,178512,2021-10-27T13:13:50.633Z,178527.36,1635340246,full,ni_sequenzen,NI_Sequenzen,14,8,,,,,,,,,,,,
,Move,canvas.Screen,0_3_0_8_0_14,-999,skipped,,178516,,,178448,,178516,2021-10-27T13:13:50.638Z,178527.36,1635340246,full,ni_sequenzen,NI_Sequenzen,15,8,,,,,,,,,,,,
,Loop,flow.Loop,0_3_0_8_0,-999,completion,,175654,175660.66,175677.32,178448,2770.679999999993,178516,2021-10-27T13:13:50.638Z,178527.36,1635340246,full,ni_sequenzen,NI_Sequenzen,,8,,,,,,,,,,,,
,Feedback,canvas.Screen,0_3_0_8_1,,timeout,,178520,178519.3,178527.36,182510.74,4009.420000000013,182514,2021-10-27T13:13:54.636Z,182536.78,1635340246,full,ni_sequenzen,NI_Sequenzen,,8,,,,,,,,,,,,
,Trial,flow.Sequence,0_3_0_8,,completion,,175647,175660.66,175677.32,182510.74,6833.419999999984,182516,2021-10-27T13:13:54.637Z,182544.08,1635340246,full,ni_sequenzen,NI_Sequenzen,,8,,,,,,,,,,,,
,Move,canvas.Screen,0_3_0_9_0_0,down,response,,182537,182536.78,182544.08,183401,856.9200000000128,183412,2021-10-27T13:13:55.534Z,183427.42,1635340246,full,ni_sequenzen,NI_Sequenzen,1,9,,,,,,,,,,,,
,Move,canvas.Screen,0_3_0_9_0_1,left,response,,183421,183420.46,183427.42,183776,348.5799999999872,183779,2021-10-27T13:13:55.900Z,183794.1,1635340246,full,ni_sequenzen,NI_Sequenzen,2,9,,,,,,,,,,,,
,Move,canvas.Screen,0_3_0_9_0_2,down,response,,183784,183784.54,183794.1,184120,325.8999999999942,184136,2021-10-27T13:13:56.257Z,184160.76,1635340246,full,ni_sequenzen,NI_Sequenzen,3,9,,,,,,,,,,,,
,Move,canvas.Screen,0_3_0_9_0_3,left,response,,184147,184146.62,184160.76,184620,459.2399999999907,184640,2021-10-27T13:13:56.761Z,184710.78,1635340246,full,ni_sequenzen,NI_Sequenzen,4,9,,,,,,,,,,,,
,Move,canvas.Screen,0_3_0_9_0_4,-999,skipped,,184653,,,184620,,184654,2021-10-27T13:13:56.775Z,184710.78,1635340246,full,ni_sequenzen,NI_Sequenzen,5,9,,,,,,,,,,,,
,Move,canvas.Screen,0_3_0_9_0_5,-999,skipped,,184658,,,184620,,184658,2021-10-27T13:13:56.779Z,184710.78,1635340246,full,ni_sequenzen,NI_Sequenzen,6,9,,,,,,,,,,,,
,Move,canvas.Screen,0_3_0_9_0_6,-999,skipped,,184662,,,184620,,184662,2021-10-27T13:13:56.784Z,184710.78,1635340246,full,ni_sequenzen,NI_Sequenzen,7,9,,,,,,,,,,,,
,Move,canvas.Screen,0_3_0_9_0_7,-999,skipped,,184666,,,184620,,184666,2021-10-27T13:13:56.788Z,184710.78,1635340246,full,ni_sequenzen,NI_Sequenzen,8,9,,,,,,,,,,,,
,Move,canvas.Screen,0_3_0_9_0_8,-999,skipped,,184670,,,184620,,184670,2021-10-27T13:13:56.791Z,184710.78,1635340246,full,ni_sequenzen,NI_Sequenzen,9,9,,,,,,,,,,,,
,Move,canvas.Screen,0_3_0_9_0_9,-999,skipped,,184673,,,184620,,184673,2021-10-27T13:13:56.795Z,184710.78,1635340246,full,ni_sequenzen,NI_Sequenzen,10,9,,,,,,,,,,,,
,Move,canvas.Screen,0_3_0_9_0_10,-999,skipped,,184677,,,184620,,184677,2021-10-27T13:13:56.798Z,184710.78,1635340246,full,ni_sequenzen,NI_Sequenzen,11,9,,,,,,,,,,,,
,Move,canvas.Screen,0_3_0_9_0_11,-999,skipped,,184681,,,184620,,184681,2021-10-27T13:13:56.803Z,184710.78,1635340246,full,ni_sequenzen,NI_Sequenzen,12,9,,,,,,,,,,,,
,Move,canvas.Screen,0_3_0_9_0_12,-999,skipped,,184685,,,184620,,184685,2021-10-27T13:13:56.807Z,184710.78,1635340246,full,ni_sequenzen,NI_Sequenzen,13,9,,,,,,,,,,,,
,Move,canvas.Screen,0_3_0_9_0_13,-999,skipped,,184689,,,184620,,184689,2021-10-27T13:13:56.810Z,184710.78,1635340246,full,ni_sequenzen,NI_Sequenzen,14,9,,,,,,,,,,,,
,Move,canvas.Screen,0_3_0_9_0_14,-999,skipped,,184692,,,184620,,184692,2021-10-27T13:13:56.813Z,184710.78,1635340246,full,ni_sequenzen,NI_Sequenzen,15,9,,,,,,,,,,,,
,Loop,flow.Loop,0_3_0_9_0,-999,completion,,182529,182536.78,182544.08,184620,2075.920000000013,184692,2021-10-27T13:13:56.813Z,184710.78,1635340246,full,ni_sequenzen,NI_Sequenzen,,9,,,,,,,,,,,,
,Feedback,canvas.Screen,0_3_0_9_1,,timeout,,184694,184694.98,184710.78,188694.16,4041.9400000000023,188696,2021-10-27T13:14:00.818Z,188752.72,1635340246,full,ni_sequenzen,NI_Sequenzen,,9,,,,,,,,,,,,
,Trial,flow.Sequence,0_3_0_9,,completion,,182517,182536.78,182544.08,188694.16,6150.080000000016,188697,2021-10-27T13:14:00.818Z,188760.82,1635340246,full,ni_sequenzen,NI_Sequenzen,,9,,,,,,,,,,,,
,Block,flow.Loop,0_3_0,,completion,,89256,89266.6,89276.08,188694.16,99418.08,188698,2021-10-27T13:14:00.819Z,188760.82,1635340246,full,ni_sequenzen,NI_Sequenzen,,,,,,,,,,,,,,
,Training_II,flow.Sequence,0_3,,completion,,89242,89266.6,89276.08,188694.16,99418.08,188698,2021-10-27T13:14:00.819Z,188760.82,1635340246,full,ni_sequenzen,NI_Sequenzen,,,,,,,,,,,,,,
,Screen_1,canvas.Screen,0_4_0_0,cont,response,1,188752,188752.72,188760.82,197745,8984.179999999993,197761,2021-10-27T13:14:09.883Z,197777.62,1635340246,full,ni_sequenzen,NI_Sequenzen,,,,,,,,,,,,,,
,Screen_2,canvas.Screen,0_4_0_1,cont,response,1,197765,197765.6,197777.62,206761,8983.380000000005,206776,2021-10-27T13:14:18.898Z,206844.4,1635340246,full,ni_sequenzen,NI_Sequenzen,,,,,,,,,,,,,,
,Screen_3,canvas.Screen,0_4_0_2,cont,response,1,206842,206842.2,206844.4,215231,8386.600000000006,215246,2021-10-27T13:14:27.367Z,215361.18,1635340246,full,ni_sequenzen,NI_Sequenzen,,,,,,,,,,,,,,
,Sequence,flow.Sequence,0_4_0,,completion,1,188715,188752.72,188760.82,215231,26470.179999999993,215246,2021-10-27T13:14:27.367Z,215361.18,1635340246,full,ni_sequenzen,NI_Sequenzen,,,,,,,,,,,,,,
,Screen_1,canvas.Screen,0_4_1_0,,skipped,2,215250,,,215250,,215250,2021-10-27T13:14:27.371Z,215361.18,1635340246,full,ni_sequenzen,NI_Sequenzen,,,,,,,,,,,,,,
,Screen_2,canvas.Screen,0_4_1_1,,skipped,2,215251,,,215250,,215251,2021-10-27T13:14:27.373Z,215361.18,1635340246,full,ni_sequenzen,NI_Sequenzen,,,,,,,,,,,,,,
,Screen_3,canvas.Screen,0_4_1_2,,skipped,2,215252,,,215250,,215252,2021-10-27T13:14:27.375Z,215361.18,1635340246,full,ni_sequenzen,NI_Sequenzen,,,,,,,,,,,,,,
,Sequence,flow.Sequence,0_4_1,,completion,2,215248,,,215250,,215253,2021-10-27T13:14:27.375Z,215361.18,1635340246,full,ni_sequenzen,NI_Sequenzen,,,,,,,,,,,,,,
,Screen_1,canvas.Screen,0_4_2_0,,skipped,3,215254,,,215254,,215254,2021-10-27T13:14:27.376Z,215361.18,1635340246,full,ni_sequenzen,NI_Sequenzen,,,,,,,,,,,,,,
,Screen_2,canvas.Screen,0_4_2_1,,skipped,3,215255,,,215254,,215255,2021-10-27T13:14:27.377Z,215361.18,1635340246,full,ni_sequenzen,NI_Sequenzen,,,,,,,,,,,,,,
,Screen_3,canvas.Screen,0_4_2_2,,skipped,3,215255,,,215254,,215255,2021-10-27T13:14:27.377Z,215361.18,1635340246,full,ni_sequenzen,NI_Sequenzen,,,,,,,,,,,,,,
,Sequence,flow.Sequence,0_4_2,,completion,3,215253,,,215254,,215255,2021-10-27T13:14:27.377Z,215361.18,1635340246,full,ni_sequenzen,NI_Sequenzen,,,,,,,,,,,,,,
,Screen_1,canvas.Screen,0_4_3_0,,skipped,4,215256,,,215256,,215256,2021-10-27T13:14:27.378Z,215361.18,1635340246,full,ni_sequenzen,NI_Sequenzen,,,,,,,,,,,,,,
,Screen_2,canvas.Screen,0_4_3_1,,skipped,4,215258,,,215256,,215258,2021-10-27T13:14:27.379Z,215361.18,1635340246,full,ni_sequenzen,NI_Sequenzen,,,,,,,,,,,,,,
,Screen_3,canvas.Screen,0_4_3_2,,skipped,4,215259,,,215256,,215259,2021-10-27T13:14:27.381Z,215361.18,1635340246,full,ni_sequenzen,NI_Sequenzen,,,,,,,,,,,,,,
,Sequence,flow.Sequence,0_4_3,,completion,4,215256,,,215256,,215259,2021-10-27T13:14:27.381Z,215361.18,1635340246,full,ni_sequenzen,NI_Sequenzen,,,,,,,,,,,,,,
,Screen_1,canvas.Screen,0_4_4_0,,skipped,5,215260,,,215260,,215260,2021-10-27T13:14:27.382Z,215361.18,1635340246,full,ni_sequenzen,NI_Sequenzen,,,,,,,,,,,,,,
,Screen_2,canvas.Screen,0_4_4_1,,skipped,5,215263,,,215260,,215263,2021-10-27T13:14:27.384Z,215361.18,1635340246,full,ni_sequenzen,NI_Sequenzen,,,,,,,,,,,,,,
,Screen_3,canvas.Screen,0_4_4_2,,skipped,5,215263,,,215260,,215263,2021-10-27T13:14:27.384Z,215361.18,1635340246,full,ni_sequenzen,NI_Sequenzen,,,,,,,,,,,,,,
,Sequence,flow.Sequence,0_4_4,,completion,5,215260,,,215260,,215264,2021-10-27T13:14:27.385Z,215361.18,1635340246,full,ni_sequenzen,NI_Sequenzen,,,,,,,,,,,,,,
,Screen_1,canvas.Screen,0_4_5_0,,skipped,6,215265,,,215265,,215265,2021-10-27T13:14:27.386Z,215361.18,1635340246,full,ni_sequenzen,NI_Sequenzen,,,,,,,,,,,,,,
,Screen_2,canvas.Screen,0_4_5_1,,skipped,6,215265,,,215265,,215265,2021-10-27T13:14:27.387Z,215361.18,1635340246,full,ni_sequenzen,NI_Sequenzen,,,,,,,,,,,,,,
,Screen_3,canvas.Screen,0_4_5_2,,skipped,6,215265,,,215265,,215265,2021-10-27T13:14:27.388Z,215361.18,1635340246,full,ni_sequenzen,NI_Sequenzen,,,,,,,,,,,,,,
,Sequence,flow.Sequence,0_4_5,,completion,6,215264,,,215265,,215265,2021-10-27T13:14:27.388Z,215361.18,1635340246,full,ni_sequenzen,NI_Sequenzen,,,,,,,,,,,,,,
,Screen_1,canvas.Screen,0_4_6_0,,skipped,7,215267,,,215267,,215267,2021-10-27T13:14:27.389Z,215361.18,1635340246,full,ni_sequenzen,NI_Sequenzen,,,,,,,,,,,,,,
,Screen_2,canvas.Screen,0_4_6_1,,skipped,7,215268,,,215267,,215268,2021-10-27T13:14:27.389Z,215361.18,1635340246,full,ni_sequenzen,NI_Sequenzen,,,,,,,,,,,,,,
,Screen_3,canvas.Screen,0_4_6_2,,skipped,7,215268,,,215267,,215268,2021-10-27T13:14:27.390Z,215361.18,1635340246,full,ni_sequenzen,NI_Sequenzen,,,,,,,,,,,,,,
,Sequence,flow.Sequence,0_4_6,,completion,7,215266,,,215267,,215269,2021-10-27T13:14:27.390Z,215361.18,1635340246,full,ni_sequenzen,NI_Sequenzen,,,,,,,,,,,,,,
,Screen_1,canvas.Screen,0_4_7_0,,skipped,8,215270,,,215270,,215270,2021-10-27T13:14:27.392Z,215361.18,1635340246,full,ni_sequenzen,NI_Sequenzen,,,,,,,,,,,,,,
,Screen_2,canvas.Screen,0_4_7_1,,skipped,8,215271,,,215270,,215271,2021-10-27T13:14:27.393Z,215361.18,1635340246,full,ni_sequenzen,NI_Sequenzen,,,,,,,,,,,,,,
,Screen_3,canvas.Screen,0_4_7_2,,skipped,8,215272,,,215270,,215272,2021-10-27T13:14:27.393Z,215361.18,1635340246,full,ni_sequenzen,NI_Sequenzen,,,,,,,,,,,,,,
,Sequence,flow.Sequence,0_4_7,,completion,8,215269,,,215270,,215272,2021-10-27T13:14:27.394Z,215361.18,1635340246,full,ni_sequenzen,NI_Sequenzen,,,,,,,,,,,,,,
,Screen_1,canvas.Screen,0_4_8_0,,skipped,9,215273,,,215273,,215273,2021-10-27T13:14:27.395Z,215361.18,1635340246,full,ni_sequenzen,NI_Sequenzen,,,,,,,,,,,,,,
,Screen_2,canvas.Screen,0_4_8_1,,skipped,9,215274,,,215273,,215275,2021-10-27T13:14:27.396Z,215361.18,1635340246,full,ni_sequenzen,NI_Sequenzen,,,,,,,,,,,,,,
,Screen_3,canvas.Screen,0_4_8_2,,skipped,9,215276,,,215273,,215276,2021-10-27T13:14:27.398Z,215361.18,1635340246,full,ni_sequenzen,NI_Sequenzen,,,,,,,,,,,,,,
,Sequence,flow.Sequence,0_4_8,,completion,9,215272,,,215273,,215276,2021-10-27T13:14:27.398Z,215361.18,1635340246,full,ni_sequenzen,NI_Sequenzen,,,,,,,,,,,,,,
,Screen_1,canvas.Screen,0_4_9_0,,skipped,10,215280,,,215280,,215280,2021-10-27T13:14:27.401Z,215361.18,1635340246,full,ni_sequenzen,NI_Sequenzen,,,,,,,,,,,,,,
,Screen_2,canvas.Screen,0_4_9_1,,skipped,10,215281,,,215280,,215281,2021-10-27T13:14:27.401Z,215361.18,1635340246,full,ni_sequenzen,NI_Sequenzen,,,,,,,,,,,,,,
,Screen_3,canvas.Screen,0_4_9_2,,skipped,10,215281,,,215280,,215281,2021-10-27T13:14:27.402Z,215361.18,1635340246,full,ni_sequenzen,NI_Sequenzen,,,,,,,,,,,,,,
,Sequence,flow.Sequence,0_4_9,,completion,10,215278,,,215280,,215281,2021-10-27T13:14:27.402Z,215361.18,1635340246,full,ni_sequenzen,NI_Sequenzen,,,,,,,,,,,,,,
,Screen_1,canvas.Screen,0_4_10_0,,skipped,11,215282,,,215282,,215282,2021-10-27T13:14:27.404Z,215361.18,1635340246,full,ni_sequenzen,NI_Sequenzen,,,,,,,,,,,,,,
,Screen_2,canvas.Screen,0_4_10_1,,skipped,11,215283,,,215282,,215283,2021-10-27T13:14:27.405Z,215361.18,1635340246,full,ni_sequenzen,NI_Sequenzen,,,,,,,,,,,,,,
,Screen_3,canvas.Screen,0_4_10_2,,skipped,11,215284,,,215282,,215284,2021-10-27T13:14:27.406Z,215361.18,1635340246,full,ni_sequenzen,NI_Sequenzen,,,,,,,,,,,,,,
,Sequence,flow.Sequence,0_4_10,,completion,11,215281,,,215282,,215284,2021-10-27T13:14:27.406Z,215361.18,1635340246,full,ni_sequenzen,NI_Sequenzen,,,,,,,,,,,,,,
,Screen_1,canvas.Screen,0_4_11_0,,skipped,12,215285,,,215285,,215285,2021-10-27T13:14:27.407Z,215361.18,1635340246,full,ni_sequenzen,NI_Sequenzen,,,,,,,,,,,,,,
,Screen_2,canvas.Screen,0_4_11_1,,skipped,12,215286,,,215285,,215286,2021-10-27T13:14:27.408Z,215361.18,1635340246,full,ni_sequenzen,NI_Sequenzen,,,,,,,,,,,,,,
,Screen_3,canvas.Screen,0_4_11_2,,skipped,12,215287,,,215285,,215287,2021-10-27T13:14:27.409Z,215361.18,1635340246,full,ni_sequenzen,NI_Sequenzen,,,,,,,,,,,,,,
,Sequence,flow.Sequence,0_4_11,,completion,12,215284,,,215285,,215287,2021-10-27T13:14:27.409Z,215361.18,1635340246,full,ni_sequenzen,NI_Sequenzen,,,,,,,,,,,,,,
,Screen_1,canvas.Screen,0_4_12_0,,skipped,13,215288,,,215288,,215288,2021-10-27T13:14:27.410Z,215361.18,1635340246,full,ni_sequenzen,NI_Sequenzen,,,,,,,,,,,,,,
,Screen_2,canvas.Screen,0_4_12_1,,skipped,13,215289,,,215288,,215289,2021-10-27T13:14:27.411Z,215361.18,1635340246,full,ni_sequenzen,NI_Sequenzen,,,,,,,,,,,,,,
,Screen_3,canvas.Screen,0_4_12_2,,skipped,13,215290,,,215288,,215291,2021-10-27T13:14:27.412Z,215361.18,1635340246,full,ni_sequenzen,NI_Sequenzen,,,,,,,,,,,,,,
,Sequence,flow.Sequence,0_4_12,,completion,13,215288,,,215288,,215291,2021-10-27T13:14:27.412Z,215361.18,1635340246,full,ni_sequenzen,NI_Sequenzen,,,,,,,,,,,,,,
,Screen_1,canvas.Screen,0_4_13_0,,skipped,14,215293,,,215293,,215293,2021-10-27T13:14:27.414Z,215361.18,1635340246,full,ni_sequenzen,NI_Sequenzen,,,,,,,,,,,,,,
,Screen_2,canvas.Screen,0_4_13_1,,skipped,14,215294,,,215293,,215294,2021-10-27T13:14:27.415Z,215361.18,1635340246,full,ni_sequenzen,NI_Sequenzen,,,,,,,,,,,,,,
,Screen_3,canvas.Screen,0_4_13_2,,skipped,14,215294,,,215293,,215294,2021-10-27T13:14:27.416Z,215361.18,1635340246,full,ni_sequenzen,NI_Sequenzen,,,,,,,,,,,,,,
,Sequence,flow.Sequence,0_4_13,,completion,14,215291,,,215293,,215294,2021-10-27T13:14:27.416Z,215361.18,1635340246,full,ni_sequenzen,NI_Sequenzen,,,,,,,,,,,,,,
,Screen_1,canvas.Screen,0_4_14_0,,skipped,15,215295,,,215295,,215295,2021-10-27T13:14:27.417Z,215361.18,1635340246,full,ni_sequenzen,NI_Sequenzen,,,,,,,,,,,,,,
,Screen_2,canvas.Screen,0_4_14_1,,skipped,15,215296,,,215295,,215296,2021-10-27T13:14:27.418Z,215361.18,1635340246,full,ni_sequenzen,NI_Sequenzen,,,,,,,,,,,,,,
,Screen_3,canvas.Screen,0_4_14_2,,skipped,15,215297,,,215295,,215297,2021-10-27T13:14:27.418Z,215361.18,1635340246,full,ni_sequenzen,NI_Sequenzen,,,,,,,,,,,,,,
,Sequence,flow.Sequence,0_4_14,,completion,15,215295,,,215295,,215297,2021-10-27T13:14:27.418Z,215361.18,1635340246,full,ni_sequenzen,NI_Sequenzen,,,,,,,,,,,,,,
,Screen_1,canvas.Screen,0_4_15_0,,skipped,16,215299,,,215299,,215299,2021-10-27T13:14:27.420Z,215361.18,1635340246,full,ni_sequenzen,NI_Sequenzen,,,,,,,,,,,,,,
,Screen_2,canvas.Screen,0_4_15_1,,skipped,16,215299,,,215299,,215299,2021-10-27T13:14:27.421Z,215361.18,1635340246,full,ni_sequenzen,NI_Sequenzen,,,,,,,,,,,,,,
,Screen_3,canvas.Screen,0_4_15_2,,skipped,16,215300,,,215299,,215300,2021-10-27T13:14:27.423Z,215361.18,1635340246,full,ni_sequenzen,NI_Sequenzen,,,,,,,,,,,,,,
,Sequence,flow.Sequence,0_4_15,,completion,16,215297,,,215299,,215300,2021-10-27T13:14:27.423Z,215361.18,1635340246,full,ni_sequenzen,NI_Sequenzen,,,,,,,,,,,,,,
,Screen_1,canvas.Screen,0_4_16_0,,skipped,17,215301,,,215301,,215301,2021-10-27T13:14:27.424Z,215361.18,1635340246,full,ni_sequenzen,NI_Sequenzen,,,,,,,,,,,,,,
,Screen_2,canvas.Screen,0_4_16_1,,skipped,17,215302,,,215301,,215302,2021-10-27T13:14:27.424Z,215361.18,1635340246,full,ni_sequenzen,NI_Sequenzen,,,,,,,,,,,,,,
,Screen_3,canvas.Screen,0_4_16_2,,skipped,17,215303,,,215301,,215303,2021-10-27T13:14:27.425Z,215361.18,1635340246,full,ni_sequenzen,NI_Sequenzen,,,,,,,,,,,,,,
,Sequence,flow.Sequence,0_4_16,,completion,17,215301,,,215301,,215303,2021-10-27T13:14:27.425Z,215361.18,1635340246,full,ni_sequenzen,NI_Sequenzen,,,,,,,,,,,,,,
,Screen_1,canvas.Screen,0_4_17_0,,skipped,18,215304,,,215304,,215304,2021-10-27T13:14:27.426Z,215361.18,1635340246,full,ni_sequenzen,NI_Sequenzen,,,,,,,,,,,,,,
,Screen_2,canvas.Screen,0_4_17_1,,skipped,18,215305,,,215304,,215305,2021-10-27T13:14:27.427Z,215361.18,1635340246,full,ni_sequenzen,NI_Sequenzen,,,,,,,,,,,,,,
,Screen_3,canvas.Screen,0_4_17_2,,skipped,18,215306,,,215304,,215306,2021-10-27T13:14:27.428Z,215361.18,1635340246,full,ni_sequenzen,NI_Sequenzen,,,,,,,,,,,,,,
,Sequence,flow.Sequence,0_4_17,,completion,18,215303,,,215304,,215306,2021-10-27T13:14:27.428Z,215361.18,1635340246,full,ni_sequenzen,NI_Sequenzen,,,,,,,,,,,,,,
,Screen_1,canvas.Screen,0_4_18_0,,skipped,19,215306,,,215306,,215307,2021-10-27T13:14:27.429Z,215361.18,1635340246,full,ni_sequenzen,NI_Sequenzen,,,,,,,,,,,,,,
,Screen_2,canvas.Screen,0_4_18_1,,skipped,19,215308,,,215306,,215308,2021-10-27T13:14:27.429Z,215361.18,1635340246,full,ni_sequenzen,NI_Sequenzen,,,,,,,,,,,,,,
,Screen_3,canvas.Screen,0_4_18_2,,skipped,19,215308,,,215306,,215308,2021-10-27T13:14:27.430Z,215361.18,1635340246,full,ni_sequenzen,NI_Sequenzen,,,,,,,,,,,,,,
