meta,sender,sender_type,sender_id,response,ended_on,instrCount,time_run,time_render,time_show,time_end,duration,time_commit,timestamp,time_switch,openLabId,type,task,project,move,trialN,blockN_Train,blockN,moveCount,currPP,points,movesTrial,visitedFields,diff,reward,Strategie,Zweck,Probleme
[object Object],Screen_1,canvas.Screen,0_0_0_0,cont,response,1,566.8999999985099,565.93,615.969,14498.39999999851,13882.430999998509,14502.39999999851,2021-10-28T14:24:59.201Z,14576.563,1635431069,full,ni_sequenzen,NI_Sequenzen,,,,,,,,,,,,,,
,Screen_2,canvas.Screen,0_0_0_1,cont,response,1,14572.599999997765,14559.826,14576.563,36954,22377.436999999998,36955.199999999255,2021-10-28T14:25:21.654Z,37070.476,1635431069,full,ni_sequenzen,NI_Sequenzen,,,,,,,,,,,,,,
,Screen_3,canvas.Screen,0_0_0_2,cont,response,1,37059.599999997765,37052.895,37070.476,82902.79999999702,45832.32399999702,82903.59999999776,2021-10-28T14:26:07.603Z,82927.383,1635431069,full,ni_sequenzen,NI_Sequenzen,,,,,,,,,,,,,,
,Screen_4,canvas.Screen,0_0_0_3,cont,response,1,82908.89999999851,82907.224,82927.383,88429.39999999851,5502.016999998508,88430.19999999925,2021-10-28T14:26:13.129Z,88537.524,1635431069,full,ni_sequenzen,NI_Sequenzen,,,,,,,,,,,,,,
,Sequence,flow.Sequence,0_0_0,,completion,1,512.5999999977648,565.93,615.969,88429.39999999851,87813.43099999851,88434.09999999776,2021-10-28T14:26:13.133Z,88537.524,1635431069,full,ni_sequenzen,NI_Sequenzen,,,,,,,,,,,,,,
,Screen_1,canvas.Screen,0_0_1_0,,skipped,2,88437,,,88437,,88437.09999999776,2021-10-28T14:26:13.136Z,88537.524,1635431069,full,ni_sequenzen,NI_Sequenzen,,,,,,,,,,,,,,
,Screen_2,canvas.Screen,0_0_1_1,,skipped,2,88438.59999999776,,,88437,,88438.79999999702,2021-10-28T14:26:13.138Z,88537.524,1635431069,full,ni_sequenzen,NI_Sequenzen,,,,,,,,,,,,,,
,Screen_3,canvas.Screen,0_0_1_2,,skipped,2,88440.5,,,88437,,88440.59999999776,2021-10-28T14:26:13.139Z,88537.524,1635431069,full,ni_sequenzen,NI_Sequenzen,,,,,,,,,,,,,,
,Screen_4,canvas.Screen,0_0_1_3,,skipped,2,88442.19999999925,,,88437,,88442.5,2021-10-28T14:26:13.141Z,88537.524,1635431069,full,ni_sequenzen,NI_Sequenzen,,,,,,,,,,,,,,
,Sequence,flow.Sequence,0_0_1,,completion,2,88435.19999999925,,,88437,,88442.69999999925,2021-10-28T14:26:13.142Z,88537.524,1635431069,full,ni_sequenzen,NI_Sequenzen,,,,,,,,,,,,,,
,Screen_1,canvas.Screen,0_0_2_0,,skipped,3,88444.5,,,88444.5,,88444.59999999776,2021-10-28T14:26:13.144Z,88537.524,1635431069,full,ni_sequenzen,NI_Sequenzen,,,,,,,,,,,,,,
,Screen_2,canvas.Screen,0_0_2_1,,skipped,3,88445.89999999851,,,88444.5,,88446,2021-10-28T14:26:13.145Z,88537.524,1635431069,full,ni_sequenzen,NI_Sequenzen,,,,,,,,,,,,,,
,Screen_3,canvas.Screen,0_0_2_2,,skipped,3,88447.5,,,88444.5,,88447.69999999925,2021-10-28T14:26:13.147Z,88537.524,1635431069,full,ni_sequenzen,NI_Sequenzen,,,,,,,,,,,,,,
,Screen_4,canvas.Screen,0_0_2_3,,skipped,3,88449,,,88444.5,,88449.09999999776,2021-10-28T14:26:13.148Z,88537.524,1635431069,full,ni_sequenzen,NI_Sequenzen,,,,,,,,,,,,,,
,Sequence,flow.Sequence,0_0_2,,completion,3,88443.39999999851,,,88444.5,,88449.29999999702,2021-10-28T14:26:13.148Z,88537.524,1635431069,full,ni_sequenzen,NI_Sequenzen,,,,,,,,,,,,,,
,Screen_1,canvas.Screen,0_0_3_0,,skipped,4,88452.09999999776,,,88452.09999999776,,88452.09999999776,2021-10-28T14:26:13.151Z,88537.524,1635431069,full,ni_sequenzen,NI_Sequenzen,,,,,,,,,,,,,,
,Screen_2,canvas.Screen,0_0_3_1,,skipped,4,88453.5,,,88452.09999999776,,88454.39999999851,2021-10-28T14:26:13.153Z,88537.524,1635431069,full,ni_sequenzen,NI_Sequenzen,,,,,,,,,,,,,,
,Screen_3,canvas.Screen,0_0_3_2,,skipped,4,88455.19999999925,,,88452.09999999776,,88455.19999999925,2021-10-28T14:26:13.154Z,88537.524,1635431069,full,ni_sequenzen,NI_Sequenzen,,,,,,,,,,,,,,
,Screen_4,canvas.Screen,0_0_3_3,,skipped,4,88455.79999999702,,,88452.09999999776,,88455.79999999702,2021-10-28T14:26:13.155Z,88537.524,1635431069,full,ni_sequenzen,NI_Sequenzen,,,,,,,,,,,,,,
,Sequence,flow.Sequence,0_0_3,,completion,4,88449.89999999851,,,88452.09999999776,,88455.79999999702,2021-10-28T14:26:13.155Z,88537.524,1635431069,full,ni_sequenzen,NI_Sequenzen,,,,,,,,,,,,,,
,Screen_1,canvas.Screen,0_0_4_0,,skipped,5,88456.59999999776,,,88456.59999999776,,88456.59999999776,2021-10-28T14:26:13.156Z,88537.524,1635431069,full,ni_sequenzen,NI_Sequenzen,,,,,,,,,,,,,,
,Screen_2,canvas.Screen,0_0_4_1,,skipped,5,88457.09999999776,,,88456.59999999776,,88457.09999999776,2021-10-28T14:26:13.156Z,88537.524,1635431069,full,ni_sequenzen,NI_Sequenzen,,,,,,,,,,,,,,
,Screen_3,canvas.Screen,0_0_4_2,,skipped,5,88457.59999999776,,,88456.59999999776,,88457.69999999925,2021-10-28T14:26:13.157Z,88537.524,1635431069,full,ni_sequenzen,NI_Sequenzen,,,,,,,,,,,,,,
,Screen_4,canvas.Screen,0_0_4_3,,skipped,5,88458.39999999851,,,88456.59999999776,,88458.39999999851,2021-10-28T14:26:13.157Z,88537.524,1635431069,full,ni_sequenzen,NI_Sequenzen,,,,,,,,,,,,,,
,Sequence,flow.Sequence,0_0_4,,completion,5,88456.09999999776,,,88456.59999999776,,88458.5,2021-10-28T14:26:13.157Z,88537.524,1635431069,full,ni_sequenzen,NI_Sequenzen,,,,,,,,,,,,,,
,Screen_1,canvas.Screen,0_0_5_0,,skipped,6,88459.09999999776,,,88459.09999999776,,88459.19999999925,2021-10-28T14:26:13.158Z,88537.524,1635431069,full,ni_sequenzen,NI_Sequenzen,,,,,,,,,,,,,,
,Screen_2,canvas.Screen,0_0_5_1,,skipped,6,88459.69999999925,,,88459.09999999776,,88459.79999999702,2021-10-28T14:26:13.159Z,88537.524,1635431069,full,ni_sequenzen,NI_Sequenzen,,,,,,,,,,,,,,
,Screen_3,canvas.Screen,0_0_5_2,,skipped,6,88460.29999999702,,,88459.09999999776,,88460.39999999851,2021-10-28T14:26:13.159Z,88537.524,1635431069,full,ni_sequenzen,NI_Sequenzen,,,,,,,,,,,,,,
,Screen_4,canvas.Screen,0_0_5_3,,skipped,6,88460.89999999851,,,88459.09999999776,,88460.89999999851,2021-10-28T14:26:13.160Z,88537.524,1635431069,full,ni_sequenzen,NI_Sequenzen,,,,,,,,,,,,,,
,Sequence,flow.Sequence,0_0_5,,completion,6,88458.69999999925,,,88459.09999999776,,88461,2021-10-28T14:26:13.160Z,88537.524,1635431069,full,ni_sequenzen,NI_Sequenzen,,,,,,,,,,,,,,
,Screen_1,canvas.Screen,0_0_6_0,,skipped,7,88461.79999999702,,,88461.79999999702,,88461.79999999702,2021-10-28T14:26:13.161Z,88537.524,1635431069,full,ni_sequenzen,NI_Sequenzen,,,,,,,,,,,,,,
,Screen_2,canvas.Screen,0_0_6_1,,skipped,7,88462.29999999702,,,88461.79999999702,,88462.29999999702,2021-10-28T14:26:13.161Z,88537.524,1635431069,full,ni_sequenzen,NI_Sequenzen,,,,,,,,,,,,,,
,Screen_3,canvas.Screen,0_0_6_2,,skipped,7,88462.79999999702,,,88461.79999999702,,88462.79999999702,2021-10-28T14:26:13.162Z,88537.524,1635431069,full,ni_sequenzen,NI_Sequenzen,,,,,,,,,,,,,,
,Screen_4,canvas.Screen,0_0_6_3,,skipped,7,88464.29999999702,,,88461.79999999702,,88464.29999999702,2021-10-28T14:26:13.163Z,88537.524,1635431069,full,ni_sequenzen,NI_Sequenzen,,,,,,,,,,,,,,
,Sequence,flow.Sequence,0_0_6,,completion,7,88461.19999999925,,,88461.79999999702,,88464.39999999851,2021-10-28T14:26:13.163Z,88537.524,1635431069,full,ni_sequenzen,NI_Sequenzen,,,,,,,,,,,,,,
,Screen_1,canvas.Screen,0_0_7_0,,skipped,8,88465.29999999702,,,88465.29999999702,,88465.39999999851,2021-10-28T14:26:13.164Z,88537.524,1635431069,full,ni_sequenzen,NI_Sequenzen,,,,,,,,,,,,,,
,Screen_2,canvas.Screen,0_0_7_1,,skipped,8,88466,,,88465.29999999702,,88466,2021-10-28T14:26:13.165Z,88537.524,1635431069,full,ni_sequenzen,NI_Sequenzen,,,,,,,,,,,,,,
,Screen_3,canvas.Screen,0_0_7_2,,skipped,8,88466.5,,,88465.29999999702,,88466.59999999776,2021-10-28T14:26:13.165Z,88537.524,1635431069,full,ni_sequenzen,NI_Sequenzen,,,,,,,,,,,,,,
,Screen_4,canvas.Screen,0_0_7_3,,skipped,8,88467.09999999776,,,88465.29999999702,,88467.09999999776,2021-10-28T14:26:13.166Z,88537.524,1635431069,full,ni_sequenzen,NI_Sequenzen,,,,,,,,,,,,,,
,Sequence,flow.Sequence,0_0_7,,completion,8,88464.69999999925,,,88465.29999999702,,88467.19999999925,2021-10-28T14:26:13.166Z,88537.524,1635431069,full,ni_sequenzen,NI_Sequenzen,,,,,,,,,,,,,,
,Screen_1,canvas.Screen,0_0_8_0,,skipped,9,88468.29999999702,,,88468.29999999702,,88468.29999999702,2021-10-28T14:26:13.167Z,88537.524,1635431069,full,ni_sequenzen,NI_Sequenzen,,,,,,,,,,,,,,
,Screen_2,canvas.Screen,0_0_8_1,,skipped,9,88468.89999999851,,,88468.29999999702,,88468.89999999851,2021-10-28T14:26:13.168Z,88537.524,1635431069,full,ni_sequenzen,NI_Sequenzen,,,,,,,,,,,,,,
,Screen_3,canvas.Screen,0_0_8_2,,skipped,9,88469.39999999851,,,88468.29999999702,,88469.5,2021-10-28T14:26:13.168Z,88537.524,1635431069,full,ni_sequenzen,NI_Sequenzen,,,,,,,,,,,,,,
,Screen_4,canvas.Screen,0_0_8_3,,skipped,9,88470.09999999776,,,88468.29999999702,,88470.09999999776,2021-10-28T14:26:13.169Z,88537.524,1635431069,full,ni_sequenzen,NI_Sequenzen,,,,,,,,,,,,,,
,Sequence,flow.Sequence,0_0_8,,completion,9,88467.39999999851,,,88468.29999999702,,88470.19999999925,2021-10-28T14:26:13.169Z,88537.524,1635431069,full,ni_sequenzen,NI_Sequenzen,,,,,,,,,,,,,,
,Screen_1,canvas.Screen,0_0_9_0,,skipped,10,88470.89999999851,,,88471,,88471,2021-10-28T14:26:13.170Z,88537.524,1635431069,full,ni_sequenzen,NI_Sequenzen,,,,,,,,,,,,,,
,Screen_2,canvas.Screen,0_0_9_1,,skipped,10,88471.59999999776,,,88471,,88471.59999999776,2021-10-28T14:26:13.171Z,88537.524,1635431069,full,ni_sequenzen,NI_Sequenzen,,,,,,,,,,,,,,
,Screen_3,canvas.Screen,0_0_9_2,,skipped,10,88472.19999999925,,,88471,,88472.19999999925,2021-10-28T14:26:13.171Z,88537.524,1635431069,full,ni_sequenzen,NI_Sequenzen,,,,,,,,,,,,,,
,Screen_4,canvas.Screen,0_0_9_3,,skipped,10,88472.79999999702,,,88471,,88472.79999999702,2021-10-28T14:26:13.172Z,88537.524,1635431069,full,ni_sequenzen,NI_Sequenzen,,,,,,,,,,,,,,
,Sequence,flow.Sequence,0_0_9,,completion,10,88470.29999999702,,,88471,,88472.89999999851,2021-10-28T14:26:13.172Z,88537.524,1635431069,full,ni_sequenzen,NI_Sequenzen,,,,,,,,,,,,,,
,Screen_1,canvas.Screen,0_0_10_0,,skipped,11,88474.39999999851,,,88474.39999999851,,88474.5,2021-10-28T14:26:13.173Z,88537.524,1635431069,full,ni_sequenzen,NI_Sequenzen,,,,,,,,,,,,,,
,Screen_2,canvas.Screen,0_0_10_1,,skipped,11,88475,,,88474.39999999851,,88475,2021-10-28T14:26:13.174Z,88537.524,1635431069,full,ni_sequenzen,NI_Sequenzen,,,,,,,,,,,,,,
,Screen_3,canvas.Screen,0_0_10_2,,skipped,11,88475.59999999776,,,88474.39999999851,,88475.59999999776,2021-10-28T14:26:13.175Z,88537.524,1635431069,full,ni_sequenzen,NI_Sequenzen,,,,,,,,,,,,,,
,Screen_4,canvas.Screen,0_0_10_3,,skipped,11,88476.09999999776,,,88474.39999999851,,88476.19999999925,2021-10-28T14:26:13.175Z,88537.524,1635431069,full,ni_sequenzen,NI_Sequenzen,,,,,,,,,,,,,,
,Sequence,flow.Sequence,0_0_10,,completion,11,88473.79999999702,,,88474.39999999851,,88476.29999999702,2021-10-28T14:26:13.175Z,88537.524,1635431069,full,ni_sequenzen,NI_Sequenzen,,,,,,,,,,,,,,
,Screen_1,canvas.Screen,0_0_11_0,,skipped,12,88482.5,,,88482.5,,88482.59999999776,2021-10-28T14:26:13.181Z,88537.524,1635431069,full,ni_sequenzen,NI_Sequenzen,,,,,,,,,,,,,,
,Screen_2,canvas.Screen,0_0_11_1,,skipped,12,88483.29999999702,,,88482.5,,88483.29999999702,2021-10-28T14:26:13.182Z,88537.524,1635431069,full,ni_sequenzen,NI_Sequenzen,,,,,,,,,,,,,,
,Screen_3,canvas.Screen,0_0_11_2,,skipped,12,88483.89999999851,,,88482.5,,88483.89999999851,2021-10-28T14:26:13.183Z,88537.524,1635431069,full,ni_sequenzen,NI_Sequenzen,,,,,,,,,,,,,,
,Screen_4,canvas.Screen,0_0_11_3,,skipped,12,88484.79999999702,,,88482.5,,88484.89999999851,2021-10-28T14:26:13.184Z,88537.524,1635431069,full,ni_sequenzen,NI_Sequenzen,,,,,,,,,,,,,,
,Sequence,flow.Sequence,0_0_11,,completion,12,88477,,,88482.5,,88485.09999999776,2021-10-28T14:26:13.184Z,88537.524,1635431069,full,ni_sequenzen,NI_Sequenzen,,,,,,,,,,,,,,
,Screen_1,canvas.Screen,0_0_12_0,,skipped,13,88485.89999999851,,,88485.89999999851,,88486,2021-10-28T14:26:13.185Z,88537.524,1635431069,full,ni_sequenzen,NI_Sequenzen,,,,,,,,,,,,,,
,Screen_2,canvas.Screen,0_0_12_1,,skipped,13,88486.5,,,88485.89999999851,,88486.5,2021-10-28T14:26:13.185Z,88537.524,1635431069,full,ni_sequenzen,NI_Sequenzen,,,,,,,,,,,,,,
,Screen_3,canvas.Screen,0_0_12_2,,skipped,13,88487.09999999776,,,88485.89999999851,,88487.09999999776,2021-10-28T14:26:13.186Z,88537.524,1635431069,full,ni_sequenzen,NI_Sequenzen,,,,,,,,,,,,,,
,Screen_4,canvas.Screen,0_0_12_3,,skipped,13,88487.79999999702,,,88485.89999999851,,88487.89999999851,2021-10-28T14:26:13.187Z,88537.524,1635431069,full,ni_sequenzen,NI_Sequenzen,,,,,,,,,,,,,,
,Sequence,flow.Sequence,0_0_12,,completion,13,88485.29999999702,,,88485.89999999851,,88488,2021-10-28T14:26:13.187Z,88537.524,1635431069,full,ni_sequenzen,NI_Sequenzen,,,,,,,,,,,,,,
,Screen_1,canvas.Screen,0_0_13_0,,skipped,14,88488.59999999776,,,88488.59999999776,,88488.69999999925,2021-10-28T14:26:13.188Z,88537.524,1635431069,full,ni_sequenzen,NI_Sequenzen,,,,,,,,,,,,,,
,Screen_2,canvas.Screen,0_0_13_1,,skipped,14,88489.79999999702,,,88488.59999999776,,88489.89999999851,2021-10-28T14:26:13.189Z,88537.524,1635431069,full,ni_sequenzen,NI_Sequenzen,,,,,,,,,,,,,,
,Screen_3,canvas.Screen,0_0_13_2,,skipped,14,88490.39999999851,,,88488.59999999776,,88490.5,2021-10-28T14:26:13.189Z,88537.524,1635431069,full,ni_sequenzen,NI_Sequenzen,,,,,,,,,,,,,,
,Screen_4,canvas.Screen,0_0_13_3,,skipped,14,88490.89999999851,,,88488.59999999776,,88491,2021-10-28T14:26:13.190Z,88537.524,1635431069,full,ni_sequenzen,NI_Sequenzen,,,,,,,,,,,,,,
,Sequence,flow.Sequence,0_0_13,,completion,14,88488.29999999702,,,88488.59999999776,,88491.09999999776,2021-10-28T14:26:13.190Z,88537.524,1635431069,full,ni_sequenzen,NI_Sequenzen,,,,,,,,,,,,,,
,Screen_1,canvas.Screen,0_0_14_0,,skipped,15,88491.79999999702,,,88491.79999999702,,88491.79999999702,2021-10-28T14:26:13.191Z,88537.524,1635431069,full,ni_sequenzen,NI_Sequenzen,,,,,,,,,,,,,,
,Screen_2,canvas.Screen,0_0_14_1,,skipped,15,88492.19999999925,,,88491.79999999702,,88492.29999999702,2021-10-28T14:26:13.191Z,88537.524,1635431069,full,ni_sequenzen,NI_Sequenzen,,,,,,,,,,,,,,
,Screen_3,canvas.Screen,0_0_14_2,,skipped,15,88492.79999999702,,,88491.79999999702,,88492.79999999702,2021-10-28T14:26:13.192Z,88537.524,1635431069,full,ni_sequenzen,NI_Sequenzen,,,,,,,,,,,,,,
,Screen_4,canvas.Screen,0_0_14_3,,skipped,15,88493.29999999702,,,88491.79999999702,,88493.39999999851,2021-10-28T14:26:13.192Z,88537.524,1635431069,full,ni_sequenzen,NI_Sequenzen,,,,,,,,,,,,,,
,Sequence,flow.Sequence,0_0_14,,completion,15,88491.29999999702,,,88491.79999999702,,88493.5,2021-10-28T14:26:13.192Z,88537.524,1635431069,full,ni_sequenzen,NI_Sequenzen,,,,,,,,,,,,,,
,Screen_1,canvas.Screen,0_0_15_0,,skipped,16,88494.09999999776,,,88494.09999999776,,88494.09999999776,2021-10-28T14:26:13.193Z,88537.524,1635431069,full,ni_sequenzen,NI_Sequenzen,,,,,,,,,,,,,,
,Screen_2,canvas.Screen,0_0_15_1,,skipped,16,88495.09999999776,,,88494.09999999776,,88495.19999999925,2021-10-28T14:26:13.194Z,88537.524,1635431069,full,ni_sequenzen,NI_Sequenzen,,,,,,,,,,,,,,
,Screen_3,canvas.Screen,0_0_15_2,,skipped,16,88497.09999999776,,,88494.09999999776,,88497.29999999702,2021-10-28T14:26:13.196Z,88537.524,1635431069,full,ni_sequenzen,NI_Sequenzen,,,,,,,,,,,,,,
,Screen_4,canvas.Screen,0_0_15_3,,skipped,16,88498.09999999776,,,88494.09999999776,,88498.19999999925,2021-10-28T14:26:13.197Z,88537.524,1635431069,full,ni_sequenzen,NI_Sequenzen,,,,,,,,,,,,,,
,Sequence,flow.Sequence,0_0_15,,completion,16,88493.69999999925,,,88494.09999999776,,88498.29999999702,2021-10-28T14:26:13.197Z,88537.524,1635431069,full,ni_sequenzen,NI_Sequenzen,,,,,,,,,,,,,,
,Screen_1,canvas.Screen,0_0_16_0,,skipped,17,88499.19999999925,,,88499.19999999925,,88499.19999999925,2021-10-28T14:26:13.198Z,88537.524,1635431069,full,ni_sequenzen,NI_Sequenzen,,,,,,,,,,,,,,
,Screen_2,canvas.Screen,0_0_16_1,,skipped,17,88499.89999999851,,,88499.19999999925,,88500,2021-10-28T14:26:13.199Z,88537.524,1635431069,full,ni_sequenzen,NI_Sequenzen,,,,,,,,,,,,,,
,Screen_3,canvas.Screen,0_0_16_2,,skipped,17,88500.89999999851,,,88499.19999999925,,88501.09999999776,2021-10-28T14:26:13.200Z,88537.524,1635431069,full,ni_sequenzen,NI_Sequenzen,,,,,,,,,,,,,,
,Screen_4,canvas.Screen,0_0_16_3,,skipped,17,88502.89999999851,,,88499.19999999925,,88503,2021-10-28T14:26:13.202Z,88537.524,1635431069,full,ni_sequenzen,NI_Sequenzen,,,,,,,,,,,,,,
,Sequence,flow.Sequence,0_0_16,,completion,17,88498.59999999776,,,88499.19999999925,,88507.59999999776,2021-10-28T14:26:13.207Z,88537.524,1635431069,full,ni_sequenzen,NI_Sequenzen,,,,,,,,,,,,,,
,Screen_1,canvas.Screen,0_0_17_0,,skipped,18,88508.69999999925,,,88508.69999999925,,88508.69999999925,2021-10-28T14:26:13.208Z,88537.524,1635431069,full,ni_sequenzen,NI_Sequenzen,,,,,,,,,,,,,,
,Screen_2,canvas.Screen,0_0_17_1,,skipped,18,88509.19999999925,,,88508.69999999925,,88509.29999999702,2021-10-28T14:26:13.208Z,88537.524,1635431069,full,ni_sequenzen,NI_Sequenzen,,,,,,,,,,,,,,
,Screen_3,canvas.Screen,0_0_17_2,,skipped,18,88510,,,88508.69999999925,,88510.09999999776,2021-10-28T14:26:13.209Z,88537.524,1635431069,full,ni_sequenzen,NI_Sequenzen,,,,,,,,,,,,,,
,Screen_4,canvas.Screen,0_0_17_3,,skipped,18,88510.59999999776,,,88508.69999999925,,88510.59999999776,2021-10-28T14:26:13.209Z,88537.524,1635431069,full,ni_sequenzen,NI_Sequenzen,,,,,,,,,,,,,,
,Sequence,flow.Sequence,0_0_17,,completion,18,88508,,,88508.69999999925,,88510.69999999925,2021-10-28T14:26:13.210Z,88537.524,1635431069,full,ni_sequenzen,NI_Sequenzen,,,,,,,,,,,,,,
,Screen_1,canvas.Screen,0_0_18_0,,skipped,19,88511.29999999702,,,88511.29999999702,,88511.39999999851,2021-10-28T14:26:13.210Z,88537.524,1635431069,full,ni_sequenzen,NI_Sequenzen,,,,,,,,,,,,,,
,Screen_2,canvas.Screen,0_0_18_1,,skipped,19,88512.09999999776,,,88511.29999999702,,88512.09999999776,2021-10-28T14:26:13.211Z,88537.524,1635431069,full,ni_sequenzen,NI_Sequenzen,,,,,,,,,,,,,,
,Screen_3,canvas.Screen,0_0_18_2,,skipped,19,88512.59999999776,,,88511.29999999702,,88512.69999999925,2021-10-28T14:26:13.212Z,88537.524,1635431069,full,ni_sequenzen,NI_Sequenzen,,,,,,,,,,,,,,
,Screen_4,canvas.Screen,0_0_18_3,,skipped,19,88513.09999999776,,,88511.29999999702,,88513.19999999925,2021-10-28T14:26:13.212Z,88537.524,1635431069,full,ni_sequenzen,NI_Sequenzen,,,,,,,,,,,,,,
,Sequence,flow.Sequence,0_0_18,,completion,19,88510.89999999851,,,88511.29999999702,,88513.39999999851,2021-10-28T14:26:13.212Z,88537.524,1635431069,full,ni_sequenzen,NI_Sequenzen,,,,,,,,,,,,,,
,Screen_1,canvas.Screen,0_0_19_0,,skipped,20,88514.19999999925,,,88514.19999999925,,88514.19999999925,2021-10-28T14:26:13.213Z,88537.524,1635431069,full,ni_sequenzen,NI_Sequenzen,,,,,,,,,,,,,,
,Screen_2,canvas.Screen,0_0_19_1,,skipped,20,88514.59999999776,,,88514.19999999925,,88514.59999999776,2021-10-28T14:26:13.214Z,88537.524,1635431069,full,ni_sequenzen,NI_Sequenzen,,,,,,,,,,,,,,
,Screen_3,canvas.Screen,0_0_19_2,,skipped,20,88515.19999999925,,,88514.19999999925,,88515.19999999925,2021-10-28T14:26:13.214Z,88537.524,1635431069,full,ni_sequenzen,NI_Sequenzen,,,,,,,,,,,,,,
,Screen_4,canvas.Screen,0_0_19_3,,skipped,20,88515.59999999776,,,88514.19999999925,,88515.69999999925,2021-10-28T14:26:13.215Z,88537.524,1635431069,full,ni_sequenzen,NI_Sequenzen,,,,,,,,,,,,,,
,Sequence,flow.Sequence,0_0_19,,completion,20,88513.59999999776,,,88514.19999999925,,88515.69999999925,2021-10-28T14:26:13.215Z,88537.524,1635431069,full,ni_sequenzen,NI_Sequenzen,,,,,,,,,,,,,,
,Instructions_I,flow.Loop,0_0,,completion,,512,565.93,615.969,88514.19999999925,87898.23099999926,88515.79999999702,2021-10-28T14:26:13.215Z,88537.524,1635431069,full,ni_sequenzen,NI_Sequenzen,,,,,,,,,,,,,,
,Move,canvas.Screen,0_1_0_0,left,response,,88526.19999999925,88509.824,88537.524,92349.79999999702,3812.275999997015,92350.79999999702,2021-10-28T14:26:17.050Z,92361.702,1635431069,full,ni_sequenzen,NI_Sequenzen,1,,,,,,,,,,,,,
,Move,canvas.Screen,0_1_0_1,left,response,,92356.59999999776,92354.136,92361.702,92983,621.2979999999952,92983.89999999851,2021-10-28T14:26:17.683Z,92996.258,1635431069,full,ni_sequenzen,NI_Sequenzen,2,,,,,,,,,,,,,
,Move,canvas.Screen,0_1_0_2,right,response,,92988.09999999776,92978.426,92996.258,95438,2441.7419999999984,95438.89999999851,2021-10-28T14:26:20.138Z,95451.058,1635431069,full,ni_sequenzen,NI_Sequenzen,3,,,,,,,,,,,,,
,Move,canvas.Screen,0_1_0_3,right,response,,95440.89999999851,95429.615,95451.058,95686.09999999776,235.04199999776029,95686.59999999776,2021-10-28T14:26:20.386Z,95701.53,1635431069,full,ni_sequenzen,NI_Sequenzen,4,,,,,,,,,,,,,
,Move,canvas.Screen,0_1_0_4,down,response,,95688.79999999702,95684.474,95701.53,99558.39999999851,3856.869999998511,99559.09999999776,2021-10-28T14:26:24.258Z,99575.78,1635431069,full,ni_sequenzen,NI_Sequenzen,5,,,,,,,,,,,,,
,Move,canvas.Screen,0_1_0_5,down,response,,99561.59999999776,99551.478,99575.78,99774.29999999702,198.51999999702093,99775,2021-10-28T14:26:24.474Z,99792.861,1635431069,full,ni_sequenzen,NI_Sequenzen,6,,,,,,,,,,,,,
,Move,canvas.Screen,0_1_0_6,down,response,,99777.09999999776,99775.848,99792.861,99958.19999999925,165.33899999925052,99958.89999999851,2021-10-28T14:26:24.658Z,99976.585,1635431069,full,ni_sequenzen,NI_Sequenzen,7,,,,,,,,,,,,,
,Move,canvas.Screen,0_1_0_7,down,response,,99961,99959.587,99976.585,100142.29999999702,165.71499999701336,100142.89999999851,2021-10-28T14:26:24.842Z,100160.251,1635431069,full,ni_sequenzen,NI_Sequenzen,8,,,,,,,,,,,,,
,Move,canvas.Screen,0_1_0_8,right,response,,100145.09999999776,100143.292,100160.251,102982.5,2822.248999999996,102983.39999999851,2021-10-28T14:26:27.683Z,102999.255,1635431069,full,ni_sequenzen,NI_Sequenzen,9,,,,,,,,,,,,,
,Move,canvas.Screen,0_1_0_9,right,response,,102986.59999999776,102976.892,102999.255,103255.89999999851,256.6449999985052,103256.5,2021-10-28T14:26:27.956Z,103266.31,1635431069,full,ni_sequenzen,NI_Sequenzen,10,,,,,,,,,,,,,
,Move,canvas.Screen,0_1_0_10,right,response,,103259.09999999776,103249.16,103266.31,103502.5,236.19000000000233,103503.19999999925,2021-10-28T14:26:28.202Z,103517.043,1635431069,full,ni_sequenzen,NI_Sequenzen,11,,,,,,,,,,,,,
,Move,canvas.Screen,0_1_0_11,right,response,,103505.29999999702,103499.713,103517.043,103710.59999999776,193.5569999977597,103711.39999999851,2021-10-28T14:26:28.410Z,103717.434,1635431069,full,ni_sequenzen,NI_Sequenzen,12,,,,,,,,,,,,,
,Move,canvas.Screen,0_1_0_12,left,response,,103713.39999999851,103700.202,103717.434,104646.59999999776,929.165999997771,104647.19999999925,2021-10-28T14:26:29.346Z,104653.297,1635431069,full,ni_sequenzen,NI_Sequenzen,13,,,,,,,,,,,,,
,Move,canvas.Screen,0_1_0_13,left,response,,104649.39999999851,104633.903,104653.297,104846.69999999925,193.402999999249,104847.39999999851,2021-10-28T14:26:29.547Z,104852.75,1635431069,full,ni_sequenzen,NI_Sequenzen,14,,,,,,,,,,,,,
,Move,canvas.Screen,0_1_0_14,left,response,,104849.79999999702,104835.749,104852.75,105038.5,185.75,105039.19999999925,2021-10-28T14:26:29.738Z,105053.136,1635431069,full,ni_sequenzen,NI_Sequenzen,15,,,,,,,,,,,,,
,Move,canvas.Screen,0_1_0_15,down,response,,105041.69999999925,105036.338,105053.136,105822.79999999702,769.6639999970212,105823.59999999776,2021-10-28T14:26:30.523Z,105837.993,1635431069,full,ni_sequenzen,NI_Sequenzen,16,,,,,,,,,,,,,
,Move,canvas.Screen,0_1_0_16,down,response,,105826.39999999851,105819.857,105837.993,106014.89999999851,176.90699999850767,106015.69999999925,2021-10-28T14:26:30.715Z,106021.818,1635431069,full,ni_sequenzen,NI_Sequenzen,17,,,,,,,,,,,,,
,Move,canvas.Screen,0_1_0_17,down,response,,106018.29999999702,106004.732,106021.818,106206.69999999925,184.88199999925564,106207.09999999776,2021-10-28T14:26:30.906Z,106222.065,1635431069,full,ni_sequenzen,NI_Sequenzen,18,,,,,,,,,,,,,
,Move,canvas.Screen,0_1_0_18,down,response,,106209.29999999702,106205.102,106222.065,106398.69999999925,176.6349999992526,106399.79999999702,2021-10-28T14:26:31.099Z,106405.78,1635431069,full,ni_sequenzen,NI_Sequenzen,19,,,,,,,,,,,,,
,Move,canvas.Screen,0_1_0_19,down,response,,106402,106388.816,106405.78,106574.79999999702,169.01999999702093,106575.69999999925,2021-10-28T14:26:31.275Z,106589.444,1635431069,full,ni_sequenzen,NI_Sequenzen,20,,,,,,,,,,,,,
,Move,canvas.Screen,0_1_0_20,left,response,,106578.19999999925,106572.531,106589.444,106910.69999999925,321.2559999992518,106911.29999999702,2021-10-28T14:26:31.611Z,106923.435,1635431069,full,ni_sequenzen,NI_Sequenzen,21,,,,,,,,,,,,,
,Move,canvas.Screen,0_1_0_21,left,response,,106913.69999999925,106906.227,106923.435,107086.69999999925,163.26499999925727,107087.39999999851,2021-10-28T14:26:31.787Z,107108.477,1635431069,full,ni_sequenzen,NI_Sequenzen,22,,,,,,,,,,,,,
,Move,canvas.Screen,0_1_0_22,left,response,,107089.59999999776,107073.552,107108.477,107302.69999999925,194.222999999256,107303.39999999851,2021-10-28T14:26:32.003Z,107307.791,1635431069,full,ni_sequenzen,NI_Sequenzen,23,,,,,,,,,,,,,
,Move,canvas.Screen,0_1_0_23,right,response,,107305.69999999925,107290.553,107307.791,108127,819.2090000000026,108127.59999999776,2021-10-28T14:26:32.827Z,108142.518,1635431069,full,ni_sequenzen,NI_Sequenzen,24,,,,,,,,,,,,,
,Move,canvas.Screen,0_1_0_24,down,response,,108129.69999999925,108124.259,108142.518,110407,2264.4820000000036,110407.59999999776,2021-10-28T14:26:35.107Z,110413.588,1635431069,full,ni_sequenzen,NI_Sequenzen,25,,,,,,,,,,,,,
,Move,canvas.Screen,0_1_0_25,down,response,,110410.39999999851,110409.161,110413.588,110631.09999999776,217.51199999776145,110631.59999999776,2021-10-28T14:26:35.331Z,110647.371,1635431069,full,ni_sequenzen,NI_Sequenzen,26,,,,,,,,,,,,,
,Move,canvas.Screen,0_1_0_26,right,response,,110633.69999999925,110630.352,110647.371,111495.19999999925,847.8289999992558,111495.89999999851,2021-10-28T14:26:36.195Z,111516.88,1635431069,full,ni_sequenzen,NI_Sequenzen,27,,,,,,,,,,,,,
,Move,canvas.Screen,0_1_0_27,down,response,,111498.5,111497.425,111516.88,112215.09999999776,698.2199999977602,112215.89999999851,2021-10-28T14:26:36.915Z,112233.812,1635431069,full,ni_sequenzen,NI_Sequenzen,28,,,,,,,,,,,,,
,Move,canvas.Screen,0_1_0_28,right,response,,112218.39999999851,112215.787,112233.812,112815.09999999776,581.2879999977595,112815.79999999702,2021-10-28T14:26:37.515Z,112835.159,1635431069,full,ni_sequenzen,NI_Sequenzen,29,,,,,,,,,,,,,
,Move,canvas.Screen,0_1_0_29,down,response,,112818.29999999702,112817.193,112835.159,113464.5,629.3410000000003,113465.29999999702,2021-10-28T14:26:38.164Z,113537.204,1635431069,full,ni_sequenzen,NI_Sequenzen,30,,,,,,,,,,,,,
,Loop,flow.Loop,0_1_0,-999,completion,,88523.89999999851,88509.824,88537.524,113464.5,24926.975999999995,113465.5,2021-10-28T14:26:38.165Z,113537.204,1635431069,full,ni_sequenzen,NI_Sequenzen,,,,,,,,,,,,,,
,Training_I,flow.Sequence,0_1,,completion,,88516.09999999776,88509.824,88537.524,113464.5,24926.975999999995,113465.69999999925,2021-10-28T14:26:38.165Z,113537.204,1635431069,full,ni_sequenzen,NI_Sequenzen,,,,,,,,,,,,,,
,Screen_1,canvas.Screen,0_2_0_0,cont,response,1,113518.59999999776,113518.352,113537.204,124169.29999999702,10632.095999997022,124170,2021-10-28T14:26:48.869Z,124240.587,1635431069,full,ni_sequenzen,NI_Sequenzen,,,,,,,,,,,,,,
,Screen_2,canvas.Screen,0_2_0_1,cont,response,1,124235.59999999776,124219.314,124240.587,133376.5,9135.913,133377.19999999925,2021-10-28T14:26:58.076Z,133391.754,1635431069,full,ni_sequenzen,NI_Sequenzen,,,,,,,,,,,,,,
,Screen_3,canvas.Screen,0_2_0_2,cont,response,1,133380.69999999925,133373.662,133391.754,143050.5,9658.746000000014,143051.29999999702,2021-10-28T14:27:07.750Z,143110.752,1635431069,full,ni_sequenzen,NI_Sequenzen,,,,,,,,,,,,,,
,Screen_4,canvas.Screen,0_2_0_3,cont,response,1,143098.29999999702,143091.472,143110.752,150585.69999999925,7474.947999999247,150586.3999999985,2021-10-28T14:27:15.286Z,150592.036,1635431069,full,ni_sequenzen,NI_Sequenzen,,,,,,,,,,,,,,
,Screen_5,canvas.Screen,0_2_0_4,cont,response,1,150590.09999999776,150577.17,150592.036,165692.19999999925,15100.163999999262,165693.09999999776,2021-10-28T14:27:30.392Z,165821.743,1635431069,full,ni_sequenzen,NI_Sequenzen,,,,,,,,,,,,,,
,Screen_6,canvas.Screen,0_2_0_5,cont,response,1,165812.5,165808.146,165821.743,177829,12007.257000000012,177830.79999999702,2021-10-28T14:27:42.530Z,177995.474,1635431069,full,ni_sequenzen,NI_Sequenzen,,,,,,,,,,,,,,
,Sequence,flow.Sequence,0_2_0,,completion,1,113517.79999999702,113518.352,113537.204,177829,64291.796,177832.79999999702,2021-10-28T14:27:42.532Z,177995.474,1635431069,full,ni_sequenzen,NI_Sequenzen,,,,,,,,,,,,,,
,Screen_1,canvas.Screen,0_2_1_0,,skipped,2,177836.79999999702,,,177836.79999999702,,177836.8999999985,2021-10-28T14:27:42.536Z,177995.474,1635431069,full,ni_sequenzen,NI_Sequenzen,,,,,,,,,,,,,,
,Screen_2,canvas.Screen,0_2_1_1,,skipped,2,177838.59999999776,,,177836.79999999702,,177838.69999999925,2021-10-28T14:27:42.538Z,177995.474,1635431069,full,ni_sequenzen,NI_Sequenzen,,,,,,,,,,,,,,
,Screen_3,canvas.Screen,0_2_1_2,,skipped,2,177840.29999999702,,,177836.79999999702,,177840.3999999985,2021-10-28T14:27:42.539Z,177995.474,1635431069,full,ni_sequenzen,NI_Sequenzen,,,,,,,,,,,,,,
,Screen_4,canvas.Screen,0_2_1_3,,skipped,2,177841.69999999925,,,177836.79999999702,,177841.69999999925,2021-10-28T14:27:42.541Z,177995.474,1635431069,full,ni_sequenzen,NI_Sequenzen,,,,,,,,,,,,,,
,Screen_5,canvas.Screen,0_2_1_4,,skipped,2,177843.09999999776,,,177836.79999999702,,177843.19999999925,2021-10-28T14:27:42.542Z,177995.474,1635431069,full,ni_sequenzen,NI_Sequenzen,,,,,,,,,,,,,,
,Screen_6,canvas.Screen,0_2_1_5,,skipped,2,177845.5,,,177836.79999999702,,177845.69999999925,2021-10-28T14:27:42.545Z,177995.474,1635431069,full,ni_sequenzen,NI_Sequenzen,,,,,,,,,,,,,,
,Sequence,flow.Sequence,0_2_1,,completion,2,177835.09999999776,,,177836.79999999702,,177845.79999999702,2021-10-28T14:27:42.545Z,177995.474,1635431069,full,ni_sequenzen,NI_Sequenzen,,,,,,,,,,,,,,
,Screen_1,canvas.Screen,0_2_2_0,,skipped,3,177848,,,177848,,177848,2021-10-28T14:27:42.547Z,177995.474,1635431069,full,ni_sequenzen,NI_Sequenzen,,,,,,,,,,,,,,
,Screen_2,canvas.Screen,0_2_2_1,,skipped,3,177849.19999999925,,,177848,,177849.29999999702,2021-10-28T14:27:42.548Z,177995.474,1635431069,full,ni_sequenzen,NI_Sequenzen,,,,,,,,,,,,,,
,Screen_3,canvas.Screen,0_2_2_2,,skipped,3,177850.79999999702,,,177848,,177850.79999999702,2021-10-28T14:27:42.550Z,177995.474,1635431069,full,ni_sequenzen,NI_Sequenzen,,,,,,,,,,,,,,
,Screen_4,canvas.Screen,0_2_2_3,,skipped,3,177851.8999999985,,,177848,,177851.8999999985,2021-10-28T14:27:42.551Z,177995.474,1635431069,full,ni_sequenzen,NI_Sequenzen,,,,,,,,,,,,,,
,Screen_5,canvas.Screen,0_2_2_4,,skipped,3,177853,,,177848,,177853.09999999776,2021-10-28T14:27:42.552Z,177995.474,1635431069,full,ni_sequenzen,NI_Sequenzen,,,,,,,,,,,,,,
,Screen_6,canvas.Screen,0_2_2_5,,skipped,3,177853.8999999985,,,177848,,177854,2021-10-28T14:27:42.553Z,177995.474,1635431069,full,ni_sequenzen,NI_Sequenzen,,,,,,,,,,,,,,
,Sequence,flow.Sequence,0_2_2,,completion,3,177846.5,,,177848,,177854.09999999776,2021-10-28T14:27:42.553Z,177995.474,1635431069,full,ni_sequenzen,NI_Sequenzen,,,,,,,,,,,,,,
,Screen_1,canvas.Screen,0_2_3_0,,skipped,4,177854.79999999702,,,177854.79999999702,,177854.79999999702,2021-10-28T14:27:42.554Z,177995.474,1635431069,full,ni_sequenzen,NI_Sequenzen,,,,,,,,,,,,,,
,Screen_2,canvas.Screen,0_2_3_1,,skipped,4,177855.59999999776,,,177854.79999999702,,177855.69999999925,2021-10-28T14:27:42.555Z,177995.474,1635431069,full,ni_sequenzen,NI_Sequenzen,,,,,,,,,,,,,,
,Screen_3,canvas.Screen,0_2_3_2,,skipped,4,177856.3999999985,,,177854.79999999702,,177856.5,2021-10-28T14:27:42.555Z,177995.474,1635431069,full,ni_sequenzen,NI_Sequenzen,,,,,,,,,,,,,,
,Screen_4,canvas.Screen,0_2_3_3,,skipped,4,177857.19999999925,,,177854.79999999702,,177857.19999999925,2021-10-28T14:27:42.556Z,177995.474,1635431069,full,ni_sequenzen,NI_Sequenzen,,,,,,,,,,,,,,
,Screen_5,canvas.Screen,0_2_3_4,,skipped,4,177857.8999999985,,,177854.79999999702,,177857.8999999985,2021-10-28T14:27:42.557Z,177995.474,1635431069,full,ni_sequenzen,NI_Sequenzen,,,,,,,,,,,,,,
,Screen_6,canvas.Screen,0_2_3_5,,skipped,4,177858.5,,,177854.79999999702,,177858.59999999776,2021-10-28T14:27:42.558Z,177995.474,1635431069,full,ni_sequenzen,NI_Sequenzen,,,,,,,,,,,,,,
,Sequence,flow.Sequence,0_2_3,,completion,4,177854.29999999702,,,177854.79999999702,,177858.69999999925,2021-10-28T14:27:42.558Z,177995.474,1635431069,full,ni_sequenzen,NI_Sequenzen,,,,,,,,,,,,,,
,Screen_1,canvas.Screen,0_2_4_0,,skipped,5,177859.59999999776,,,177859.59999999776,,177859.69999999925,2021-10-28T14:27:42.559Z,177995.474,1635431069,full,ni_sequenzen,NI_Sequenzen,,,,,,,,,,,,,,
,Screen_2,canvas.Screen,0_2_4_1,,skipped,5,177860.29999999702,,,177859.59999999776,,177860.3999999985,2021-10-28T14:27:42.559Z,177995.474,1635431069,full,ni_sequenzen,NI_Sequenzen,,,,,,,,,,,,,,
,Screen_3,canvas.Screen,0_2_4_2,,skipped,5,177861,,,177859.59999999776,,177861,2021-10-28T14:27:42.560Z,177995.474,1635431069,full,ni_sequenzen,NI_Sequenzen,,,,,,,,,,,,,,
,Screen_4,canvas.Screen,0_2_4_3,,skipped,5,177862.29999999702,,,177859.59999999776,,177862.3999999985,2021-10-28T14:27:42.561Z,177995.474,1635431069,full,ni_sequenzen,NI_Sequenzen,,,,,,,,,,,,,,
,Screen_5,canvas.Screen,0_2_4_4,,skipped,5,177863,,,177859.59999999776,,177863,2021-10-28T14:27:42.562Z,177995.474,1635431069,full,ni_sequenzen,NI_Sequenzen,,,,,,,,,,,,,,
,Screen_6,canvas.Screen,0_2_4_5,,skipped,5,177863.69999999925,,,177859.59999999776,,177863.79999999702,2021-10-28T14:27:42.563Z,177995.474,1635431069,full,ni_sequenzen,NI_Sequenzen,,,,,,,,,,,,,,
,Sequence,flow.Sequence,0_2_4,,completion,5,177859,,,177859.59999999776,,177863.79999999702,2021-10-28T14:27:42.563Z,177995.474,1635431069,full,ni_sequenzen,NI_Sequenzen,,,,,,,,,,,,,,
,Screen_1,canvas.Screen,0_2_5_0,,skipped,6,177864.59999999776,,,177864.59999999776,,177864.59999999776,2021-10-28T14:27:42.564Z,177995.474,1635431069,full,ni_sequenzen,NI_Sequenzen,,,,,,,,,,,,,,
,Screen_2,canvas.Screen,0_2_5_1,,skipped,6,177865.09999999776,,,177864.59999999776,,177865.09999999776,2021-10-28T14:27:42.564Z,177995.474,1635431069,full,ni_sequenzen,NI_Sequenzen,,,,,,,,,,,,,,
,Screen_3,canvas.Screen,0_2_5_2,,skipped,6,177865.5,,,177864.59999999776,,177865.59999999776,2021-10-28T14:27:42.565Z,177995.474,1635431069,full,ni_sequenzen,NI_Sequenzen,,,,,,,,,,,,,,
,Screen_4,canvas.Screen,0_2_5_3,,skipped,6,177866.19999999925,,,177864.59999999776,,177866.19999999925,2021-10-28T14:27:42.565Z,177995.474,1635431069,full,ni_sequenzen,NI_Sequenzen,,,,,,,,,,,,,,
,Screen_5,canvas.Screen,0_2_5_4,,skipped,6,177866.59999999776,,,177864.59999999776,,177866.69999999925,2021-10-28T14:27:42.566Z,177995.474,1635431069,full,ni_sequenzen,NI_Sequenzen,,,,,,,,,,,,,,
,Screen_6,canvas.Screen,0_2_5_5,,skipped,6,177867.09999999776,,,177864.59999999776,,177867.09999999776,2021-10-28T14:27:42.566Z,177995.474,1635431069,full,ni_sequenzen,NI_Sequenzen,,,,,,,,,,,,,,
,Sequence,flow.Sequence,0_2_5,,completion,6,177864.19999999925,,,177864.59999999776,,177867.19999999925,2021-10-28T14:27:42.566Z,177995.474,1635431069,full,ni_sequenzen,NI_Sequenzen,,,,,,,,,,,,,,
,Screen_1,canvas.Screen,0_2_6_0,,skipped,7,177867.79999999702,,,177867.79999999702,,177867.8999999985,2021-10-28T14:27:42.567Z,177995.474,1635431069,full,ni_sequenzen,NI_Sequenzen,,,,,,,,,,,,,,
,Screen_2,canvas.Screen,0_2_6_1,,skipped,7,177868.3999999985,,,177867.79999999702,,177868.3999999985,2021-10-28T14:27:42.567Z,177995.474,1635431069,full,ni_sequenzen,NI_Sequenzen,,,,,,,,,,,,,,
,Screen_3,canvas.Screen,0_2_6_2,,skipped,7,177868.79999999702,,,177867.79999999702,,177868.79999999702,2021-10-28T14:27:42.568Z,177995.474,1635431069,full,ni_sequenzen,NI_Sequenzen,,,,,,,,,,,,,,
,Screen_4,canvas.Screen,0_2_6_3,,skipped,7,177869.29999999702,,,177867.79999999702,,177869.29999999702,2021-10-28T14:27:42.568Z,177995.474,1635431069,full,ni_sequenzen,NI_Sequenzen,,,,,,,,,,,,,,
,Screen_5,canvas.Screen,0_2_6_4,,skipped,7,177869.79999999702,,,177867.79999999702,,177869.79999999702,2021-10-28T14:27:42.569Z,177995.474,1635431069,full,ni_sequenzen,NI_Sequenzen,,,,,,,,,,,,,,
,Screen_6,canvas.Screen,0_2_6_5,,skipped,7,177870.5,,,177867.79999999702,,177870.59999999776,2021-10-28T14:27:42.570Z,177995.474,1635431069,full,ni_sequenzen,NI_Sequenzen,,,,,,,,,,,,,,
,Sequence,flow.Sequence,0_2_6,,completion,7,177867.5,,,177867.79999999702,,177870.69999999925,2021-10-28T14:27:42.570Z,177995.474,1635431069,full,ni_sequenzen,NI_Sequenzen,,,,,,,,,,,,,,
,Screen_1,canvas.Screen,0_2_7_0,,skipped,8,177872.5,,,177872.5,,177872.5,2021-10-28T14:27:42.571Z,177995.474,1635431069,full,ni_sequenzen,NI_Sequenzen,,,,,,,,,,,,,,
,Screen_2,canvas.Screen,0_2_7_1,,skipped,8,177873.19999999925,,,177872.5,,177873.19999999925,2021-10-28T14:27:42.572Z,177995.474,1635431069,full,ni_sequenzen,NI_Sequenzen,,,,,,,,,,,,,,
,Screen_3,canvas.Screen,0_2_7_2,,skipped,8,177873.8999999985,,,177872.5,,177873.8999999985,2021-10-28T14:27:42.573Z,177995.474,1635431069,full,ni_sequenzen,NI_Sequenzen,,,,,,,,,,,,,,
,Screen_4,canvas.Screen,0_2_7_3,,skipped,8,177874.5,,,177872.5,,177874.59999999776,2021-10-28T14:27:42.574Z,177995.474,1635431069,full,ni_sequenzen,NI_Sequenzen,,,,,,,,,,,,,,
,Screen_5,canvas.Screen,0_2_7_4,,skipped,8,177875.29999999702,,,177872.5,,177875.3999999985,2021-10-28T14:27:42.574Z,177995.474,1635431069,full,ni_sequenzen,NI_Sequenzen,,,,,,,,,,,,,,
,Screen_6,canvas.Screen,0_2_7_5,,skipped,8,177875.8999999985,,,177872.5,,177876,2021-10-28T14:27:42.575Z,177995.474,1635431069,full,ni_sequenzen,NI_Sequenzen,,,,,,,,,,,,,,
,Sequence,flow.Sequence,0_2_7,,completion,8,177871.69999999925,,,177872.5,,177876.09999999776,2021-10-28T14:27:42.575Z,177995.474,1635431069,full,ni_sequenzen,NI_Sequenzen,,,,,,,,,,,,,,
,Screen_1,canvas.Screen,0_2_8_0,,skipped,9,177876.8999999985,,,177876.8999999985,,177877,2021-10-28T14:27:42.576Z,177995.474,1635431069,full,ni_sequenzen,NI_Sequenzen,,,,,,,,,,,,,,
,Screen_2,canvas.Screen,0_2_8_1,,skipped,9,177877.5,,,177876.8999999985,,177877.5,2021-10-28T14:27:42.576Z,177995.474,1635431069,full,ni_sequenzen,NI_Sequenzen,,,,,,,,,,,,,,
,Screen_3,canvas.Screen,0_2_8_2,,skipped,9,177878,,,177876.8999999985,,177878,2021-10-28T14:27:42.577Z,177995.474,1635431069,full,ni_sequenzen,NI_Sequenzen,,,,,,,,,,,,,,
,Screen_4,canvas.Screen,0_2_8_3,,skipped,9,177878.3999999985,,,177876.8999999985,,177878.5,2021-10-28T14:27:42.577Z,177995.474,1635431069,full,ni_sequenzen,NI_Sequenzen,,,,,,,,,,,,,,
,Screen_5,canvas.Screen,0_2_8_4,,skipped,9,177878.8999999985,,,177876.8999999985,,177878.8999999985,2021-10-28T14:27:42.578Z,177995.474,1635431069,full,ni_sequenzen,NI_Sequenzen,,,,,,,,,,,,,,
,Screen_6,canvas.Screen,0_2_8_5,,skipped,9,177879.3999999985,,,177876.8999999985,,177879.3999999985,2021-10-28T14:27:42.578Z,177995.474,1635431069,full,ni_sequenzen,NI_Sequenzen,,,,,,,,,,,,,,
,Sequence,flow.Sequence,0_2_8,,completion,9,177876.3999999985,,,177876.8999999985,,177879.5,2021-10-28T14:27:42.578Z,177995.474,1635431069,full,ni_sequenzen,NI_Sequenzen,,,,,,,,,,,,,,
,Screen_1,canvas.Screen,0_2_9_0,,skipped,10,177880.29999999702,,,177880.29999999702,,177880.3999999985,2021-10-28T14:27:42.579Z,177995.474,1635431069,full,ni_sequenzen,NI_Sequenzen,,,,,,,,,,,,,,
,Screen_2,canvas.Screen,0_2_9_1,,skipped,10,177880.8999999985,,,177880.29999999702,,177881,2021-10-28T14:27:42.580Z,177995.474,1635431069,full,ni_sequenzen,NI_Sequenzen,,,,,,,,,,,,,,
,Screen_3,canvas.Screen,0_2_9_2,,skipped,10,177881.59999999776,,,177880.29999999702,,177881.59999999776,2021-10-28T14:27:42.581Z,177995.474,1635431069,full,ni_sequenzen,NI_Sequenzen,,,,,,,,,,,,,,
,Screen_4,canvas.Screen,0_2_9_3,,skipped,10,177882.69999999925,,,177880.29999999702,,177882.79999999702,2021-10-28T14:27:42.582Z,177995.474,1635431069,full,ni_sequenzen,NI_Sequenzen,,,,,,,,,,,,,,
,Screen_5,canvas.Screen,0_2_9_4,,skipped,10,177883.59999999776,,,177880.29999999702,,177883.69999999925,2021-10-28T14:27:42.583Z,177995.474,1635431069,full,ni_sequenzen,NI_Sequenzen,,,,,,,,,,,,,,
,Screen_6,canvas.Screen,0_2_9_5,,skipped,10,177884.29999999702,,,177880.29999999702,,177884.3999999985,2021-10-28T14:27:42.583Z,177995.474,1635431069,full,ni_sequenzen,NI_Sequenzen,,,,,,,,,,,,,,
,Sequence,flow.Sequence,0_2_9,,completion,10,177879.79999999702,,,177880.29999999702,,177884.59999999776,2021-10-28T14:27:42.584Z,177995.474,1635431069,full,ni_sequenzen,NI_Sequenzen,,,,,,,,,,,,,,
,Screen_1,canvas.Screen,0_2_10_0,,skipped,11,177885.29999999702,,,177885.29999999702,,177885.3999999985,2021-10-28T14:27:42.584Z,177995.474,1635431069,full,ni_sequenzen,NI_Sequenzen,,,,,,,,,,,,,,
,Screen_2,canvas.Screen,0_2_10_1,,skipped,11,177885.79999999702,,,177885.29999999702,,177885.8999999985,2021-10-28T14:27:42.585Z,177995.474,1635431069,full,ni_sequenzen,NI_Sequenzen,,,,,,,,,,,,,,
,Screen_3,canvas.Screen,0_2_10_2,,skipped,11,177886.69999999925,,,177885.29999999702,,177886.69999999925,2021-10-28T14:27:42.586Z,177995.474,1635431069,full,ni_sequenzen,NI_Sequenzen,,,,,,,,,,,,,,
,Screen_4,canvas.Screen,0_2_10_3,,skipped,11,177887.29999999702,,,177885.29999999702,,177887.29999999702,2021-10-28T14:27:42.586Z,177995.474,1635431069,full,ni_sequenzen,NI_Sequenzen,,,,,,,,,,,,,,
,Screen_5,canvas.Screen,0_2_10_4,,skipped,11,177887.79999999702,,,177885.29999999702,,177887.79999999702,2021-10-28T14:27:42.587Z,177995.474,1635431069,full,ni_sequenzen,NI_Sequenzen,,,,,,,,,,,,,,
,Screen_6,canvas.Screen,0_2_10_5,,skipped,11,177888.19999999925,,,177885.29999999702,,177888.19999999925,2021-10-28T14:27:42.587Z,177995.474,1635431069,full,ni_sequenzen,NI_Sequenzen,,,,,,,,,,,,,,
,Sequence,flow.Sequence,0_2_10,,completion,11,177884.79999999702,,,177885.29999999702,,177888.29999999702,2021-10-28T14:27:42.587Z,177995.474,1635431069,full,ni_sequenzen,NI_Sequenzen,,,,,,,,,,,,,,
,Screen_1,canvas.Screen,0_2_11_0,,skipped,12,177889,,,177889,,177889.09999999776,2021-10-28T14:27:42.588Z,177995.474,1635431069,full,ni_sequenzen,NI_Sequenzen,,,,,,,,,,,,,,
,Screen_2,canvas.Screen,0_2_11_1,,skipped,12,177889.5,,,177889,,177889.59999999776,2021-10-28T14:27:42.589Z,177995.474,1635431069,full,ni_sequenzen,NI_Sequenzen,,,,,,,,,,,,,,
,Screen_3,canvas.Screen,0_2_11_2,,skipped,12,177890,,,177889,,177890.09999999776,2021-10-28T14:27:42.589Z,177995.474,1635431069,full,ni_sequenzen,NI_Sequenzen,,,,,,,,,,,,,,
,Screen_4,canvas.Screen,0_2_11_3,,skipped,12,177890.3999999985,,,177889,,177890.5,2021-10-28T14:27:42.589Z,177995.474,1635431069,full,ni_sequenzen,NI_Sequenzen,,,,,,,,,,,,,,
,Screen_5,canvas.Screen,0_2_11_4,,skipped,12,177890.8999999985,,,177889,,177890.8999999985,2021-10-28T14:27:42.590Z,177995.474,1635431069,full,ni_sequenzen,NI_Sequenzen,,,,,,,,,,,,,,
,Screen_6,canvas.Screen,0_2_11_5,,skipped,12,177891.3999999985,,,177889,,177891.5,2021-10-28T14:27:42.590Z,177995.474,1635431069,full,ni_sequenzen,NI_Sequenzen,,,,,,,,,,,,,,
,Sequence,flow.Sequence,0_2_11,,completion,12,177888.5,,,177889,,177891.5,2021-10-28T14:27:42.590Z,177995.474,1635431069,full,ni_sequenzen,NI_Sequenzen,,,,,,,,,,,,,,
,Screen_1,canvas.Screen,0_2_12_0,,skipped,13,177892.19999999925,,,177892.19999999925,,177892.19999999925,2021-10-28T14:27:42.591Z,177995.474,1635431069,full,ni_sequenzen,NI_Sequenzen,,,,,,,,,,,,,,
,Screen_2,canvas.Screen,0_2_12_1,,skipped,13,177893.29999999702,,,177892.19999999925,,177893.3999999985,2021-10-28T14:27:42.592Z,177995.474,1635431069,full,ni_sequenzen,NI_Sequenzen,,,,,,,,,,,,,,
,Screen_3,canvas.Screen,0_2_12_2,,skipped,13,177893.79999999702,,,177892.19999999925,,177893.8999999985,2021-10-28T14:27:42.593Z,177995.474,1635431069,full,ni_sequenzen,NI_Sequenzen,,,,,,,,,,,,,,
,Screen_4,canvas.Screen,0_2_12_3,,skipped,13,177894.29999999702,,,177892.19999999925,,177894.29999999702,2021-10-28T14:27:42.593Z,177995.474,1635431069,full,ni_sequenzen,NI_Sequenzen,,,,,,,,,,,,,,
,Screen_5,canvas.Screen,0_2_12_4,,skipped,13,177894.79999999702,,,177892.19999999925,,177894.79999999702,2021-10-28T14:27:42.594Z,177995.474,1635431069,full,ni_sequenzen,NI_Sequenzen,,,,,,,,,,,,,,
,Screen_6,canvas.Screen,0_2_12_5,,skipped,13,177895.29999999702,,,177892.19999999925,,177895.29999999702,2021-10-28T14:27:42.594Z,177995.474,1635431069,full,ni_sequenzen,NI_Sequenzen,,,,,,,,,,,,,,
,Sequence,flow.Sequence,0_2_12,,completion,13,177891.79999999702,,,177892.19999999925,,177895.29999999702,2021-10-28T14:27:42.594Z,177995.474,1635431069,full,ni_sequenzen,NI_Sequenzen,,,,,,,,,,,,,,
,Screen_1,canvas.Screen,0_2_13_0,,skipped,14,177896.09999999776,,,177896.09999999776,,177896.09999999776,2021-10-28T14:27:42.595Z,177995.474,1635431069,full,ni_sequenzen,NI_Sequenzen,,,,,,,,,,,,,,
,Screen_2,canvas.Screen,0_2_13_1,,skipped,14,177896.5,,,177896.09999999776,,177896.59999999776,2021-10-28T14:27:42.596Z,177995.474,1635431069,full,ni_sequenzen,NI_Sequenzen,,,,,,,,,,,,,,
,Screen_3,canvas.Screen,0_2_13_2,,skipped,14,177897,,,177896.09999999776,,177897.09999999776,2021-10-28T14:27:42.596Z,177995.474,1635431069,full,ni_sequenzen,NI_Sequenzen,,,,,,,,,,,,,,
,Screen_4,canvas.Screen,0_2_13_3,,skipped,14,177897.59999999776,,,177896.09999999776,,177897.69999999925,2021-10-28T14:27:42.597Z,177995.474,1635431069,full,ni_sequenzen,NI_Sequenzen,,,,,,,,,,,,,,
,Screen_5,canvas.Screen,0_2_13_4,,skipped,14,177898.3999999985,,,177896.09999999776,,177898.5,2021-10-28T14:27:42.597Z,177995.474,1635431069,full,ni_sequenzen,NI_Sequenzen,,,,,,,,,,,,,,
,Screen_6,canvas.Screen,0_2_13_5,,skipped,14,177899.09999999776,,,177896.09999999776,,177899.19999999925,2021-10-28T14:27:42.598Z,177995.474,1635431069,full,ni_sequenzen,NI_Sequenzen,,,,,,,,,,,,,,
,Sequence,flow.Sequence,0_2_13,,completion,14,177895.59999999776,,,177896.09999999776,,177899.29999999702,2021-10-28T14:27:42.598Z,177995.474,1635431069,full,ni_sequenzen,NI_Sequenzen,,,,,,,,,,,,,,
,Screen_1,canvas.Screen,0_2_14_0,,skipped,15,177900.19999999925,,,177900.19999999925,,177900.29999999702,2021-10-28T14:27:42.599Z,177995.474,1635431069,full,ni_sequenzen,NI_Sequenzen,,,,,,,,,,,,,,
,Screen_2,canvas.Screen,0_2_14_1,,skipped,15,177900.8999999985,,,177900.19999999925,,177901,2021-10-28T14:27:42.600Z,177995.474,1635431069,full,ni_sequenzen,NI_Sequenzen,,,,,,,,,,,,,,
,Screen_3,canvas.Screen,0_2_14_2,,skipped,15,177901.59999999776,,,177900.19999999925,,177901.69999999925,2021-10-28T14:27:42.601Z,177995.474,1635431069,full,ni_sequenzen,NI_Sequenzen,,,,,,,,,,,,,,
,Screen_4,canvas.Screen,0_2_14_3,,skipped,15,177902.8999999985,,,177900.19999999925,,177902.8999999985,2021-10-28T14:27:42.602Z,177995.474,1635431069,full,ni_sequenzen,NI_Sequenzen,,,,,,,,,,,,,,
,Screen_5,canvas.Screen,0_2_14_4,,skipped,15,177903.59999999776,,,177900.19999999925,,177903.69999999925,2021-10-28T14:27:42.603Z,177995.474,1635431069,full,ni_sequenzen,NI_Sequenzen,,,,,,,,,,,,,,
,Screen_6,canvas.Screen,0_2_14_5,,skipped,15,177904.19999999925,,,177900.19999999925,,177904.29999999702,2021-10-28T14:27:42.603Z,177995.474,1635431069,full,ni_sequenzen,NI_Sequenzen,,,,,,,,,,,,,,
,Sequence,flow.Sequence,0_2_14,,completion,15,177899.59999999776,,,177900.19999999925,,177904.3999999985,2021-10-28T14:27:42.603Z,177995.474,1635431069,full,ni_sequenzen,NI_Sequenzen,,,,,,,,,,,,,,
,Screen_1,canvas.Screen,0_2_15_0,,skipped,16,177905,,,177905,,177905.09999999776,2021-10-28T14:27:42.604Z,177995.474,1635431069,full,ni_sequenzen,NI_Sequenzen,,,,,,,,,,,,,,
,Screen_2,canvas.Screen,0_2_15_1,,skipped,16,177905.59999999776,,,177905,,177905.59999999776,2021-10-28T14:27:42.605Z,177995.474,1635431069,full,ni_sequenzen,NI_Sequenzen,,,,,,,,,,,,,,
,Screen_3,canvas.Screen,0_2_15_2,,skipped,16,177906,,,177905,,177906.09999999776,2021-10-28T14:27:42.605Z,177995.474,1635431069,full,ni_sequenzen,NI_Sequenzen,,,,,,,,,,,,,,
,Screen_4,canvas.Screen,0_2_15_3,,skipped,16,177906.5,,,177905,,177906.5,2021-10-28T14:27:42.605Z,177995.474,1635431069,full,ni_sequenzen,NI_Sequenzen,,,,,,,,,,,,,,
,Screen_5,canvas.Screen,0_2_15_4,,skipped,16,177906.8999999985,,,177905,,177907,2021-10-28T14:27:42.606Z,177995.474,1635431069,full,ni_sequenzen,NI_Sequenzen,,,,,,,,,,,,,,
,Screen_6,canvas.Screen,0_2_15_5,,skipped,16,177907.3999999985,,,177905,,177907.5,2021-10-28T14:27:42.606Z,177995.474,1635431069,full,ni_sequenzen,NI_Sequenzen,,,,,,,,,,,,,,
,Sequence,flow.Sequence,0_2_15,,completion,16,177904.69999999925,,,177905,,177907.59999999776,2021-10-28T14:27:42.606Z,177995.474,1635431069,full,ni_sequenzen,NI_Sequenzen,,,,,,,,,,,,,,
,Screen_1,canvas.Screen,0_2_16_0,,skipped,17,177908.19999999925,,,177908.19999999925,,177908.19999999925,2021-10-28T14:27:42.607Z,177995.474,1635431069,full,ni_sequenzen,NI_Sequenzen,,,,,,,,,,,,,,
,Screen_2,canvas.Screen,0_2_16_1,,skipped,17,177909,,,177908.19999999925,,177909,2021-10-28T14:27:42.608Z,177995.474,1635431069,full,ni_sequenzen,NI_Sequenzen,,,,,,,,,,,,,,
,Screen_3,canvas.Screen,0_2_16_2,,skipped,17,177909.5,,,177908.19999999925,,177909.59999999776,2021-10-28T14:27:42.609Z,177995.474,1635431069,full,ni_sequenzen,NI_Sequenzen,,,,,,,,,,,,,,
,Screen_4,canvas.Screen,0_2_16_3,,skipped,17,177910.19999999925,,,177908.19999999925,,177910.19999999925,2021-10-28T14:27:42.609Z,177995.474,1635431069,full,ni_sequenzen,NI_Sequenzen,,,,,,,,,,,,,,
,Screen_5,canvas.Screen,0_2_16_4,,skipped,17,177911.19999999925,,,177908.19999999925,,177911.29999999702,2021-10-28T14:27:42.610Z,177995.474,1635431069,full,ni_sequenzen,NI_Sequenzen,,,,,,,,,,,,,,
,Screen_6,canvas.Screen,0_2_16_5,,skipped,17,177911.8999999985,,,177908.19999999925,,177912,2021-10-28T14:27:42.611Z,177995.474,1635431069,full,ni_sequenzen,NI_Sequenzen,,,,,,,,,,,,,,
,Sequence,flow.Sequence,0_2_16,,completion,17,177907.69999999925,,,177908.19999999925,,177912.09999999776,2021-10-28T14:27:42.611Z,177995.474,1635431069,full,ni_sequenzen,NI_Sequenzen,,,,,,,,,,,,,,
,Screen_1,canvas.Screen,0_2_17_0,,skipped,18,177912.79999999702,,,177912.79999999702,,177912.79999999702,2021-10-28T14:27:42.612Z,177995.474,1635431069,full,ni_sequenzen,NI_Sequenzen,,,,,,,,,,,,,,
,Screen_2,canvas.Screen,0_2_17_1,,skipped,18,177913.29999999702,,,177912.79999999702,,177913.29999999702,2021-10-28T14:27:42.612Z,177995.474,1635431069,full,ni_sequenzen,NI_Sequenzen,,,,,,,,,,,,,,
,Screen_3,canvas.Screen,0_2_17_2,,skipped,18,177914,,,177912.79999999702,,177914,2021-10-28T14:27:42.613Z,177995.474,1635431069,full,ni_sequenzen,NI_Sequenzen,,,,,,,,,,,,,,
,Screen_4,canvas.Screen,0_2_17_3,,skipped,18,177914.5,,,177912.79999999702,,177914.5,2021-10-28T14:27:42.613Z,177995.474,1635431069,full,ni_sequenzen,NI_Sequenzen,,,,,,,,,,,,,,
,Screen_5,canvas.Screen,0_2_17_4,,skipped,18,177915,,,177912.79999999702,,177915,2021-10-28T14:27:42.614Z,177995.474,1635431069,full,ni_sequenzen,NI_Sequenzen,,,,,,,,,,,,,,
,Screen_6,canvas.Screen,0_2_17_5,,skipped,18,177915.5,,,177912.79999999702,,177915.5,2021-10-28T14:27:42.614Z,177995.474,1635431069,full,ni_sequenzen,NI_Sequenzen,,,,,,,,,,,,,,
,Sequence,flow.Sequence,0_2_17,,completion,18,177912.29999999702,,,177912.79999999702,,177915.59999999776,2021-10-28T14:27:42.615Z,177995.474,1635431069,full,ni_sequenzen,NI_Sequenzen,,,,,,,,,,,,,,
,Screen_1,canvas.Screen,0_2_18_0,,skipped,19,177916.09999999776,,,177916.09999999776,,177916.19999999925,2021-10-28T14:27:42.615Z,177995.474,1635431069,full,ni_sequenzen,NI_Sequenzen,,,,,,,,,,,,,,
,Screen_2,canvas.Screen,0_2_18_1,,skipped,19,177916.69999999925,,,177916.09999999776,,177916.69999999925,2021-10-28T14:27:42.616Z,177995.474,1635431069,full,ni_sequenzen,NI_Sequenzen,,,,,,,,,,,,,,
,Screen_3,canvas.Screen,0_2_18_2,,skipped,19,177917.09999999776,,,177916.09999999776,,177917.19999999925,2021-10-28T14:27:42.616Z,177995.474,1635431069,full,ni_sequenzen,NI_Sequenzen,,,,,,,,,,,,,,
,Screen_4,canvas.Screen,0_2_18_3,,skipped,19,177917.8999999985,,,177916.09999999776,,177918,2021-10-28T14:27:42.617Z,177995.474,1635431069,full,ni_sequenzen,NI_Sequenzen,,,,,,,,,,,,,,
,Screen_5,canvas.Screen,0_2_18_4,,skipped,19,177918.5,,,177916.09999999776,,177918.5,2021-10-28T14:27:42.617Z,177995.474,1635431069,full,ni_sequenzen,NI_Sequenzen,,,,,,,,,,,,,,
,Screen_6,canvas.Screen,0_2_18_5,,skipped,19,177918.8999999985,,,177916.09999999776,,177919,2021-10-28T14:27:42.618Z,177995.474,1635431069,full,ni_sequenzen,NI_Sequenzen,,,,,,,,,,,,,,
,Sequence,flow.Sequence,0_2_18,,completion,19,177915.79999999702,,,177916.09999999776,,177919.09999999776,2021-10-28T14:27:42.618Z,177995.474,1635431069,full,ni_sequenzen,NI_Sequenzen,,,,,,,,,,,,,,
,Screen_1,canvas.Screen,0_2_19_0,,skipped,20,177920.19999999925,,,177920.19999999925,,177920.29999999702,2021-10-28T14:27:42.619Z,177995.474,1635431069,full,ni_sequenzen,NI_Sequenzen,,,,,,,,,,,,,,
,Screen_2,canvas.Screen,0_2_19_1,,skipped,20,177920.8999999985,,,177920.19999999925,,177920.8999999985,2021-10-28T14:27:42.620Z,177995.474,1635431069,full,ni_sequenzen,NI_Sequenzen,,,,,,,,,,,,,,
,Screen_3,canvas.Screen,0_2_19_2,,skipped,20,177921.29999999702,,,177920.19999999925,,177921.29999999702,2021-10-28T14:27:42.620Z,177995.474,1635431069,full,ni_sequenzen,NI_Sequenzen,,,,,,,,,,,,,,
,Screen_4,canvas.Screen,0_2_19_3,,skipped,20,177921.79999999702,,,177920.19999999925,,177921.79999999702,2021-10-28T14:27:42.621Z,177995.474,1635431069,full,ni_sequenzen,NI_Sequenzen,,,,,,,,,,,,,,
,Screen_5,canvas.Screen,0_2_19_4,,skipped,20,177922.19999999925,,,177920.19999999925,,177922.19999999925,2021-10-28T14:27:42.621Z,177995.474,1635431069,full,ni_sequenzen,NI_Sequenzen,,,,,,,,,,,,,,
,Screen_6,canvas.Screen,0_2_19_5,,skipped,20,177922.69999999925,,,177920.19999999925,,177922.69999999925,2021-10-28T14:27:42.622Z,177995.474,1635431069,full,ni_sequenzen,NI_Sequenzen,,,,,,,,,,,,,,
,Sequence,flow.Sequence,0_2_19,,completion,20,177919.29999999702,,,177920.19999999925,,177922.79999999702,2021-10-28T14:27:42.622Z,177995.474,1635431069,full,ni_sequenzen,NI_Sequenzen,,,,,,,,,,,,,,
,Screen_1,canvas.Screen,0_2_20_0,,skipped,21,177923.3999999985,,,177923.3999999985,,177923.5,2021-10-28T14:27:42.622Z,177995.474,1635431069,full,ni_sequenzen,NI_Sequenzen,,,,,,,,,,,,,,
,Screen_2,canvas.Screen,0_2_20_1,,skipped,21,177923.8999999985,,,177923.3999999985,,177924,2021-10-28T14:27:42.623Z,177995.474,1635431069,full,ni_sequenzen,NI_Sequenzen,,,,,,,,,,,,,,
,Screen_3,canvas.Screen,0_2_20_2,,skipped,21,177924.3999999985,,,177923.3999999985,,177924.3999999985,2021-10-28T14:27:42.623Z,177995.474,1635431069,full,ni_sequenzen,NI_Sequenzen,,,,,,,,,,,,,,
,Screen_4,canvas.Screen,0_2_20_3,,skipped,21,177924.8999999985,,,177923.3999999985,,177924.8999999985,2021-10-28T14:27:42.624Z,177995.474,1635431069,full,ni_sequenzen,NI_Sequenzen,,,,,,,,,,,,,,
,Screen_5,canvas.Screen,0_2_20_4,,skipped,21,177925.3999999985,,,177923.3999999985,,177925.3999999985,2021-10-28T14:27:42.624Z,177995.474,1635431069,full,ni_sequenzen,NI_Sequenzen,,,,,,,,,,,,,,
,Screen_6,canvas.Screen,0_2_20_5,,skipped,21,177925.79999999702,,,177923.3999999985,,177925.79999999702,2021-10-28T14:27:42.625Z,177995.474,1635431069,full,ni_sequenzen,NI_Sequenzen,,,,,,,,,,,,,,
,Sequence,flow.Sequence,0_2_20,,completion,21,177923,,,177923.3999999985,,177925.8999999985,2021-10-28T14:27:42.625Z,177995.474,1635431069,full,ni_sequenzen,NI_Sequenzen,,,,,,,,,,,,,,
,Screen_1,canvas.Screen,0_2_21_0,,skipped,22,177926.59999999776,,,177926.59999999776,,177926.59999999776,2021-10-28T14:27:42.626Z,177995.474,1635431069,full,ni_sequenzen,NI_Sequenzen,,,,,,,,,,,,,,
,Screen_2,canvas.Screen,0_2_21_1,,skipped,22,177927.09999999776,,,177926.59999999776,,177927.09999999776,2021-10-28T14:27:42.626Z,177995.474,1635431069,full,ni_sequenzen,NI_Sequenzen,,,,,,,,,,,,,,
,Screen_3,canvas.Screen,0_2_21_2,,skipped,22,177927.5,,,177926.59999999776,,177927.59999999776,2021-10-28T14:27:42.627Z,177995.474,1635431069,full,ni_sequenzen,NI_Sequenzen,,,,,,,,,,,,,,
,Screen_4,canvas.Screen,0_2_21_3,,skipped,22,177928,,,177926.59999999776,,177928.09999999776,2021-10-28T14:27:42.627Z,177995.474,1635431069,full,ni_sequenzen,NI_Sequenzen,,,,,,,,,,,,,,
,Screen_5,canvas.Screen,0_2_21_4,,skipped,22,177929.59999999776,,,177926.59999999776,,177929.69999999925,2021-10-28T14:27:42.629Z,177995.474,1635431069,full,ni_sequenzen,NI_Sequenzen,,,,,,,,,,,,,,
,Screen_6,canvas.Screen,0_2_21_5,,skipped,22,177930.19999999925,,,177926.59999999776,,177930.19999999925,2021-10-28T14:27:42.629Z,177995.474,1635431069,full,ni_sequenzen,NI_Sequenzen,,,,,,,,,,,,,,
,Sequence,flow.Sequence,0_2_21,,completion,22,177926.19999999925,,,177926.59999999776,,177930.29999999702,2021-10-28T14:27:42.629Z,177995.474,1635431069,full,ni_sequenzen,NI_Sequenzen,,,,,,,,,,,,,,
,Screen_1,canvas.Screen,0_2_22_0,,skipped,23,177931.59999999776,,,177931.59999999776,,177931.69999999925,2021-10-28T14:27:42.631Z,177995.474,1635431069,full,ni_sequenzen,NI_Sequenzen,,,,,,,,,,,,,,
,Screen_2,canvas.Screen,0_2_22_1,,skipped,23,177932.5,,,177931.59999999776,,177932.59999999776,2021-10-28T14:27:42.632Z,177995.474,1635431069,full,ni_sequenzen,NI_Sequenzen,,,,,,,,,,,,,,
,Screen_3,canvas.Screen,0_2_22_2,,skipped,23,177934,,,177931.59999999776,,177934.09999999776,2021-10-28T14:27:42.633Z,177995.474,1635431069,full,ni_sequenzen,NI_Sequenzen,,,,,,,,,,,,,,
,Screen_4,canvas.Screen,0_2_22_3,,skipped,23,177934.69999999925,,,177931.59999999776,,177934.69999999925,2021-10-28T14:27:42.634Z,177995.474,1635431069,full,ni_sequenzen,NI_Sequenzen,,,,,,,,,,,,,,
,Screen_5,canvas.Screen,0_2_22_4,,skipped,23,177935.19999999925,,,177931.59999999776,,177935.19999999925,2021-10-28T14:27:42.634Z,177995.474,1635431069,full,ni_sequenzen,NI_Sequenzen,,,,,,,,,,,,,,
,Screen_6,canvas.Screen,0_2_22_5,,skipped,23,177935.59999999776,,,177931.59999999776,,177935.69999999925,2021-10-28T14:27:42.635Z,177995.474,1635431069,full,ni_sequenzen,NI_Sequenzen,,,,,,,,,,,,,,
,Sequence,flow.Sequence,0_2_22,,completion,23,177930.59999999776,,,177931.59999999776,,177935.79999999702,2021-10-28T14:27:42.635Z,177995.474,1635431069,full,ni_sequenzen,NI_Sequenzen,,,,,,,,,,,,,,
,Screen_1,canvas.Screen,0_2_23_0,,skipped,24,177936.3999999985,,,177936.3999999985,,177936.5,2021-10-28T14:27:42.635Z,177995.474,1635431069,full,ni_sequenzen,NI_Sequenzen,,,,,,,,,,,,,,
,Screen_2,canvas.Screen,0_2_23_1,,skipped,24,177936.8999999985,,,177936.3999999985,,177936.8999999985,2021-10-28T14:27:42.636Z,177995.474,1635431069,full,ni_sequenzen,NI_Sequenzen,,,,,,,,,,,,,,
,Screen_3,canvas.Screen,0_2_23_2,,skipped,24,177937.3999999985,,,177936.3999999985,,177937.3999999985,2021-10-28T14:27:42.636Z,177995.474,1635431069,full,ni_sequenzen,NI_Sequenzen,,,,,,,,,,,,,,
,Screen_4,canvas.Screen,0_2_23_3,,skipped,24,177937.79999999702,,,177936.3999999985,,177937.8999999985,2021-10-28T14:27:42.637Z,177995.474,1635431069,full,ni_sequenzen,NI_Sequenzen,,,,,,,,,,,,,,
,Screen_5,canvas.Screen,0_2_23_4,,skipped,24,177938.29999999702,,,177936.3999999985,,177938.29999999702,2021-10-28T14:27:42.637Z,177995.474,1635431069,full,ni_sequenzen,NI_Sequenzen,,,,,,,,,,,,,,
,Screen_6,canvas.Screen,0_2_23_5,,skipped,24,177938.79999999702,,,177936.3999999985,,177938.8999999985,2021-10-28T14:27:42.638Z,177995.474,1635431069,full,ni_sequenzen,NI_Sequenzen,,,,,,,,,,,,,,
,Sequence,flow.Sequence,0_2_23,,completion,24,177936,,,177936.3999999985,,177938.8999999985,2021-10-28T14:27:42.638Z,177995.474,1635431069,full,ni_sequenzen,NI_Sequenzen,,,,,,,,,,,,,,
,Screen_1,canvas.Screen,0_2_24_0,,skipped,25,177939.5,,,177939.5,,177939.59999999776,2021-10-28T14:27:42.639Z,177995.474,1635431069,full,ni_sequenzen,NI_Sequenzen,,,,,,,,,,,,,,
,Screen_2,canvas.Screen,0_2_24_1,,skipped,25,177940.59999999776,,,177939.5,,177940.69999999925,2021-10-28T14:27:42.640Z,177995.474,1635431069,full,ni_sequenzen,NI_Sequenzen,,,,,,,,,,,,,,
,Screen_3,canvas.Screen,0_2_24_2,,skipped,25,177941.29999999702,,,177939.5,,177941.3999999985,2021-10-28T14:27:42.640Z,177995.474,1635431069,full,ni_sequenzen,NI_Sequenzen,,,,,,,,,,,,,,
,Screen_4,canvas.Screen,0_2_24_3,,skipped,25,177941.69999999925,,,177939.5,,177941.79999999702,2021-10-28T14:27:42.641Z,177995.474,1635431069,full,ni_sequenzen,NI_Sequenzen,,,,,,,,,,,,,,
,Screen_5,canvas.Screen,0_2_24_4,,skipped,25,177942.19999999925,,,177939.5,,177942.29999999702,2021-10-28T14:27:42.641Z,177995.474,1635431069,full,ni_sequenzen,NI_Sequenzen,,,,,,,,,,,,,,
,Screen_6,canvas.Screen,0_2_24_5,,skipped,25,177942.69999999925,,,177939.5,,177942.69999999925,2021-10-28T14:27:42.642Z,177995.474,1635431069,full,ni_sequenzen,NI_Sequenzen,,,,,,,,,,,,,,
,Sequence,flow.Sequence,0_2_24,,completion,25,177939.09999999776,,,177939.5,,177942.79999999702,2021-10-28T14:27:42.642Z,177995.474,1635431069,full,ni_sequenzen,NI_Sequenzen,,,,,,,,,,,,,,
,Screen_1,canvas.Screen,0_2_25_0,,skipped,26,177943.3999999985,,,177943.3999999985,,177943.3999999985,2021-10-28T14:27:42.642Z,177995.474,1635431069,full,ni_sequenzen,NI_Sequenzen,,,,,,,,,,,,,,
,Screen_2,canvas.Screen,0_2_25_1,,skipped,26,177943.8999999985,,,177943.3999999985,,177944,2021-10-28T14:27:42.643Z,177995.474,1635431069,full,ni_sequenzen,NI_Sequenzen,,,,,,,,,,,,,,
,Screen_3,canvas.Screen,0_2_25_2,,skipped,26,177944.3999999985,,,177943.3999999985,,177944.3999999985,2021-10-28T14:27:42.643Z,177995.474,1635431069,full,ni_sequenzen,NI_Sequenzen,,,,,,,,,,,,,,
,Screen_4,canvas.Screen,0_2_25_3,,skipped,26,177944.8999999985,,,177943.3999999985,,177944.8999999985,2021-10-28T14:27:42.644Z,177995.474,1635431069,full,ni_sequenzen,NI_Sequenzen,,,,,,,,,,,,,,
,Screen_5,canvas.Screen,0_2_25_4,,skipped,26,177945.29999999702,,,177943.3999999985,,177945.3999999985,2021-10-28T14:27:42.644Z,177995.474,1635431069,full,ni_sequenzen,NI_Sequenzen,,,,,,,,,,,,,,
,Screen_6,canvas.Screen,0_2_25_5,,skipped,26,177945.69999999925,,,177943.3999999985,,177945.79999999702,2021-10-28T14:27:42.645Z,177995.474,1635431069,full,ni_sequenzen,NI_Sequenzen,,,,,,,,,,,,,,
,Sequence,flow.Sequence,0_2_25,,completion,26,177943.09999999776,,,177943.3999999985,,177945.79999999702,2021-10-28T14:27:42.645Z,177995.474,1635431069,full,ni_sequenzen,NI_Sequenzen,,,,,,,,,,,,,,
,Screen_1,canvas.Screen,0_2_26_0,,skipped,27,177946.5,,,177946.5,,177946.59999999776,2021-10-28T14:27:42.646Z,177995.474,1635431069,full,ni_sequenzen,NI_Sequenzen,,,,,,,,,,,,,,
,Screen_2,canvas.Screen,0_2_26_1,,skipped,27,177947,,,177946.5,,177947.19999999925,2021-10-28T14:27:42.646Z,177995.474,1635431069,full,ni_sequenzen,NI_Sequenzen,,,,,,,,,,,,,,
,Screen_3,canvas.Screen,0_2_26_2,,skipped,27,177948,,,177946.5,,177948,2021-10-28T14:27:42.647Z,177995.474,1635431069,full,ni_sequenzen,NI_Sequenzen,,,,,,,,,,,,,,
,Screen_4,canvas.Screen,0_2_26_3,,skipped,27,177949,,,177946.5,,177949.09999999776,2021-10-28T14:27:42.648Z,177995.474,1635431069,full,ni_sequenzen,NI_Sequenzen,,,,,,,,,,,,,,
,Screen_5,canvas.Screen,0_2_26_4,,skipped,27,177949.79999999702,,,177946.5,,177949.8999999985,2021-10-28T14:27:42.649Z,177995.474,1635431069,full,ni_sequenzen,NI_Sequenzen,,,,,,,,,,,,,,
,Screen_6,canvas.Screen,0_2_26_5,,skipped,27,177951,,,177946.5,,177951,2021-10-28T14:27:42.650Z,177995.474,1635431069,full,ni_sequenzen,NI_Sequenzen,,,,,,,,,,,,,,
,Sequence,flow.Sequence,0_2_26,,completion,27,177946.09999999776,,,177946.5,,177951.09999999776,2021-10-28T14:27:42.650Z,177995.474,1635431069,full,ni_sequenzen,NI_Sequenzen,,,,,,,,,,,,,,
,Screen_1,canvas.Screen,0_2_27_0,,skipped,28,177951.79999999702,,,177951.79999999702,,177951.8999999985,2021-10-28T14:27:42.651Z,177995.474,1635431069,full,ni_sequenzen,NI_Sequenzen,,,,,,,,,,,,,,
,Screen_2,canvas.Screen,0_2_27_1,,skipped,28,177952.29999999702,,,177951.79999999702,,177952.29999999702,2021-10-28T14:27:42.651Z,177995.474,1635431069,full,ni_sequenzen,NI_Sequenzen,,,,,,,,,,,,,,
,Screen_3,canvas.Screen,0_2_27_2,,skipped,28,177952.69999999925,,,177951.79999999702,,177952.79999999702,2021-10-28T14:27:42.652Z,177995.474,1635431069,full,ni_sequenzen,NI_Sequenzen,,,,,,,,,,,,,,
,Screen_4,canvas.Screen,0_2_27_3,,skipped,28,177953.19999999925,,,177951.79999999702,,177953.19999999925,2021-10-28T14:27:42.652Z,177995.474,1635431069,full,ni_sequenzen,NI_Sequenzen,,,,,,,,,,,,,,
,Screen_5,canvas.Screen,0_2_27_4,,skipped,28,177953.59999999776,,,177951.79999999702,,177953.69999999925,2021-10-28T14:27:42.653Z,177995.474,1635431069,full,ni_sequenzen,NI_Sequenzen,,,,,,,,,,,,,,
,Screen_6,canvas.Screen,0_2_27_5,,skipped,28,177954.09999999776,,,177951.79999999702,,177954.19999999925,2021-10-28T14:27:42.653Z,177995.474,1635431069,full,ni_sequenzen,NI_Sequenzen,,,,,,,,,,,,,,
,Sequence,flow.Sequence,0_2_27,,completion,28,177951.3999999985,,,177951.79999999702,,177954.19999999925,2021-10-28T14:27:42.653Z,177995.474,1635431069,full,ni_sequenzen,NI_Sequenzen,,,,,,,,,,,,,,
,Screen_1,canvas.Screen,0_2_28_0,,skipped,29,177954.8999999985,,,177954.8999999985,,177955,2021-10-28T14:27:42.654Z,177995.474,1635431069,full,ni_sequenzen,NI_Sequenzen,,,,,,,,,,,,,,
,Screen_2,canvas.Screen,0_2_28_1,,skipped,29,177955.3999999985,,,177954.8999999985,,177955.3999999985,2021-10-28T14:27:42.654Z,177995.474,1635431069,full,ni_sequenzen,NI_Sequenzen,,,,,,,,,,,,,,
,Screen_3,canvas.Screen,0_2_28_2,,skipped,29,177955.79999999702,,,177954.8999999985,,177955.79999999702,2021-10-28T14:27:42.655Z,177995.474,1635431069,full,ni_sequenzen,NI_Sequenzen,,,,,,,,,,,,,,
,Screen_4,canvas.Screen,0_2_28_3,,skipped,29,177956.29999999702,,,177954.8999999985,,177956.29999999702,2021-10-28T14:27:42.655Z,177995.474,1635431069,full,ni_sequenzen,NI_Sequenzen,,,,,,,,,,,,,,
,Screen_5,canvas.Screen,0_2_28_4,,skipped,29,177956.79999999702,,,177954.8999999985,,177956.79999999702,2021-10-28T14:27:42.656Z,177995.474,1635431069,full,ni_sequenzen,NI_Sequenzen,,,,,,,,,,,,,,
,Screen_6,canvas.Screen,0_2_28_5,,skipped,29,177957.19999999925,,,177954.8999999985,,177957.19999999925,2021-10-28T14:27:42.656Z,177995.474,1635431069,full,ni_sequenzen,NI_Sequenzen,,,,,,,,,,,,,,
,Sequence,flow.Sequence,0_2_28,,completion,29,177954.5,,,177954.8999999985,,177957.29999999702,2021-10-28T14:27:42.656Z,177995.474,1635431069,full,ni_sequenzen,NI_Sequenzen,,,,,,,,,,,,,,
,Screen_1,canvas.Screen,0_2_29_0,,skipped,30,177958,,,177958,,177958,2021-10-28T14:27:42.657Z,177995.474,1635431069,full,ni_sequenzen,NI_Sequenzen,,,,,,,,,,,,,,
,Screen_2,canvas.Screen,0_2_29_1,,skipped,30,177958.3999999985,,,177958,,177958.3999999985,2021-10-28T14:27:42.657Z,177995.474,1635431069,full,ni_sequenzen,NI_Sequenzen,,,,,,,,,,,,,,
,Screen_3,canvas.Screen,0_2_29_2,,skipped,30,177959.3999999985,,,177958,,177959.5,2021-10-28T14:27:42.658Z,177995.474,1635431069,full,ni_sequenzen,NI_Sequenzen,,,,,,,,,,,,,,
,Screen_4,canvas.Screen,0_2_29_3,,skipped,30,177959.8999999985,,,177958,,177960,2021-10-28T14:27:42.659Z,177995.474,1635431069,full,ni_sequenzen,NI_Sequenzen,,,,,,,,,,,,,,
,Screen_5,canvas.Screen,0_2_29_4,,skipped,30,177960.3999999985,,,177958,,177960.3999999985,2021-10-28T14:27:42.659Z,177995.474,1635431069,full,ni_sequenzen,NI_Sequenzen,,,,,,,,,,,,,,
,Screen_6,canvas.Screen,0_2_29_5,,skipped,30,177960.79999999702,,,177958,,177960.79999999702,2021-10-28T14:27:42.660Z,177995.474,1635431069,full,ni_sequenzen,NI_Sequenzen,,,,,,,,,,,,,,
,Sequence,flow.Sequence,0_2_29,,completion,30,177957.5,,,177958,,177961,2021-10-28T14:27:42.660Z,177995.474,1635431069,full,ni_sequenzen,NI_Sequenzen,,,,,,,,,,,,,,
,Instructions_II,flow.Loop,0_2,,completion,,113517.39999999851,113518.352,113537.204,177958,64420.796,177961,2021-10-28T14:27:42.660Z,177995.474,1635431069,full,ni_sequenzen,NI_Sequenzen,,,,,,,,,,,,,,
,Move,canvas.Screen,0_3_0_0_0_0,down,response,,177985.59999999776,177971.544,177995.474,185308.09999999776,7312.625999997777,185308.8999999985,2021-10-28T14:27:50.008Z,185326.844,1635431069,full,ni_sequenzen,NI_Sequenzen,1,0,,,,,,,,,,,,
,Move,canvas.Screen,0_3_0_0_0_1,left,response,,185319.5,185311.898,185326.844,186708.29999999702,1381.455999997008,186708.8999999985,2021-10-28T14:27:51.408Z,186729.187,1635431069,full,ni_sequenzen,NI_Sequenzen,2,0,,,,,,,,,,,,
,Move,canvas.Screen,0_3_0_0_0_2,down,response,,186712.59999999776,186709.856,186729.187,188885.69999999925,2156.5129999992496,188886.5,2021-10-28T14:27:53.585Z,188900.095,1635431069,full,ni_sequenzen,NI_Sequenzen,3,0,,,,,,,,,,,,
,Move,canvas.Screen,0_3_0_0_0_3,left,response,,188891.59999999776,188879.225,188900.095,189156.3999999985,256.3049999985087,189157.19999999925,2021-10-28T14:27:53.856Z,189218.105,1635431069,full,ni_sequenzen,NI_Sequenzen,4,0,,,,,,,,,,,,
,Move,canvas.Screen,0_3_0_0_0_4,-999,skipped,,189160.19999999925,,,189156.3999999985,,189160.3999999985,2021-10-28T14:27:53.859Z,189218.105,1635431069,full,ni_sequenzen,NI_Sequenzen,5,0,,,,,,,,,,,,
,Move,canvas.Screen,0_3_0_0_0_5,-999,skipped,,189163.8999999985,,,189156.3999999985,,189164.09999999776,2021-10-28T14:27:53.863Z,189218.105,1635431069,full,ni_sequenzen,NI_Sequenzen,6,0,,,,,,,,,,,,
,Move,canvas.Screen,0_3_0_0_0_6,-999,skipped,,189168.29999999702,,,189156.3999999985,,189168.5,2021-10-28T14:27:53.867Z,189218.105,1635431069,full,ni_sequenzen,NI_Sequenzen,7,0,,,,,,,,,,,,
,Move,canvas.Screen,0_3_0_0_0_7,-999,skipped,,189171.59999999776,,,189156.3999999985,,189171.79999999702,2021-10-28T14:27:53.871Z,189218.105,1635431069,full,ni_sequenzen,NI_Sequenzen,8,0,,,,,,,,,,,,
,Move,canvas.Screen,0_3_0_0_0_8,-999,skipped,,189176.09999999776,,,189156.3999999985,,189176.09999999776,2021-10-28T14:27:53.875Z,189218.105,1635431069,full,ni_sequenzen,NI_Sequenzen,9,0,,,,,,,,,,,,
,Move,canvas.Screen,0_3_0_0_0_9,-999,skipped,,189180.3999999985,,,189156.3999999985,,189180.59999999776,2021-10-28T14:27:53.880Z,189218.105,1635431069,full,ni_sequenzen,NI_Sequenzen,10,0,,,,,,,,,,,,
,Move,canvas.Screen,0_3_0_0_0_10,-999,skipped,,189185.69999999925,,,189156.3999999985,,189185.79999999702,2021-10-28T14:27:53.885Z,189218.105,1635431069,full,ni_sequenzen,NI_Sequenzen,11,0,,,,,,,,,,,,
,Move,canvas.Screen,0_3_0_0_0_11,-999,skipped,,189189.09999999776,,,189156.3999999985,,189189.19999999925,2021-10-28T14:27:53.888Z,189218.105,1635431069,full,ni_sequenzen,NI_Sequenzen,12,0,,,,,,,,,,,,
,Move,canvas.Screen,0_3_0_0_0_12,-999,skipped,,189193.19999999925,,,189156.3999999985,,189193.29999999702,2021-10-28T14:27:53.892Z,189218.105,1635431069,full,ni_sequenzen,NI_Sequenzen,13,0,,,,,,,,,,,,
,Move,canvas.Screen,0_3_0_0_0_13,-999,skipped,,189195.19999999925,,,189156.3999999985,,189195.29999999702,2021-10-28T14:27:53.894Z,189218.105,1635431069,full,ni_sequenzen,NI_Sequenzen,14,0,,,,,,,,,,,,
,Move,canvas.Screen,0_3_0_0_0_14,-999,skipped,,189197.5,,,189156.3999999985,,189197.5,2021-10-28T14:27:53.897Z,189218.105,1635431069,full,ni_sequenzen,NI_Sequenzen,15,0,,,,,,,,,,,,
,Loop,flow.Loop,0_3_0_0_0,-999,completion,,177981.19999999925,177971.544,177995.474,189156.3999999985,11160.925999998522,189197.59999999776,2021-10-28T14:27:53.897Z,189218.105,1635431069,full,ni_sequenzen,NI_Sequenzen,,0,,,,,,,,,,,,
,Feedback,canvas.Screen,0_3_0_0_1,,timeout,,189199.5,189183.515,189218.105,193208.549,4007.122000000003,193209.3999999985,2021-10-28T14:27:57.908Z,193225.227,1635431069,full,ni_sequenzen,NI_Sequenzen,,0,,,,,,,,,,,,
,Trial,flow.Sequence,0_3_0_0,,completion,,177973,177971.544,177995.474,193208.549,15213.075000000012,193209.59999999776,2021-10-28T14:27:57.909Z,193243.043,1635431069,full,ni_sequenzen,NI_Sequenzen,,0,,,,,,,,,,,,
,Move,canvas.Screen,0_3_0_1_0_0,right,response,,193232.09999999776,193225.227,193243.043,199118.3999999985,5875.356999998505,199119.29999999702,2021-10-28T14:28:03.818Z,199136.748,1635431069,full,ni_sequenzen,NI_Sequenzen,1,1,,,,,,,,,,,,
,Move,canvas.Screen,0_3_0_1_0_1,left,response,,199123.19999999925,199108.409,199136.748,199677.09999999776,540.3519999977725,199677.69999999925,2021-10-28T14:28:04.377Z,199687.824,1635431069,full,ni_sequenzen,NI_Sequenzen,2,1,,,,,,,,,,,,
,Move,canvas.Screen,0_3_0_1_0_2,down,response,,199681.5,199670.184,199687.824,201949.09999999776,2261.2759999977716,201949.59999999776,2021-10-28T14:28:06.649Z,201975.679,1635431069,full,ni_sequenzen,NI_Sequenzen,3,1,,,,,,,,,,,,
,Move,canvas.Screen,0_3_0_1_0_3,down,response,,201954.29999999702,201959.157,201975.679,203413.3999999985,1437.7209999985062,203414.5,2021-10-28T14:28:08.113Z,203428.436,1635431069,full,ni_sequenzen,NI_Sequenzen,4,1,,,,,,,,,,,,
,Move,canvas.Screen,0_3_0_1_0_4,left,response,,203418.5,203408.992,203428.436,209398.8999999985,5970.463999998523,209399.79999999702,2021-10-28T14:28:14.099Z,209456.863,1635431069,full,ni_sequenzen,NI_Sequenzen,5,1,,,,,,,,,,,,
,Move,canvas.Screen,0_3_0_1_0_5,-999,skipped,,209404,,,209398.8999999985,,209404.19999999925,2021-10-28T14:28:14.103Z,209456.863,1635431069,full,ni_sequenzen,NI_Sequenzen,6,1,,,,,,,,,,,,
,Move,canvas.Screen,0_3_0_1_0_6,-999,skipped,,209408,,,209398.8999999985,,209408.09999999776,2021-10-28T14:28:14.107Z,209456.863,1635431069,full,ni_sequenzen,NI_Sequenzen,7,1,,,,,,,,,,,,
,Move,canvas.Screen,0_3_0_1_0_7,-999,skipped,,209411.5,,,209398.8999999985,,209411.59999999776,2021-10-28T14:28:14.111Z,209456.863,1635431069,full,ni_sequenzen,NI_Sequenzen,8,1,,,,,,,,,,,,
,Move,canvas.Screen,0_3_0_1_0_8,-999,skipped,,209414.79999999702,,,209398.8999999985,,209414.8999999985,2021-10-28T14:28:14.114Z,209456.863,1635431069,full,ni_sequenzen,NI_Sequenzen,9,1,,,,,,,,,,,,
,Move,canvas.Screen,0_3_0_1_0_9,-999,skipped,,209419.5,,,209398.8999999985,,209419.69999999925,2021-10-28T14:28:14.119Z,209456.863,1635431069,full,ni_sequenzen,NI_Sequenzen,10,1,,,,,,,,,,,,
,Move,canvas.Screen,0_3_0_1_0_10,-999,skipped,,209422.69999999925,,,209398.8999999985,,209422.8999999985,2021-10-28T14:28:14.122Z,209456.863,1635431069,full,ni_sequenzen,NI_Sequenzen,11,1,,,,,,,,,,,,
,Move,canvas.Screen,0_3_0_1_0_11,-999,skipped,,209425.59999999776,,,209398.8999999985,,209425.69999999925,2021-10-28T14:28:14.125Z,209456.863,1635431069,full,ni_sequenzen,NI_Sequenzen,12,1,,,,,,,,,,,,
,Move,canvas.Screen,0_3_0_1_0_12,-999,skipped,,209429.19999999925,,,209398.8999999985,,209429.3999999985,2021-10-28T14:28:14.128Z,209456.863,1635431069,full,ni_sequenzen,NI_Sequenzen,13,1,,,,,,,,,,,,
,Move,canvas.Screen,0_3_0_1_0_13,-999,skipped,,209432.69999999925,,,209398.8999999985,,209433,2021-10-28T14:28:14.132Z,209456.863,1635431069,full,ni_sequenzen,NI_Sequenzen,14,1,,,,,,,,,,,,
,Move,canvas.Screen,0_3_0_1_0_14,-999,skipped,,209437.5,,,209398.8999999985,,209437.59999999776,2021-10-28T14:28:14.137Z,209456.863,1635431069,full,ni_sequenzen,NI_Sequenzen,15,1,,,,,,,,,,,,
,Loop,flow.Loop,0_3_0_1_0,-999,completion,,193227.29999999702,193225.227,193243.043,209398.8999999985,16155.856999998505,209437.8999999985,2021-10-28T14:28:14.137Z,209456.863,1635431069,full,ni_sequenzen,NI_Sequenzen,,1,,,,,,,,,,,,
,Feedback,canvas.Screen,0_3_0_1_1,,timeout,,209440.59999999776,209428.304,209456.863,213448.049,4007.8619999999937,213448.59999999776,2021-10-28T14:28:18.147Z,213464.725,1635431069,full,ni_sequenzen,NI_Sequenzen,,1,,,,,,,,,,,,
,Trial,flow.Sequence,0_3_0_1,,completion,,193209.8999999985,193225.227,193243.043,213448.049,20205.005999999994,213448.69999999925,2021-10-28T14:28:18.147Z,213481.43,1635431069,full,ni_sequenzen,NI_Sequenzen,,1,,,,,,,,,,,,
,Move,canvas.Screen,0_3_0_2_0_0,right,response,,213469.8999999985,213464.725,213481.43,215238.09999999776,1756.6699999977718,215238.8999999985,2021-10-28T14:28:19.937Z,215251.522,1635431069,full,ni_sequenzen,NI_Sequenzen,1,2,,,,,,,,,,,,
,Move,canvas.Screen,0_3_0_2_0_1,down,response,,215242.3999999985,215231.446,215251.522,216622.09999999776,1370.5779999977676,216622.8999999985,2021-10-28T14:28:21.321Z,216637.548,1635431069,full,ni_sequenzen,NI_Sequenzen,2,2,,,,,,,,,,,,
,Move,canvas.Screen,0_3_0_2_0_2,right,response,,216626.5,216618.24,216637.548,217590.29999999702,952.75199999701,217591,2021-10-28T14:28:22.289Z,217606.147,1635431069,full,ni_sequenzen,NI_Sequenzen,3,2,,,,,,,,,,,,
,Move,canvas.Screen,0_3_0_2_0_3,down,response,,217594.29999999702,217587.678,217606.147,220311.8999999985,2705.7529999985127,220313.69999999925,2021-10-28T14:28:25.012Z,220361.498,1635431069,full,ni_sequenzen,NI_Sequenzen,4,2,,,,,,,,,,,,
,Move,canvas.Screen,0_3_0_2_0_4,-999,skipped,,220317.59999999776,,,220311.8999999985,,220317.69999999925,2021-10-28T14:28:25.016Z,220361.498,1635431069,full,ni_sequenzen,NI_Sequenzen,5,2,,,,,,,,,,,,
,Move,canvas.Screen,0_3_0_2_0_5,-999,skipped,,220321.29999999702,,,220311.8999999985,,220321.3999999985,2021-10-28T14:28:25.020Z,220361.498,1635431069,full,ni_sequenzen,NI_Sequenzen,6,2,,,,,,,,,,,,
,Move,canvas.Screen,0_3_0_2_0_6,-999,skipped,,220324.69999999925,,,220311.8999999985,,220324.79999999702,2021-10-28T14:28:25.023Z,220361.498,1635431069,full,ni_sequenzen,NI_Sequenzen,7,2,,,,,,,,,,,,
,Move,canvas.Screen,0_3_0_2_0_7,-999,skipped,,220327.5,,,220311.8999999985,,220327.59999999776,2021-10-28T14:28:25.026Z,220361.498,1635431069,full,ni_sequenzen,NI_Sequenzen,8,2,,,,,,,,,,,,
,Move,canvas.Screen,0_3_0_2_0_8,-999,skipped,,220331.69999999925,,,220311.8999999985,,220331.8999999985,2021-10-28T14:28:25.030Z,220361.498,1635431069,full,ni_sequenzen,NI_Sequenzen,9,2,,,,,,,,,,,,
,Move,canvas.Screen,0_3_0_2_0_9,-999,skipped,,220334.69999999925,,,220311.8999999985,,220334.79999999702,2021-10-28T14:28:25.033Z,220361.498,1635431069,full,ni_sequenzen,NI_Sequenzen,10,2,,,,,,,,,,,,
,Move,canvas.Screen,0_3_0_2_0_10,-999,skipped,,220337.5,,,220311.8999999985,,220337.69999999925,2021-10-28T14:28:25.036Z,220361.498,1635431069,full,ni_sequenzen,NI_Sequenzen,11,2,,,,,,,,,,,,
,Move,canvas.Screen,0_3_0_2_0_11,-999,skipped,,220340.3999999985,,,220311.8999999985,,220340.5,2021-10-28T14:28:25.039Z,220361.498,1635431069,full,ni_sequenzen,NI_Sequenzen,12,2,,,,,,,,,,,,
,Move,canvas.Screen,0_3_0_2_0_12,-999,skipped,,220343.8999999985,,,220311.8999999985,,220344.09999999776,2021-10-28T14:28:25.043Z,220361.498,1635431069,full,ni_sequenzen,NI_Sequenzen,13,2,,,,,,,,,,,,
,Move,canvas.Screen,0_3_0_2_0_13,-999,skipped,,220347.3999999985,,,220311.8999999985,,220347.5,2021-10-28T14:28:25.046Z,220361.498,1635431069,full,ni_sequenzen,NI_Sequenzen,14,2,,,,,,,,,,,,
,Move,canvas.Screen,0_3_0_2_0_14,-999,skipped,,220350.3999999985,,,220311.8999999985,,220350.5,2021-10-28T14:28:25.049Z,220361.498,1635431069,full,ni_sequenzen,NI_Sequenzen,15,2,,,,,,,,,,,,
,Loop,flow.Loop,0_3_0_2_0,-999,completion,,213466.69999999925,213464.725,213481.43,220311.8999999985,6830.469999998517,220350.59999999776,2021-10-28T14:28:25.049Z,220361.498,1635431069,full,ni_sequenzen,NI_Sequenzen,,2,,,,,,,,,,,,
,Feedback,canvas.Screen,0_3_0_2_1,,timeout,,220353.69999999925,220339.539,220361.498,224352.63,4007.8310000000056,224353.09999999776,2021-10-28T14:28:29.052Z,224369.329,1635431069,full,ni_sequenzen,NI_Sequenzen,,2,,,,,,,,,,,,
,Trial,flow.Sequence,0_3_0_2,,completion,,213449.09999999776,213464.725,213481.43,224352.63,10871.200000000012,224353.59999999776,2021-10-28T14:28:29.052Z,224386.019,1635431069,full,ni_sequenzen,NI_Sequenzen,,2,,,,,,,,,,,,
,Move,canvas.Screen,0_3_0_3_0_0,down,response,,224375.69999999925,224369.329,224386.019,230207,5820.981,230207.79999999702,2021-10-28T14:28:34.906Z,230214.083,1635431069,full,ni_sequenzen,NI_Sequenzen,1,3,,,,,,,,,,,,
,Move,canvas.Screen,0_3_0_3_0_1,left,response,,230211,230202.529,230214.083,230816.3999999985,602.3169999984966,230817.19999999925,2021-10-28T14:28:35.516Z,230831.951,1635431069,full,ni_sequenzen,NI_Sequenzen,2,3,,,,,,,,,,,,
,Move,canvas.Screen,0_3_0_3_0_2,down,response,,230821.09999999776,230814.108,230831.951,231791.29999999702,959.3489999970188,231792.09999999776,2021-10-28T14:28:36.491Z,231800.54,1635431069,full,ni_sequenzen,NI_Sequenzen,3,3,,,,,,,,,,,,
,Move,canvas.Screen,0_3_0_3_0_3,left,response,,231794.69999999925,231782.026,231800.54,232087.09999999776,286.5599999977567,232087.79999999702,2021-10-28T14:28:36.786Z,232134.446,1635431069,full,ni_sequenzen,NI_Sequenzen,4,3,,,,,,,,,,,,
,Move,canvas.Screen,0_3_0_3_0_4,-999,skipped,,232091.59999999776,,,232087.09999999776,,232091.69999999925,2021-10-28T14:28:36.790Z,232134.446,1635431069,full,ni_sequenzen,NI_Sequenzen,5,3,,,,,,,,,,,,
,Move,canvas.Screen,0_3_0_3_0_5,-999,skipped,,232095.8999999985,,,232087.09999999776,,232096,2021-10-28T14:28:36.794Z,232134.446,1635431069,full,ni_sequenzen,NI_Sequenzen,6,3,,,,,,,,,,,,
,Move,canvas.Screen,0_3_0_3_0_6,-999,skipped,,232099.5,,,232087.09999999776,,232099.69999999925,2021-10-28T14:28:36.798Z,232134.446,1635431069,full,ni_sequenzen,NI_Sequenzen,7,3,,,,,,,,,,,,
,Move,canvas.Screen,0_3_0_3_0_7,-999,skipped,,232103,,,232087.09999999776,,232103.09999999776,2021-10-28T14:28:36.802Z,232134.446,1635431069,full,ni_sequenzen,NI_Sequenzen,8,3,,,,,,,,,,,,
,Move,canvas.Screen,0_3_0_3_0_8,-999,skipped,,232106.3999999985,,,232087.09999999776,,232106.5,2021-10-28T14:28:36.805Z,232134.446,1635431069,full,ni_sequenzen,NI_Sequenzen,9,3,,,,,,,,,,,,
,Move,canvas.Screen,0_3_0_3_0_9,-999,skipped,,232110,,,232087.09999999776,,232110.09999999776,2021-10-28T14:28:36.809Z,232134.446,1635431069,full,ni_sequenzen,NI_Sequenzen,10,3,,,,,,,,,,,,
,Move,canvas.Screen,0_3_0_3_0_10,-999,skipped,,232113.29999999702,,,232087.09999999776,,232113.3999999985,2021-10-28T14:28:36.812Z,232134.446,1635431069,full,ni_sequenzen,NI_Sequenzen,11,3,,,,,,,,,,,,
,Move,canvas.Screen,0_3_0_3_0_11,-999,skipped,,232116.19999999925,,,232087.09999999776,,232116.29999999702,2021-10-28T14:28:36.815Z,232134.446,1635431069,full,ni_sequenzen,NI_Sequenzen,12,3,,,,,,,,,,,,
,Move,canvas.Screen,0_3_0_3_0_12,-999,skipped,,232120.59999999776,,,232087.09999999776,,232120.79999999702,2021-10-28T14:28:36.819Z,232134.446,1635431069,full,ni_sequenzen,NI_Sequenzen,13,3,,,,,,,,,,,,
,Move,canvas.Screen,0_3_0_3_0_13,-999,skipped,,232123.8999999985,,,232087.09999999776,,232124,2021-10-28T14:28:36.822Z,232134.446,1635431069,full,ni_sequenzen,NI_Sequenzen,14,3,,,,,,,,,,,,
,Move,canvas.Screen,0_3_0_3_0_14,-999,skipped,,232125.8999999985,,,232087.09999999776,,232125.8999999985,2021-10-28T14:28:36.824Z,232134.446,1635431069,full,ni_sequenzen,NI_Sequenzen,15,3,,,,,,,,,,,,
,Loop,flow.Loop,0_3_0_3_0,-999,completion,,224372.5,224369.329,224386.019,232087.09999999776,7701.080999997765,232126,2021-10-28T14:28:36.824Z,232134.446,1635431069,full,ni_sequenzen,NI_Sequenzen,,3,,,,,,,,,,,,
,Feedback,canvas.Screen,0_3_0_3_1,,timeout,,232127.09999999776,232117.256,232134.446,236125.772,4007.887000000017,236126.29999999702,2021-10-28T14:28:40.825Z,236142.333,1635431069,full,ni_sequenzen,NI_Sequenzen,,3,,,,,,,,,,,,
,Trial,flow.Sequence,0_3_0_3,,completion,,224353.8999999985,224369.329,224386.019,236125.772,11739.752999999997,236126.5,2021-10-28T14:28:40.825Z,236159.039,1635431069,full,ni_sequenzen,NI_Sequenzen,,3,,,,,,,,,,,,
,Move,canvas.Screen,0_3_0_4_0_0,right,response,,236147.69999999925,236142.333,236159.039,237967.69999999925,1808.6609999992652,237968.3999999985,2021-10-28T14:28:42.667Z,237979.244,1635431069,full,ni_sequenzen,NI_Sequenzen,1,4,,,,,,,,,,,,
,Move,canvas.Screen,0_3_0_4_0_1,down,response,,237972.3999999985,237959.07,237979.244,239479.79999999702,1500.5559999970137,239480.3999999985,2021-10-28T14:28:44.179Z,239498.853,1635431069,full,ni_sequenzen,NI_Sequenzen,2,4,,,,,,,,,,,,
,Move,canvas.Screen,0_3_0_4_0_2,right,response,,239483.79999999702,239479.262,239498.853,240263.69999999925,764.8469999992521,240264.29999999702,2021-10-28T14:28:44.963Z,240283.746,1635431069,full,ni_sequenzen,NI_Sequenzen,3,4,,,,,,,,,,,,
,Move,canvas.Screen,0_3_0_4_0_3,down,response,,240267.5,240265.585,240283.746,240791.8999999985,508.15399999849615,240792.59999999776,2021-10-28T14:28:45.491Z,240834.763,1635431069,full,ni_sequenzen,NI_Sequenzen,4,4,,,,,,,,,,,,
,Move,canvas.Screen,0_3_0_4_0_4,-999,skipped,,240796.09999999776,,,240791.8999999985,,240796.29999999702,2021-10-28T14:28:45.495Z,240834.763,1635431069,full,ni_sequenzen,NI_Sequenzen,5,4,,,,,,,,,,,,
,Move,canvas.Screen,0_3_0_4_0_5,-999,skipped,,240799.8999999985,,,240791.8999999985,,240800,2021-10-28T14:28:45.498Z,240834.763,1635431069,full,ni_sequenzen,NI_Sequenzen,6,4,,,,,,,,,,,,
,Move,canvas.Screen,0_3_0_4_0_6,-999,skipped,,240802.8999999985,,,240791.8999999985,,240802.8999999985,2021-10-28T14:28:45.501Z,240834.763,1635431069,full,ni_sequenzen,NI_Sequenzen,7,4,,,,,,,,,,,,
,Move,canvas.Screen,0_3_0_4_0_7,-999,skipped,,240805.69999999925,,,240791.8999999985,,240805.79999999702,2021-10-28T14:28:45.504Z,240834.763,1635431069,full,ni_sequenzen,NI_Sequenzen,8,4,,,,,,,,,,,,
,Move,canvas.Screen,0_3_0_4_0_8,-999,skipped,,240810.19999999925,,,240791.8999999985,,240810.29999999702,2021-10-28T14:28:45.509Z,240834.763,1635431069,full,ni_sequenzen,NI_Sequenzen,9,4,,,,,,,,,,,,
,Move,canvas.Screen,0_3_0_4_0_9,-999,skipped,,240813.3999999985,,,240791.8999999985,,240813.59999999776,2021-10-28T14:28:45.512Z,240834.763,1635431069,full,ni_sequenzen,NI_Sequenzen,10,4,,,,,,,,,,,,
,Move,canvas.Screen,0_3_0_4_0_10,-999,skipped,,240817,,,240791.8999999985,,240817.09999999776,2021-10-28T14:28:45.516Z,240834.763,1635431069,full,ni_sequenzen,NI_Sequenzen,11,4,,,,,,,,,,,,
,Move,canvas.Screen,0_3_0_4_0_11,-999,skipped,,240820.69999999925,,,240791.8999999985,,240820.8999999985,2021-10-28T14:28:45.519Z,240834.763,1635431069,full,ni_sequenzen,NI_Sequenzen,12,4,,,,,,,,,,,,
,Move,canvas.Screen,0_3_0_4_0_12,-999,skipped,,240824.3999999985,,,240791.8999999985,,240824.5,2021-10-28T14:28:45.523Z,240834.763,1635431069,full,ni_sequenzen,NI_Sequenzen,13,4,,,,,,,,,,,,
,Move,canvas.Screen,0_3_0_4_0_13,-999,skipped,,240826.09999999776,,,240791.8999999985,,240826.09999999776,2021-10-28T14:28:45.525Z,240834.763,1635431069,full,ni_sequenzen,NI_Sequenzen,14,4,,,,,,,,,,,,
,Move,canvas.Screen,0_3_0_4_0_14,-999,skipped,,240827.29999999702,,,240791.8999999985,,240827.29999999702,2021-10-28T14:28:45.526Z,240834.763,1635431069,full,ni_sequenzen,NI_Sequenzen,15,4,,,,,,,,,,,,
,Loop,flow.Loop,0_3_0_4_0,-999,completion,,236143.8999999985,236142.333,236159.039,240791.8999999985,4632.86099999852,240827.3999999985,2021-10-28T14:28:45.526Z,240834.763,1635431069,full,ni_sequenzen,NI_Sequenzen,,4,,,,,,,,,,,,
,Feedback,canvas.Screen,0_3_0_4_1,,timeout,,240829.69999999925,240817.093,240834.763,244825.992,4007.872000000003,244826.5,2021-10-28T14:28:49.525Z,244842.635,1635431069,full,ni_sequenzen,NI_Sequenzen,,4,,,,,,,,,,,,
,Trial,flow.Sequence,0_3_0_4,,completion,,236127,236142.333,236159.039,244825.992,8666.953000000009,244826.69999999925,2021-10-28T14:28:49.525Z,244859.336,1635431069,full,ni_sequenzen,NI_Sequenzen,,4,,,,,,,,,,,,
,Move,canvas.Screen,0_3_0_5_0_0,left,response,,244846.3999999985,244842.635,244859.336,247305.5,2446.1639999999898,247306.3999999985,2021-10-28T14:28:52.005Z,247314.44,1635431069,full,ni_sequenzen,NI_Sequenzen,1,5,,,,,,,,,,,,
,Move,canvas.Screen,0_3_0_5_0_1,down,response,,247310.79999999702,247309.332,247314.44,248040.29999999702,725.8599999970174,248041,2021-10-28T14:28:52.739Z,248049.016,1635431069,full,ni_sequenzen,NI_Sequenzen,2,5,,,,,,,,,,,,
,Move,canvas.Screen,0_3_0_5_0_2,down,response,,248044.09999999776,248030.844,248049.016,248792.3999999985,743.3839999985066,248793.09999999776,2021-10-28T14:28:53.492Z,248800.586,1635431069,full,ni_sequenzen,NI_Sequenzen,3,5,,,,,,,,,,,,
,Move,canvas.Screen,0_3_0_5_0_3,left,response,,248797,248782.307,248800.586,249144.29999999702,343.7139999970095,249145.09999999776,2021-10-28T14:28:53.844Z,249184.409,1635431069,full,ni_sequenzen,NI_Sequenzen,4,5,,,,,,,,,,,,
,Move,canvas.Screen,0_3_0_5_0_4,-999,skipped,,249150.09999999776,,,249144.29999999702,,249150.19999999925,2021-10-28T14:28:53.849Z,249184.409,1635431069,full,ni_sequenzen,NI_Sequenzen,5,5,,,,,,,,,,,,
,Move,canvas.Screen,0_3_0_5_0_5,-999,skipped,,249154.3999999985,,,249144.29999999702,,249154.5,2021-10-28T14:28:53.853Z,249184.409,1635431069,full,ni_sequenzen,NI_Sequenzen,6,5,,,,,,,,,,,,
,Move,canvas.Screen,0_3_0_5_0_6,-999,skipped,,249158,,,249144.29999999702,,249158.19999999925,2021-10-28T14:28:53.857Z,249184.409,1635431069,full,ni_sequenzen,NI_Sequenzen,7,5,,,,,,,,,,,,
,Move,canvas.Screen,0_3_0_5_0_7,-999,skipped,,249161.29999999702,,,249144.29999999702,,249161.5,2021-10-28T14:28:53.860Z,249184.409,1635431069,full,ni_sequenzen,NI_Sequenzen,8,5,,,,,,,,,,,,
,Move,canvas.Screen,0_3_0_5_0_8,-999,skipped,,249165,,,249144.29999999702,,249165.19999999925,2021-10-28T14:28:53.864Z,249184.409,1635431069,full,ni_sequenzen,NI_Sequenzen,9,5,,,,,,,,,,,,
,Move,canvas.Screen,0_3_0_5_0_9,-999,skipped,,249166.3999999985,,,249144.29999999702,,249166.5,2021-10-28T14:28:53.865Z,249184.409,1635431069,full,ni_sequenzen,NI_Sequenzen,10,5,,,,,,,,,,,,
,Move,canvas.Screen,0_3_0_5_0_10,-999,skipped,,249168.09999999776,,,249144.29999999702,,249168.09999999776,2021-10-28T14:28:53.867Z,249184.409,1635431069,full,ni_sequenzen,NI_Sequenzen,11,5,,,,,,,,,,,,
,Move,canvas.Screen,0_3_0_5_0_11,-999,skipped,,249169.3999999985,,,249144.29999999702,,249169.3999999985,2021-10-28T14:28:53.868Z,249184.409,1635431069,full,ni_sequenzen,NI_Sequenzen,12,5,,,,,,,,,,,,
,Move,canvas.Screen,0_3_0_5_0_12,-999,skipped,,249170.8999999985,,,249144.29999999702,,249171,2021-10-28T14:28:53.869Z,249184.409,1635431069,full,ni_sequenzen,NI_Sequenzen,13,5,,,,,,,,,,,,
,Move,canvas.Screen,0_3_0_5_0_13,-999,skipped,,249172.69999999925,,,249144.29999999702,,249172.69999999925,2021-10-28T14:28:53.871Z,249184.409,1635431069,full,ni_sequenzen,NI_Sequenzen,14,5,,,,,,,,,,,,
,Move,canvas.Screen,0_3_0_5_0_14,-999,skipped,,249173.8999999985,,,249144.29999999702,,249174,2021-10-28T14:28:53.872Z,249184.409,1635431069,full,ni_sequenzen,NI_Sequenzen,15,5,,,,,,,,,,,,
,Loop,flow.Loop,0_3_0_5_0,-999,completion,,244841.8999999985,244842.635,244859.336,249144.29999999702,4284.9639999970095,249174.09999999776,2021-10-28T14:28:53.873Z,249184.409,1635431069,full,ni_sequenzen,NI_Sequenzen,,5,,,,,,,,,,,,
,Feedback,canvas.Screen,0_3_0_5_1,,timeout,,249175.19999999925,249167.08,249184.409,253175.585,4007.853999999992,253176.09999999776,2021-10-28T14:28:57.875Z,253192.263,1635431069,full,ni_sequenzen,NI_Sequenzen,,5,,,,,,,,,,,,
,Trial,flow.Sequence,0_3_0_5,,completion,,244827,244842.635,244859.336,253175.585,8316.248999999982,253176.19999999925,2021-10-28T14:28:57.875Z,253209.075,1635431069,full,ni_sequenzen,NI_Sequenzen,,5,,,,,,,,,,,,
,Move,canvas.Screen,0_3_0_6_0_0,right,response,,253198.09999999776,253192.263,253209.075,256000.79999999702,2791.724999997008,256001.5,2021-10-28T14:29:00.700Z,256014.41,1635431069,full,ni_sequenzen,NI_Sequenzen,1,6,,,,,,,,,,,,
,Move,canvas.Screen,0_3_0_6_0_1,down,response,,256004.59999999776,255992.482,256014.41,256632.8999999985,618.4899999985064,256633.59999999776,2021-10-28T14:29:01.332Z,256649.224,1635431069,full,ni_sequenzen,NI_Sequenzen,2,6,,,,,,,,,,,,
,Move,canvas.Screen,0_3_0_6_0_2,down,response,,256638.19999999925,256631.147,256649.224,257080.8999999985,431.67599999852246,257081.59999999776,2021-10-28T14:29:01.780Z,257099.886,1635431069,full,ni_sequenzen,NI_Sequenzen,3,6,,,,,,,,,,,,
,Move,canvas.Screen,0_3_0_6_0_3,right,response,,257084.69999999925,257082.499,257099.886,257946.29999999702,846.4139999970212,257947.09999999776,2021-10-28T14:29:02.646Z,258001.618,1635431069,full,ni_sequenzen,NI_Sequenzen,4,6,,,,,,,,,,,,
,Move,canvas.Screen,0_3_0_6_0_4,-999,skipped,,257950.79999999702,,,257946.29999999702,,257950.8999999985,2021-10-28T14:29:02.649Z,258001.618,1635431069,full,ni_sequenzen,NI_Sequenzen,5,6,,,,,,,,,,,,
,Move,canvas.Screen,0_3_0_6_0_5,-999,skipped,,257955.69999999925,,,257946.29999999702,,257955.8999999985,2021-10-28T14:29:02.654Z,258001.618,1635431069,full,ni_sequenzen,NI_Sequenzen,6,6,,,,,,,,,,,,
,Move,canvas.Screen,0_3_0_6_0_6,-999,skipped,,257959.29999999702,,,257946.29999999702,,257959.5,2021-10-28T14:29:02.658Z,258001.618,1635431069,full,ni_sequenzen,NI_Sequenzen,7,6,,,,,,,,,,,,
,Move,canvas.Screen,0_3_0_6_0_7,-999,skipped,,257963.69999999925,,,257946.29999999702,,257963.79999999702,2021-10-28T14:29:02.662Z,258001.618,1635431069,full,ni_sequenzen,NI_Sequenzen,8,6,,,,,,,,,,,,
,Move,canvas.Screen,0_3_0_6_0_8,-999,skipped,,257967.09999999776,,,257946.29999999702,,257967.19999999925,2021-10-28T14:29:02.666Z,258001.618,1635431069,full,ni_sequenzen,NI_Sequenzen,9,6,,,,,,,,,,,,
,Move,canvas.Screen,0_3_0_6_0_9,-999,skipped,,257971.29999999702,,,257946.29999999702,,257971.3999999985,2021-10-28T14:29:02.670Z,258001.618,1635431069,full,ni_sequenzen,NI_Sequenzen,10,6,,,,,,,,,,,,
,Move,canvas.Screen,0_3_0_6_0_10,-999,skipped,,257975.3999999985,,,257946.29999999702,,257975.59999999776,2021-10-28T14:29:02.674Z,258001.618,1635431069,full,ni_sequenzen,NI_Sequenzen,11,6,,,,,,,,,,,,
,Move,canvas.Screen,0_3_0_6_0_11,-999,skipped,,257978.69999999925,,,257946.29999999702,,257978.8999999985,2021-10-28T14:29:02.677Z,258001.618,1635431069,full,ni_sequenzen,NI_Sequenzen,12,6,,,,,,,,,,,,
,Move,canvas.Screen,0_3_0_6_0_12,-999,skipped,,257982.79999999702,,,257946.29999999702,,257982.8999999985,2021-10-28T14:29:02.681Z,258001.618,1635431069,full,ni_sequenzen,NI_Sequenzen,13,6,,,,,,,,,,,,
,Move,canvas.Screen,0_3_0_6_0_13,-999,skipped,,257985.69999999925,,,257946.29999999702,,257985.8999999985,2021-10-28T14:29:02.684Z,258001.618,1635431069,full,ni_sequenzen,NI_Sequenzen,14,6,,,,,,,,,,,,
,Move,canvas.Screen,0_3_0_6_0_14,-999,skipped,,257988.3999999985,,,257946.29999999702,,257988.3999999985,2021-10-28T14:29:02.687Z,258001.618,1635431069,full,ni_sequenzen,NI_Sequenzen,15,6,,,,,,,,,,,,
,Loop,flow.Loop,0_3_0_6_0,-999,completion,,253194.3999999985,253192.263,253209.075,257946.29999999702,4737.224999997008,257988.59999999776,2021-10-28T14:29:02.687Z,258001.618,1635431069,full,ni_sequenzen,NI_Sequenzen,,6,,,,,,,,,,,,
,Feedback,canvas.Screen,0_3_0_6_1,,timeout,,257990.09999999776,257983.263,258001.618,261992.834,4007.853000000003,261993.29999999702,2021-10-28T14:29:06.692Z,262009.471,1635431069,full,ni_sequenzen,NI_Sequenzen,,6,,,,,,,,,,,,
,Trial,flow.Sequence,0_3_0_6,,completion,,253176.59999999776,253192.263,253209.075,261992.834,8783.758999999991,261993.5,2021-10-28T14:29:06.692Z,262026.207,1635431069,full,ni_sequenzen,NI_Sequenzen,,6,,,,,,,,,,,,
,Move,canvas.Screen,0_3_0_7_0_0,right,response,,262016.29999999702,262009.471,262026.207,264609.59999999776,2583.39299999777,264610.299999997,2021-10-28T14:29:09.309Z,264631.801,1635431069,full,ni_sequenzen,NI_Sequenzen,1,7,,,,,,,,,,,,
,Move,canvas.Screen,0_3_0_7_0_1,down,response,,264613.8999999985,264609.414,264631.801,265937.3999999985,1305.5989999985322,265938,2021-10-28T14:29:10.636Z,265950.477,1635431069,full,ni_sequenzen,NI_Sequenzen,2,7,,,,,,,,,,,,
,Move,canvas.Screen,0_3_0_7_0_2,right,response,,265942,265931.273,265950.477,266465.5,515.0229999999865,266466.09999999776,2021-10-28T14:29:11.165Z,266484.849,1635431069,full,ni_sequenzen,NI_Sequenzen,3,7,,,,,,,,,,,,
,Move,canvas.Screen,0_3_0_7_0_3,down,response,,266469.799999997,266467.232,266484.849,266793.69999999925,308.8509999992675,266794.5,2021-10-28T14:29:11.493Z,266852.208,1635431069,full,ni_sequenzen,NI_Sequenzen,4,7,,,,,,,,,,,,
,Move,canvas.Screen,0_3_0_7_0_4,-999,skipped,,266798.59999999776,,,266793.69999999925,,266798.69999999925,2021-10-28T14:29:11.497Z,266852.208,1635431069,full,ni_sequenzen,NI_Sequenzen,5,7,,,,,,,,,,,,
,Move,canvas.Screen,0_3_0_7_0_5,-999,skipped,,266802.3999999985,,,266793.69999999925,,266802.3999999985,2021-10-28T14:29:11.501Z,266852.208,1635431069,full,ni_sequenzen,NI_Sequenzen,6,7,,,,,,,,,,,,
,Move,canvas.Screen,0_3_0_7_0_6,-999,skipped,,266805.3999999985,,,266793.69999999925,,266805.5,2021-10-28T14:29:11.504Z,266852.208,1635431069,full,ni_sequenzen,NI_Sequenzen,7,7,,,,,,,,,,,,
,Move,canvas.Screen,0_3_0_7_0_7,-999,skipped,,266809.09999999776,,,266793.69999999925,,266809.19999999925,2021-10-28T14:29:11.508Z,266852.208,1635431069,full,ni_sequenzen,NI_Sequenzen,8,7,,,,,,,,,,,,
,Move,canvas.Screen,0_3_0_7_0_8,-999,skipped,,266813.09999999776,,,266793.69999999925,,266813.09999999776,2021-10-28T14:29:11.512Z,266852.208,1635431069,full,ni_sequenzen,NI_Sequenzen,9,7,,,,,,,,,,,,
,Move,canvas.Screen,0_3_0_7_0_9,-999,skipped,,266815.8999999985,,,266793.69999999925,,266816,2021-10-28T14:29:11.514Z,266852.208,1635431069,full,ni_sequenzen,NI_Sequenzen,10,7,,,,,,,,,,,,
,Move,canvas.Screen,0_3_0_7_0_10,-999,skipped,,266819.3999999985,,,266793.69999999925,,266819.5,2021-10-28T14:29:11.518Z,266852.208,1635431069,full,ni_sequenzen,NI_Sequenzen,11,7,,,,,,,,,,,,
,Move,canvas.Screen,0_3_0_7_0_11,-999,skipped,,266823.09999999776,,,266793.69999999925,,266823.19999999925,2021-10-28T14:29:11.522Z,266852.208,1635431069,full,ni_sequenzen,NI_Sequenzen,12,7,,,,,,,,,,,,
,Move,canvas.Screen,0_3_0_7_0_12,-999,skipped,,266827.09999999776,,,266793.69999999925,,266827.299999997,2021-10-28T14:29:11.526Z,266852.208,1635431069,full,ni_sequenzen,NI_Sequenzen,13,7,,,,,,,,,,,,
,Move,canvas.Screen,0_3_0_7_0_13,-999,skipped,,266830.59999999776,,,266793.69999999925,,266830.59999999776,2021-10-28T14:29:11.529Z,266852.208,1635431069,full,ni_sequenzen,NI_Sequenzen,14,7,,,,,,,,,,,,
,Move,canvas.Screen,0_3_0_7_0_14,-999,skipped,,266833.59999999776,,,266793.69999999925,,266833.69999999925,2021-10-28T14:29:11.532Z,266852.208,1635431069,full,ni_sequenzen,NI_Sequenzen,15,7,,,,,,,,,,,,
,Loop,flow.Loop,0_3_0_7_0,-999,completion,,262012.29999999702,262009.471,262026.207,266793.69999999925,4767.49299999926,266833.8999999985,2021-10-28T14:29:11.532Z,266852.208,1635431069,full,ni_sequenzen,NI_Sequenzen,,7,,,,,,,,,,,,
,Feedback,canvas.Screen,0_3_0_7_1,,timeout,,266836,266834.92,266852.208,270843.404,4007.8640000000014,270844,2021-10-28T14:29:15.542Z,270860.072,1635431069,full,ni_sequenzen,NI_Sequenzen,,7,,,,,,,,,,,,
,Trial,flow.Sequence,0_3_0_7,,completion,,261993.8999999985,262009.471,262026.207,270843.404,8817.196999999986,270844.09999999776,2021-10-28T14:29:15.543Z,270876.776,1635431069,full,ni_sequenzen,NI_Sequenzen,,7,,,,,,,,,,,,
,Move,canvas.Screen,0_3_0_8_0_0,down,response,,270862.09999999776,270860.072,270876.776,272795.69999999925,1918.9239999992424,272796.59999999776,2021-10-28T14:29:17.495Z,272813.865,1635431069,full,ni_sequenzen,NI_Sequenzen,1,8,,,,,,,,,,,,
,Move,canvas.Screen,0_3_0_8_0_1,left,response,,272800.299999997,272793.447,272813.865,273714.09999999776,900.2349999977741,273715.09999999776,2021-10-28T14:29:18.414Z,273732.57,1635431069,full,ni_sequenzen,NI_Sequenzen,2,8,,,,,,,,,,,,
,Move,canvas.Screen,0_3_0_8_0_2,down,response,,273718.799999997,273713.93,273732.57,274113.8999999985,381.3299999985029,274114.59999999776,2021-10-28T14:29:18.814Z,274133.475,1635431069,full,ni_sequenzen,NI_Sequenzen,3,8,,,,,,,,,,,,
,Move,canvas.Screen,0_3_0_8_0_3,left,response,,274118.09999999776,274115.774,274133.475,274481.8999999985,348.42499999853317,274482.59999999776,2021-10-28T14:29:19.182Z,274533.867,1635431069,full,ni_sequenzen,NI_Sequenzen,4,8,,,,,,,,,,,,
,Move,canvas.Screen,0_3_0_8_0_4,-999,skipped,,274486.69999999925,,,274481.8999999985,,274486.799999997,2021-10-28T14:29:19.186Z,274533.867,1635431069,full,ni_sequenzen,NI_Sequenzen,5,8,,,,,,,,,,,,
,Move,canvas.Screen,0_3_0_8_0_5,-999,skipped,,274489.59999999776,,,274481.8999999985,,274489.799999997,2021-10-28T14:29:19.189Z,274533.867,1635431069,full,ni_sequenzen,NI_Sequenzen,6,8,,,,,,,,,,,,
,Move,canvas.Screen,0_3_0_8_0_6,-999,skipped,,274492.59999999776,,,274481.8999999985,,274492.69999999925,2021-10-28T14:29:19.192Z,274533.867,1635431069,full,ni_sequenzen,NI_Sequenzen,7,8,,,,,,,,,,,,
,Move,canvas.Screen,0_3_0_8_0_7,-999,skipped,,274496.799999997,,,274481.8999999985,,274497.69999999925,2021-10-28T14:29:19.197Z,274533.867,1635431069,full,ni_sequenzen,NI_Sequenzen,8,8,,,,,,,,,,,,
,Move,canvas.Screen,0_3_0_8_0_8,-999,skipped,,274501.09999999776,,,274481.8999999985,,274501.19999999925,2021-10-28T14:29:19.200Z,274533.867,1635431069,full,ni_sequenzen,NI_Sequenzen,9,8,,,,,,,,,,,,
,Move,canvas.Screen,0_3_0_8_0_9,-999,skipped,,274504.09999999776,,,274481.8999999985,,274504.09999999776,2021-10-28T14:29:19.203Z,274533.867,1635431069,full,ni_sequenzen,NI_Sequenzen,10,8,,,,,,,,,,,,
,Move,canvas.Screen,0_3_0_8_0_10,-999,skipped,,274508.799999997,,,274481.8999999985,,274509,2021-10-28T14:29:19.208Z,274533.867,1635431069,full,ni_sequenzen,NI_Sequenzen,11,8,,,,,,,,,,,,
,Move,canvas.Screen,0_3_0_8_0_11,-999,skipped,,274512.799999997,,,274481.8999999985,,274513,2021-10-28T14:29:19.212Z,274533.867,1635431069,full,ni_sequenzen,NI_Sequenzen,12,8,,,,,,,,,,,,
,Move,canvas.Screen,0_3_0_8_0_12,-999,skipped,,274515.69999999925,,,274481.8999999985,,274515.69999999925,2021-10-28T14:29:19.215Z,274533.867,1635431069,full,ni_sequenzen,NI_Sequenzen,13,8,,,,,,,,,,,,
