meta,sender,sender_type,sender_id,response,ended_on,instrCount,time_run,time_render,time_show,time_end,duration,time_commit,timestamp,time_switch,openLabId,type,task,project,move,trialN,blockN_Train,blockN,moveCount,currPP,points,movesTrial,visitedFields,diff,reward,Strategie,Zweck,Probleme
[object Object],Screen_1,canvas.Screen,0_0_0_0,cont,response,1,1642,1642.02,1709.64,10470,8760.36,10512,2021-10-26T16:52:56.683Z,10783.16,1635169562,full,ni_sequenzen,NI_Sequenzen,,,,,,,,,,,,,,
,Screen_2,canvas.Screen,0_0_0_1,back,response,1,10752,10752.34,10783.16,19096,8312.84,19119,2021-10-26T16:53:05.288Z,19389.66,1635169562,full,ni_sequenzen,NI_Sequenzen,,,,,,,,,,,,,,
,Screen_3,canvas.Screen,0_0_0_2,,skipped,1,19341,,,19096,,19342,2021-10-26T16:53:05.512Z,19389.66,1635169562,full,ni_sequenzen,NI_Sequenzen,,,,,,,,,,,,,,
,Screen_4,canvas.Screen,0_0_0_3,,skipped,1,19369,,,19096,,19369,2021-10-26T16:53:05.539Z,19389.66,1635169562,full,ni_sequenzen,NI_Sequenzen,,,,,,,,,,,,,,
,Sequence,flow.Sequence,0_0_0,,completion,1,1500,1642.02,1709.64,19096,17386.36,19372,2021-10-26T16:53:05.542Z,19389.66,1635169562,full,ni_sequenzen,NI_Sequenzen,,,,,,,,,,,,,,
,Screen_1,canvas.Screen,0_0_1_0,cont,response,2,19388,19387.3,19389.66,311378,291988.34,311404,2021-10-26T16:57:57.574Z,311476.8,1635169562,full,ni_sequenzen,NI_Sequenzen,,,,,,,,,,,,,,
,Screen_2,canvas.Screen,0_0_1_1,back,response,2,311434,311434.26,311476.8,315721,4244.200000000012,315737,2021-10-26T16:58:01.906Z,315813.48,1635169562,full,ni_sequenzen,NI_Sequenzen,,,,,,,,,,,,,,
,Screen_3,canvas.Screen,0_0_1_2,,skipped,2,315758,,,315721,,315758,2021-10-26T16:58:01.929Z,315813.48,1635169562,full,ni_sequenzen,NI_Sequenzen,,,,,,,,,,,,,,
,Screen_4,canvas.Screen,0_0_1_3,,skipped,2,315776,,,315721,,315776,2021-10-26T16:58:01.947Z,315813.48,1635169562,full,ni_sequenzen,NI_Sequenzen,,,,,,,,,,,,,,
,Sequence,flow.Sequence,0_0_1,,completion,2,19376,19387.3,19389.66,315721,296331.34,315779,2021-10-26T16:58:01.949Z,315813.48,1635169562,full,ni_sequenzen,NI_Sequenzen,,,,,,,,,,,,,,
,Screen_1,canvas.Screen,0_0_2_0,cont,response,3,315796,315795.96,315813.48,5161658,4845844.52,5161707,2021-10-26T18:18:47.876Z,5161789.52,1635169562,full,ni_sequenzen,NI_Sequenzen,,,,,,,,,,,,,,
,Screen_2,canvas.Screen,0_0_2_1,cont,response,3,5161755,5161755.16,5161789.52,5167595,5805.480000000447,5167628,2021-10-26T18:18:53.798Z,5167660.64,1635169562,full,ni_sequenzen,NI_Sequenzen,,,,,,,,,,,,,,
,Screen_3,canvas.Screen,0_0_2_2,cont,response,3,5167652,5167652.26,5167660.64,5178190,10529.360000000335,5178221,2021-10-26T18:19:04.391Z,5178243.3,1635169562,full,ni_sequenzen,NI_Sequenzen,,,,,,,,,,,,,,
,Screen_4,canvas.Screen,0_0_2_3,cont,response,3,5178242,5178242.58,5178243.3,5185752,7508.700000000186,5185768,2021-10-26T18:19:11.937Z,5186191.28,1635169562,full,ni_sequenzen,NI_Sequenzen,,,,,,,,,,,,,,
,Sequence,flow.Sequence,0_0_2,,completion,3,315784,315795.96,315813.48,5185752,4869938.52,5185773,2021-10-26T18:19:11.944Z,5186191.28,1635169562,full,ni_sequenzen,NI_Sequenzen,,,,,,,,,,,,,,
,Screen_1,canvas.Screen,0_0_3_0,,skipped,4,5185801,,,5185801,,5185801,2021-10-26T18:19:11.972Z,5186191.28,1635169562,full,ni_sequenzen,NI_Sequenzen,,,,,,,,,,,,,,
,Screen_2,canvas.Screen,0_0_3_1,,skipped,4,5185810,,,5185801,,5185810,2021-10-26T18:19:11.980Z,5186191.28,1635169562,full,ni_sequenzen,NI_Sequenzen,,,,,,,,,,,,,,
,Screen_3,canvas.Screen,0_0_3_2,,skipped,4,5185820,,,5185801,,5185821,2021-10-26T18:19:11.991Z,5186191.28,1635169562,full,ni_sequenzen,NI_Sequenzen,,,,,,,,,,,,,,
,Screen_4,canvas.Screen,0_0_3_3,,skipped,4,5185831,,,5185801,,5185831,2021-10-26T18:19:12.002Z,5186191.28,1635169562,full,ni_sequenzen,NI_Sequenzen,,,,,,,,,,,,,,
,Sequence,flow.Sequence,0_0_3,,completion,4,5185788,,,5185801,,5185832,2021-10-26T18:19:12.002Z,5186191.28,1635169562,full,ni_sequenzen,NI_Sequenzen,,,,,,,,,,,,,,
,Screen_1,canvas.Screen,0_0_4_0,,skipped,5,5185843,,,5185843,,5185843,2021-10-26T18:19:12.014Z,5186191.28,1635169562,full,ni_sequenzen,NI_Sequenzen,,,,,,,,,,,,,,
,Screen_2,canvas.Screen,0_0_4_1,,skipped,5,5185849,,,5185843,,5185849,2021-10-26T18:19:12.019Z,5186191.28,1635169562,full,ni_sequenzen,NI_Sequenzen,,,,,,,,,,,,,,
,Screen_3,canvas.Screen,0_0_4_2,,skipped,5,5185853,,,5185843,,5185853,2021-10-26T18:19:12.023Z,5186191.28,1635169562,full,ni_sequenzen,NI_Sequenzen,,,,,,,,,,,,,,
,Screen_4,canvas.Screen,0_0_4_3,,skipped,5,5185859,,,5185843,,5185860,2021-10-26T18:19:12.029Z,5186191.28,1635169562,full,ni_sequenzen,NI_Sequenzen,,,,,,,,,,,,,,
,Sequence,flow.Sequence,0_0_4,,completion,5,5185835,,,5185843,,5185860,2021-10-26T18:19:12.029Z,5186191.28,1635169562,full,ni_sequenzen,NI_Sequenzen,,,,,,,,,,,,,,
,Screen_1,canvas.Screen,0_0_5_0,,skipped,6,5185866,,,5185866,,5185867,2021-10-26T18:19:12.037Z,5186191.28,1635169562,full,ni_sequenzen,NI_Sequenzen,,,,,,,,,,,,,,
,Screen_2,canvas.Screen,0_0_5_1,,skipped,6,5185871,,,5185866,,5185871,2021-10-26T18:19:12.041Z,5186191.28,1635169562,full,ni_sequenzen,NI_Sequenzen,,,,,,,,,,,,,,
,Screen_3,canvas.Screen,0_0_5_2,,skipped,6,5185875,,,5185866,,5185876,2021-10-26T18:19:12.045Z,5186191.28,1635169562,full,ni_sequenzen,NI_Sequenzen,,,,,,,,,,,,,,
,Screen_4,canvas.Screen,0_0_5_3,,skipped,6,5185880,,,5185866,,5185880,2021-10-26T18:19:12.050Z,5186191.28,1635169562,full,ni_sequenzen,NI_Sequenzen,,,,,,,,,,,,,,
,Sequence,flow.Sequence,0_0_5,,completion,6,5185861,,,5185866,,5185881,2021-10-26T18:19:12.050Z,5186191.28,1635169562,full,ni_sequenzen,NI_Sequenzen,,,,,,,,,,,,,,
,Screen_1,canvas.Screen,0_0_6_0,,skipped,7,5185886,,,5185886,,5185886,2021-10-26T18:19:12.055Z,5186191.28,1635169562,full,ni_sequenzen,NI_Sequenzen,,,,,,,,,,,,,,
,Screen_2,canvas.Screen,0_0_6_1,,skipped,7,5185892,,,5185886,,5185894,2021-10-26T18:19:12.063Z,5186191.28,1635169562,full,ni_sequenzen,NI_Sequenzen,,,,,,,,,,,,,,
,Screen_3,canvas.Screen,0_0_6_2,,skipped,7,5185897,,,5185886,,5185899,2021-10-26T18:19:12.068Z,5186191.28,1635169562,full,ni_sequenzen,NI_Sequenzen,,,,,,,,,,,,,,
,Screen_4,canvas.Screen,0_0_6_3,,skipped,7,5185904,,,5185886,,5185904,2021-10-26T18:19:12.074Z,5186191.28,1635169562,full,ni_sequenzen,NI_Sequenzen,,,,,,,,,,,,,,
,Sequence,flow.Sequence,0_0_6,,completion,7,5185882,,,5185886,,5185904,2021-10-26T18:19:12.075Z,5186191.28,1635169562,full,ni_sequenzen,NI_Sequenzen,,,,,,,,,,,,,,
,Screen_1,canvas.Screen,0_0_7_0,,skipped,8,5185910,,,5185910,,5185910,2021-10-26T18:19:12.079Z,5186191.28,1635169562,full,ni_sequenzen,NI_Sequenzen,,,,,,,,,,,,,,
,Screen_2,canvas.Screen,0_0_7_1,,skipped,8,5185913,,,5185910,,5185913,2021-10-26T18:19:12.083Z,5186191.28,1635169562,full,ni_sequenzen,NI_Sequenzen,,,,,,,,,,,,,,
,Screen_3,canvas.Screen,0_0_7_2,,skipped,8,5185917,,,5185910,,5185917,2021-10-26T18:19:12.087Z,5186191.28,1635169562,full,ni_sequenzen,NI_Sequenzen,,,,,,,,,,,,,,
,Screen_4,canvas.Screen,0_0_7_3,,skipped,8,5185922,,,5185910,,5185922,2021-10-26T18:19:12.092Z,5186191.28,1635169562,full,ni_sequenzen,NI_Sequenzen,,,,,,,,,,,,,,
,Sequence,flow.Sequence,0_0_7,,completion,8,5185906,,,5185910,,5185923,2021-10-26T18:19:12.093Z,5186191.28,1635169562,full,ni_sequenzen,NI_Sequenzen,,,,,,,,,,,,,,
,Screen_1,canvas.Screen,0_0_8_0,,skipped,9,5185928,,,5185928,,5185928,2021-10-26T18:19:12.098Z,5186191.28,1635169562,full,ni_sequenzen,NI_Sequenzen,,,,,,,,,,,,,,
,Screen_2,canvas.Screen,0_0_8_1,,skipped,9,5185932,,,5185928,,5185932,2021-10-26T18:19:12.102Z,5186191.28,1635169562,full,ni_sequenzen,NI_Sequenzen,,,,,,,,,,,,,,
,Screen_3,canvas.Screen,0_0_8_2,,skipped,9,5185936,,,5185928,,5185936,2021-10-26T18:19:12.106Z,5186191.28,1635169562,full,ni_sequenzen,NI_Sequenzen,,,,,,,,,,,,,,
,Screen_4,canvas.Screen,0_0_8_3,,skipped,9,5185940,,,5185928,,5185940,2021-10-26T18:19:12.110Z,5186191.28,1635169562,full,ni_sequenzen,NI_Sequenzen,,,,,,,,,,,,,,
,Sequence,flow.Sequence,0_0_8,,completion,9,5185925,,,5185928,,5185940,2021-10-26T18:19:12.110Z,5186191.28,1635169562,full,ni_sequenzen,NI_Sequenzen,,,,,,,,,,,,,,
,Screen_1,canvas.Screen,0_0_9_0,,skipped,10,5185946,,,5185946,,5185946,2021-10-26T18:19:12.117Z,5186191.28,1635169562,full,ni_sequenzen,NI_Sequenzen,,,,,,,,,,,,,,
,Screen_2,canvas.Screen,0_0_9_1,,skipped,10,5185950,,,5185946,,5185951,2021-10-26T18:19:12.121Z,5186191.28,1635169562,full,ni_sequenzen,NI_Sequenzen,,,,,,,,,,,,,,
,Screen_3,canvas.Screen,0_0_9_2,,skipped,10,5185954,,,5185946,,5185954,2021-10-26T18:19:12.124Z,5186191.28,1635169562,full,ni_sequenzen,NI_Sequenzen,,,,,,,,,,,,,,
,Screen_4,canvas.Screen,0_0_9_3,,skipped,10,5185959,,,5185946,,5185959,2021-10-26T18:19:12.129Z,5186191.28,1635169562,full,ni_sequenzen,NI_Sequenzen,,,,,,,,,,,,,,
,Sequence,flow.Sequence,0_0_9,,completion,10,5185942,,,5185946,,5185960,2021-10-26T18:19:12.130Z,5186191.28,1635169562,full,ni_sequenzen,NI_Sequenzen,,,,,,,,,,,,,,
,Screen_1,canvas.Screen,0_0_10_0,,skipped,11,5185964,,,5185964,,5185964,2021-10-26T18:19:12.134Z,5186191.28,1635169562,full,ni_sequenzen,NI_Sequenzen,,,,,,,,,,,,,,
,Screen_2,canvas.Screen,0_0_10_1,,skipped,11,5185967,,,5185964,,5185967,2021-10-26T18:19:12.137Z,5186191.28,1635169562,full,ni_sequenzen,NI_Sequenzen,,,,,,,,,,,,,,
,Screen_3,canvas.Screen,0_0_10_2,,skipped,11,5185971,,,5185964,,5185971,2021-10-26T18:19:12.141Z,5186191.28,1635169562,full,ni_sequenzen,NI_Sequenzen,,,,,,,,,,,,,,
,Screen_4,canvas.Screen,0_0_10_3,,skipped,11,5185975,,,5185964,,5185975,2021-10-26T18:19:12.145Z,5186191.28,1635169562,full,ni_sequenzen,NI_Sequenzen,,,,,,,,,,,,,,
,Sequence,flow.Sequence,0_0_10,,completion,11,5185961,,,5185964,,5185975,2021-10-26T18:19:12.145Z,5186191.28,1635169562,full,ni_sequenzen,NI_Sequenzen,,,,,,,,,,,,,,
,Screen_1,canvas.Screen,0_0_11_0,,skipped,12,5185979,,,5185979,,5185979,2021-10-26T18:19:12.149Z,5186191.28,1635169562,full,ni_sequenzen,NI_Sequenzen,,,,,,,,,,,,,,
,Screen_2,canvas.Screen,0_0_11_1,,skipped,12,5185983,,,5185979,,5185983,2021-10-26T18:19:12.153Z,5186191.28,1635169562,full,ni_sequenzen,NI_Sequenzen,,,,,,,,,,,,,,
,Screen_3,canvas.Screen,0_0_11_2,,skipped,12,5185988,,,5185979,,5185988,2021-10-26T18:19:12.158Z,5186191.28,1635169562,full,ni_sequenzen,NI_Sequenzen,,,,,,,,,,,,,,
,Screen_4,canvas.Screen,0_0_11_3,,skipped,12,5185992,,,5185979,,5185992,2021-10-26T18:19:12.163Z,5186191.28,1635169562,full,ni_sequenzen,NI_Sequenzen,,,,,,,,,,,,,,
,Sequence,flow.Sequence,0_0_11,,completion,12,5185976,,,5185979,,5185992,2021-10-26T18:19:12.163Z,5186191.28,1635169562,full,ni_sequenzen,NI_Sequenzen,,,,,,,,,,,,,,
,Screen_1,canvas.Screen,0_0_12_0,,skipped,13,5185997,,,5185997,,5185997,2021-10-26T18:19:12.166Z,5186191.28,1635169562,full,ni_sequenzen,NI_Sequenzen,,,,,,,,,,,,,,
,Screen_2,canvas.Screen,0_0_12_1,,skipped,13,5186000,,,5185997,,5186000,2021-10-26T18:19:12.170Z,5186191.28,1635169562,full,ni_sequenzen,NI_Sequenzen,,,,,,,,,,,,,,
,Screen_3,canvas.Screen,0_0_12_2,,skipped,13,5186004,,,5185997,,5186004,2021-10-26T18:19:12.174Z,5186191.28,1635169562,full,ni_sequenzen,NI_Sequenzen,,,,,,,,,,,,,,
,Screen_4,canvas.Screen,0_0_12_3,,skipped,13,5186007,,,5185997,,5186007,2021-10-26T18:19:12.178Z,5186191.28,1635169562,full,ni_sequenzen,NI_Sequenzen,,,,,,,,,,,,,,
,Sequence,flow.Sequence,0_0_12,,completion,13,5185993,,,5185997,,5186009,2021-10-26T18:19:12.178Z,5186191.28,1635169562,full,ni_sequenzen,NI_Sequenzen,,,,,,,,,,,,,,
,Screen_1,canvas.Screen,0_0_13_0,,skipped,14,5186013,,,5186013,,5186013,2021-10-26T18:19:12.183Z,5186191.28,1635169562,full,ni_sequenzen,NI_Sequenzen,,,,,,,,,,,,,,
,Screen_2,canvas.Screen,0_0_13_1,,skipped,14,5186017,,,5186013,,5186017,2021-10-26T18:19:12.187Z,5186191.28,1635169562,full,ni_sequenzen,NI_Sequenzen,,,,,,,,,,,,,,
,Screen_3,canvas.Screen,0_0_13_2,,skipped,14,5186020,,,5186013,,5186020,2021-10-26T18:19:12.191Z,5186191.28,1635169562,full,ni_sequenzen,NI_Sequenzen,,,,,,,,,,,,,,
,Screen_4,canvas.Screen,0_0_13_3,,skipped,14,5186025,,,5186013,,5186025,2021-10-26T18:19:12.195Z,5186191.28,1635169562,full,ni_sequenzen,NI_Sequenzen,,,,,,,,,,,,,,
,Sequence,flow.Sequence,0_0_13,,completion,14,5186010,,,5186013,,5186025,2021-10-26T18:19:12.195Z,5186191.28,1635169562,full,ni_sequenzen,NI_Sequenzen,,,,,,,,,,,,,,
,Screen_1,canvas.Screen,0_0_14_0,,skipped,15,5186030,,,5186030,,5186030,2021-10-26T18:19:12.200Z,5186191.28,1635169562,full,ni_sequenzen,NI_Sequenzen,,,,,,,,,,,,,,
,Screen_2,canvas.Screen,0_0_14_1,,skipped,15,5186033,,,5186030,,5186033,2021-10-26T18:19:12.203Z,5186191.28,1635169562,full,ni_sequenzen,NI_Sequenzen,,,,,,,,,,,,,,
,Screen_3,canvas.Screen,0_0_14_2,,skipped,15,5186037,,,5186030,,5186037,2021-10-26T18:19:12.207Z,5186191.28,1635169562,full,ni_sequenzen,NI_Sequenzen,,,,,,,,,,,,,,
,Screen_4,canvas.Screen,0_0_14_3,,skipped,15,5186041,,,5186030,,5186041,2021-10-26T18:19:12.211Z,5186191.28,1635169562,full,ni_sequenzen,NI_Sequenzen,,,,,,,,,,,,,,
,Sequence,flow.Sequence,0_0_14,,completion,15,5186027,,,5186030,,5186041,2021-10-26T18:19:12.211Z,5186191.28,1635169562,full,ni_sequenzen,NI_Sequenzen,,,,,,,,,,,,,,
,Screen_1,canvas.Screen,0_0_15_0,,skipped,16,5186045,,,5186045,,5186045,2021-10-26T18:19:12.215Z,5186191.28,1635169562,full,ni_sequenzen,NI_Sequenzen,,,,,,,,,,,,,,
,Screen_2,canvas.Screen,0_0_15_1,,skipped,16,5186050,,,5186045,,5186050,2021-10-26T18:19:12.219Z,5186191.28,1635169562,full,ni_sequenzen,NI_Sequenzen,,,,,,,,,,,,,,
,Screen_3,canvas.Screen,0_0_15_2,,skipped,16,5186055,,,5186045,,5186055,2021-10-26T18:19:12.225Z,5186191.28,1635169562,full,ni_sequenzen,NI_Sequenzen,,,,,,,,,,,,,,
,Screen_4,canvas.Screen,0_0_15_3,,skipped,16,5186061,,,5186045,,5186061,2021-10-26T18:19:12.231Z,5186191.28,1635169562,full,ni_sequenzen,NI_Sequenzen,,,,,,,,,,,,,,
,Sequence,flow.Sequence,0_0_15,,completion,16,5186042,,,5186045,,5186061,2021-10-26T18:19:12.231Z,5186191.28,1635169562,full,ni_sequenzen,NI_Sequenzen,,,,,,,,,,,,,,
,Screen_1,canvas.Screen,0_0_16_0,,skipped,17,5186067,,,5186067,,5186067,2021-10-26T18:19:12.237Z,5186191.28,1635169562,full,ni_sequenzen,NI_Sequenzen,,,,,,,,,,,,,,
,Screen_2,canvas.Screen,0_0_16_1,,skipped,17,5186070,,,5186067,,5186070,2021-10-26T18:19:12.241Z,5186191.28,1635169562,full,ni_sequenzen,NI_Sequenzen,,,,,,,,,,,,,,
,Screen_3,canvas.Screen,0_0_16_2,,skipped,17,5186075,,,5186067,,5186075,2021-10-26T18:19:12.246Z,5186191.28,1635169562,full,ni_sequenzen,NI_Sequenzen,,,,,,,,,,,,,,
,Screen_4,canvas.Screen,0_0_16_3,,skipped,17,5186079,,,5186067,,5186079,2021-10-26T18:19:12.249Z,5186191.28,1635169562,full,ni_sequenzen,NI_Sequenzen,,,,,,,,,,,,,,
,Sequence,flow.Sequence,0_0_16,,completion,17,5186063,,,5186067,,5186079,2021-10-26T18:19:12.250Z,5186191.28,1635169562,full,ni_sequenzen,NI_Sequenzen,,,,,,,,,,,,,,
,Screen_1,canvas.Screen,0_0_17_0,,skipped,18,5186083,,,5186083,,5186083,2021-10-26T18:19:12.253Z,5186191.28,1635169562,full,ni_sequenzen,NI_Sequenzen,,,,,,,,,,,,,,
,Screen_2,canvas.Screen,0_0_17_1,,skipped,18,5186086,,,5186083,,5186086,2021-10-26T18:19:12.257Z,5186191.28,1635169562,full,ni_sequenzen,NI_Sequenzen,,,,,,,,,,,,,,
,Screen_3,canvas.Screen,0_0_17_2,,skipped,18,5186091,,,5186083,,5186091,2021-10-26T18:19:12.261Z,5186191.28,1635169562,full,ni_sequenzen,NI_Sequenzen,,,,,,,,,,,,,,
,Screen_4,canvas.Screen,0_0_17_3,,skipped,18,5186096,,,5186083,,5186096,2021-10-26T18:19:12.266Z,5186191.28,1635169562,full,ni_sequenzen,NI_Sequenzen,,,,,,,,,,,,,,
,Sequence,flow.Sequence,0_0_17,,completion,18,5186081,,,5186083,,5186096,2021-10-26T18:19:12.266Z,5186191.28,1635169562,full,ni_sequenzen,NI_Sequenzen,,,,,,,,,,,,,,
,Screen_1,canvas.Screen,0_0_18_0,,skipped,19,5186100,,,5186100,,5186100,2021-10-26T18:19:12.270Z,5186191.28,1635169562,full,ni_sequenzen,NI_Sequenzen,,,,,,,,,,,,,,
,Screen_2,canvas.Screen,0_0_18_1,,skipped,19,5186103,,,5186100,,5186103,2021-10-26T18:19:12.273Z,5186191.28,1635169562,full,ni_sequenzen,NI_Sequenzen,,,,,,,,,,,,,,
,Screen_3,canvas.Screen,0_0_18_2,,skipped,19,5186106,,,5186100,,5186106,2021-10-26T18:19:12.276Z,5186191.28,1635169562,full,ni_sequenzen,NI_Sequenzen,,,,,,,,,,,,,,
,Screen_4,canvas.Screen,0_0_18_3,,skipped,19,5186111,,,5186100,,5186111,2021-10-26T18:19:12.281Z,5186191.28,1635169562,full,ni_sequenzen,NI_Sequenzen,,,,,,,,,,,,,,
,Sequence,flow.Sequence,0_0_18,,completion,19,5186098,,,5186100,,5186112,2021-10-26T18:19:12.281Z,5186191.28,1635169562,full,ni_sequenzen,NI_Sequenzen,,,,,,,,,,,,,,
,Screen_1,canvas.Screen,0_0_19_0,,skipped,20,5186116,,,5186116,,5186116,2021-10-26T18:19:12.286Z,5186191.28,1635169562,full,ni_sequenzen,NI_Sequenzen,,,,,,,,,,,,,,
,Screen_2,canvas.Screen,0_0_19_1,,skipped,20,5186118,,,5186116,,5186119,2021-10-26T18:19:12.289Z,5186191.28,1635169562,full,ni_sequenzen,NI_Sequenzen,,,,,,,,,,,,,,
,Screen_3,canvas.Screen,0_0_19_2,,skipped,20,5186122,,,5186116,,5186122,2021-10-26T18:19:12.292Z,5186191.28,1635169562,full,ni_sequenzen,NI_Sequenzen,,,,,,,,,,,,,,
,Screen_4,canvas.Screen,0_0_19_3,,skipped,20,5186126,,,5186116,,5186126,2021-10-26T18:19:12.296Z,5186191.28,1635169562,full,ni_sequenzen,NI_Sequenzen,,,,,,,,,,,,,,
,Sequence,flow.Sequence,0_0_19,,completion,20,5186113,,,5186116,,5186126,2021-10-26T18:19:12.296Z,5186191.28,1635169562,full,ni_sequenzen,NI_Sequenzen,,,,,,,,,,,,,,
,Instructions_I,flow.Loop,0_0,,completion,,1492,1642.02,1709.64,5186116,5184406.36,5186126,2021-10-26T18:19:12.296Z,5186191.28,1635169562,full,ni_sequenzen,NI_Sequenzen,,,,,,,,,,,,,,
,Move,canvas.Screen,0_1_0_0,left,response,,5186181,5186181.26,5186191.28,5186987,795.7199999997392,5187011,2021-10-26T18:19:13.181Z,5187051.06,1635169562,full,ni_sequenzen,NI_Sequenzen,1,,,,,,,,,,,,,
,Move,canvas.Screen,0_1_0_1,left,response,,5187051,5187050.7,5187051.06,5187862,810.9400000004098,5187878,2021-10-26T18:19:14.048Z,5187918.9,1635169562,full,ni_sequenzen,NI_Sequenzen,2,,,,,,,,,,,,,
,Move,canvas.Screen,0_1_0_2,right,response,,5187919,5187918.56,5187918.9,5188300,381.09999999962747,5188310,2021-10-26T18:19:14.480Z,5188343,1635169562,full,ni_sequenzen,NI_Sequenzen,3,,,,,,,,,,,,,
,Move,canvas.Screen,0_1_0_3,down,response,,5188343,5188342.7,5188343,5190284,1941,5190312,2021-10-26T18:19:16.482Z,5190347.62,1635169562,full,ni_sequenzen,NI_Sequenzen,4,,,,,,,,,,,,,
,Move,canvas.Screen,0_1_0_4,down,response,,5190348,5190347.26,5190347.62,5190987,639.3799999998882,5191010,2021-10-26T18:19:17.180Z,5191045.18,1635169562,full,ni_sequenzen,NI_Sequenzen,5,,,,,,,,,,,,,
,Move,canvas.Screen,0_1_0_5,right,response,,5191045,5191044.76,5191045.18,5191267,221.82000000029802,5191287,2021-10-26T18:19:17.457Z,5191318.48,1635169562,full,ni_sequenzen,NI_Sequenzen,6,,,,,,,,,,,,,
,Move,canvas.Screen,0_1_0_6,right,response,,5191318,5191318.12,5191318.48,5191987,668.519999999553,5192006,2021-10-26T18:19:18.176Z,5192037.4,1635169562,full,ni_sequenzen,NI_Sequenzen,7,,,,,,,,,,,,,
,Move,canvas.Screen,0_1_0_7,down,response,,5192036,5192037.04,5192037.4,5192345,307.59999999962747,5192370,2021-10-26T18:19:18.540Z,5192407.92,1635169562,full,ni_sequenzen,NI_Sequenzen,8,,,,,,,,,,,,,
,Move,canvas.Screen,0_1_0_8,down,response,,5192407,5192407.28,5192407.92,5192642,234.0800000000745,5192658,2021-10-26T18:19:18.828Z,5192679.76,1635169562,full,ni_sequenzen,NI_Sequenzen,9,,,,,,,,,,,,,
,Move,canvas.Screen,0_1_0_9,left,response,,5192679,5192679.42,5192679.76,5193003,323.2400000002235,5193029,2021-10-26T18:19:19.200Z,5193066.32,1635169562,full,ni_sequenzen,NI_Sequenzen,10,,,,,,,,,,,,,
,Move,canvas.Screen,0_1_0_10,down,response,,5193066,5193065.64,5193066.32,5193424,357.679999999702,5193442,2021-10-26T18:19:19.611Z,5193476.82,1635169562,full,ni_sequenzen,NI_Sequenzen,11,,,,,,,,,,,,,
,Move,canvas.Screen,0_1_0_11,right,response,,5193476,5193476.6,5193476.82,5193768,291.179999999702,5193788,2021-10-26T18:19:19.959Z,5193830.4,1635169562,full,ni_sequenzen,NI_Sequenzen,12,,,,,,,,,,,,,
,Move,canvas.Screen,0_1_0_12,right,response,,5193827,5193827.34,5193830.4,5194080,249.59999999962747,5194108,2021-10-26T18:19:20.278Z,5194135.84,1635169562,full,ni_sequenzen,NI_Sequenzen,13,,,,,,,,,,,,,
,Move,canvas.Screen,0_1_0_13,down,response,,5194136,5194135.54,5194135.84,5194580,444.160000000149,5194585,2021-10-26T18:19:20.755Z,5194598.32,1635169562,full,ni_sequenzen,NI_Sequenzen,14,,,,,,,,,,,,,
,Move,canvas.Screen,0_1_0_14,down,response,,5194598,5194598.12,5194598.32,5194784,185.67999999970198,5194806,2021-10-26T18:19:20.976Z,5194840.5,1635169562,full,ni_sequenzen,NI_Sequenzen,15,,,,,,,,,,,,,
,Move,canvas.Screen,0_1_0_15,down,response,,5194840,5194840.24,5194840.5,5195018,177.5,5195029,2021-10-26T18:19:21.200Z,5195060.46,1635169562,full,ni_sequenzen,NI_Sequenzen,16,,,,,,,,,,,,,
,Move,canvas.Screen,0_1_0_16,down,response,,5195060,5195060.12,5195060.46,5195220,159.54000000003725,5195228,2021-10-26T18:19:21.399Z,5195264.78,1635169562,full,ni_sequenzen,NI_Sequenzen,17,,,,,,,,,,,,,
,Move,canvas.Screen,0_1_0_17,left,response,,5195252,5195251.98,5195264.78,5195534,269.21999999973923,5195545,2021-10-26T18:19:21.714Z,5195559.34,1635169562,full,ni_sequenzen,NI_Sequenzen,18,,,,,,,,,,,,,
,Move,canvas.Screen,0_1_0_18,left,response,,5195559,5195559.18,5195559.34,5195908,348.660000000149,5195927,2021-10-26T18:19:22.096Z,5195957.38,1635169562,full,ni_sequenzen,NI_Sequenzen,19,,,,,,,,,,,,,
,Move,canvas.Screen,0_1_0_19,down,response,,5195957,5195956.98,5195957.38,5196377,419.62000000011176,5196402,2021-10-26T18:19:22.572Z,5196435.1,1635169562,full,ni_sequenzen,NI_Sequenzen,20,,,,,,,,,,,,,
,Move,canvas.Screen,0_1_0_20,right,response,,5196435,5196434.92,5196435.1,5196955,519.9000000003725,5196980,2021-10-26T18:19:23.150Z,5197009.26,1635169562,full,ni_sequenzen,NI_Sequenzen,21,,,,,,,,,,,,,
,Move,canvas.Screen,0_1_0_21,right,response,,5197009,5197008.94,5197009.26,5197315,305.7400000002235,5197340,2021-10-26T18:19:23.510Z,5197372.04,1635169562,full,ni_sequenzen,NI_Sequenzen,22,,,,,,,,,,,,,
,Move,canvas.Screen,0_1_0_22,down,response,,5197371,5197371.26,5197372.04,5197753,380.95999999996275,5197765,2021-10-26T18:19:23.936Z,5197794.28,1635169562,full,ni_sequenzen,NI_Sequenzen,23,,,,,,,,,,,,,
,Move,canvas.Screen,0_1_0_23,left,response,,5197794,5197793.86,5197794.28,5198253,458.71999999973923,5198268,2021-10-26T18:19:24.438Z,5198303.8,1635169562,full,ni_sequenzen,NI_Sequenzen,24,,,,,,,,,,,,,
,Move,canvas.Screen,0_1_0_24,left,response,,5198303,5198303.48,5198303.8,5198612,308.20000000018626,5198632,2021-10-26T18:19:24.801Z,5198663.34,1635169562,full,ni_sequenzen,NI_Sequenzen,25,,,,,,,,,,,,,
,Move,canvas.Screen,0_1_0_25,down,response,,5198663,5198663.06,5198663.34,5199003,339.660000000149,5199020,2021-10-26T18:19:25.189Z,5199051.12,1635169562,full,ni_sequenzen,NI_Sequenzen,26,,,,,,,,,,,,,
,Move,canvas.Screen,0_1_0_26,down,response,,5199051,5199050.76,5199051.12,5199300,248.87999999988824,5199312,2021-10-26T18:19:25.483Z,5199332,1635169562,full,ni_sequenzen,NI_Sequenzen,27,,,,,,,,,,,,,
,Move,canvas.Screen,0_1_0_27,down,response,,5199332,5199331.64,5199332,5199487,155,5199502,2021-10-26T18:19:25.673Z,5199517.98,1635169562,full,ni_sequenzen,NI_Sequenzen,28,,,,,,,,,,,,,
,Move,canvas.Screen,0_1_0_28,right,response,,5199517,5199517.2,5199517.98,5199862,344.01999999955297,5199881,2021-10-26T18:19:26.052Z,5199901.6,1635169562,full,ni_sequenzen,NI_Sequenzen,29,,,,,,,,,,,,,
,Move,canvas.Screen,0_1_0_29,down,response,,5199899,5199899.02,5199901.6,5200518,616.4000000003725,5200543,2021-10-26T18:19:26.712Z,5200594.46,1635169562,full,ni_sequenzen,NI_Sequenzen,30,,,,,,,,,,,,,
,Loop,flow.Loop,0_1_0,-999,completion,,5186147,5186181.26,5186191.28,5200518,14326.71999999974,5200543,2021-10-26T18:19:26.712Z,5200594.46,1635169562,full,ni_sequenzen,NI_Sequenzen,,,,,,,,,,,,,,
,Training_I,flow.Sequence,0_1,,completion,,5186127,5186181.26,5186191.28,5200518,14326.71999999974,5200543,2021-10-26T18:19:26.713Z,5200594.46,1635169562,full,ni_sequenzen,NI_Sequenzen,,,,,,,,,,,,,,
,Screen_1,canvas.Screen,0_2_0_0,cont,response,1,5200595,5200594.28,5200594.46,5212221,11626.540000000037,5212230,2021-10-26T18:19:38.399Z,5212394.38,1635169562,full,ni_sequenzen,NI_Sequenzen,,,,,,,,,,,,,,
,Screen_2,canvas.Screen,0_2_0_1,cont,response,1,5212379,5212378.3,5212394.38,5220378,7983.620000000112,5220387,2021-10-26T18:19:46.557Z,5220404.78,1635169562,full,ni_sequenzen,NI_Sequenzen,,,,,,,,,,,,,,
,Screen_3,canvas.Screen,0_2_0_2,cont,response,1,5220404,5220404.22,5220404.78,5234550,14145.21999999974,5234575,2021-10-26T18:20:00.745Z,5234663.32,1635169562,full,ni_sequenzen,NI_Sequenzen,,,,,,,,,,,,,,
,Screen_4,canvas.Screen,0_2_0_3,cont,response,1,5234663,5234663.12,5234663.32,5251174,16510.679999999702,5251201,2021-10-26T18:20:17.371Z,5251233.6,1635169562,full,ni_sequenzen,NI_Sequenzen,,,,,,,,,,,,,,
,Screen_5,canvas.Screen,0_2_0_4,cont,response,1,5251233,5251233.24,5251233.6,5255315,4081.4000000003725,5255330,2021-10-26T18:20:21.501Z,5255493.6,1635169562,full,ni_sequenzen,NI_Sequenzen,,,,,,,,,,,,,,
,Screen_6,canvas.Screen,0_2_0_5,cont,response,1,5255469,5255469.68,5255493.6,5263596,8102.4000000003725,5263612,2021-10-26T18:20:29.782Z,5264366.62,1635169562,full,ni_sequenzen,NI_Sequenzen,,,,,,,,,,,,,,
,Sequence,flow.Sequence,0_2_0,,completion,1,5200587,5200594.28,5200594.46,5263596,63001.54000000004,5263614,2021-10-26T18:20:29.785Z,5264366.62,1635169562,full,ni_sequenzen,NI_Sequenzen,,,,,,,,,,,,,,
,Screen_1,canvas.Screen,0_2_1_0,,skipped,2,5263629,,,5263629,,5263629,2021-10-26T18:20:29.799Z,5264366.62,1635169562,full,ni_sequenzen,NI_Sequenzen,,,,,,,,,,,,,,
,Screen_2,canvas.Screen,0_2_1_1,,skipped,2,5263633,,,5263629,,5263633,2021-10-26T18:20:29.804Z,5264366.62,1635169562,full,ni_sequenzen,NI_Sequenzen,,,,,,,,,,,,,,
,Screen_3,canvas.Screen,0_2_1_2,,skipped,2,5263638,,,5263629,,5263638,2021-10-26T18:20:29.807Z,5264366.62,1635169562,full,ni_sequenzen,NI_Sequenzen,,,,,,,,,,,,,,
,Screen_4,canvas.Screen,0_2_1_3,,skipped,2,5263642,,,5263629,,5263642,2021-10-26T18:20:29.812Z,5264366.62,1635169562,full,ni_sequenzen,NI_Sequenzen,,,,,,,,,,,,,,
,Screen_5,canvas.Screen,0_2_1_4,,skipped,2,5263645,,,5263629,,5263645,2021-10-26T18:20:29.815Z,5264366.62,1635169562,full,ni_sequenzen,NI_Sequenzen,,,,,,,,,,,,,,
,Screen_6,canvas.Screen,0_2_1_5,,skipped,2,5263649,,,5263629,,5263649,2021-10-26T18:20:29.819Z,5264366.62,1635169562,full,ni_sequenzen,NI_Sequenzen,,,,,,,,,,,,,,
,Sequence,flow.Sequence,0_2_1,,completion,2,5263619,,,5263629,,5263650,2021-10-26T18:20:29.819Z,5264366.62,1635169562,full,ni_sequenzen,NI_Sequenzen,,,,,,,,,,,,,,
,Screen_1,canvas.Screen,0_2_2_0,,skipped,3,5263654,,,5263654,,5263655,2021-10-26T18:20:29.825Z,5264366.62,1635169562,full,ni_sequenzen,NI_Sequenzen,,,,,,,,,,,,,,
,Screen_2,canvas.Screen,0_2_2_1,,skipped,3,5263660,,,5263654,,5263660,2021-10-26T18:20:29.829Z,5264366.62,1635169562,full,ni_sequenzen,NI_Sequenzen,,,,,,,,,,,,,,
,Screen_3,canvas.Screen,0_2_2_2,,skipped,3,5263664,,,5263654,,5263664,2021-10-26T18:20:29.834Z,5264366.62,1635169562,full,ni_sequenzen,NI_Sequenzen,,,,,,,,,,,,,,
,Screen_4,canvas.Screen,0_2_2_3,,skipped,3,5263667,,,5263654,,5263668,2021-10-26T18:20:29.838Z,5264366.62,1635169562,full,ni_sequenzen,NI_Sequenzen,,,,,,,,,,,,,,
,Screen_5,canvas.Screen,0_2_2_4,,skipped,3,5263671,,,5263654,,5263671,2021-10-26T18:20:29.841Z,5264366.62,1635169562,full,ni_sequenzen,NI_Sequenzen,,,,,,,,,,,,,,
,Screen_6,canvas.Screen,0_2_2_5,,skipped,3,5263675,,,5263654,,5263675,2021-10-26T18:20:29.845Z,5264366.62,1635169562,full,ni_sequenzen,NI_Sequenzen,,,,,,,,,,,,,,
,Sequence,flow.Sequence,0_2_2,,completion,3,5263651,,,5263654,,5263675,2021-10-26T18:20:29.845Z,5264366.62,1635169562,full,ni_sequenzen,NI_Sequenzen,,,,,,,,,,,,,,
,Screen_1,canvas.Screen,0_2_3_0,,skipped,4,5263680,,,5263680,,5263680,2021-10-26T18:20:29.850Z,5264366.62,1635169562,full,ni_sequenzen,NI_Sequenzen,,,,,,,,,,,,,,
,Screen_2,canvas.Screen,0_2_3_1,,skipped,4,5263684,,,5263680,,5263684,2021-10-26T18:20:29.854Z,5264366.62,1635169562,full,ni_sequenzen,NI_Sequenzen,,,,,,,,,,,,,,
,Screen_3,canvas.Screen,0_2_3_2,,skipped,4,5263688,,,5263680,,5263688,2021-10-26T18:20:29.858Z,5264366.62,1635169562,full,ni_sequenzen,NI_Sequenzen,,,,,,,,,,,,,,
,Screen_4,canvas.Screen,0_2_3_3,,skipped,4,5263690,,,5263680,,5263691,2021-10-26T18:20:29.861Z,5264366.62,1635169562,full,ni_sequenzen,NI_Sequenzen,,,,,,,,,,,,,,
,Screen_5,canvas.Screen,0_2_3_4,,skipped,4,5263694,,,5263680,,5263694,2021-10-26T18:20:29.864Z,5264366.62,1635169562,full,ni_sequenzen,NI_Sequenzen,,,,,,,,,,,,,,
,Screen_6,canvas.Screen,0_2_3_5,,skipped,4,5263697,,,5263680,,5263697,2021-10-26T18:20:29.868Z,5264366.62,1635169562,full,ni_sequenzen,NI_Sequenzen,,,,,,,,,,,,,,
,Sequence,flow.Sequence,0_2_3,,completion,4,5263676,,,5263680,,5263698,2021-10-26T18:20:29.868Z,5264366.62,1635169562,full,ni_sequenzen,NI_Sequenzen,,,,,,,,,,,,,,
,Screen_1,canvas.Screen,0_2_4_0,,skipped,5,5263702,,,5263702,,5263703,2021-10-26T18:20:29.873Z,5264366.62,1635169562,full,ni_sequenzen,NI_Sequenzen,,,,,,,,,,,,,,
,Screen_2,canvas.Screen,0_2_4_1,,skipped,5,5263706,,,5263702,,5263707,2021-10-26T18:20:29.876Z,5264366.62,1635169562,full,ni_sequenzen,NI_Sequenzen,,,,,,,,,,,,,,
,Screen_3,canvas.Screen,0_2_4_2,,skipped,5,5263710,,,5263702,,5263711,2021-10-26T18:20:29.880Z,5264366.62,1635169562,full,ni_sequenzen,NI_Sequenzen,,,,,,,,,,,,,,
,Screen_4,canvas.Screen,0_2_4_3,,skipped,5,5263713,,,5263702,,5263714,2021-10-26T18:20:29.883Z,5264366.62,1635169562,full,ni_sequenzen,NI_Sequenzen,,,,,,,,,,,,,,
,Screen_5,canvas.Screen,0_2_4_4,,skipped,5,5263717,,,5263702,,5263717,2021-10-26T18:20:29.887Z,5264366.62,1635169562,full,ni_sequenzen,NI_Sequenzen,,,,,,,,,,,,,,
,Screen_6,canvas.Screen,0_2_4_5,,skipped,5,5263720,,,5263702,,5263720,2021-10-26T18:20:29.891Z,5264366.62,1635169562,full,ni_sequenzen,NI_Sequenzen,,,,,,,,,,,,,,
,Sequence,flow.Sequence,0_2_4,,completion,5,5263699,,,5263702,,5263721,2021-10-26T18:20:29.891Z,5264366.62,1635169562,full,ni_sequenzen,NI_Sequenzen,,,,,,,,,,,,,,
,Screen_1,canvas.Screen,0_2_5_0,,skipped,6,5263726,,,5263726,,5263726,2021-10-26T18:20:29.896Z,5264366.62,1635169562,full,ni_sequenzen,NI_Sequenzen,,,,,,,,,,,,,,
,Screen_2,canvas.Screen,0_2_5_1,,skipped,6,5263730,,,5263726,,5263730,2021-10-26T18:20:29.900Z,5264366.62,1635169562,full,ni_sequenzen,NI_Sequenzen,,,,,,,,,,,,,,
,Screen_3,canvas.Screen,0_2_5_2,,skipped,6,5263733,,,5263726,,5263733,2021-10-26T18:20:29.903Z,5264366.62,1635169562,full,ni_sequenzen,NI_Sequenzen,,,,,,,,,,,,,,
,Screen_4,canvas.Screen,0_2_5_3,,skipped,6,5263737,,,5263726,,5263737,2021-10-26T18:20:29.907Z,5264366.62,1635169562,full,ni_sequenzen,NI_Sequenzen,,,,,,,,,,,,,,
,Screen_5,canvas.Screen,0_2_5_4,,skipped,6,5263741,,,5263726,,5263741,2021-10-26T18:20:29.910Z,5264366.62,1635169562,full,ni_sequenzen,NI_Sequenzen,,,,,,,,,,,,,,
,Screen_6,canvas.Screen,0_2_5_5,,skipped,6,5263744,,,5263726,,5263744,2021-10-26T18:20:29.914Z,5264366.62,1635169562,full,ni_sequenzen,NI_Sequenzen,,,,,,,,,,,,,,
,Sequence,flow.Sequence,0_2_5,,completion,6,5263723,,,5263726,,5263744,2021-10-26T18:20:29.915Z,5264366.62,1635169562,full,ni_sequenzen,NI_Sequenzen,,,,,,,,,,,,,,
,Screen_1,canvas.Screen,0_2_6_0,,skipped,7,5263748,,,5263748,,5263748,2021-10-26T18:20:29.919Z,5264366.62,1635169562,full,ni_sequenzen,NI_Sequenzen,,,,,,,,,,,,,,
,Screen_2,canvas.Screen,0_2_6_1,,skipped,7,5263752,,,5263748,,5263752,2021-10-26T18:20:29.923Z,5264366.62,1635169562,full,ni_sequenzen,NI_Sequenzen,,,,,,,,,,,,,,
,Screen_3,canvas.Screen,0_2_6_2,,skipped,7,5263756,,,5263748,,5263756,2021-10-26T18:20:29.927Z,5264366.62,1635169562,full,ni_sequenzen,NI_Sequenzen,,,,,,,,,,,,,,
,Screen_4,canvas.Screen,0_2_6_3,,skipped,7,5263759,,,5263748,,5263759,2021-10-26T18:20:29.930Z,5264366.62,1635169562,full,ni_sequenzen,NI_Sequenzen,,,,,,,,,,,,,,
,Screen_5,canvas.Screen,0_2_6_4,,skipped,7,5263763,,,5263748,,5263764,2021-10-26T18:20:29.933Z,5264366.62,1635169562,full,ni_sequenzen,NI_Sequenzen,,,,,,,,,,,,,,
,Screen_6,canvas.Screen,0_2_6_5,,skipped,7,5263766,,,5263748,,5263766,2021-10-26T18:20:29.936Z,5264366.62,1635169562,full,ni_sequenzen,NI_Sequenzen,,,,,,,,,,,,,,
,Sequence,flow.Sequence,0_2_6,,completion,7,5263746,,,5263748,,5263766,2021-10-26T18:20:29.936Z,5264366.62,1635169562,full,ni_sequenzen,NI_Sequenzen,,,,,,,,,,,,,,
,Screen_1,canvas.Screen,0_2_7_0,,skipped,8,5263770,,,5263770,,5263771,2021-10-26T18:20:29.940Z,5264366.62,1635169562,full,ni_sequenzen,NI_Sequenzen,,,,,,,,,,,,,,
,Screen_2,canvas.Screen,0_2_7_1,,skipped,8,5263774,,,5263770,,5263774,2021-10-26T18:20:29.944Z,5264366.62,1635169562,full,ni_sequenzen,NI_Sequenzen,,,,,,,,,,,,,,
,Screen_3,canvas.Screen,0_2_7_2,,skipped,8,5263777,,,5263770,,5263777,2021-10-26T18:20:29.947Z,5264366.62,1635169562,full,ni_sequenzen,NI_Sequenzen,,,,,,,,,,,,,,
,Screen_4,canvas.Screen,0_2_7_3,,skipped,8,5263781,,,5263770,,5263781,2021-10-26T18:20:29.951Z,5264366.62,1635169562,full,ni_sequenzen,NI_Sequenzen,,,,,,,,,,,,,,
,Screen_5,canvas.Screen,0_2_7_4,,skipped,8,5263784,,,5263770,,5263784,2021-10-26T18:20:29.954Z,5264366.62,1635169562,full,ni_sequenzen,NI_Sequenzen,,,,,,,,,,,,,,
,Screen_6,canvas.Screen,0_2_7_5,,skipped,8,5263788,,,5263770,,5263788,2021-10-26T18:20:29.958Z,5264366.62,1635169562,full,ni_sequenzen,NI_Sequenzen,,,,,,,,,,,,,,
,Sequence,flow.Sequence,0_2_7,,completion,8,5263767,,,5263770,,5263788,2021-10-26T18:20:29.958Z,5264366.62,1635169562,full,ni_sequenzen,NI_Sequenzen,,,,,,,,,,,,,,
,Screen_1,canvas.Screen,0_2_8_0,,skipped,9,5263792,,,5263792,,5263792,2021-10-26T18:20:29.961Z,5264366.62,1635169562,full,ni_sequenzen,NI_Sequenzen,,,,,,,,,,,,,,
,Screen_2,canvas.Screen,0_2_8_1,,skipped,9,5263796,,,5263792,,5263796,2021-10-26T18:20:29.966Z,5264366.62,1635169562,full,ni_sequenzen,NI_Sequenzen,,,,,,,,,,,,,,
,Screen_3,canvas.Screen,0_2_8_2,,skipped,9,5263799,,,5263792,,5263800,2021-10-26T18:20:29.969Z,5264366.62,1635169562,full,ni_sequenzen,NI_Sequenzen,,,,,,,,,,,,,,
,Screen_4,canvas.Screen,0_2_8_3,,skipped,9,5263803,,,5263792,,5263803,2021-10-26T18:20:29.973Z,5264366.62,1635169562,full,ni_sequenzen,NI_Sequenzen,,,,,,,,,,,,,,
,Screen_5,canvas.Screen,0_2_8_4,,skipped,9,5263806,,,5263792,,5263807,2021-10-26T18:20:29.976Z,5264366.62,1635169562,full,ni_sequenzen,NI_Sequenzen,,,,,,,,,,,,,,
,Screen_6,canvas.Screen,0_2_8_5,,skipped,9,5263809,,,5263792,,5263809,2021-10-26T18:20:29.980Z,5264366.62,1635169562,full,ni_sequenzen,NI_Sequenzen,,,,,,,,,,,,,,
,Sequence,flow.Sequence,0_2_8,,completion,9,5263789,,,5263792,,5263809,2021-10-26T18:20:29.980Z,5264366.62,1635169562,full,ni_sequenzen,NI_Sequenzen,,,,,,,,,,,,,,
,Screen_1,canvas.Screen,0_2_9_0,,skipped,10,5263813,,,5263813,,5263813,2021-10-26T18:20:29.984Z,5264366.62,1635169562,full,ni_sequenzen,NI_Sequenzen,,,,,,,,,,,,,,
,Screen_2,canvas.Screen,0_2_9_1,,skipped,10,5263817,,,5263813,,5263817,2021-10-26T18:20:29.986Z,5264366.62,1635169562,full,ni_sequenzen,NI_Sequenzen,,,,,,,,,,,,,,
,Screen_3,canvas.Screen,0_2_9_2,,skipped,10,5263820,,,5263813,,5263820,2021-10-26T18:20:29.990Z,5264366.62,1635169562,full,ni_sequenzen,NI_Sequenzen,,,,,,,,,,,,,,
,Screen_4,canvas.Screen,0_2_9_3,,skipped,10,5263823,,,5263813,,5263823,2021-10-26T18:20:29.994Z,5264366.62,1635169562,full,ni_sequenzen,NI_Sequenzen,,,,,,,,,,,,,,
,Screen_5,canvas.Screen,0_2_9_4,,skipped,10,5263826,,,5263813,,5263827,2021-10-26T18:20:29.997Z,5264366.62,1635169562,full,ni_sequenzen,NI_Sequenzen,,,,,,,,,,,,,,
,Screen_6,canvas.Screen,0_2_9_5,,skipped,10,5263831,,,5263813,,5263831,2021-10-26T18:20:30.002Z,5264366.62,1635169562,full,ni_sequenzen,NI_Sequenzen,,,,,,,,,,,,,,
,Sequence,flow.Sequence,0_2_9,,completion,10,5263810,,,5263813,,5263831,2021-10-26T18:20:30.002Z,5264366.62,1635169562,full,ni_sequenzen,NI_Sequenzen,,,,,,,,,,,,,,
,Screen_1,canvas.Screen,0_2_10_0,,skipped,11,5263835,,,5263835,,5263835,2021-10-26T18:20:30.005Z,5264366.62,1635169562,full,ni_sequenzen,NI_Sequenzen,,,,,,,,,,,,,,
,Screen_2,canvas.Screen,0_2_10_1,,skipped,11,5263838,,,5263835,,5263838,2021-10-26T18:20:30.008Z,5264366.62,1635169562,full,ni_sequenzen,NI_Sequenzen,,,,,,,,,,,,,,
,Screen_3,canvas.Screen,0_2_10_2,,skipped,11,5263841,,,5263835,,5263841,2021-10-26T18:20:30.011Z,5264366.62,1635169562,full,ni_sequenzen,NI_Sequenzen,,,,,,,,,,,,,,
,Screen_4,canvas.Screen,0_2_10_3,,skipped,11,5263844,,,5263835,,5263844,2021-10-26T18:20:30.014Z,5264366.62,1635169562,full,ni_sequenzen,NI_Sequenzen,,,,,,,,,,,,,,
,Screen_5,canvas.Screen,0_2_10_4,,skipped,11,5263847,,,5263835,,5263847,2021-10-26T18:20:30.017Z,5264366.62,1635169562,full,ni_sequenzen,NI_Sequenzen,,,,,,,,,,,,,,
,Screen_6,canvas.Screen,0_2_10_5,,skipped,11,5263850,,,5263835,,5263850,2021-10-26T18:20:30.020Z,5264366.62,1635169562,full,ni_sequenzen,NI_Sequenzen,,,,,,,,,,,,,,
,Sequence,flow.Sequence,0_2_10,,completion,11,5263832,,,5263835,,5263851,2021-10-26T18:20:30.021Z,5264366.62,1635169562,full,ni_sequenzen,NI_Sequenzen,,,,,,,,,,,,,,
,Screen_1,canvas.Screen,0_2_11_0,,skipped,12,5263854,,,5263855,,5263855,2021-10-26T18:20:30.024Z,5264366.62,1635169562,full,ni_sequenzen,NI_Sequenzen,,,,,,,,,,,,,,
,Screen_2,canvas.Screen,0_2_11_1,,skipped,12,5263857,,,5263855,,5263857,2021-10-26T18:20:30.027Z,5264366.62,1635169562,full,ni_sequenzen,NI_Sequenzen,,,,,,,,,,,,,,
,Screen_3,canvas.Screen,0_2_11_2,,skipped,12,5263860,,,5263855,,5263860,2021-10-26T18:20:30.030Z,5264366.62,1635169562,full,ni_sequenzen,NI_Sequenzen,,,,,,,,,,,,,,
,Screen_4,canvas.Screen,0_2_11_3,,skipped,12,5263865,,,5263855,,5263865,2021-10-26T18:20:30.035Z,5264366.62,1635169562,full,ni_sequenzen,NI_Sequenzen,,,,,,,,,,,,,,
,Screen_5,canvas.Screen,0_2_11_4,,skipped,12,5263869,,,5263855,,5263869,2021-10-26T18:20:30.039Z,5264366.62,1635169562,full,ni_sequenzen,NI_Sequenzen,,,,,,,,,,,,,,
,Screen_6,canvas.Screen,0_2_11_5,,skipped,12,5263872,,,5263855,,5263872,2021-10-26T18:20:30.042Z,5264366.62,1635169562,full,ni_sequenzen,NI_Sequenzen,,,,,,,,,,,,,,
,Sequence,flow.Sequence,0_2_11,,completion,12,5263852,,,5263855,,5263872,2021-10-26T18:20:30.042Z,5264366.62,1635169562,full,ni_sequenzen,NI_Sequenzen,,,,,,,,,,,,,,
,Screen_1,canvas.Screen,0_2_12_0,,skipped,13,5263876,,,5263876,,5263876,2021-10-26T18:20:30.046Z,5264366.62,1635169562,full,ni_sequenzen,NI_Sequenzen,,,,,,,,,,,,,,
,Screen_2,canvas.Screen,0_2_12_1,,skipped,13,5263878,,,5263876,,5263878,2021-10-26T18:20:30.049Z,5264366.62,1635169562,full,ni_sequenzen,NI_Sequenzen,,,,,,,,,,,,,,
,Screen_3,canvas.Screen,0_2_12_2,,skipped,13,5263881,,,5263876,,5263881,2021-10-26T18:20:30.051Z,5264366.62,1635169562,full,ni_sequenzen,NI_Sequenzen,,,,,,,,,,,,,,
,Screen_4,canvas.Screen,0_2_12_3,,skipped,13,5263884,,,5263876,,5263884,2021-10-26T18:20:30.054Z,5264366.62,1635169562,full,ni_sequenzen,NI_Sequenzen,,,,,,,,,,,,,,
,Screen_5,canvas.Screen,0_2_12_4,,skipped,13,5263886,,,5263876,,5263886,2021-10-26T18:20:30.057Z,5264366.62,1635169562,full,ni_sequenzen,NI_Sequenzen,,,,,,,,,,,,,,
,Screen_6,canvas.Screen,0_2_12_5,,skipped,13,5263890,,,5263876,,5263890,2021-10-26T18:20:30.060Z,5264366.62,1635169562,full,ni_sequenzen,NI_Sequenzen,,,,,,,,,,,,,,
,Sequence,flow.Sequence,0_2_12,,completion,13,5263873,,,5263876,,5263890,2021-10-26T18:20:30.060Z,5264366.62,1635169562,full,ni_sequenzen,NI_Sequenzen,,,,,,,,,,,,,,
,Screen_1,canvas.Screen,0_2_13_0,,skipped,14,5263893,,,5263893,,5263893,2021-10-26T18:20:30.063Z,5264366.62,1635169562,full,ni_sequenzen,NI_Sequenzen,,,,,,,,,,,,,,
,Screen_2,canvas.Screen,0_2_13_1,,skipped,14,5263896,,,5263893,,5263896,2021-10-26T18:20:30.066Z,5264366.62,1635169562,full,ni_sequenzen,NI_Sequenzen,,,,,,,,,,,,,,
,Screen_3,canvas.Screen,0_2_13_2,,skipped,14,5263900,,,5263893,,5263900,2021-10-26T18:20:30.069Z,5264366.62,1635169562,full,ni_sequenzen,NI_Sequenzen,,,,,,,,,,,,,,
,Screen_4,canvas.Screen,0_2_13_3,,skipped,14,5263902,,,5263893,,5263902,2021-10-26T18:20:30.072Z,5264366.62,1635169562,full,ni_sequenzen,NI_Sequenzen,,,,,,,,,,,,,,
,Screen_5,canvas.Screen,0_2_13_4,,skipped,14,5263905,,,5263893,,5263905,2021-10-26T18:20:30.076Z,5264366.62,1635169562,full,ni_sequenzen,NI_Sequenzen,,,,,,,,,,,,,,
,Screen_6,canvas.Screen,0_2_13_5,,skipped,14,5263907,,,5263893,,5263907,2021-10-26T18:20:30.078Z,5264366.62,1635169562,full,ni_sequenzen,NI_Sequenzen,,,,,,,,,,,,,,
,Sequence,flow.Sequence,0_2_13,,completion,14,5263891,,,5263893,,5263908,2021-10-26T18:20:30.078Z,5264366.62,1635169562,full,ni_sequenzen,NI_Sequenzen,,,,,,,,,,,,,,
,Screen_1,canvas.Screen,0_2_14_0,,skipped,15,5263911,,,5263911,,5263911,2021-10-26T18:20:30.081Z,5264366.62,1635169562,full,ni_sequenzen,NI_Sequenzen,,,,,,,,,,,,,,
,Screen_2,canvas.Screen,0_2_14_1,,skipped,15,5263914,,,5263911,,5263914,2021-10-26T18:20:30.084Z,5264366.62,1635169562,full,ni_sequenzen,NI_Sequenzen,,,,,,,,,,,,,,
,Screen_3,canvas.Screen,0_2_14_2,,skipped,15,5263919,,,5263911,,5263919,2021-10-26T18:20:30.088Z,5264366.62,1635169562,full,ni_sequenzen,NI_Sequenzen,,,,,,,,,,,,,,
,Screen_4,canvas.Screen,0_2_14_3,,skipped,15,5263922,,,5263911,,5263922,2021-10-26T18:20:30.092Z,5264366.62,1635169562,full,ni_sequenzen,NI_Sequenzen,,,,,,,,,,,,,,
,Screen_5,canvas.Screen,0_2_14_4,,skipped,15,5263924,,,5263911,,5263925,2021-10-26T18:20:30.095Z,5264366.62,1635169562,full,ni_sequenzen,NI_Sequenzen,,,,,,,,,,,,,,
,Screen_6,canvas.Screen,0_2_14_5,,skipped,15,5263928,,,5263911,,5263928,2021-10-26T18:20:30.098Z,5264366.62,1635169562,full,ni_sequenzen,NI_Sequenzen,,,,,,,,,,,,,,
,Sequence,flow.Sequence,0_2_14,,completion,15,5263908,,,5263911,,5263928,2021-10-26T18:20:30.098Z,5264366.62,1635169562,full,ni_sequenzen,NI_Sequenzen,,,,,,,,,,,,,,
,Screen_1,canvas.Screen,0_2_15_0,,skipped,16,5263932,,,5263932,,5263932,2021-10-26T18:20:30.102Z,5264366.62,1635169562,full,ni_sequenzen,NI_Sequenzen,,,,,,,,,,,,,,
,Screen_2,canvas.Screen,0_2_15_1,,skipped,16,5263935,,,5263932,,5263935,2021-10-26T18:20:30.105Z,5264366.62,1635169562,full,ni_sequenzen,NI_Sequenzen,,,,,,,,,,,,,,
,Screen_3,canvas.Screen,0_2_15_2,,skipped,16,5263937,,,5263932,,5263937,2021-10-26T18:20:30.108Z,5264366.62,1635169562,full,ni_sequenzen,NI_Sequenzen,,,,,,,,,,,,,,
,Screen_4,canvas.Screen,0_2_15_3,,skipped,16,5263940,,,5263932,,5263940,2021-10-26T18:20:30.111Z,5264366.62,1635169562,full,ni_sequenzen,NI_Sequenzen,,,,,,,,,,,,,,
,Screen_5,canvas.Screen,0_2_15_4,,skipped,16,5263943,,,5263932,,5263943,2021-10-26T18:20:30.113Z,5264366.62,1635169562,full,ni_sequenzen,NI_Sequenzen,,,,,,,,,,,,,,
,Screen_6,canvas.Screen,0_2_15_5,,skipped,16,5263946,,,5263932,,5263946,2021-10-26T18:20:30.116Z,5264366.62,1635169562,full,ni_sequenzen,NI_Sequenzen,,,,,,,,,,,,,,
,Sequence,flow.Sequence,0_2_15,,completion,16,5263929,,,5263932,,5263946,2021-10-26T18:20:30.116Z,5264366.62,1635169562,full,ni_sequenzen,NI_Sequenzen,,,,,,,,,,,,,,
,Screen_1,canvas.Screen,0_2_16_0,,skipped,17,5263950,,,5263950,,5263950,2021-10-26T18:20:30.120Z,5264366.62,1635169562,full,ni_sequenzen,NI_Sequenzen,,,,,,,,,,,,,,
,Screen_2,canvas.Screen,0_2_16_1,,skipped,17,5263952,,,5263950,,5263952,2021-10-26T18:20:30.122Z,5264366.62,1635169562,full,ni_sequenzen,NI_Sequenzen,,,,,,,,,,,,,,
,Screen_3,canvas.Screen,0_2_16_2,,skipped,17,5263955,,,5263950,,5263955,2021-10-26T18:20:30.125Z,5264366.62,1635169562,full,ni_sequenzen,NI_Sequenzen,,,,,,,,,,,,,,
,Screen_4,canvas.Screen,0_2_16_3,,skipped,17,5263957,,,5263950,,5263957,2021-10-26T18:20:30.127Z,5264366.62,1635169562,full,ni_sequenzen,NI_Sequenzen,,,,,,,,,,,,,,
,Screen_5,canvas.Screen,0_2_16_4,,skipped,17,5263960,,,5263950,,5263960,2021-10-26T18:20:30.129Z,5264366.62,1635169562,full,ni_sequenzen,NI_Sequenzen,,,,,,,,,,,,,,
,Screen_6,canvas.Screen,0_2_16_5,,skipped,17,5263963,,,5263950,,5263963,2021-10-26T18:20:30.132Z,5264366.62,1635169562,full,ni_sequenzen,NI_Sequenzen,,,,,,,,,,,,,,
,Sequence,flow.Sequence,0_2_16,,completion,17,5263947,,,5263950,,5263963,2021-10-26T18:20:30.134Z,5264366.62,1635169562,full,ni_sequenzen,NI_Sequenzen,,,,,,,,,,,,,,
,Screen_1,canvas.Screen,0_2_17_0,,skipped,18,5263967,,,5263967,,5263967,2021-10-26T18:20:30.136Z,5264366.62,1635169562,full,ni_sequenzen,NI_Sequenzen,,,,,,,,,,,,,,
,Screen_2,canvas.Screen,0_2_17_1,,skipped,18,5263970,,,5263967,,5263970,2021-10-26T18:20:30.140Z,5264366.62,1635169562,full,ni_sequenzen,NI_Sequenzen,,,,,,,,,,,,,,
,Screen_3,canvas.Screen,0_2_17_2,,skipped,18,5263973,,,5263967,,5263973,2021-10-26T18:20:30.143Z,5264366.62,1635169562,full,ni_sequenzen,NI_Sequenzen,,,,,,,,,,,,,,
,Screen_4,canvas.Screen,0_2_17_3,,skipped,18,5263976,,,5263967,,5263976,2021-10-26T18:20:30.146Z,5264366.62,1635169562,full,ni_sequenzen,NI_Sequenzen,,,,,,,,,,,,,,
,Screen_5,canvas.Screen,0_2_17_4,,skipped,18,5263979,,,5263967,,5263979,2021-10-26T18:20:30.149Z,5264366.62,1635169562,full,ni_sequenzen,NI_Sequenzen,,,,,,,,,,,,,,
,Screen_6,canvas.Screen,0_2_17_5,,skipped,18,5263982,,,5263967,,5263982,2021-10-26T18:20:30.152Z,5264366.62,1635169562,full,ni_sequenzen,NI_Sequenzen,,,,,,,,,,,,,,
,Sequence,flow.Sequence,0_2_17,,completion,18,5263964,,,5263967,,5263982,2021-10-26T18:20:30.153Z,5264366.62,1635169562,full,ni_sequenzen,NI_Sequenzen,,,,,,,,,,,,,,
,Screen_1,canvas.Screen,0_2_18_0,,skipped,19,5263986,,,5263986,,5263987,2021-10-26T18:20:30.156Z,5264366.62,1635169562,full,ni_sequenzen,NI_Sequenzen,,,,,,,,,,,,,,
,Screen_2,canvas.Screen,0_2_18_1,,skipped,19,5263989,,,5263986,,5263989,2021-10-26T18:20:30.159Z,5264366.62,1635169562,full,ni_sequenzen,NI_Sequenzen,,,,,,,,,,,,,,
,Screen_3,canvas.Screen,0_2_18_2,,skipped,19,5263993,,,5263986,,5263993,2021-10-26T18:20:30.163Z,5264366.62,1635169562,full,ni_sequenzen,NI_Sequenzen,,,,,,,,,,,,,,
,Screen_4,canvas.Screen,0_2_18_3,,skipped,19,5263996,,,5263986,,5263996,2021-10-26T18:20:30.166Z,5264366.62,1635169562,full,ni_sequenzen,NI_Sequenzen,,,,,,,,,,,,,,
,Screen_5,canvas.Screen,0_2_18_4,,skipped,19,5263998,,,5263986,,5263998,2021-10-26T18:20:30.169Z,5264366.62,1635169562,full,ni_sequenzen,NI_Sequenzen,,,,,,,,,,,,,,
,Screen_6,canvas.Screen,0_2_18_5,,skipped,19,5264002,,,5263986,,5264002,2021-10-26T18:20:30.172Z,5264366.62,1635169562,full,ni_sequenzen,NI_Sequenzen,,,,,,,,,,,,,,
,Sequence,flow.Sequence,0_2_18,,completion,19,5263984,,,5263986,,5264002,2021-10-26T18:20:30.172Z,5264366.62,1635169562,full,ni_sequenzen,NI_Sequenzen,,,,,,,,,,,,,,
,Screen_1,canvas.Screen,0_2_19_0,,skipped,20,5264006,,,5264006,,5264006,2021-10-26T18:20:30.176Z,5264366.62,1635169562,full,ni_sequenzen,NI_Sequenzen,,,,,,,,,,,,,,
,Screen_2,canvas.Screen,0_2_19_1,,skipped,20,5264009,,,5264006,,5264009,2021-10-26T18:20:30.179Z,5264366.62,1635169562,full,ni_sequenzen,NI_Sequenzen,,,,,,,,,,,,,,
,Screen_3,canvas.Screen,0_2_19_2,,skipped,20,5264012,,,5264006,,5264012,2021-10-26T18:20:30.182Z,5264366.62,1635169562,full,ni_sequenzen,NI_Sequenzen,,,,,,,,,,,,,,
,Screen_4,canvas.Screen,0_2_19_3,,skipped,20,5264015,,,5264006,,5264015,2021-10-26T18:20:30.186Z,5264366.62,1635169562,full,ni_sequenzen,NI_Sequenzen,,,,,,,,,,,,,,
,Screen_5,canvas.Screen,0_2_19_4,,skipped,20,5264018,,,5264006,,5264018,2021-10-26T18:20:30.189Z,5264366.62,1635169562,full,ni_sequenzen,NI_Sequenzen,,,,,,,,,,,,,,
,Screen_6,canvas.Screen,0_2_19_5,,skipped,20,5264021,,,5264006,,5264022,2021-10-26T18:20:30.192Z,5264366.62,1635169562,full,ni_sequenzen,NI_Sequenzen,,,,,,,,,,,,,,
,Sequence,flow.Sequence,0_2_19,,completion,20,5264004,,,5264006,,5264022,2021-10-26T18:20:30.192Z,5264366.62,1635169562,full,ni_sequenzen,NI_Sequenzen,,,,,,,,,,,,,,
,Screen_1,canvas.Screen,0_2_20_0,,skipped,21,5264025,,,5264025,,5264025,2021-10-26T18:20:30.195Z,5264366.62,1635169562,full,ni_sequenzen,NI_Sequenzen,,,,,,,,,,,,,,
,Screen_2,canvas.Screen,0_2_20_1,,skipped,21,5264029,,,5264025,,5264029,2021-10-26T18:20:30.199Z,5264366.62,1635169562,full,ni_sequenzen,NI_Sequenzen,,,,,,,,,,,,,,
,Screen_3,canvas.Screen,0_2_20_2,,skipped,21,5264032,,,5264025,,5264032,2021-10-26T18:20:30.202Z,5264366.62,1635169562,full,ni_sequenzen,NI_Sequenzen,,,,,,,,,,,,,,
,Screen_4,canvas.Screen,0_2_20_3,,skipped,21,5264035,,,5264025,,5264035,2021-10-26T18:20:30.205Z,5264366.62,1635169562,full,ni_sequenzen,NI_Sequenzen,,,,,,,,,,,,,,
,Screen_5,canvas.Screen,0_2_20_4,,skipped,21,5264038,,,5264025,,5264038,2021-10-26T18:20:30.209Z,5264366.62,1635169562,full,ni_sequenzen,NI_Sequenzen,,,,,,,,,,,,,,
,Screen_6,canvas.Screen,0_2_20_5,,skipped,21,5264042,,,5264025,,5264042,2021-10-26T18:20:30.212Z,5264366.62,1635169562,full,ni_sequenzen,NI_Sequenzen,,,,,,,,,,,,,,
,Sequence,flow.Sequence,0_2_20,,completion,21,5264022,,,5264025,,5264042,2021-10-26T18:20:30.212Z,5264366.62,1635169562,full,ni_sequenzen,NI_Sequenzen,,,,,,,,,,,,,,
,Screen_1,canvas.Screen,0_2_21_0,,skipped,22,5264046,,,5264046,,5264046,2021-10-26T18:20:30.217Z,5264366.62,1635169562,full,ni_sequenzen,NI_Sequenzen,,,,,,,,,,,,,,
,Screen_2,canvas.Screen,0_2_21_1,,skipped,22,5264049,,,5264046,,5264049,2021-10-26T18:20:30.220Z,5264366.62,1635169562,full,ni_sequenzen,NI_Sequenzen,,,,,,,,,,,,,,
,Screen_3,canvas.Screen,0_2_21_2,,skipped,22,5264053,,,5264046,,5264053,2021-10-26T18:20:30.223Z,5264366.62,1635169562,full,ni_sequenzen,NI_Sequenzen,,,,,,,,,,,,,,
,Screen_4,canvas.Screen,0_2_21_3,,skipped,22,5264056,,,5264046,,5264056,2021-10-26T18:20:30.225Z,5264366.62,1635169562,full,ni_sequenzen,NI_Sequenzen,,,,,,,,,,,,,,
,Screen_5,canvas.Screen,0_2_21_4,,skipped,22,5264059,,,5264046,,5264059,2021-10-26T18:20:30.230Z,5264366.62,1635169562,full,ni_sequenzen,NI_Sequenzen,,,,,,,,,,,,,,
,Screen_6,canvas.Screen,0_2_21_5,,skipped,22,5264062,,,5264046,,5264062,2021-10-26T18:20:30.232Z,5264366.62,1635169562,full,ni_sequenzen,NI_Sequenzen,,,,,,,,,,,,,,
,Sequence,flow.Sequence,0_2_21,,completion,22,5264043,,,5264046,,5264062,2021-10-26T18:20:30.232Z,5264366.62,1635169562,full,ni_sequenzen,NI_Sequenzen,,,,,,,,,,,,,,
,Screen_1,canvas.Screen,0_2_22_0,,skipped,23,5264066,,,5264066,,5264066,2021-10-26T18:20:30.237Z,5264366.62,1635169562,full,ni_sequenzen,NI_Sequenzen,,,,,,,,,,,,,,
,Screen_2,canvas.Screen,0_2_22_1,,skipped,23,5264070,,,5264066,,5264070,2021-10-26T18:20:30.240Z,5264366.62,1635169562,full,ni_sequenzen,NI_Sequenzen,,,,,,,,,,,,,,
,Screen_3,canvas.Screen,0_2_22_2,,skipped,23,5264073,,,5264066,,5264073,2021-10-26T18:20:30.243Z,5264366.62,1635169562,full,ni_sequenzen,NI_Sequenzen,,,,,,,,,,,,,,
,Screen_4,canvas.Screen,0_2_22_3,,skipped,23,5264076,,,5264066,,5264076,2021-10-26T18:20:30.246Z,5264366.62,1635169562,full,ni_sequenzen,NI_Sequenzen,,,,,,,,,,,,,,
,Screen_5,canvas.Screen,0_2_22_4,,skipped,23,5264080,,,5264066,,5264080,2021-10-26T18:20:30.249Z,5264366.62,1635169562,full,ni_sequenzen,NI_Sequenzen,,,,,,,,,,,,,,
,Screen_6,canvas.Screen,0_2_22_5,,skipped,23,5264082,,,5264066,,5264082,2021-10-26T18:20:30.252Z,5264366.62,1635169562,full,ni_sequenzen,NI_Sequenzen,,,,,,,,,,,,,,
,Sequence,flow.Sequence,0_2_22,,completion,23,5264063,,,5264066,,5264082,2021-10-26T18:20:30.252Z,5264366.62,1635169562,full,ni_sequenzen,NI_Sequenzen,,,,,,,,,,,,,,
,Screen_1,canvas.Screen,0_2_23_0,,skipped,24,5264086,,,5264086,,5264086,2021-10-26T18:20:30.256Z,5264366.62,1635169562,full,ni_sequenzen,NI_Sequenzen,,,,,,,,,,,,,,
,Screen_2,canvas.Screen,0_2_23_1,,skipped,24,5264089,,,5264086,,5264089,2021-10-26T18:20:30.260Z,5264366.62,1635169562,full,ni_sequenzen,NI_Sequenzen,,,,,,,,,,,,,,
,Screen_3,canvas.Screen,0_2_23_2,,skipped,24,5264092,,,5264086,,5264092,2021-10-26T18:20:30.263Z,5264366.62,1635169562,full,ni_sequenzen,NI_Sequenzen,,,,,,,,,,,,,,
,Screen_4,canvas.Screen,0_2_23_3,,skipped,24,5264096,,,5264086,,5264096,2021-10-26T18:20:30.266Z,5264366.62,1635169562,full,ni_sequenzen,NI_Sequenzen,,,,,,,,,,,,,,
,Screen_5,canvas.Screen,0_2_23_4,,skipped,24,5264101,,,5264086,,5264101,2021-10-26T18:20:30.271Z,5264366.62,1635169562,full,ni_sequenzen,NI_Sequenzen,,,,,,,,,,,,,,
,Screen_6,canvas.Screen,0_2_23_5,,skipped,24,5264104,,,5264086,,5264104,2021-10-26T18:20:30.275Z,5264366.62,1635169562,full,ni_sequenzen,NI_Sequenzen,,,,,,,,,,,,,,
,Sequence,flow.Sequence,0_2_23,,completion,24,5264083,,,5264086,,5264104,2021-10-26T18:20:30.275Z,5264366.62,1635169562,full,ni_sequenzen,NI_Sequenzen,,,,,,,,,,,,,,
,Screen_1,canvas.Screen,0_2_24_0,,skipped,25,5264108,,,5264108,,5264108,2021-10-26T18:20:30.278Z,5264366.62,1635169562,full,ni_sequenzen,NI_Sequenzen,,,,,,,,,,,,,,
,Screen_2,canvas.Screen,0_2_24_1,,skipped,25,5264111,,,5264108,,5264111,2021-10-26T18:20:30.282Z,5264366.62,1635169562,full,ni_sequenzen,NI_Sequenzen,,,,,,,,,,,,,,
,Screen_3,canvas.Screen,0_2_24_2,,skipped,25,5264114,,,5264108,,5264114,2021-10-26T18:20:30.285Z,5264366.62,1635169562,full,ni_sequenzen,NI_Sequenzen,,,,,,,,,,,,,,
,Screen_4,canvas.Screen,0_2_24_3,,skipped,25,5264117,,,5264108,,5264117,2021-10-26T18:20:30.287Z,5264366.62,1635169562,full,ni_sequenzen,NI_Sequenzen,,,,,,,,,,,,,,
,Screen_5,canvas.Screen,0_2_24_4,,skipped,25,5264120,,,5264108,,5264121,2021-10-26T18:20:30.290Z,5264366.62,1635169562,full,ni_sequenzen,NI_Sequenzen,,,,,,,,,,,,,,
,Screen_6,canvas.Screen,0_2_24_5,,skipped,25,5264123,,,5264108,,5264123,2021-10-26T18:20:30.293Z,5264366.62,1635169562,full,ni_sequenzen,NI_Sequenzen,,,,,,,,,,,,,,
,Sequence,flow.Sequence,0_2_24,,completion,25,5264105,,,5264108,,5264123,2021-10-26T18:20:30.294Z,5264366.62,1635169562,full,ni_sequenzen,NI_Sequenzen,,,,,,,,,,,,,,
,Screen_1,canvas.Screen,0_2_25_0,,skipped,26,5264126,,,5264126,,5264126,2021-10-26T18:20:30.297Z,5264366.62,1635169562,full,ni_sequenzen,NI_Sequenzen,,,,,,,,,,,,,,
,Screen_2,canvas.Screen,0_2_25_1,,skipped,26,5264129,,,5264126,,5264129,2021-10-26T18:20:30.299Z,5264366.62,1635169562,full,ni_sequenzen,NI_Sequenzen,,,,,,,,,,,,,,
,Screen_3,canvas.Screen,0_2_25_2,,skipped,26,5264133,,,5264126,,5264133,2021-10-26T18:20:30.303Z,5264366.62,1635169562,full,ni_sequenzen,NI_Sequenzen,,,,,,,,,,,,,,
,Screen_4,canvas.Screen,0_2_25_3,,skipped,26,5264135,,,5264126,,5264135,2021-10-26T18:20:30.306Z,5264366.62,1635169562,full,ni_sequenzen,NI_Sequenzen,,,,,,,,,,,,,,
,Screen_5,canvas.Screen,0_2_25_4,,skipped,26,5264138,,,5264126,,5264139,2021-10-26T18:20:30.308Z,5264366.62,1635169562,full,ni_sequenzen,NI_Sequenzen,,,,,,,,,,,,,,
,Screen_6,canvas.Screen,0_2_25_5,,skipped,26,5264141,,,5264126,,5264141,2021-10-26T18:20:30.311Z,5264366.62,1635169562,full,ni_sequenzen,NI_Sequenzen,,,,,,,,,,,,,,
,Sequence,flow.Sequence,0_2_25,,completion,26,5264124,,,5264126,,5264141,2021-10-26T18:20:30.311Z,5264366.62,1635169562,full,ni_sequenzen,NI_Sequenzen,,,,,,,,,,,,,,
,Screen_1,canvas.Screen,0_2_26_0,,skipped,27,5264145,,,5264145,,5264145,2021-10-26T18:20:30.315Z,5264366.62,1635169562,full,ni_sequenzen,NI_Sequenzen,,,,,,,,,,,,,,
,Screen_2,canvas.Screen,0_2_26_1,,skipped,27,5264148,,,5264145,,5264148,2021-10-26T18:20:30.319Z,5264366.62,1635169562,full,ni_sequenzen,NI_Sequenzen,,,,,,,,,,,,,,
,Screen_3,canvas.Screen,0_2_26_2,,skipped,27,5264152,,,5264145,,5264152,2021-10-26T18:20:30.323Z,5264366.62,1635169562,full,ni_sequenzen,NI_Sequenzen,,,,,,,,,,,,,,
,Screen_4,canvas.Screen,0_2_26_3,,skipped,27,5264155,,,5264145,,5264155,2021-10-26T18:20:30.326Z,5264366.62,1635169562,full,ni_sequenzen,NI_Sequenzen,,,,,,,,,,,,,,
,Screen_5,canvas.Screen,0_2_26_4,,skipped,27,5264158,,,5264145,,5264158,2021-10-26T18:20:30.328Z,5264366.62,1635169562,full,ni_sequenzen,NI_Sequenzen,,,,,,,,,,,,,,
,Screen_6,canvas.Screen,0_2_26_5,,skipped,27,5264161,,,5264145,,5264161,2021-10-26T18:20:30.331Z,5264366.62,1635169562,full,ni_sequenzen,NI_Sequenzen,,,,,,,,,,,,,,
,Sequence,flow.Sequence,0_2_26,,completion,27,5264142,,,5264145,,5264161,2021-10-26T18:20:30.331Z,5264366.62,1635169562,full,ni_sequenzen,NI_Sequenzen,,,,,,,,,,,,,,
,Screen_1,canvas.Screen,0_2_27_0,,skipped,28,5264165,,,5264165,,5264165,2021-10-26T18:20:30.335Z,5264366.62,1635169562,full,ni_sequenzen,NI_Sequenzen,,,,,,,,,,,,,,
,Screen_2,canvas.Screen,0_2_27_1,,skipped,28,5264167,,,5264165,,5264168,2021-10-26T18:20:30.338Z,5264366.62,1635169562,full,ni_sequenzen,NI_Sequenzen,,,,,,,,,,,,,,
,Screen_3,canvas.Screen,0_2_27_2,,skipped,28,5264171,,,5264165,,5264171,2021-10-26T18:20:30.341Z,5264366.62,1635169562,full,ni_sequenzen,NI_Sequenzen,,,,,,,,,,,,,,
,Screen_4,canvas.Screen,0_2_27_3,,skipped,28,5264174,,,5264165,,5264174,2021-10-26T18:20:30.344Z,5264366.62,1635169562,full,ni_sequenzen,NI_Sequenzen,,,,,,,,,,,,,,
,Screen_5,canvas.Screen,0_2_27_4,,skipped,28,5264177,,,5264165,,5264177,2021-10-26T18:20:30.347Z,5264366.62,1635169562,full,ni_sequenzen,NI_Sequenzen,,,,,,,,,,,,,,
,Screen_6,canvas.Screen,0_2_27_5,,skipped,28,5264181,,,5264165,,5264181,2021-10-26T18:20:30.351Z,5264366.62,1635169562,full,ni_sequenzen,NI_Sequenzen,,,,,,,,,,,,,,
,Sequence,flow.Sequence,0_2_27,,completion,28,5264162,,,5264165,,5264181,2021-10-26T18:20:30.351Z,5264366.62,1635169562,full,ni_sequenzen,NI_Sequenzen,,,,,,,,,,,,,,
,Screen_1,canvas.Screen,0_2_28_0,,skipped,29,5264186,,,5264186,,5264186,2021-10-26T18:20:30.355Z,5264366.62,1635169562,full,ni_sequenzen,NI_Sequenzen,,,,,,,,,,,,,,
,Screen_2,canvas.Screen,0_2_28_1,,skipped,29,5264189,,,5264186,,5264189,2021-10-26T18:20:30.358Z,5264366.62,1635169562,full,ni_sequenzen,NI_Sequenzen,,,,,,,,,,,,,,
,Screen_3,canvas.Screen,0_2_28_2,,skipped,29,5264192,,,5264186,,5264192,2021-10-26T18:20:30.362Z,5264366.62,1635169562,full,ni_sequenzen,NI_Sequenzen,,,,,,,,,,,,,,
,Screen_4,canvas.Screen,0_2_28_3,,skipped,29,5264195,,,5264186,,5264195,2021-10-26T18:20:30.364Z,5264366.62,1635169562,full,ni_sequenzen,NI_Sequenzen,,,,,,,,,,,,,,
,Screen_5,canvas.Screen,0_2_28_4,,skipped,29,5264196,,,5264186,,5264196,2021-10-26T18:20:30.366Z,5264366.62,1635169562,full,ni_sequenzen,NI_Sequenzen,,,,,,,,,,,,,,
,Screen_6,canvas.Screen,0_2_28_5,,skipped,29,5264199,,,5264186,,5264199,2021-10-26T18:20:30.370Z,5264366.62,1635169562,full,ni_sequenzen,NI_Sequenzen,,,,,,,,,,,,,,
,Sequence,flow.Sequence,0_2_28,,completion,29,5264182,,,5264186,,5264199,2021-10-26T18:20:30.370Z,5264366.62,1635169562,full,ni_sequenzen,NI_Sequenzen,,,,,,,,,,,,,,
,Screen_1,canvas.Screen,0_2_29_0,,skipped,30,5264203,,,5264203,,5264203,2021-10-26T18:20:30.373Z,5264366.62,1635169562,full,ni_sequenzen,NI_Sequenzen,,,,,,,,,,,,,,
,Screen_2,canvas.Screen,0_2_29_1,,skipped,30,5264206,,,5264203,,5264206,2021-10-26T18:20:30.376Z,5264366.62,1635169562,full,ni_sequenzen,NI_Sequenzen,,,,,,,,,,,,,,
,Screen_3,canvas.Screen,0_2_29_2,,skipped,30,5264209,,,5264203,,5264209,2021-10-26T18:20:30.378Z,5264366.62,1635169562,full,ni_sequenzen,NI_Sequenzen,,,,,,,,,,,,,,
,Screen_4,canvas.Screen,0_2_29_3,,skipped,30,5264212,,,5264203,,5264212,2021-10-26T18:20:30.381Z,5264366.62,1635169562,full,ni_sequenzen,NI_Sequenzen,,,,,,,,,,,,,,
,Screen_5,canvas.Screen,0_2_29_4,,skipped,30,5264214,,,5264203,,5264214,2021-10-26T18:20:30.384Z,5264366.62,1635169562,full,ni_sequenzen,NI_Sequenzen,,,,,,,,,,,,,,
,Screen_6,canvas.Screen,0_2_29_5,,skipped,30,5264217,,,5264203,,5264217,2021-10-26T18:20:30.387Z,5264366.62,1635169562,full,ni_sequenzen,NI_Sequenzen,,,,,,,,,,,,,,
,Sequence,flow.Sequence,0_2_29,,completion,30,5264201,,,5264203,,5264217,2021-10-26T18:20:30.387Z,5264366.62,1635169562,full,ni_sequenzen,NI_Sequenzen,,,,,,,,,,,,,,
,Instructions_II,flow.Loop,0_2,,completion,,5200586,5200594.28,5200594.46,5264203,63608.54000000004,5264217,2021-10-26T18:20:30.387Z,5264366.62,1635169562,full,ni_sequenzen,NI_Sequenzen,,,,,,,,,,,,,,
,Move,canvas.Screen,0_3_0_0_0_0,down,response,,5264367,5264366.4,5264366.62,5267315,2948.3799999998882,5267340,2021-10-26T18:20:33.509Z,5267394.74,1635169562,full,ni_sequenzen,NI_Sequenzen,1,0,,,,,,,,,,,,
,Move,canvas.Screen,0_3_0_0_0_1,left,response,,5267394,5267394.48,5267394.74,5267878,483.2599999997765,5267895,2021-10-26T18:20:34.065Z,5267952.96,1635169562,full,ni_sequenzen,NI_Sequenzen,2,0,,,,,,,,,,,,
,Move,canvas.Screen,0_3_0_0_0_2,down,response,,5267950,5267949.72,5267952.96,5268237,284.04000000003725,5268263,2021-10-26T18:20:34.433Z,5268304.28,1635169562,full,ni_sequenzen,NI_Sequenzen,3,0,,,,,,,,,,,,
,Move,canvas.Screen,0_3_0_0_0_3,left,response,,5268304,5268303.98,5268304.28,5268565,260.71999999973923,5268582,2021-10-26T18:20:34.753Z,5268841.62,1635169562,full,ni_sequenzen,NI_Sequenzen,4,0,,,,,,,,,,,,
,Move,canvas.Screen,0_3_0_0_0_4,-999,skipped,,5268638,,,5268565,,5268638,2021-10-26T18:20:34.808Z,5268841.62,1635169562,full,ni_sequenzen,NI_Sequenzen,5,0,,,,,,,,,,,,
,Move,canvas.Screen,0_3_0_0_0_5,-999,skipped,,5268662,,,5268565,,5268662,2021-10-26T18:20:34.832Z,5268841.62,1635169562,full,ni_sequenzen,NI_Sequenzen,6,0,,,,,,,,,,,,
,Move,canvas.Screen,0_3_0_0_0_6,-999,skipped,,5268681,,,5268565,,5268681,2021-10-26T18:20:34.851Z,5268841.62,1635169562,full,ni_sequenzen,NI_Sequenzen,7,0,,,,,,,,,,,,
,Move,canvas.Screen,0_3_0_0_0_7,-999,skipped,,5268698,,,5268565,,5268698,2021-10-26T18:20:34.868Z,5268841.62,1635169562,full,ni_sequenzen,NI_Sequenzen,8,0,,,,,,,,,,,,
,Move,canvas.Screen,0_3_0_0_0_8,-999,skipped,,5268717,,,5268565,,5268717,2021-10-26T18:20:34.887Z,5268841.62,1635169562,full,ni_sequenzen,NI_Sequenzen,9,0,,,,,,,,,,,,
,Move,canvas.Screen,0_3_0_0_0_9,-999,skipped,,5268734,,,5268565,,5268734,2021-10-26T18:20:34.904Z,5268841.62,1635169562,full,ni_sequenzen,NI_Sequenzen,10,0,,,,,,,,,,,,
,Move,canvas.Screen,0_3_0_0_0_10,-999,skipped,,5268752,,,5268565,,5268752,2021-10-26T18:20:34.922Z,5268841.62,1635169562,full,ni_sequenzen,NI_Sequenzen,11,0,,,,,,,,,,,,
,Move,canvas.Screen,0_3_0_0_0_11,-999,skipped,,5268770,,,5268565,,5268770,2021-10-26T18:20:34.940Z,5268841.62,1635169562,full,ni_sequenzen,NI_Sequenzen,12,0,,,,,,,,,,,,
,Move,canvas.Screen,0_3_0_0_0_12,-999,skipped,,5268788,,,5268565,,5268788,2021-10-26T18:20:34.958Z,5268841.62,1635169562,full,ni_sequenzen,NI_Sequenzen,13,0,,,,,,,,,,,,
,Move,canvas.Screen,0_3_0_0_0_13,-999,skipped,,5268806,,,5268565,,5268806,2021-10-26T18:20:34.976Z,5268841.62,1635169562,full,ni_sequenzen,NI_Sequenzen,14,0,,,,,,,,,,,,
,Move,canvas.Screen,0_3_0_0_0_14,-999,skipped,,5268822,,,5268565,,5268822,2021-10-26T18:20:34.993Z,5268841.62,1635169562,full,ni_sequenzen,NI_Sequenzen,15,0,,,,,,,,,,,,
,Loop,flow.Loop,0_3_0_0_0,-999,completion,,5264250,5264366.4,5264366.62,5268565,4198.379999999888,5268822,2021-10-26T18:20:34.993Z,5268841.62,1635169562,full,ni_sequenzen,NI_Sequenzen,,0,,,,,,,,,,,,
,Feedback,canvas.Screen,0_3_0_0_1,,timeout,,5268841,5268841.34,5268841.62,5272823.38,4037.8600000003353,5272825,2021-10-26T18:20:38.995Z,5272879.48,1635169562,full,ni_sequenzen,NI_Sequenzen,,0,,,,,,,,,,,,
,Trial,flow.Sequence,0_3_0_0,,completion,,5264241,5264366.4,5264366.62,5272823.38,8456.759999999776,5272826,2021-10-26T18:20:38.996Z,5272890.06,1635169562,full,ni_sequenzen,NI_Sequenzen,,0,,,,,,,,,,,,
,Move,canvas.Screen,0_3_0_1_0_0,down,response,,5272879,5272879.48,5272890.06,5276377,3486.94000000041,5276411,2021-10-26T18:20:42.581Z,5276457.22,1635169562,full,ni_sequenzen,NI_Sequenzen,1,1,,,,,,,,,,,,
,Move,canvas.Screen,0_3_0_1_0_1,left,response,,5276457,5276456.92,5276457.22,5276924,466.78000000026077,5276934,2021-10-26T18:20:43.105Z,5276981.06,1635169562,full,ni_sequenzen,NI_Sequenzen,2,1,,,,,,,,,,,,
,Move,canvas.Screen,0_3_0_1_0_2,down,response,,5276980,5276980.68,5276981.06,5277237,255.94000000040978,5277259,2021-10-26T18:20:43.429Z,5277305.74,1635169562,full,ni_sequenzen,NI_Sequenzen,3,1,,,,,,,,,,,,
,Move,canvas.Screen,0_3_0_1_0_3,left,response,,5277305,5277305.38,5277305.74,5277518,212.25999999977648,5277543,2021-10-26T18:20:43.713Z,5277788.4,1635169562,full,ni_sequenzen,NI_Sequenzen,4,1,,,,,,,,,,,,
,Move,canvas.Screen,0_3_0_1_0_4,-999,skipped,,5277594,,,5277518,,5277596,2021-10-26T18:20:43.765Z,5277788.4,1635169562,full,ni_sequenzen,NI_Sequenzen,5,1,,,,,,,,,,,,
,Move,canvas.Screen,0_3_0_1_0_5,-999,skipped,,5277622,,,5277518,,5277622,2021-10-26T18:20:43.792Z,5277788.4,1635169562,full,ni_sequenzen,NI_Sequenzen,6,1,,,,,,,,,,,,
,Move,canvas.Screen,0_3_0_1_0_6,-999,skipped,,5277640,,,5277518,,5277640,2021-10-26T18:20:43.810Z,5277788.4,1635169562,full,ni_sequenzen,NI_Sequenzen,7,1,,,,,,,,,,,,
,Move,canvas.Screen,0_3_0_1_0_7,-999,skipped,,5277657,,,5277518,,5277657,2021-10-26T18:20:43.827Z,5277788.4,1635169562,full,ni_sequenzen,NI_Sequenzen,8,1,,,,,,,,,,,,
,Move,canvas.Screen,0_3_0_1_0_8,-999,skipped,,5277673,,,5277518,,5277673,2021-10-26T18:20:43.844Z,5277788.4,1635169562,full,ni_sequenzen,NI_Sequenzen,9,1,,,,,,,,,,,,
,Move,canvas.Screen,0_3_0_1_0_9,-999,skipped,,5277690,,,5277518,,5277690,2021-10-26T18:20:43.861Z,5277788.4,1635169562,full,ni_sequenzen,NI_Sequenzen,10,1,,,,,,,,,,,,
,Move,canvas.Screen,0_3_0_1_0_10,-999,skipped,,5277708,,,5277518,,5277708,2021-10-26T18:20:43.878Z,5277788.4,1635169562,full,ni_sequenzen,NI_Sequenzen,11,1,,,,,,,,,,,,
,Move,canvas.Screen,0_3_0_1_0_11,-999,skipped,,5277727,,,5277518,,5277727,2021-10-26T18:20:43.898Z,5277788.4,1635169562,full,ni_sequenzen,NI_Sequenzen,12,1,,,,,,,,,,,,
,Move,canvas.Screen,0_3_0_1_0_12,-999,skipped,,5277744,,,5277518,,5277744,2021-10-26T18:20:43.915Z,5277788.4,1635169562,full,ni_sequenzen,NI_Sequenzen,13,1,,,,,,,,,,,,
,Move,canvas.Screen,0_3_0_1_0_13,-999,skipped,,5277760,,,5277518,,5277760,2021-10-26T18:20:43.930Z,5277788.4,1635169562,full,ni_sequenzen,NI_Sequenzen,14,1,,,,,,,,,,,,
,Move,canvas.Screen,0_3_0_1_0_14,-999,skipped,,5277775,,,5277518,,5277775,2021-10-26T18:20:43.945Z,5277788.4,1635169562,full,ni_sequenzen,NI_Sequenzen,15,1,,,,,,,,,,,,
,Loop,flow.Loop,0_3_0_1_0,-999,completion,,5272849,5272879.48,5272890.06,5277518,4627.94000000041,5277775,2021-10-26T18:20:43.946Z,5277788.4,1635169562,full,ni_sequenzen,NI_Sequenzen,,1,,,,,,,,,,,,
,Feedback,canvas.Screen,0_3_0_1_1,,timeout,,5277788,5277788.18,5277788.4,5281763.48,4029.9799999995157,5281764,2021-10-26T18:20:47.935Z,5281818.38,1635169562,full,ni_sequenzen,NI_Sequenzen,,1,,,,,,,,,,,,
,Trial,flow.Sequence,0_3_0_1,,completion,,5272828,5272879.48,5272890.06,5281763.48,8873.420000000857,5281765,2021-10-26T18:20:47.936Z,5281830.16,1635169562,full,ni_sequenzen,NI_Sequenzen,,1,,,,,,,,,,,,
,Move,canvas.Screen,0_3_0_2_0_0,down,response,,5281818,5281818.38,5281830.16,5281970,139.839999999851,5281990,2021-10-26T18:20:48.161Z,5282046.94,1635169562,full,ni_sequenzen,NI_Sequenzen,1,2,,,,,,,,,,,,
,Move,canvas.Screen,0_3_0_2_0_1,right,response,,5282044,5282043.9,5282046.94,5283612,1565.0599999995902,5283623,2021-10-26T18:20:49.792Z,5283671.12,1635169562,full,ni_sequenzen,NI_Sequenzen,2,2,,,,,,,,,,,,
,Move,canvas.Screen,0_3_0_2_0_2,right,response,,5283671,5283670.8,5283671.12,5285362,1690.8799999998882,5285382,2021-10-26T18:20:51.552Z,5285427.38,1635169562,full,ni_sequenzen,NI_Sequenzen,3,2,,,,,,,,,,,,
,Move,canvas.Screen,0_3_0_2_0_3,down,response,,5285427,5285427.14,5285427.38,5285706,278.62000000011176,5285722,2021-10-26T18:20:51.892Z,5285947.58,1635169562,full,ni_sequenzen,NI_Sequenzen,4,2,,,,,,,,,,,,
,Move,canvas.Screen,0_3_0_2_0_4,-999,skipped,,5285769,,,5285706,,5285770,2021-10-26T18:20:51.940Z,5285947.58,1635169562,full,ni_sequenzen,NI_Sequenzen,5,2,,,,,,,,,,,,
,Move,canvas.Screen,0_3_0_2_0_5,-999,skipped,,5285790,,,5285706,,5285790,2021-10-26T18:20:51.960Z,5285947.58,1635169562,full,ni_sequenzen,NI_Sequenzen,6,2,,,,,,,,,,,,
,Move,canvas.Screen,0_3_0_2_0_6,-999,skipped,,5285807,,,5285706,,5285807,2021-10-26T18:20:51.977Z,5285947.58,1635169562,full,ni_sequenzen,NI_Sequenzen,7,2,,,,,,,,,,,,
,Move,canvas.Screen,0_3_0_2_0_7,-999,skipped,,5285823,,,5285706,,5285823,2021-10-26T18:20:51.993Z,5285947.58,1635169562,full,ni_sequenzen,NI_Sequenzen,8,2,,,,,,,,,,,,
,Move,canvas.Screen,0_3_0_2_0_8,-999,skipped,,5285838,,,5285706,,5285838,2021-10-26T18:20:52.009Z,5285947.58,1635169562,full,ni_sequenzen,NI_Sequenzen,9,2,,,,,,,,,,,,
,Move,canvas.Screen,0_3_0_2_0_9,-999,skipped,,5285854,,,5285706,,5285854,2021-10-26T18:20:52.024Z,5285947.58,1635169562,full,ni_sequenzen,NI_Sequenzen,10,2,,,,,,,,,,,,
,Move,canvas.Screen,0_3_0_2_0_10,-999,skipped,,5285871,,,5285706,,5285871,2021-10-26T18:20:52.041Z,5285947.58,1635169562,full,ni_sequenzen,NI_Sequenzen,11,2,,,,,,,,,,,,
,Move,canvas.Screen,0_3_0_2_0_11,-999,skipped,,5285887,,,5285706,,5285887,2021-10-26T18:20:52.057Z,5285947.58,1635169562,full,ni_sequenzen,NI_Sequenzen,12,2,,,,,,,,,,,,
,Move,canvas.Screen,0_3_0_2_0_12,-999,skipped,,5285902,,,5285706,,5285903,2021-10-26T18:20:52.072Z,5285947.58,1635169562,full,ni_sequenzen,NI_Sequenzen,13,2,,,,,,,,,,,,
,Move,canvas.Screen,0_3_0_2_0_13,-999,skipped,,5285917,,,5285706,,5285917,2021-10-26T18:20:52.088Z,5285947.58,1635169562,full,ni_sequenzen,NI_Sequenzen,14,2,,,,,,,,,,,,
,Move,canvas.Screen,0_3_0_2_0_14,-999,skipped,,5285934,,,5285706,,5285935,2021-10-26T18:20:52.104Z,5285947.58,1635169562,full,ni_sequenzen,NI_Sequenzen,15,2,,,,,,,,,,,,
,Loop,flow.Loop,0_3_0_2_0,-999,completion,,5281788,5281818.38,5281830.16,5285706,3875.839999999851,5285935,2021-10-26T18:20:52.104Z,5285947.58,1635169562,full,ni_sequenzen,NI_Sequenzen,,2,,,,,,,,,,,,
,Feedback,canvas.Screen,0_3_0_2_1,,timeout,,5285948,5285947.38,5285947.58,5289936.3,4052.519999999553,5289938,2021-10-26T18:20:56.108Z,5290000.1,1635169562,full,ni_sequenzen,NI_Sequenzen,,2,,,,,,,,,,,,
,Trial,flow.Sequence,0_3_0_2,,completion,,5281767,5281818.38,5281830.16,5289936.3,8106.139999999665,5289939,2021-10-26T18:20:56.109Z,5290002.96,1635169562,full,ni_sequenzen,NI_Sequenzen,,2,,,,,,,,,,,,
,Move,canvas.Screen,0_3_0_3_0_0,down,response,,5290000,5290000.1,5290002.96,5295627,5624.040000000037,5295655,2021-10-26T18:21:01.825Z,5295709.8,1635169562,full,ni_sequenzen,NI_Sequenzen,1,3,,,,,,,,,,,,
,Move,canvas.Screen,0_3_0_3_0_1,left,response,,5295709,5295709.4,5295709.8,5296034,324.20000000018626,5296055,2021-10-26T18:21:02.224Z,5296107.56,1635169562,full,ni_sequenzen,NI_Sequenzen,2,3,,,,,,,,,,,,
,Move,canvas.Screen,0_3_0_3_0_2,down,response,,5296106,5296105.36,5296107.56,5296518,410.4400000004098,5296540,2021-10-26T18:21:02.710Z,5296582.9,1635169562,full,ni_sequenzen,NI_Sequenzen,3,3,,,,,,,,,,,,
,Move,canvas.Screen,0_3_0_3_0_3,left,response,,5296583,5296582.58,5296582.9,5296800,217.09999999962747,5296825,2021-10-26T18:21:02.995Z,5297101.62,1635169562,full,ni_sequenzen,NI_Sequenzen,4,3,,,,,,,,,,,,
,Move,canvas.Screen,0_3_0_3_0_4,-999,skipped,,5296887,,,5296800,,5296887,2021-10-26T18:21:03.057Z,5297101.62,1635169562,full,ni_sequenzen,NI_Sequenzen,5,3,,,,,,,,,,,,
,Move,canvas.Screen,0_3_0_3_0_5,-999,skipped,,5296913,,,5296800,,5296913,2021-10-26T18:21:03.083Z,5297101.62,1635169562,full,ni_sequenzen,NI_Sequenzen,6,3,,,,,,,,,,,,
,Move,canvas.Screen,0_3_0_3_0_6,-999,skipped,,5296935,,,5296800,,5296935,2021-10-26T18:21:03.105Z,5297101.62,1635169562,full,ni_sequenzen,NI_Sequenzen,7,3,,,,,,,,,,,,
,Move,canvas.Screen,0_3_0_3_0_7,-999,skipped,,5296957,,,5296800,,5296957,2021-10-26T18:21:03.127Z,5297101.62,1635169562,full,ni_sequenzen,NI_Sequenzen,8,3,,,,,,,,,,,,
,Move,canvas.Screen,0_3_0_3_0_8,-999,skipped,,5296977,,,5296800,,5296977,2021-10-26T18:21:03.147Z,5297101.62,1635169562,full,ni_sequenzen,NI_Sequenzen,9,3,,,,,,,,,,,,
,Move,canvas.Screen,0_3_0_3_0_9,-999,skipped,,5296996,,,5296800,,5296996,2021-10-26T18:21:03.166Z,5297101.62,1635169562,full,ni_sequenzen,NI_Sequenzen,10,3,,,,,,,,,,,,
,Move,canvas.Screen,0_3_0_3_0_10,-999,skipped,,5297016,,,5296800,,5297016,2021-10-26T18:21:03.186Z,5297101.62,1635169562,full,ni_sequenzen,NI_Sequenzen,11,3,,,,,,,,,,,,
,Move,canvas.Screen,0_3_0_3_0_11,-999,skipped,,5297033,,,5296800,,5297033,2021-10-26T18:21:03.203Z,5297101.62,1635169562,full,ni_sequenzen,NI_Sequenzen,12,3,,,,,,,,,,,,
,Move,canvas.Screen,0_3_0_3_0_12,-999,skipped,,5297051,,,5296800,,5297051,2021-10-26T18:21:03.221Z,5297101.62,1635169562,full,ni_sequenzen,NI_Sequenzen,13,3,,,,,,,,,,,,
,Move,canvas.Screen,0_3_0_3_0_13,-999,skipped,,5297069,,,5296800,,5297069,2021-10-26T18:21:03.239Z,5297101.62,1635169562,full,ni_sequenzen,NI_Sequenzen,14,3,,,,,,,,,,,,
,Move,canvas.Screen,0_3_0_3_0_14,-999,skipped,,5297087,,,5296800,,5297087,2021-10-26T18:21:03.257Z,5297101.62,1635169562,full,ni_sequenzen,NI_Sequenzen,15,3,,,,,,,,,,,,
,Loop,flow.Loop,0_3_0_3_0,-999,completion,,5289968,5290000.1,5290002.96,5296800,6797.040000000037,5297087,2021-10-26T18:21:03.258Z,5297101.62,1635169562,full,ni_sequenzen,NI_Sequenzen,,3,,,,,,,,,,,,
,Feedback,canvas.Screen,0_3_0_3_1,,timeout,,5297101,5297101.4,5297101.62,5301078.08,4051.339999999851,5301080,2021-10-26T18:21:07.249Z,5301152.96,1635169562,full,ni_sequenzen,NI_Sequenzen,,3,,,,,,,,,,,,
,Trial,flow.Sequence,0_3_0_3,,completion,,5289941,5290000.1,5290002.96,5301078.08,11075.120000000112,5301081,2021-10-26T18:21:07.251Z,5301161.42,1635169562,full,ni_sequenzen,NI_Sequenzen,,3,,,,,,,,,,,,
,Move,canvas.Screen,0_3_0_4_0_0,right,response,,5301153,5301152.96,5301161.42,5303612,2450.5800000000745,5303644,2021-10-26T18:21:09.814Z,5303700.56,1635169562,full,ni_sequenzen,NI_Sequenzen,1,4,,,,,,,,,,,,
,Move,canvas.Screen,0_3_0_4_0_1,down,response,,5303700,5303700.28,5303700.56,5303955,254.44000000040978,5303966,2021-10-26T18:21:10.136Z,5304018.92,1635169562,full,ni_sequenzen,NI_Sequenzen,2,4,,,,,,,,,,,,
,Move,canvas.Screen,0_3_0_4_0_2,right,response,,5304019,5304018.68,5304018.92,5304315,296.0800000000745,5304337,2021-10-26T18:21:10.508Z,5304383.86,1635169562,full,ni_sequenzen,NI_Sequenzen,3,4,,,,,,,,,,,,
,Move,canvas.Screen,0_3_0_4_0_3,down,response,,5304383,5304383.54,5304383.86,5304659,275.1399999996647,5304668,2021-10-26T18:21:10.839Z,5304907.74,1635169562,full,ni_sequenzen,NI_Sequenzen,4,4,,,,,,,,,,,,
,Move,canvas.Screen,0_3_0_4_0_4,-999,skipped,,5304714,,,5304659,,5304714,2021-10-26T18:21:10.885Z,5304907.74,1635169562,full,ni_sequenzen,NI_Sequenzen,5,4,,,,,,,,,,,,
,Move,canvas.Screen,0_3_0_4_0_5,-999,skipped,,5304741,,,5304659,,5304741,2021-10-26T18:21:10.910Z,5304907.74,1635169562,full,ni_sequenzen,NI_Sequenzen,6,4,,,,,,,,,,,,
,Move,canvas.Screen,0_3_0_4_0_6,-999,skipped,,5304759,,,5304659,,5304759,2021-10-26T18:21:10.928Z,5304907.74,1635169562,full,ni_sequenzen,NI_Sequenzen,7,4,,,,,,,,,,,,
,Move,canvas.Screen,0_3_0_4_0_7,-999,skipped,,5304776,,,5304659,,5304776,2021-10-26T18:21:10.947Z,5304907.74,1635169562,full,ni_sequenzen,NI_Sequenzen,8,4,,,,,,,,,,,,
,Move,canvas.Screen,0_3_0_4_0_8,-999,skipped,,5304794,,,5304659,,5304794,2021-10-26T18:21:10.963Z,5304907.74,1635169562,full,ni_sequenzen,NI_Sequenzen,9,4,,,,,,,,,,,,
,Move,canvas.Screen,0_3_0_4_0_9,-999,skipped,,5304811,,,5304659,,5304811,2021-10-26T18:21:10.982Z,5304907.74,1635169562,full,ni_sequenzen,NI_Sequenzen,10,4,,,,,,,,,,,,
,Move,canvas.Screen,0_3_0_4_0_10,-999,skipped,,5304827,,,5304659,,5304828,2021-10-26T18:21:10.998Z,5304907.74,1635169562,full,ni_sequenzen,NI_Sequenzen,11,4,,,,,,,,,,,,
,Move,canvas.Screen,0_3_0_4_0_11,-999,skipped,,5304845,,,5304659,,5304845,2021-10-26T18:21:11.015Z,5304907.74,1635169562,full,ni_sequenzen,NI_Sequenzen,12,4,,,,,,,,,,,,
,Move,canvas.Screen,0_3_0_4_0_12,-999,skipped,,5304861,,,5304659,,5304861,2021-10-26T18:21:11.031Z,5304907.74,1635169562,full,ni_sequenzen,NI_Sequenzen,13,4,,,,,,,,,,,,
,Move,canvas.Screen,0_3_0_4_0_13,-999,skipped,,5304878,,,5304659,,5304878,2021-10-26T18:21:11.048Z,5304907.74,1635169562,full,ni_sequenzen,NI_Sequenzen,14,4,,,,,,,,,,,,
,Move,canvas.Screen,0_3_0_4_0_14,-999,skipped,,5304893,,,5304659,,5304894,2021-10-26T18:21:11.064Z,5304907.74,1635169562,full,ni_sequenzen,NI_Sequenzen,15,4,,,,,,,,,,,,
,Loop,flow.Loop,0_3_0_4_0,-999,completion,,5301126,5301152.96,5301161.42,5304659,3497.5800000000745,5304894,2021-10-26T18:21:11.064Z,5304907.74,1635169562,full,ni_sequenzen,NI_Sequenzen,,4,,,,,,,,,,,,
,Feedback,canvas.Screen,0_3_0_4_1,,timeout,,5304908,5304907.52,5304907.74,5308883.98,4051.859999999404,5308885,2021-10-26T18:21:15.056Z,5308959.6,1635169562,full,ni_sequenzen,NI_Sequenzen,,4,,,,,,,,,,,,
,Trial,flow.Sequence,0_3_0_4,,completion,,5301084,5301152.96,5301161.42,5308883.98,7722.5600000005215,5308887,2021-10-26T18:21:15.057Z,5308967.32,1635169562,full,ni_sequenzen,NI_Sequenzen,,4,,,,,,,,,,,,
,Move,canvas.Screen,0_3_0_5_0_0,right,response,,5308959,5308959.6,5308967.32,5310221,1253.679999999702,5310242,2021-10-26T18:21:16.411Z,5310291.32,1635169562,full,ni_sequenzen,NI_Sequenzen,1,5,,,,,,,,,,,,
,Move,canvas.Screen,0_3_0_5_0_1,down,response,,5310291,5310291.06,5310291.32,5310534,242.67999999970198,5310562,2021-10-26T18:21:16.732Z,5310627.42,1635169562,full,ni_sequenzen,NI_Sequenzen,2,5,,,,,,,,,,,,
,Move,canvas.Screen,0_3_0_5_0_2,right,response,,5310627,5310627.08,5310627.42,5310878,250.5800000000745,5310887,2021-10-26T18:21:17.057Z,5310927.8,1635169562,full,ni_sequenzen,NI_Sequenzen,3,5,,,,,,,,,,,,
,Move,canvas.Screen,0_3_0_5_0_3,down,response,,5310927,5310927.56,5310927.8,5311502,574.2000000001863,5311527,2021-10-26T18:21:17.697Z,5311732.66,1635169562,full,ni_sequenzen,NI_Sequenzen,4,5,,,,,,,,,,,,
,Move,canvas.Screen,0_3_0_5_0_4,-999,skipped,,5311551,,,5311502,,5311551,2021-10-26T18:21:17.722Z,5311732.66,1635169562,full,ni_sequenzen,NI_Sequenzen,5,5,,,,,,,,,,,,
,Move,canvas.Screen,0_3_0_5_0_5,-999,skipped,,5311569,,,5311502,,5311569,2021-10-26T18:21:17.738Z,5311732.66,1635169562,full,ni_sequenzen,NI_Sequenzen,6,5,,,,,,,,,,,,
,Move,canvas.Screen,0_3_0_5_0_6,-999,skipped,,5311585,,,5311502,,5311585,2021-10-26T18:21:17.755Z,5311732.66,1635169562,full,ni_sequenzen,NI_Sequenzen,7,5,,,,,,,,,,,,
,Move,canvas.Screen,0_3_0_5_0_7,-999,skipped,,5311601,,,5311502,,5311601,2021-10-26T18:21:17.772Z,5311732.66,1635169562,full,ni_sequenzen,NI_Sequenzen,8,5,,,,,,,,,,,,
,Move,canvas.Screen,0_3_0_5_0_8,-999,skipped,,5311618,,,5311502,,5311619,2021-10-26T18:21:17.789Z,5311732.66,1635169562,full,ni_sequenzen,NI_Sequenzen,9,5,,,,,,,,,,,,
,Move,canvas.Screen,0_3_0_5_0_9,-999,skipped,,5311636,,,5311502,,5311636,2021-10-26T18:21:17.806Z,5311732.66,1635169562,full,ni_sequenzen,NI_Sequenzen,10,5,,,,,,,,,,,,
,Move,canvas.Screen,0_3_0_5_0_10,-999,skipped,,5311652,,,5311502,,5311652,2021-10-26T18:21:17.822Z,5311732.66,1635169562,full,ni_sequenzen,NI_Sequenzen,11,5,,,,,,,,,,,,
,Move,canvas.Screen,0_3_0_5_0_11,-999,skipped,,5311668,,,5311502,,5311668,2021-10-26T18:21:17.838Z,5311732.66,1635169562,full,ni_sequenzen,NI_Sequenzen,12,5,,,,,,,,,,,,
,Move,canvas.Screen,0_3_0_5_0_12,-999,skipped,,5311684,,,5311502,,5311684,2021-10-26T18:21:17.855Z,5311732.66,1635169562,full,ni_sequenzen,NI_Sequenzen,13,5,,,,,,,,,,,,
,Move,canvas.Screen,0_3_0_5_0_13,-999,skipped,,5311701,,,5311502,,5311701,2021-10-26T18:21:17.870Z,5311732.66,1635169562,full,ni_sequenzen,NI_Sequenzen,14,5,,,,,,,,,,,,
,Move,canvas.Screen,0_3_0_5_0_14,-999,skipped,,5311717,,,5311502,,5311717,2021-10-26T18:21:17.888Z,5311732.66,1635169562,full,ni_sequenzen,NI_Sequenzen,15,5,,,,,,,,,,,,
,Loop,flow.Loop,0_3_0_5_0,-999,completion,,5308923,5308959.6,5308967.32,5311502,2534.679999999702,5311718,2021-10-26T18:21:17.888Z,5311732.66,1635169562,full,ni_sequenzen,NI_Sequenzen,,5,,,,,,,,,,,,
,Feedback,canvas.Screen,0_3_0_5_1,,timeout,,5311732,5311732.44,5311732.66,5315722.46,4066.2999999998137,5315724,2021-10-26T18:21:21.894Z,5315798.96,1635169562,full,ni_sequenzen,NI_Sequenzen,,5,,,,,,,,,,,,
,Trial,flow.Sequence,0_3_0_5,,completion,,5308888,5308959.6,5308967.32,5315722.46,6755.139999999665,5315725,2021-10-26T18:21:21.895Z,5315805.78,1635169562,full,ni_sequenzen,NI_Sequenzen,,5,,,,,,,,,,,,
,Move,canvas.Screen,0_3_0_6_0_0,right,response,,5315799,5315798.96,5315805.78,5319236,3430.2199999997392,5319248,2021-10-26T18:21:25.417Z,5319296.26,1635169562,full,ni_sequenzen,NI_Sequenzen,1,6,,,,,,,,,,,,
,Move,canvas.Screen,0_3_0_6_0_1,down,response,,5319295,5319295.9,5319296.26,5319612,315.7400000002235,5319639,2021-10-26T18:21:25.809Z,5319699.78,1635169562,full,ni_sequenzen,NI_Sequenzen,2,6,,,,,,,,,,,,
,Move,canvas.Screen,0_3_0_6_0_2,right,response,,5319699,5319699.38,5319699.78,5319909,209.21999999973923,5319916,2021-10-26T18:21:26.086Z,5319967.74,1635169562,full,ni_sequenzen,NI_Sequenzen,3,6,,,,,,,,,,,,
,Move,canvas.Screen,0_3_0_6_0_3,down,response,,5319967,5319967.52,5319967.74,5320237,269.2599999997765,5320257,2021-10-26T18:21:26.428Z,5320530.9,1635169562,full,ni_sequenzen,NI_Sequenzen,4,6,,,,,,,,,,,,
,Move,canvas.Screen,0_3_0_6_0_4,-999,skipped,,5320311,,,5320237,,5320311,2021-10-26T18:21:26.481Z,5320530.9,1635169562,full,ni_sequenzen,NI_Sequenzen,5,6,,,,,,,,,,,,
,Move,canvas.Screen,0_3_0_6_0_5,-999,skipped,,5320338,,,5320237,,5320338,2021-10-26T18:21:26.508Z,5320530.9,1635169562,full,ni_sequenzen,NI_Sequenzen,6,6,,,,,,,,,,,,
,Move,canvas.Screen,0_3_0_6_0_6,-999,skipped,,5320360,,,5320237,,5320360,2021-10-26T18:21:26.530Z,5320530.9,1635169562,full,ni_sequenzen,NI_Sequenzen,7,6,,,,,,,,,,,,
,Move,canvas.Screen,0_3_0_6_0_7,-999,skipped,,5320384,,,5320237,,5320384,2021-10-26T18:21:26.554Z,5320530.9,1635169562,full,ni_sequenzen,NI_Sequenzen,8,6,,,,,,,,,,,,
,Move,canvas.Screen,0_3_0_6_0_8,-999,skipped,,5320403,,,5320237,,5320404,2021-10-26T18:21:26.574Z,5320530.9,1635169562,full,ni_sequenzen,NI_Sequenzen,9,6,,,,,,,,,,,,
,Move,canvas.Screen,0_3_0_6_0_9,-999,skipped,,5320424,,,5320237,,5320424,2021-10-26T18:21:26.594Z,5320530.9,1635169562,full,ni_sequenzen,NI_Sequenzen,10,6,,,,,,,,,,,,
,Move,canvas.Screen,0_3_0_6_0_10,-999,skipped,,5320445,,,5320237,,5320445,2021-10-26T18:21:26.615Z,5320530.9,1635169562,full,ni_sequenzen,NI_Sequenzen,11,6,,,,,,,,,,,,
,Move,canvas.Screen,0_3_0_6_0_11,-999,skipped,,5320462,,,5320237,,5320463,2021-10-26T18:21:26.633Z,5320530.9,1635169562,full,ni_sequenzen,NI_Sequenzen,12,6,,,,,,,,,,,,
,Move,canvas.Screen,0_3_0_6_0_12,-999,skipped,,5320479,,,5320237,,5320479,2021-10-26T18:21:26.648Z,5320530.9,1635169562,full,ni_sequenzen,NI_Sequenzen,13,6,,,,,,,,,,,,
,Move,canvas.Screen,0_3_0_6_0_13,-999,skipped,,5320495,,,5320237,,5320495,2021-10-26T18:21:26.665Z,5320530.9,1635169562,full,ni_sequenzen,NI_Sequenzen,14,6,,,,,,,,,,,,
,Move,canvas.Screen,0_3_0_6_0_14,-999,skipped,,5320513,,,5320237,,5320513,2021-10-26T18:21:26.683Z,5320530.9,1635169562,full,ni_sequenzen,NI_Sequenzen,15,6,,,,,,,,,,,,
,Loop,flow.Loop,0_3_0_6_0,-999,completion,,5315754,5315798.96,5315805.78,5320237,4431.219999999739,5320513,2021-10-26T18:21:26.683Z,5320530.9,1635169562,full,ni_sequenzen,NI_Sequenzen,,6,,,,,,,,,,,,
,Feedback,canvas.Screen,0_3_0_6_1,,timeout,,5320531,5320530.66,5320530.9,5324512.42,4069.859999999404,5324513,2021-10-26T18:21:30.683Z,5324600.76,1635169562,full,ni_sequenzen,NI_Sequenzen,,6,,,,,,,,,,,,
,Trial,flow.Sequence,0_3_0_6,,completion,,5315726,5315798.96,5315805.78,5324512.42,8706.639999999665,5324515,2021-10-26T18:21:30.684Z,5324612.42,1635169562,full,ni_sequenzen,NI_Sequenzen,,6,,,,,,,,,,,,
,Move,canvas.Screen,0_3_0_7_0_0,right,response,,5324601,5324600.76,5324612.42,5327159,2546.5800000000745,5327175,2021-10-26T18:21:33.346Z,5327216.56,1635169562,full,ni_sequenzen,NI_Sequenzen,1,7,,,,,,,,,,,,
,Move,canvas.Screen,0_3_0_7_0_1,down,response,,5327216,5327216.28,5327216.56,5327565,348.4400000004098,5327584,2021-10-26T18:21:33.754Z,5327611.1,1635169562,full,ni_sequenzen,NI_Sequenzen,2,7,,,,,,,,,,,,
,Move,canvas.Screen,0_3_0_7_0_2,right,response,,5327610,5327610.8,5327611.1,5327862,250.90000000037253,5327879,2021-10-26T18:21:34.049Z,5327931.62,1635169562,full,ni_sequenzen,NI_Sequenzen,3,7,,,,,,,,,,,,
,Move,canvas.Screen,0_3_0_7_0_3,down,response,,5327930,5327929.58,5327931.62,5328158,226.37999999988824,5328178,2021-10-26T18:21:34.348Z,5328426.5,1635169562,full,ni_sequenzen,NI_Sequenzen,4,7,,,,,,,,,,,,
,Move,canvas.Screen,0_3_0_7_0_4,-999,skipped,,5328230,,,5328158,,5328230,2021-10-26T18:21:34.400Z,5328426.5,1635169562,full,ni_sequenzen,NI_Sequenzen,5,7,,,,,,,,,,,,
,Move,canvas.Screen,0_3_0_7_0_5,-999,skipped,,5328257,,,5328158,,5328257,2021-10-26T18:21:34.427Z,5328426.5,1635169562,full,ni_sequenzen,NI_Sequenzen,6,7,,,,,,,,,,,,
,Move,canvas.Screen,0_3_0_7_0_6,-999,skipped,,5328274,,,5328158,,5328274,2021-10-26T18:21:34.444Z,5328426.5,1635169562,full,ni_sequenzen,NI_Sequenzen,7,7,,,,,,,,,,,,
,Move,canvas.Screen,0_3_0_7_0_7,-999,skipped,,5328291,,,5328158,,5328292,2021-10-26T18:21:34.462Z,5328426.5,1635169562,full,ni_sequenzen,NI_Sequenzen,8,7,,,,,,,,,,,,
,Move,canvas.Screen,0_3_0_7_0_8,-999,skipped,,5328309,,,5328158,,5328309,2021-10-26T18:21:34.480Z,5328426.5,1635169562,full,ni_sequenzen,NI_Sequenzen,9,7,,,,,,,,,,,,
,Move,canvas.Screen,0_3_0_7_0_9,-999,skipped,,5328326,,,5328158,,5328327,2021-10-26T18:21:34.496Z,5328426.5,1635169562,full,ni_sequenzen,NI_Sequenzen,10,7,,,,,,,,,,,,
,Move,canvas.Screen,0_3_0_7_0_10,-999,skipped,,5328344,,,5328158,,5328344,2021-10-26T18:21:34.514Z,5328426.5,1635169562,full,ni_sequenzen,NI_Sequenzen,11,7,,,,,,,,,,,,
,Move,canvas.Screen,0_3_0_7_0_11,-999,skipped,,5328362,,,5328158,,5328362,2021-10-26T18:21:34.531Z,5328426.5,1635169562,full,ni_sequenzen,NI_Sequenzen,12,7,,,,,,,,,,,,
,Move,canvas.Screen,0_3_0_7_0_12,-999,skipped,,5328379,,,5328158,,5328379,2021-10-26T18:21:34.548Z,5328426.5,1635169562,full,ni_sequenzen,NI_Sequenzen,13,7,,,,,,,,,,,,
,Move,canvas.Screen,0_3_0_7_0_13,-999,skipped,,5328397,,,5328158,,5328397,2021-10-26T18:21:34.568Z,5328426.5,1635169562,full,ni_sequenzen,NI_Sequenzen,14,7,,,,,,,,,,,,
,Move,canvas.Screen,0_3_0_7_0_14,-999,skipped,,5328413,,,5328158,,5328413,2021-10-26T18:21:34.584Z,5328426.5,1635169562,full,ni_sequenzen,NI_Sequenzen,15,7,,,,,,,,,,,,
,Loop,flow.Loop,0_3_0_7_0,-999,completion,,5324538,5324600.76,5324612.42,5328158,3545.5800000000745,5328413,2021-10-26T18:21:34.584Z,5328426.5,1635169562,full,ni_sequenzen,NI_Sequenzen,,7,,,,,,,,,,,,
,Feedback,canvas.Screen,0_3_0_7_1,,timeout,,5328426,5328426.3,5328426.5,5332401.7,4053.320000000298,5332403,2021-10-26T18:21:38.573Z,5332479.82,1635169562,full,ni_sequenzen,NI_Sequenzen,,7,,,,,,,,,,,,
,Trial,flow.Sequence,0_3_0_7,,completion,,5324516,5324600.76,5324612.42,5332401.7,7789.280000000261,5332404,2021-10-26T18:21:38.574Z,5332485.04,1635169562,full,ni_sequenzen,NI_Sequenzen,,7,,,,,,,,,,,,
,Move,canvas.Screen,0_3_0_8_0_0,right,response,,5332479,5332479.82,5332485.04,5334111,1625.9599999999627,5334134,2021-10-26T18:21:40.305Z,5334182.52,1635169562,full,ni_sequenzen,NI_Sequenzen,1,8,,,,,,,,,,,,
,Move,canvas.Screen,0_3_0_8_0_1,down,response,,5334182,5334182.16,5334182.52,5334378,195.48000000044703,5334395,2021-10-26T18:21:40.566Z,5334440.1,1635169562,full,ni_sequenzen,NI_Sequenzen,2,8,,,,,,,,,,,,
,Move,canvas.Screen,0_3_0_8_0_2,right,response,,5334440,5334439.88,5334440.1,5334721,280.90000000037253,5334727,2021-10-26T18:21:40.896Z,5334778.66,1635169562,full,ni_sequenzen,NI_Sequenzen,3,8,,,,,,,,,,,,
,Move,canvas.Screen,0_3_0_8_0_3,down,response,,5334778,5334778.38,5334778.66,5335018,239.339999999851,5335035,2021-10-26T18:21:41.205Z,5335279.14,1635169562,full,ni_sequenzen,NI_Sequenzen,4,8,,,,,,,,,,,,
,Move,canvas.Screen,0_3_0_8_0_4,-999,skipped,,5335083,,,5335018,,5335084,2021-10-26T18:21:41.254Z,5335279.14,1635169562,full,ni_sequenzen,NI_Sequenzen,5,8,,,,,,,,,,,,
,Move,canvas.Screen,0_3_0_8_0_5,-999,skipped,,5335107,,,5335018,,5335108,2021-10-26T18:21:41.277Z,5335279.14,1635169562,full,ni_sequenzen,NI_Sequenzen,6,8,,,,,,,,,,,,
,Move,canvas.Screen,0_3_0_8_0_6,-999,skipped,,5335125,,,5335018,,5335125,2021-10-26T18:21:41.295Z,5335279.14,1635169562,full,ni_sequenzen,NI_Sequenzen,7,8,,,,,,,,,,,,
,Move,canvas.Screen,0_3_0_8_0_7,-999,skipped,,5335143,,,5335018,,5335143,2021-10-26T18:21:41.313Z,5335279.14,1635169562,full,ni_sequenzen,NI_Sequenzen,8,8,,,,,,,,,,,,
,Move,canvas.Screen,0_3_0_8_0_8,-999,skipped,,5335161,,,5335018,,5335161,2021-10-26T18:21:41.331Z,5335279.14,1635169562,full,ni_sequenzen,NI_Sequenzen,9,8,,,,,,,,,,,,
,Move,canvas.Screen,0_3_0_8_0_9,-999,skipped,,5335179,,,5335018,,5335179,2021-10-26T18:21:41.349Z,5335279.14,1635169562,full,ni_sequenzen,NI_Sequenzen,10,8,,,,,,,,,,,,
,Move,canvas.Screen,0_3_0_8_0_10,-999,skipped,,5335196,,,5335018,,5335196,2021-10-26T18:21:41.366Z,5335279.14,1635169562,full,ni_sequenzen,NI_Sequenzen,11,8,,,,,,,,,,,,
,Move,canvas.Screen,0_3_0_8_0_11,-999,skipped,,5335212,,,5335018,,5335212,2021-10-26T18:21:41.382Z,5335279.14,1635169562,full,ni_sequenzen,NI_Sequenzen,12,8,,,,,,,,,,,,
,Move,canvas.Screen,0_3_0_8_0_12,-999,skipped,,5335228,,,5335018,,5335228,2021-10-26T18:21:41.399Z,5335279.14,1635169562,full,ni_sequenzen,NI_Sequenzen,13,8,,,,,,,,,,,,
,Move,canvas.Screen,0_3_0_8_0_13,-999,skipped,,5335246,,,5335018,,5335246,2021-10-26T18:21:41.416Z,5335279.14,1635169562,full,ni_sequenzen,NI_Sequenzen,14,8,,,,,,,,,,,,
,Move,canvas.Screen,0_3_0_8_0_14,-999,skipped,,5335264,,,5335018,,5335264,2021-10-26T18:21:41.434Z,5335279.14,1635169562,full,ni_sequenzen,NI_Sequenzen,15,8,,,,,,,,,,,,
,Loop,flow.Loop,0_3_0_8_0,-999,completion,,5332431,5332479.82,5332485.04,5335018,2532.9599999999627,5335264,2021-10-26T18:21:41.434Z,5335279.14,1635169562,full,ni_sequenzen,NI_Sequenzen,,8,,,,,,,,,,,,
,Feedback,canvas.Screen,0_3_0_8_1,,timeout,,5335279,5335278.92,5335279.14,5339256.9,4035.1200000001118,5339258,2021-10-26T18:21:45.428Z,5339314.26,1635169562,full,ni_sequenzen,NI_Sequenzen,,8,,,,,,,,,,,,
,Trial,flow.Sequence,0_3_0_8,,completion,,5332406,5332479.82,5332485.04,5339256.9,6771.860000000335,5339259,2021-10-26T18:21:45.429Z,5339323.5,1635169562,full,ni_sequenzen,NI_Sequenzen,,8,,,,,,,,,,,,
,Move,canvas.Screen,0_3_0_9_0_0,down,response,,5339315,5339314.26,5339323.5,5340393,1069.5,5340419,2021-10-26T18:21:46.589Z,5340474.66,1635169562,full,ni_sequenzen,NI_Sequenzen,1,9,,,,,,,,,,,,
,Move,canvas.Screen,0_3_0_9_0_1,left,response,,5340474,5340474.26,5340474.66,5340753,278.339999999851,5340756,2021-10-26T18:21:46.926Z,5340780.6,1635169562,full,ni_sequenzen,NI_Sequenzen,2,9,,,,,,,,,,,,
,Move,canvas.Screen,0_3_0_9_0_2,down,response,,5340781,5340780.38,5340780.6,5341050,269.40000000037253,5341059,2021-10-26T18:21:47.229Z,5341121.28,1635169562,full,ni_sequenzen,NI_Sequenzen,3,9,,,,,,,,,,,,
,Move,canvas.Screen,0_3_0_9_0_3,left,response,,5341121,5341120.96,5341121.28,5341362,240.71999999973923,5341378,2021-10-26T18:21:47.548Z,5341645.12,1635169562,full,ni_sequenzen,NI_Sequenzen,4,9,,,,,,,,,,,,
,Move,canvas.Screen,0_3_0_9_0_4,-999,skipped,,5341440,,,5341362,,5341440,2021-10-26T18:21:47.610Z,5341645.12,1635169562,full,ni_sequenzen,NI_Sequenzen,5,9,,,,,,,,,,,,
,Move,canvas.Screen,0_3_0_9_0_5,-999,skipped,,5341473,,,5341362,,5341473,2021-10-26T18:21:47.644Z,5341645.12,1635169562,full,ni_sequenzen,NI_Sequenzen,6,9,,,,,,,,,,,,
,Move,canvas.Screen,0_3_0_9_0_6,-999,skipped,,5341495,,,5341362,,5341495,2021-10-26T18:21:47.666Z,5341645.12,1635169562,full,ni_sequenzen,NI_Sequenzen,7,9,,,,,,,,,,,,
,Move,canvas.Screen,0_3_0_9_0_7,-999,skipped,,5341513,,,5341362,,5341513,2021-10-26T18:21:47.683Z,5341645.12,1635169562,full,ni_sequenzen,NI_Sequenzen,8,9,,,,,,,,,,,,
,Move,canvas.Screen,0_3_0_9_0_8,-999,skipped,,5341531,,,5341362,,5341531,2021-10-26T18:21:47.701Z,5341645.12,1635169562,full,ni_sequenzen,NI_Sequenzen,9,9,,,,,,,,,,,,
,Move,canvas.Screen,0_3_0_9_0_9,-999,skipped,,5341548,,,5341362,,5341548,2021-10-26T18:21:47.718Z,5341645.12,1635169562,full,ni_sequenzen,NI_Sequenzen,10,9,,,,,,,,,,,,
,Move,canvas.Screen,0_3_0_9_0_10,-999,skipped,,5341565,,,5341362,,5341565,2021-10-26T18:21:47.735Z,5341645.12,1635169562,full,ni_sequenzen,NI_Sequenzen,11,9,,,,,,,,,,,,
,Move,canvas.Screen,0_3_0_9_0_11,-999,skipped,,5341581,,,5341362,,5341581,2021-10-26T18:21:47.751Z,5341645.12,1635169562,full,ni_sequenzen,NI_Sequenzen,12,9,,,,,,,,,,,,
,Move,canvas.Screen,0_3_0_9_0_12,-999,skipped,,5341598,,,5341362,,5341599,2021-10-26T18:21:47.768Z,5341645.12,1635169562,full,ni_sequenzen,NI_Sequenzen,13,9,,,,,,,,,,,,
,Move,canvas.Screen,0_3_0_9_0_13,-999,skipped,,5341615,,,5341362,,5341615,2021-10-26T18:21:47.785Z,5341645.12,1635169562,full,ni_sequenzen,NI_Sequenzen,14,9,,,,,,,,,,,,
,Move,canvas.Screen,0_3_0_9_0_14,-999,skipped,,5341631,,,5341362,,5341631,2021-10-26T18:21:47.801Z,5341645.12,1635169562,full,ni_sequenzen,NI_Sequenzen,15,9,,,,,,,,,,,,
,Loop,flow.Loop,0_3_0_9_0,-999,completion,,5339281,5339314.26,5339323.5,5341362,2038.5,5341631,2021-10-26T18:21:47.801Z,5341645.12,1635169562,full,ni_sequenzen,NI_Sequenzen,,9,,,,,,,,,,,,
,Feedback,canvas.Screen,0_3_0_9_1,,timeout,,5341644,5341644.88,5341645.12,5345628.32,4115.5800000000745,5345630,2021-10-26T18:21:51.799Z,5345760.7,1635169562,full,ni_sequenzen,NI_Sequenzen,,9,,,,,,,,,,,,
,Trial,flow.Sequence,0_3_0_9,,completion,,5339260,5339314.26,5339323.5,5345628.32,6304.820000000298,5345631,2021-10-26T18:21:51.801Z,5345760.88,1635169562,full,ni_sequenzen,NI_Sequenzen,,9,,,,,,,,,,,,
,Block,flow.Loop,0_3_0,,completion,,5264241,5264366.4,5264366.62,5345628.32,81261.70000000019,5345632,2021-10-26T18:21:51.801Z,5345760.88,1635169562,full,ni_sequenzen,NI_Sequenzen,,,,,,,,,,,,,,
,Training_II,flow.Sequence,0_3,,completion,,5264218,5264366.4,5264366.62,5345628.32,81261.70000000019,5345632,2021-10-26T18:21:51.802Z,5345760.88,1635169562,full,ni_sequenzen,NI_Sequenzen,,,,,,,,,,,,,,
,Screen_1,canvas.Screen,0_4_0_0,cont,response,1,5345761,5345760.7,5345760.88,5352205,6444.120000000112,5352226,2021-10-26T18:21:58.397Z,5352266.64,1635169562,full,ni_sequenzen,NI_Sequenzen,,,,,,,,,,,,,,
,Screen_2,canvas.Screen,0_4_0_1,cont,response,1,5352251,5352250.64,5352266.64,5369299,17032.360000000335,5369315,2021-10-26T18:22:15.486Z,5369462.92,1635169562,full,ni_sequenzen,NI_Sequenzen,,,,,,,,,,,,,,
,Screen_3,canvas.Screen,0_4_0_2,cont,response,1,5369443,5369443.52,5369462.92,5383925,14462.080000000075,5383951,2021-10-26T18:22:30.121Z,5384346.62,1635169562,full,ni_sequenzen,NI_Sequenzen,,,,,,,,,,,,,,
,Sequence,flow.Sequence,0_4_0,,completion,1,5345687,5345760.7,5345760.88,5383925,38164.12000000011,5383952,2021-10-26T18:22:30.122Z,5384346.62,1635169562,full,ni_sequenzen,NI_Sequenzen,,,,,,,,,,,,,,
,Screen_1,canvas.Screen,0_4_1_0,,skipped,2,5383975,,,5383975,,5383975,2021-10-26T18:22:30.145Z,5384346.62,1635169562,full,ni_sequenzen,NI_Sequenzen,,,,,,,,,,,,,,
,Screen_2,canvas.Screen,0_4_1_1,,skipped,2,5383989,,,5383975,,5383989,2021-10-26T18:22:30.159Z,5384346.62,1635169562,full,ni_sequenzen,NI_Sequenzen,,,,,,,,,,,,,,
,Screen_3,canvas.Screen,0_4_1_2,,skipped,2,5383995,,,5383975,,5383995,2021-10-26T18:22:30.165Z,5384346.62,1635169562,full,ni_sequenzen,NI_Sequenzen,,,,,,,,,,,,,,
,Sequence,flow.Sequence,0_4_1,,completion,2,5383960,,,5383975,,5383996,2021-10-26T18:22:30.165Z,5384346.62,1635169562,full,ni_sequenzen,NI_Sequenzen,,,,,,,,,,,,,,
,Screen_1,canvas.Screen,0_4_2_0,,skipped,3,5384001,,,5384001,,5384001,2021-10-26T18:22:30.170Z,5384346.62,1635169562,full,ni_sequenzen,NI_Sequenzen,,,,,,,,,,,,,,
,Screen_2,canvas.Screen,0_4_2_1,,skipped,3,5384004,,,5384001,,5384004,2021-10-26T18:22:30.175Z,5384346.62,1635169562,full,ni_sequenzen,NI_Sequenzen,,,,,,,,,,,,,,
,Screen_3,canvas.Screen,0_4_2_2,,skipped,3,5384009,,,5384001,,5384009,2021-10-26T18:22:30.179Z,5384346.62,1635169562,full,ni_sequenzen,NI_Sequenzen,,,,,,,,,,,,,,
,Sequence,flow.Sequence,0_4_2,,completion,3,5383997,,,5384001,,5384009,2021-10-26T18:22:30.179Z,5384346.62,1635169562,full,ni_sequenzen,NI_Sequenzen,,,,,,,,,,,,,,
,Screen_1,canvas.Screen,0_4_3_0,,skipped,4,5384014,,,5384014,,5384014,2021-10-26T18:22:30.184Z,5384346.62,1635169562,full,ni_sequenzen,NI_Sequenzen,,,,,,,,,,,,,,
,Screen_2,canvas.Screen,0_4_3_1,,skipped,4,5384018,,,5384014,,5384018,2021-10-26T18:22:30.188Z,5384346.62,1635169562,full,ni_sequenzen,NI_Sequenzen,,,,,,,,,,,,,,
,Screen_3,canvas.Screen,0_4_3_2,,skipped,4,5384023,,,5384014,,5384023,2021-10-26T18:22:30.192Z,5384346.62,1635169562,full,ni_sequenzen,NI_Sequenzen,,,,,,,,,,,,,,
,Sequence,flow.Sequence,0_4_3,,completion,4,5384011,,,5384014,,5384023,2021-10-26T18:22:30.192Z,5384346.62,1635169562,full,ni_sequenzen,NI_Sequenzen,,,,,,,,,,,,,,
,Screen_1,canvas.Screen,0_4_4_0,,skipped,5,5384027,,,5384027,,5384028,2021-10-26T18:22:30.197Z,5384346.62,1635169562,full,ni_sequenzen,NI_Sequenzen,,,,,,,,,,,,,,
,Screen_2,canvas.Screen,0_4_4_1,,skipped,5,5384031,,,5384027,,5384031,2021-10-26T18:22:30.202Z,5384346.62,1635169562,full,ni_sequenzen,NI_Sequenzen,,,,,,,,,,,,,,
,Screen_3,canvas.Screen,0_4_4_2,,skipped,5,5384034,,,5384027,,5384034,2021-10-26T18:22:30.204Z,5384346.62,1635169562,full,ni_sequenzen,NI_Sequenzen,,,,,,,,,,,,,,
,Sequence,flow.Sequence,0_4_4,,completion,5,5384024,,,5384027,,5384034,2021-10-26T18:22:30.204Z,5384346.62,1635169562,full,ni_sequenzen,NI_Sequenzen,,,,,,,,,,,,,,
,Screen_1,canvas.Screen,0_4_5_0,,skipped,6,5384039,,,5384039,,5384039,2021-10-26T18:22:30.208Z,5384346.62,1635169562,full,ni_sequenzen,NI_Sequenzen,,,,,,,,,,,,,,
,Screen_2,canvas.Screen,0_4_5_1,,skipped,6,5384042,,,5384039,,5384042,2021-10-26T18:22:30.212Z,5384346.62,1635169562,full,ni_sequenzen,NI_Sequenzen,,,,,,,,,,,,,,
,Screen_3,canvas.Screen,0_4_5_2,,skipped,6,5384046,,,5384039,,5384046,2021-10-26T18:22:30.216Z,5384346.62,1635169562,full,ni_sequenzen,NI_Sequenzen,,,,,,,,,,,,,,
,Sequence,flow.Sequence,0_4_5,,completion,6,5384036,,,5384039,,5384046,2021-10-26T18:22:30.216Z,5384346.62,1635169562,full,ni_sequenzen,NI_Sequenzen,,,,,,,,,,,,,,
,Screen_1,canvas.Screen,0_4_6_0,,skipped,7,5384051,,,5384051,,5384051,2021-10-26T18:22:30.221Z,5384346.62,1635169562,full,ni_sequenzen,NI_Sequenzen,,,,,,,,,,,,,,
,Screen_2,canvas.Screen,0_4_6_1,,skipped,7,5384054,,,5384051,,5384054,2021-10-26T18:22:30.224Z,5384346.62,1635169562,full,ni_sequenzen,NI_Sequenzen,,,,,,,,,,,,,,
,Screen_3,canvas.Screen,0_4_6_2,,skipped,7,5384057,,,5384051,,5384058,2021-10-26T18:22:30.227Z,5384346.62,1635169562,full,ni_sequenzen,NI_Sequenzen,,,,,,,,,,,,,,
,Sequence,flow.Sequence,0_4_6,,completion,7,5384048,,,5384051,,5384058,2021-10-26T18:22:30.227Z,5384346.62,1635169562,full,ni_sequenzen,NI_Sequenzen,,,,,,,,,,,,,,
,Screen_1,canvas.Screen,0_4_7_0,,skipped,8,5384061,,,5384061,,5384061,2021-10-26T18:22:30.231Z,5384346.62,1635169562,full,ni_sequenzen,NI_Sequenzen,,,,,,,,,,,,,,
,Screen_2,canvas.Screen,0_4_7_1,,skipped,8,5384065,,,5384061,,5384065,2021-10-26T18:22:30.235Z,5384346.62,1635169562,full,ni_sequenzen,NI_Sequenzen,,,,,,,,,,,,,,
,Screen_3,canvas.Screen,0_4_7_2,,skipped,8,5384068,,,5384061,,5384068,2021-10-26T18:22:30.239Z,5384346.62,1635169562,full,ni_sequenzen,NI_Sequenzen,,,,,,,,,,,,,,
,Sequence,flow.Sequence,0_4_7,,completion,8,5384059,,,5384061,,5384068,2021-10-26T18:22:30.239Z,5384346.62,1635169562,full,ni_sequenzen,NI_Sequenzen,,,,,,,,,,,,,,
,Screen_1,canvas.Screen,0_4_8_0,,skipped,9,5384072,,,5384072,,5384072,2021-10-26T18:22:30.243Z,5384346.62,1635169562,full,ni_sequenzen,NI_Sequenzen,,,,,,,,,,,,,,
,Screen_2,canvas.Screen,0_4_8_1,,skipped,9,5384076,,,5384072,,5384076,2021-10-26T18:22:30.246Z,5384346.62,1635169562,full,ni_sequenzen,NI_Sequenzen,,,,,,,,,,,,,,
,Screen_3,canvas.Screen,0_4_8_2,,skipped,9,5384079,,,5384072,,5384079,2021-10-26T18:22:30.249Z,5384346.62,1635169562,full,ni_sequenzen,NI_Sequenzen,,,,,,,,,,,,,,
,Sequence,flow.Sequence,0_4_8,,completion,9,5384069,,,5384072,,5384079,2021-10-26T18:22:30.249Z,5384346.62,1635169562,full,ni_sequenzen,NI_Sequenzen,,,,,,,,,,,,,,
,Screen_1,canvas.Screen,0_4_9_0,,skipped,10,5384083,,,5384083,,5384083,2021-10-26T18:22:30.254Z,5384346.62,1635169562,full,ni_sequenzen,NI_Sequenzen,,,,,,,,,,,,,,
,Screen_2,canvas.Screen,0_4_9_1,,skipped,10,5384087,,,5384083,,5384088,2021-10-26T18:22:30.257Z,5384346.62,1635169562,full,ni_sequenzen,NI_Sequenzen,,,,,,,,,,,,,,
,Screen_3,canvas.Screen,0_4_9_2,,skipped,10,5384090,,,5384083,,5384090,2021-10-26T18:22:30.260Z,5384346.62,1635169562,full,ni_sequenzen,NI_Sequenzen,,,,,,,,,,,,,,
,Sequence,flow.Sequence,0_4_9,,completion,10,5384080,,,5384083,,5384090,2021-10-26T18:22:30.260Z,5384346.62,1635169562,full,ni_sequenzen,NI_Sequenzen,,,,,,,,,,,,,,
,Screen_1,canvas.Screen,0_4_10_0,,skipped,11,5384094,,,5384094,,5384094,2021-10-26T18:22:30.264Z,5384346.62,1635169562,full,ni_sequenzen,NI_Sequenzen,,,,,,,,,,,,,,
,Screen_2,canvas.Screen,0_4_10_1,,skipped,11,5384097,,,5384094,,5384097,2021-10-26T18:22:30.267Z,5384346.62,1635169562,full,ni_sequenzen,NI_Sequenzen,,,,,,,,,,,,,,
,Screen_3,canvas.Screen,0_4_10_2,,skipped,11,5384100,,,5384094,,5384100,2021-10-26T18:22:30.270Z,5384346.62,1635169562,full,ni_sequenzen,NI_Sequenzen,,,,,,,,,,,,,,
,Sequence,flow.Sequence,0_4_10,,completion,11,5384091,,,5384094,,5384100,2021-10-26T18:22:30.270Z,5384346.62,1635169562,full,ni_sequenzen,NI_Sequenzen,,,,,,,,,,,,,,
,Screen_1,canvas.Screen,0_4_11_0,,skipped,12,5384104,,,5384104,,5384104,2021-10-26T18:22:30.274Z,5384346.62,1635169562,full,ni_sequenzen,NI_Sequenzen,,,,,,,,,,,,,,
,Screen_2,canvas.Screen,0_4_11_1,,skipped,12,5384107,,,5384104,,5384107,2021-10-26T18:22:30.277Z,5384346.62,1635169562,full,ni_sequenzen,NI_Sequenzen,,,,,,,,,,,,,,
,Screen_3,canvas.Screen,0_4_11_2,,skipped,12,5384111,,,5384104,,5384111,2021-10-26T18:22:30.281Z,5384346.62,1635169562,full,ni_sequenzen,NI_Sequenzen,,,,,,,,,,,,,,
,Sequence,flow.Sequence,0_4_11,,completion,12,5384101,,,5384104,,5384111,2021-10-26T18:22:30.281Z,5384346.62,1635169562,full,ni_sequenzen,NI_Sequenzen,,,,,,,,,,,,,,
