meta,sender,sender_type,sender_id,response,ended_on,instrCount,time_run,time_render,time_show,time_end,duration,time_commit,timestamp,time_switch,openLabId,type,task,project,move,trialN,blockN_Train,blockN,moveCount,currPP,points,movesTrial,visitedFields,diff,reward,Strategie,Zweck,Probleme
[object Object],Screen_1,canvas.Screen,0_0_0_0,cont,response,1,608,617.04,633.7,10015,9381.3,10024,2021-10-26T13:17:41.772Z,10136.44,1635254246,full,ni_sequenzen,NI_Sequenzen,,,,,,,,,,,,,,
,Screen_2,canvas.Screen,0_0_0_1,cont,response,1,10136,10136.3,10136.44,22531,12394.56,22545,2021-10-26T13:17:54.294Z,22617.88,1635254246,full,ni_sequenzen,NI_Sequenzen,,,,,,,,,,,,,,
,Screen_3,canvas.Screen,0_0_0_2,cont,response,1,22618,22617.76,22617.88,37265,14647.119999999999,37273,2021-10-26T13:18:09.022Z,37282.42,1635254246,full,ni_sequenzen,NI_Sequenzen,,,,,,,,,,,,,,
,Screen_4,canvas.Screen,0_0_0_3,cont,response,1,37282,37282.3,37282.42,42718,5435.580000000002,42727,2021-10-26T13:18:14.475Z,42935.92,1635254246,full,ni_sequenzen,NI_Sequenzen,,,,,,,,,,,,,,
,Sequence,flow.Sequence,0_0_0,,completion,1,564,617.04,633.7,42718,42084.3,42728,2021-10-26T13:18:14.476Z,42935.92,1635254246,full,ni_sequenzen,NI_Sequenzen,,,,,,,,,,,,,,
,Screen_1,canvas.Screen,0_0_1_0,,skipped,2,42732,,,42732,,42732,2021-10-26T13:18:14.480Z,42935.92,1635254246,full,ni_sequenzen,NI_Sequenzen,,,,,,,,,,,,,,
,Screen_2,canvas.Screen,0_0_1_1,,skipped,2,42737,,,42732,,42737,2021-10-26T13:18:14.485Z,42935.92,1635254246,full,ni_sequenzen,NI_Sequenzen,,,,,,,,,,,,,,
,Screen_3,canvas.Screen,0_0_1_2,,skipped,2,42739,,,42732,,42739,2021-10-26T13:18:14.488Z,42935.92,1635254246,full,ni_sequenzen,NI_Sequenzen,,,,,,,,,,,,,,
,Screen_4,canvas.Screen,0_0_1_3,,skipped,2,42743,,,42732,,42743,2021-10-26T13:18:14.491Z,42935.92,1635254246,full,ni_sequenzen,NI_Sequenzen,,,,,,,,,,,,,,
,Sequence,flow.Sequence,0_0_1,,completion,2,42729,,,42732,,42743,2021-10-26T13:18:14.491Z,42935.92,1635254246,full,ni_sequenzen,NI_Sequenzen,,,,,,,,,,,,,,
,Screen_1,canvas.Screen,0_0_2_0,,skipped,3,42746,,,42746,,42746,2021-10-26T13:18:14.494Z,42935.92,1635254246,full,ni_sequenzen,NI_Sequenzen,,,,,,,,,,,,,,
,Screen_2,canvas.Screen,0_0_2_1,,skipped,3,42748,,,42746,,42748,2021-10-26T13:18:14.497Z,42935.92,1635254246,full,ni_sequenzen,NI_Sequenzen,,,,,,,,,,,,,,
,Screen_3,canvas.Screen,0_0_2_2,,skipped,3,42751,,,42746,,42751,2021-10-26T13:18:14.499Z,42935.92,1635254246,full,ni_sequenzen,NI_Sequenzen,,,,,,,,,,,,,,
,Screen_4,canvas.Screen,0_0_2_3,,skipped,3,42754,,,42746,,42754,2021-10-26T13:18:14.501Z,42935.92,1635254246,full,ni_sequenzen,NI_Sequenzen,,,,,,,,,,,,,,
,Sequence,flow.Sequence,0_0_2,,completion,3,42744,,,42746,,42754,2021-10-26T13:18:14.502Z,42935.92,1635254246,full,ni_sequenzen,NI_Sequenzen,,,,,,,,,,,,,,
,Screen_1,canvas.Screen,0_0_3_0,,skipped,4,42756,,,42756,,42756,2021-10-26T13:18:14.505Z,42935.92,1635254246,full,ni_sequenzen,NI_Sequenzen,,,,,,,,,,,,,,
,Screen_2,canvas.Screen,0_0_3_1,,skipped,4,42758,,,42756,,42758,2021-10-26T13:18:14.507Z,42935.92,1635254246,full,ni_sequenzen,NI_Sequenzen,,,,,,,,,,,,,,
,Screen_3,canvas.Screen,0_0_3_2,,skipped,4,42761,,,42756,,42761,2021-10-26T13:18:14.509Z,42935.92,1635254246,full,ni_sequenzen,NI_Sequenzen,,,,,,,,,,,,,,
,Screen_4,canvas.Screen,0_0_3_3,,skipped,4,42763,,,42756,,42763,2021-10-26T13:18:14.512Z,42935.92,1635254246,full,ni_sequenzen,NI_Sequenzen,,,,,,,,,,,,,,
,Sequence,flow.Sequence,0_0_3,,completion,4,42755,,,42756,,42764,2021-10-26T13:18:14.512Z,42935.92,1635254246,full,ni_sequenzen,NI_Sequenzen,,,,,,,,,,,,,,
,Screen_1,canvas.Screen,0_0_4_0,,skipped,5,42767,,,42767,,42767,2021-10-26T13:18:14.516Z,42935.92,1635254246,full,ni_sequenzen,NI_Sequenzen,,,,,,,,,,,,,,
,Screen_2,canvas.Screen,0_0_4_1,,skipped,5,42769,,,42767,,42769,2021-10-26T13:18:14.517Z,42935.92,1635254246,full,ni_sequenzen,NI_Sequenzen,,,,,,,,,,,,,,
,Screen_3,canvas.Screen,0_0_4_2,,skipped,5,42771,,,42767,,42772,2021-10-26T13:18:14.520Z,42935.92,1635254246,full,ni_sequenzen,NI_Sequenzen,,,,,,,,,,,,,,
,Screen_4,canvas.Screen,0_0_4_3,,skipped,5,42774,,,42767,,42774,2021-10-26T13:18:14.522Z,42935.92,1635254246,full,ni_sequenzen,NI_Sequenzen,,,,,,,,,,,,,,
,Sequence,flow.Sequence,0_0_4,,completion,5,42764,,,42767,,42774,2021-10-26T13:18:14.523Z,42935.92,1635254246,full,ni_sequenzen,NI_Sequenzen,,,,,,,,,,,,,,
,Screen_1,canvas.Screen,0_0_5_0,,skipped,6,42776,,,42776,,42776,2021-10-26T13:18:14.526Z,42935.92,1635254246,full,ni_sequenzen,NI_Sequenzen,,,,,,,,,,,,,,
,Screen_2,canvas.Screen,0_0_5_1,,skipped,6,42778,,,42776,,42778,2021-10-26T13:18:14.527Z,42935.92,1635254246,full,ni_sequenzen,NI_Sequenzen,,,,,,,,,,,,,,
,Screen_3,canvas.Screen,0_0_5_2,,skipped,6,42781,,,42776,,42781,2021-10-26T13:18:14.529Z,42935.92,1635254246,full,ni_sequenzen,NI_Sequenzen,,,,,,,,,,,,,,
,Screen_4,canvas.Screen,0_0_5_3,,skipped,6,42783,,,42776,,42783,2021-10-26T13:18:14.531Z,42935.92,1635254246,full,ni_sequenzen,NI_Sequenzen,,,,,,,,,,,,,,
,Sequence,flow.Sequence,0_0_5,,completion,6,42775,,,42776,,42784,2021-10-26T13:18:14.531Z,42935.92,1635254246,full,ni_sequenzen,NI_Sequenzen,,,,,,,,,,,,,,
,Screen_1,canvas.Screen,0_0_6_0,,skipped,7,42786,,,42786,,42786,2021-10-26T13:18:14.534Z,42935.92,1635254246,full,ni_sequenzen,NI_Sequenzen,,,,,,,,,,,,,,
,Screen_2,canvas.Screen,0_0_6_1,,skipped,7,42788,,,42786,,42788,2021-10-26T13:18:14.536Z,42935.92,1635254246,full,ni_sequenzen,NI_Sequenzen,,,,,,,,,,,,,,
,Screen_3,canvas.Screen,0_0_6_2,,skipped,7,42790,,,42786,,42790,2021-10-26T13:18:14.538Z,42935.92,1635254246,full,ni_sequenzen,NI_Sequenzen,,,,,,,,,,,,,,
,Screen_4,canvas.Screen,0_0_6_3,,skipped,7,42792,,,42786,,42792,2021-10-26T13:18:14.541Z,42935.92,1635254246,full,ni_sequenzen,NI_Sequenzen,,,,,,,,,,,,,,
,Sequence,flow.Sequence,0_0_6,,completion,7,42784,,,42786,,42793,2021-10-26T13:18:14.541Z,42935.92,1635254246,full,ni_sequenzen,NI_Sequenzen,,,,,,,,,,,,,,
,Screen_1,canvas.Screen,0_0_7_0,,skipped,8,42795,,,42795,,42795,2021-10-26T13:18:14.543Z,42935.92,1635254246,full,ni_sequenzen,NI_Sequenzen,,,,,,,,,,,,,,
,Screen_2,canvas.Screen,0_0_7_1,,skipped,8,42797,,,42795,,42797,2021-10-26T13:18:14.545Z,42935.92,1635254246,full,ni_sequenzen,NI_Sequenzen,,,,,,,,,,,,,,
,Screen_3,canvas.Screen,0_0_7_2,,skipped,8,42799,,,42795,,42799,2021-10-26T13:18:14.547Z,42935.92,1635254246,full,ni_sequenzen,NI_Sequenzen,,,,,,,,,,,,,,
,Screen_4,canvas.Screen,0_0_7_3,,skipped,8,42801,,,42795,,42801,2021-10-26T13:18:14.550Z,42935.92,1635254246,full,ni_sequenzen,NI_Sequenzen,,,,,,,,,,,,,,
,Sequence,flow.Sequence,0_0_7,,completion,8,42793,,,42795,,42802,2021-10-26T13:18:14.550Z,42935.92,1635254246,full,ni_sequenzen,NI_Sequenzen,,,,,,,,,,,,,,
,Screen_1,canvas.Screen,0_0_8_0,,skipped,9,42804,,,42804,,42804,2021-10-26T13:18:14.553Z,42935.92,1635254246,full,ni_sequenzen,NI_Sequenzen,,,,,,,,,,,,,,
,Screen_2,canvas.Screen,0_0_8_1,,skipped,9,42806,,,42804,,42807,2021-10-26T13:18:14.555Z,42935.92,1635254246,full,ni_sequenzen,NI_Sequenzen,,,,,,,,,,,,,,
,Screen_3,canvas.Screen,0_0_8_2,,skipped,9,42808,,,42804,,42808,2021-10-26T13:18:14.556Z,42935.92,1635254246,full,ni_sequenzen,NI_Sequenzen,,,,,,,,,,,,,,
,Screen_4,canvas.Screen,0_0_8_3,,skipped,9,42811,,,42804,,42811,2021-10-26T13:18:14.559Z,42935.92,1635254246,full,ni_sequenzen,NI_Sequenzen,,,,,,,,,,,,,,
,Sequence,flow.Sequence,0_0_8,,completion,9,42803,,,42804,,42811,2021-10-26T13:18:14.559Z,42935.92,1635254246,full,ni_sequenzen,NI_Sequenzen,,,,,,,,,,,,,,
,Screen_1,canvas.Screen,0_0_9_0,,skipped,10,42813,,,42813,,42813,2021-10-26T13:18:14.561Z,42935.92,1635254246,full,ni_sequenzen,NI_Sequenzen,,,,,,,,,,,,,,
,Screen_2,canvas.Screen,0_0_9_1,,skipped,10,42815,,,42813,,42815,2021-10-26T13:18:14.563Z,42935.92,1635254246,full,ni_sequenzen,NI_Sequenzen,,,,,,,,,,,,,,
,Screen_3,canvas.Screen,0_0_9_2,,skipped,10,42818,,,42813,,42818,2021-10-26T13:18:14.566Z,42935.92,1635254246,full,ni_sequenzen,NI_Sequenzen,,,,,,,,,,,,,,
,Screen_4,canvas.Screen,0_0_9_3,,skipped,10,42820,,,42813,,42820,2021-10-26T13:18:14.568Z,42935.92,1635254246,full,ni_sequenzen,NI_Sequenzen,,,,,,,,,,,,,,
,Sequence,flow.Sequence,0_0_9,,completion,10,42812,,,42813,,42820,2021-10-26T13:18:14.568Z,42935.92,1635254246,full,ni_sequenzen,NI_Sequenzen,,,,,,,,,,,,,,
,Screen_1,canvas.Screen,0_0_10_0,,skipped,11,42821,,,42821,,42822,2021-10-26T13:18:14.570Z,42935.92,1635254246,full,ni_sequenzen,NI_Sequenzen,,,,,,,,,,,,,,
,Screen_2,canvas.Screen,0_0_10_1,,skipped,11,42824,,,42821,,42824,2021-10-26T13:18:14.573Z,42935.92,1635254246,full,ni_sequenzen,NI_Sequenzen,,,,,,,,,,,,,,
,Screen_3,canvas.Screen,0_0_10_2,,skipped,11,42826,,,42821,,42826,2021-10-26T13:18:14.575Z,42935.92,1635254246,full,ni_sequenzen,NI_Sequenzen,,,,,,,,,,,,,,
,Screen_4,canvas.Screen,0_0_10_3,,skipped,11,42828,,,42821,,42828,2021-10-26T13:18:14.577Z,42935.92,1635254246,full,ni_sequenzen,NI_Sequenzen,,,,,,,,,,,,,,
,Sequence,flow.Sequence,0_0_10,,completion,11,42820,,,42821,,42828,2021-10-26T13:18:14.577Z,42935.92,1635254246,full,ni_sequenzen,NI_Sequenzen,,,,,,,,,,,,,,
,Screen_1,canvas.Screen,0_0_11_0,,skipped,12,42831,,,42831,,42831,2021-10-26T13:18:14.579Z,42935.92,1635254246,full,ni_sequenzen,NI_Sequenzen,,,,,,,,,,,,,,
,Screen_2,canvas.Screen,0_0_11_1,,skipped,12,42833,,,42831,,42833,2021-10-26T13:18:14.581Z,42935.92,1635254246,full,ni_sequenzen,NI_Sequenzen,,,,,,,,,,,,,,
,Screen_3,canvas.Screen,0_0_11_2,,skipped,12,42835,,,42831,,42835,2021-10-26T13:18:14.584Z,42935.92,1635254246,full,ni_sequenzen,NI_Sequenzen,,,,,,,,,,,,,,
,Screen_4,canvas.Screen,0_0_11_3,,skipped,12,42838,,,42831,,42838,2021-10-26T13:18:14.586Z,42935.92,1635254246,full,ni_sequenzen,NI_Sequenzen,,,,,,,,,,,,,,
,Sequence,flow.Sequence,0_0_11,,completion,12,42829,,,42831,,42838,2021-10-26T13:18:14.586Z,42935.92,1635254246,full,ni_sequenzen,NI_Sequenzen,,,,,,,,,,,,,,
,Screen_1,canvas.Screen,0_0_12_0,,skipped,13,42840,,,42840,,42840,2021-10-26T13:18:14.588Z,42935.92,1635254246,full,ni_sequenzen,NI_Sequenzen,,,,,,,,,,,,,,
,Screen_2,canvas.Screen,0_0_12_1,,skipped,13,42841,,,42840,,42841,2021-10-26T13:18:14.590Z,42935.92,1635254246,full,ni_sequenzen,NI_Sequenzen,,,,,,,,,,,,,,
,Screen_3,canvas.Screen,0_0_12_2,,skipped,13,42844,,,42840,,42844,2021-10-26T13:18:14.592Z,42935.92,1635254246,full,ni_sequenzen,NI_Sequenzen,,,,,,,,,,,,,,
,Screen_4,canvas.Screen,0_0_12_3,,skipped,13,42847,,,42840,,42847,2021-10-26T13:18:14.594Z,42935.92,1635254246,full,ni_sequenzen,NI_Sequenzen,,,,,,,,,,,,,,
,Sequence,flow.Sequence,0_0_12,,completion,13,42838,,,42840,,42847,2021-10-26T13:18:14.594Z,42935.92,1635254246,full,ni_sequenzen,NI_Sequenzen,,,,,,,,,,,,,,
,Screen_1,canvas.Screen,0_0_13_0,,skipped,14,42849,,,42849,,42849,2021-10-26T13:18:14.597Z,42935.92,1635254246,full,ni_sequenzen,NI_Sequenzen,,,,,,,,,,,,,,
,Screen_2,canvas.Screen,0_0_13_1,,skipped,14,42850,,,42849,,42851,2021-10-26T13:18:14.599Z,42935.92,1635254246,full,ni_sequenzen,NI_Sequenzen,,,,,,,,,,,,,,
,Screen_3,canvas.Screen,0_0_13_2,,skipped,14,42853,,,42849,,42853,2021-10-26T13:18:14.601Z,42935.92,1635254246,full,ni_sequenzen,NI_Sequenzen,,,,,,,,,,,,,,
,Screen_4,canvas.Screen,0_0_13_3,,skipped,14,42856,,,42849,,42856,2021-10-26T13:18:14.605Z,42935.92,1635254246,full,ni_sequenzen,NI_Sequenzen,,,,,,,,,,,,,,
,Sequence,flow.Sequence,0_0_13,,completion,14,42847,,,42849,,42856,2021-10-26T13:18:14.605Z,42935.92,1635254246,full,ni_sequenzen,NI_Sequenzen,,,,,,,,,,,,,,
,Screen_1,canvas.Screen,0_0_14_0,,skipped,15,42859,,,42859,,42859,2021-10-26T13:18:14.607Z,42935.92,1635254246,full,ni_sequenzen,NI_Sequenzen,,,,,,,,,,,,,,
,Screen_2,canvas.Screen,0_0_14_1,,skipped,15,42861,,,42859,,42861,2021-10-26T13:18:14.610Z,42935.92,1635254246,full,ni_sequenzen,NI_Sequenzen,,,,,,,,,,,,,,
,Screen_3,canvas.Screen,0_0_14_2,,skipped,15,42863,,,42859,,42863,2021-10-26T13:18:14.612Z,42935.92,1635254246,full,ni_sequenzen,NI_Sequenzen,,,,,,,,,,,,,,
,Screen_4,canvas.Screen,0_0_14_3,,skipped,15,42866,,,42859,,42866,2021-10-26T13:18:14.614Z,42935.92,1635254246,full,ni_sequenzen,NI_Sequenzen,,,,,,,,,,,,,,
,Sequence,flow.Sequence,0_0_14,,completion,15,42857,,,42859,,42866,2021-10-26T13:18:14.615Z,42935.92,1635254246,full,ni_sequenzen,NI_Sequenzen,,,,,,,,,,,,,,
,Screen_1,canvas.Screen,0_0_15_0,,skipped,16,42867,,,42867,,42867,2021-10-26T13:18:14.617Z,42935.92,1635254246,full,ni_sequenzen,NI_Sequenzen,,,,,,,,,,,,,,
,Screen_2,canvas.Screen,0_0_15_1,,skipped,16,42869,,,42867,,42869,2021-10-26T13:18:14.619Z,42935.92,1635254246,full,ni_sequenzen,NI_Sequenzen,,,,,,,,,,,,,,
,Screen_3,canvas.Screen,0_0_15_2,,skipped,16,42872,,,42867,,42872,2021-10-26T13:18:14.620Z,42935.92,1635254246,full,ni_sequenzen,NI_Sequenzen,,,,,,,,,,,,,,
,Screen_4,canvas.Screen,0_0_15_3,,skipped,16,42874,,,42867,,42874,2021-10-26T13:18:14.622Z,42935.92,1635254246,full,ni_sequenzen,NI_Sequenzen,,,,,,,,,,,,,,
,Sequence,flow.Sequence,0_0_15,,completion,16,42867,,,42867,,42874,2021-10-26T13:18:14.622Z,42935.92,1635254246,full,ni_sequenzen,NI_Sequenzen,,,,,,,,,,,,,,
,Screen_1,canvas.Screen,0_0_16_0,,skipped,17,42877,,,42877,,42877,2021-10-26T13:18:14.626Z,42935.92,1635254246,full,ni_sequenzen,NI_Sequenzen,,,,,,,,,,,,,,
,Screen_2,canvas.Screen,0_0_16_1,,skipped,17,42879,,,42877,,42879,2021-10-26T13:18:14.627Z,42935.92,1635254246,full,ni_sequenzen,NI_Sequenzen,,,,,,,,,,,,,,
,Screen_3,canvas.Screen,0_0_16_2,,skipped,17,42881,,,42877,,42881,2021-10-26T13:18:14.629Z,42935.92,1635254246,full,ni_sequenzen,NI_Sequenzen,,,,,,,,,,,,,,
,Screen_4,canvas.Screen,0_0_16_3,,skipped,17,42883,,,42877,,42883,2021-10-26T13:18:14.631Z,42935.92,1635254246,full,ni_sequenzen,NI_Sequenzen,,,,,,,,,,,,,,
,Sequence,flow.Sequence,0_0_16,,completion,17,42876,,,42877,,42883,2021-10-26T13:18:14.631Z,42935.92,1635254246,full,ni_sequenzen,NI_Sequenzen,,,,,,,,,,,,,,
,Screen_1,canvas.Screen,0_0_17_0,,skipped,18,42886,,,42886,,42886,2021-10-26T13:18:14.634Z,42935.92,1635254246,full,ni_sequenzen,NI_Sequenzen,,,,,,,,,,,,,,
,Screen_2,canvas.Screen,0_0_17_1,,skipped,18,42887,,,42886,,42887,2021-10-26T13:18:14.636Z,42935.92,1635254246,full,ni_sequenzen,NI_Sequenzen,,,,,,,,,,,,,,
,Screen_3,canvas.Screen,0_0_17_2,,skipped,18,42889,,,42886,,42889,2021-10-26T13:18:14.638Z,42935.92,1635254246,full,ni_sequenzen,NI_Sequenzen,,,,,,,,,,,,,,
,Screen_4,canvas.Screen,0_0_17_3,,skipped,18,42891,,,42886,,42891,2021-10-26T13:18:14.640Z,42935.92,1635254246,full,ni_sequenzen,NI_Sequenzen,,,,,,,,,,,,,,
,Sequence,flow.Sequence,0_0_17,,completion,18,42884,,,42886,,42892,2021-10-26T13:18:14.640Z,42935.92,1635254246,full,ni_sequenzen,NI_Sequenzen,,,,,,,,,,,,,,
,Screen_1,canvas.Screen,0_0_18_0,,skipped,19,42893,,,42893,,42894,2021-10-26T13:18:14.642Z,42935.92,1635254246,full,ni_sequenzen,NI_Sequenzen,,,,,,,,,,,,,,
,Screen_2,canvas.Screen,0_0_18_1,,skipped,19,42895,,,42893,,42895,2021-10-26T13:18:14.644Z,42935.92,1635254246,full,ni_sequenzen,NI_Sequenzen,,,,,,,,,,,,,,
,Screen_3,canvas.Screen,0_0_18_2,,skipped,19,42898,,,42893,,42898,2021-10-26T13:18:14.646Z,42935.92,1635254246,full,ni_sequenzen,NI_Sequenzen,,,,,,,,,,,,,,
,Screen_4,canvas.Screen,0_0_18_3,,skipped,19,42900,,,42893,,42900,2021-10-26T13:18:14.649Z,42935.92,1635254246,full,ni_sequenzen,NI_Sequenzen,,,,,,,,,,,,,,
,Sequence,flow.Sequence,0_0_18,,completion,19,42892,,,42893,,42900,2021-10-26T13:18:14.649Z,42935.92,1635254246,full,ni_sequenzen,NI_Sequenzen,,,,,,,,,,,,,,
,Screen_1,canvas.Screen,0_0_19_0,,skipped,20,42902,,,42902,,42902,2021-10-26T13:18:14.651Z,42935.92,1635254246,full,ni_sequenzen,NI_Sequenzen,,,,,,,,,,,,,,
,Screen_2,canvas.Screen,0_0_19_1,,skipped,20,42904,,,42902,,42904,2021-10-26T13:18:14.652Z,42935.92,1635254246,full,ni_sequenzen,NI_Sequenzen,,,,,,,,,,,,,,
,Screen_3,canvas.Screen,0_0_19_2,,skipped,20,42906,,,42902,,42906,2021-10-26T13:18:14.655Z,42935.92,1635254246,full,ni_sequenzen,NI_Sequenzen,,,,,,,,,,,,,,
,Screen_4,canvas.Screen,0_0_19_3,,skipped,20,42908,,,42902,,42908,2021-10-26T13:18:14.657Z,42935.92,1635254246,full,ni_sequenzen,NI_Sequenzen,,,,,,,,,,,,,,
,Sequence,flow.Sequence,0_0_19,,completion,20,42901,,,42902,,42909,2021-10-26T13:18:14.657Z,42935.92,1635254246,full,ni_sequenzen,NI_Sequenzen,,,,,,,,,,,,,,
,Instructions_I,flow.Loop,0_0,,completion,,562,617.04,633.7,42902,42268.3,42909,2021-10-26T13:18:14.657Z,42935.92,1635254246,full,ni_sequenzen,NI_Sequenzen,,,,,,,,,,,,,,
,Move,canvas.Screen,0_1_0_0,left,response,,42934,42934.18,42935.92,51374,8438.080000000002,51377,2021-10-26T13:18:23.126Z,51389,1635254246,full,ni_sequenzen,NI_Sequenzen,1,,,,,,,,,,,,,
,Move,canvas.Screen,0_1_0_1,down,response,,51389,51388.82,51389,51749,360,51766,2021-10-26T13:18:23.514Z,51780.82,1635254246,full,ni_sequenzen,NI_Sequenzen,2,,,,,,,,,,,,,
,Move,canvas.Screen,0_1_0_2,down,response,,51781,51780.68,51780.82,52171,390.1800000000003,52184,2021-10-26T13:18:23.932Z,52192.7,1635254246,full,ni_sequenzen,NI_Sequenzen,3,,,,,,,,,,,,,
,Move,canvas.Screen,0_1_0_3,right,response,,52192,52192.56,52192.7,52687,494.3000000000029,52698,2021-10-26T13:18:24.446Z,52711.16,1635254246,full,ni_sequenzen,NI_Sequenzen,4,,,,,,,,,,,,,
,Move,canvas.Screen,0_1_0_4,right,response,,52711,52710.96,52711.16,52937,225.8399999999965,52947,2021-10-26T13:18:24.695Z,52955.5,1635254246,full,ni_sequenzen,NI_Sequenzen,5,,,,,,,,,,,,,
,Move,canvas.Screen,0_1_0_5,left,response,,52955,52955.38,52955.5,53328,372.5,53342,2021-10-26T13:18:25.090Z,53360.02,1635254246,full,ni_sequenzen,NI_Sequenzen,6,,,,,,,,,,,,,
,Move,canvas.Screen,0_1_0_6,down,response,,53360,53359.76,53360.02,53985,624.9800000000032,53994,2021-10-26T13:18:25.742Z,54005.04,1635254246,full,ni_sequenzen,NI_Sequenzen,7,,,,,,,,,,,,,
,Move,canvas.Screen,0_1_0_7,down,response,,54005,54004.96,54005.04,54281,275.9599999999991,54294,2021-10-26T13:18:26.042Z,54304.98,1635254246,full,ni_sequenzen,NI_Sequenzen,8,,,,,,,,,,,,,
,Move,canvas.Screen,0_1_0_8,left,response,,54305,54304.88,54304.98,54891,586.0199999999968,54905,2021-10-26T13:18:26.654Z,54918.3,1635254246,full,ni_sequenzen,NI_Sequenzen,9,,,,,,,,,,,,,
,Move,canvas.Screen,0_1_0_9,down,response,,54919,54918.2,54918.3,55249,330.6999999999971,55255,2021-10-26T13:18:27.003Z,55261.82,1635254246,full,ni_sequenzen,NI_Sequenzen,10,,,,,,,,,,,,,
,Move,canvas.Screen,0_1_0_10,right,response,,55262,55261.62,55261.82,55703,441.1800000000003,55717,2021-10-26T13:18:27.466Z,55724.9,1635254246,full,ni_sequenzen,NI_Sequenzen,11,,,,,,,,,,,,,
,Move,canvas.Screen,0_1_0_11,right,response,,55725,55724.74,55724.9,55999,274.09999999999854,56011,2021-10-26T13:18:27.760Z,56019.64,1635254246,full,ni_sequenzen,NI_Sequenzen,12,,,,,,,,,,,,,
,Move,canvas.Screen,0_1_0_12,left,response,,56019,56019.44,56019.64,56484,464.3600000000006,56495,2021-10-26T13:18:28.243Z,56507.7,1635254246,full,ni_sequenzen,NI_Sequenzen,13,,,,,,,,,,,,,
,Move,canvas.Screen,0_1_0_13,down,response,,56508,56507.6,56507.7,58296,1788.300000000003,58311,2021-10-26T13:18:30.060Z,58323.54,1635254246,full,ni_sequenzen,NI_Sequenzen,14,,,,,,,,,,,,,
,Move,canvas.Screen,0_1_0_14,down,response,,58323,58323.44,58323.54,58671,347.4599999999991,58681,2021-10-26T13:18:30.429Z,58693.42,1635254246,full,ni_sequenzen,NI_Sequenzen,15,,,,,,,,,,,,,
,Move,canvas.Screen,0_1_0_15,down,response,,58694,58693.2,58693.42,58999,305.58000000000175,59015,2021-10-26T13:18:30.764Z,59028.14,1635254246,full,ni_sequenzen,NI_Sequenzen,16,,,,,,,,,,,,,
,Move,canvas.Screen,0_1_0_16,left,response,,59028,59028,59028.14,59781,752.8600000000006,59796,2021-10-26T13:18:31.544Z,59808.24,1635254246,full,ni_sequenzen,NI_Sequenzen,17,,,,,,,,,,,,,
,Move,canvas.Screen,0_1_0_17,down,response,,59808,59808.06,59808.24,60499,690.760000000002,60506,2021-10-26T13:18:32.255Z,60514.92,1635254246,full,ni_sequenzen,NI_Sequenzen,18,,,,,,,,,,,,,
,Move,canvas.Screen,0_1_0_18,right,response,,60514,60514.76,60514.92,61515,1000.0800000000017,61531,2021-10-26T13:18:33.279Z,61546.98,1635254246,full,ni_sequenzen,NI_Sequenzen,19,,,,,,,,,,,,,
,Move,canvas.Screen,0_1_0_19,left,response,,61546,61546.76,61546.98,63531,1984.0199999999968,63537,2021-10-26T13:18:35.285Z,63543.08,1635254246,full,ni_sequenzen,NI_Sequenzen,20,,,,,,,,,,,,,
,Move,canvas.Screen,0_1_0_20,down,response,,63543,63542.96,63543.08,63968,424.91999999999825,63973,2021-10-26T13:18:35.722Z,63980.78,1635254246,full,ni_sequenzen,NI_Sequenzen,21,,,,,,,,,,,,,
,Move,canvas.Screen,0_1_0_21,left,response,,63981,63980.64,63980.78,64515,534.2200000000012,64520,2021-10-26T13:18:36.268Z,64532.76,1635254246,full,ni_sequenzen,NI_Sequenzen,22,,,,,,,,,,,,,
,Move,canvas.Screen,0_1_0_22,down,response,,64533,64532.64,64532.76,64749,216.23999999999796,64764,2021-10-26T13:18:36.512Z,64773.34,1635254246,full,ni_sequenzen,NI_Sequenzen,23,,,,,,,,,,,,,
,Move,canvas.Screen,0_1_0_23,left,response,,64773,64773.2,64773.34,65093,319.6600000000035,65108,2021-10-26T13:18:36.856Z,65116.8,1635254246,full,ni_sequenzen,NI_Sequenzen,24,,,,,,,,,,,,,
,Move,canvas.Screen,0_1_0_24,down,response,,65116,65116.68,65116.8,65343,226.1999999999971,65346,2021-10-26T13:18:37.095Z,65357.78,1635254246,full,ni_sequenzen,NI_Sequenzen,25,,,,,,,,,,,,,
,Move,canvas.Screen,0_1_0_25,down,response,,65358,65357.66,65357.78,65640,282.22000000000116,65651,2021-10-26T13:18:37.399Z,65659.72,1635254246,full,ni_sequenzen,NI_Sequenzen,26,,,,,,,,,,,,,
,Move,canvas.Screen,0_1_0_26,right,response,,65659,65659.6,65659.72,66062,402.27999999999884,66065,2021-10-26T13:18:37.814Z,66076.68,1635254246,full,ni_sequenzen,NI_Sequenzen,27,,,,,,,,,,,,,
,Move,canvas.Screen,0_1_0_27,right,response,,66077,66076.52,66076.68,66437,360.320000000007,66450,2021-10-26T13:18:38.199Z,66465.46,1635254246,full,ni_sequenzen,NI_Sequenzen,28,,,,,,,,,,,,,
,Move,canvas.Screen,0_1_0_28,down,response,,66465,66465.26,66465.46,66937,471.5399999999936,66945,2021-10-26T13:18:38.694Z,66952.4,1635254246,full,ni_sequenzen,NI_Sequenzen,29,,,,,,,,,,,,,
,Move,canvas.Screen,0_1_0_29,down,response,,66952,66952.26,66952.4,67265,312.6000000000058,67274,2021-10-26T13:18:39.022Z,67314.82,1635254246,full,ni_sequenzen,NI_Sequenzen,30,,,,,,,,,,,,,
,Loop,flow.Loop,0_1_0,-999,completion,,42919,42934.18,42935.92,67265,24329.08,67274,2021-10-26T13:18:39.022Z,67314.82,1635254246,full,ni_sequenzen,NI_Sequenzen,,,,,,,,,,,,,,
,Training_I,flow.Sequence,0_1,,completion,,42909,42934.18,42935.92,67265,24329.08,67274,2021-10-26T13:18:39.022Z,67314.82,1635254246,full,ni_sequenzen,NI_Sequenzen,,,,,,,,,,,,,,
,Screen_1,canvas.Screen,0_2_0_0,cont,response,1,67314,67314.66,67314.82,83374,16059.179999999993,83380,2021-10-26T13:18:55.128Z,83505.42,1635254246,full,ni_sequenzen,NI_Sequenzen,,,,,,,,,,,,,,
,Screen_2,canvas.Screen,0_2_0_1,cont,response,1,83505,83505.3,83505.42,93343,9837.580000000002,93351,2021-10-26T13:19:05.100Z,93357.34,1635254246,full,ni_sequenzen,NI_Sequenzen,,,,,,,,,,,,,,
,Screen_3,canvas.Screen,0_2_0_2,cont,response,1,93358,93357.2,93357.34,106281,12923.660000000003,106295,2021-10-26T13:19:18.043Z,106366.62,1635254246,full,ni_sequenzen,NI_Sequenzen,,,,,,,,,,,,,,
,Screen_4,canvas.Screen,0_2_0_3,cont,response,1,106367,106366.5,106366.62,116328,9961.380000000005,116344,2021-10-26T13:19:28.092Z,116354.82,1635254246,full,ni_sequenzen,NI_Sequenzen,,,,,,,,,,,,,,
,Screen_5,canvas.Screen,0_2_0_4,cont,response,1,116355,116354.6,116354.82,123218,6863.179999999993,123227,2021-10-26T13:19:34.975Z,123297.72,1635254246,full,ni_sequenzen,NI_Sequenzen,,,,,,,,,,,,,,
,Screen_6,canvas.Screen,0_2_0_5,cont,response,1,123298,123297.58,123297.72,140421,17123.28,140431,2021-10-26T13:19:52.180Z,140857.94,1635254246,full,ni_sequenzen,NI_Sequenzen,,,,,,,,,,,,,,
,Sequence,flow.Sequence,0_2_0,,completion,1,67311,67314.66,67314.82,140421,73106.18,140432,2021-10-26T13:19:52.180Z,140857.94,1635254246,full,ni_sequenzen,NI_Sequenzen,,,,,,,,,,,,,,
,Screen_1,canvas.Screen,0_2_1_0,,skipped,2,140440,,,140440,,140440,2021-10-26T13:19:52.189Z,140857.94,1635254246,full,ni_sequenzen,NI_Sequenzen,,,,,,,,,,,,,,
,Screen_2,canvas.Screen,0_2_1_1,,skipped,2,140446,,,140440,,140446,2021-10-26T13:19:52.194Z,140857.94,1635254246,full,ni_sequenzen,NI_Sequenzen,,,,,,,,,,,,,,
,Screen_3,canvas.Screen,0_2_1_2,,skipped,2,140449,,,140440,,140449,2021-10-26T13:19:52.197Z,140857.94,1635254246,full,ni_sequenzen,NI_Sequenzen,,,,,,,,,,,,,,
,Screen_4,canvas.Screen,0_2_1_3,,skipped,2,140451,,,140440,,140451,2021-10-26T13:19:52.199Z,140857.94,1635254246,full,ni_sequenzen,NI_Sequenzen,,,,,,,,,,,,,,
,Screen_5,canvas.Screen,0_2_1_4,,skipped,2,140455,,,140440,,140455,2021-10-26T13:19:52.203Z,140857.94,1635254246,full,ni_sequenzen,NI_Sequenzen,,,,,,,,,,,,,,
,Screen_6,canvas.Screen,0_2_1_5,,skipped,2,140458,,,140440,,140458,2021-10-26T13:19:52.206Z,140857.94,1635254246,full,ni_sequenzen,NI_Sequenzen,,,,,,,,,,,,,,
,Sequence,flow.Sequence,0_2_1,,completion,2,140435,,,140440,,140458,2021-10-26T13:19:52.206Z,140857.94,1635254246,full,ni_sequenzen,NI_Sequenzen,,,,,,,,,,,,,,
,Screen_1,canvas.Screen,0_2_2_0,,skipped,3,140460,,,140460,,140460,2021-10-26T13:19:52.208Z,140857.94,1635254246,full,ni_sequenzen,NI_Sequenzen,,,,,,,,,,,,,,
,Screen_2,canvas.Screen,0_2_2_1,,skipped,3,140462,,,140460,,140462,2021-10-26T13:19:52.210Z,140857.94,1635254246,full,ni_sequenzen,NI_Sequenzen,,,,,,,,,,,,,,
,Screen_3,canvas.Screen,0_2_2_2,,skipped,3,140464,,,140460,,140465,2021-10-26T13:19:52.212Z,140857.94,1635254246,full,ni_sequenzen,NI_Sequenzen,,,,,,,,,,,,,,
,Screen_4,canvas.Screen,0_2_2_3,,skipped,3,140466,,,140460,,140467,2021-10-26T13:19:52.215Z,140857.94,1635254246,full,ni_sequenzen,NI_Sequenzen,,,,,,,,,,,,,,
,Screen_5,canvas.Screen,0_2_2_4,,skipped,3,140468,,,140460,,140468,2021-10-26T13:19:52.217Z,140857.94,1635254246,full,ni_sequenzen,NI_Sequenzen,,,,,,,,,,,,,,
,Screen_6,canvas.Screen,0_2_2_5,,skipped,3,140471,,,140460,,140471,2021-10-26T13:19:52.219Z,140857.94,1635254246,full,ni_sequenzen,NI_Sequenzen,,,,,,,,,,,,,,
,Sequence,flow.Sequence,0_2_2,,completion,3,140459,,,140460,,140471,2021-10-26T13:19:52.220Z,140857.94,1635254246,full,ni_sequenzen,NI_Sequenzen,,,,,,,,,,,,,,
,Screen_1,canvas.Screen,0_2_3_0,,skipped,4,140474,,,140474,,140474,2021-10-26T13:19:52.222Z,140857.94,1635254246,full,ni_sequenzen,NI_Sequenzen,,,,,,,,,,,,,,
,Screen_2,canvas.Screen,0_2_3_1,,skipped,4,140475,,,140474,,140475,2021-10-26T13:19:52.224Z,140857.94,1635254246,full,ni_sequenzen,NI_Sequenzen,,,,,,,,,,,,,,
,Screen_3,canvas.Screen,0_2_3_2,,skipped,4,140477,,,140474,,140477,2021-10-26T13:19:52.225Z,140857.94,1635254246,full,ni_sequenzen,NI_Sequenzen,,,,,,,,,,,,,,
,Screen_4,canvas.Screen,0_2_3_3,,skipped,4,140480,,,140474,,140480,2021-10-26T13:19:52.228Z,140857.94,1635254246,full,ni_sequenzen,NI_Sequenzen,,,,,,,,,,,,,,
,Screen_5,canvas.Screen,0_2_3_4,,skipped,4,140482,,,140474,,140482,2021-10-26T13:19:52.231Z,140857.94,1635254246,full,ni_sequenzen,NI_Sequenzen,,,,,,,,,,,,,,
,Screen_6,canvas.Screen,0_2_3_5,,skipped,4,140483,,,140474,,140483,2021-10-26T13:19:52.232Z,140857.94,1635254246,full,ni_sequenzen,NI_Sequenzen,,,,,,,,,,,,,,
,Sequence,flow.Sequence,0_2_3,,completion,4,140472,,,140474,,140483,2021-10-26T13:19:52.232Z,140857.94,1635254246,full,ni_sequenzen,NI_Sequenzen,,,,,,,,,,,,,,
,Screen_1,canvas.Screen,0_2_4_0,,skipped,5,140486,,,140486,,140486,2021-10-26T13:19:52.235Z,140857.94,1635254246,full,ni_sequenzen,NI_Sequenzen,,,,,,,,,,,,,,
,Screen_2,canvas.Screen,0_2_4_1,,skipped,5,140488,,,140486,,140488,2021-10-26T13:19:52.236Z,140857.94,1635254246,full,ni_sequenzen,NI_Sequenzen,,,,,,,,,,,,,,
,Screen_3,canvas.Screen,0_2_4_2,,skipped,5,140490,,,140486,,140490,2021-10-26T13:19:52.238Z,140857.94,1635254246,full,ni_sequenzen,NI_Sequenzen,,,,,,,,,,,,,,
,Screen_4,canvas.Screen,0_2_4_3,,skipped,5,140492,,,140486,,140493,2021-10-26T13:19:52.240Z,140857.94,1635254246,full,ni_sequenzen,NI_Sequenzen,,,,,,,,,,,,,,
,Screen_5,canvas.Screen,0_2_4_4,,skipped,5,140494,,,140486,,140494,2021-10-26T13:19:52.242Z,140857.94,1635254246,full,ni_sequenzen,NI_Sequenzen,,,,,,,,,,,,,,
,Screen_6,canvas.Screen,0_2_4_5,,skipped,5,140496,,,140486,,140496,2021-10-26T13:19:52.244Z,140857.94,1635254246,full,ni_sequenzen,NI_Sequenzen,,,,,,,,,,,,,,
,Sequence,flow.Sequence,0_2_4,,completion,5,140484,,,140486,,140496,2021-10-26T13:19:52.244Z,140857.94,1635254246,full,ni_sequenzen,NI_Sequenzen,,,,,,,,,,,,,,
,Screen_1,canvas.Screen,0_2_5_0,,skipped,6,140498,,,140498,,140498,2021-10-26T13:19:52.247Z,140857.94,1635254246,full,ni_sequenzen,NI_Sequenzen,,,,,,,,,,,,,,
,Screen_2,canvas.Screen,0_2_5_1,,skipped,6,140501,,,140498,,140501,2021-10-26T13:19:52.249Z,140857.94,1635254246,full,ni_sequenzen,NI_Sequenzen,,,,,,,,,,,,,,
,Screen_3,canvas.Screen,0_2_5_2,,skipped,6,140503,,,140498,,140503,2021-10-26T13:19:52.251Z,140857.94,1635254246,full,ni_sequenzen,NI_Sequenzen,,,,,,,,,,,,,,
,Screen_4,canvas.Screen,0_2_5_3,,skipped,6,140504,,,140498,,140504,2021-10-26T13:19:52.253Z,140857.94,1635254246,full,ni_sequenzen,NI_Sequenzen,,,,,,,,,,,,,,
,Screen_5,canvas.Screen,0_2_5_4,,skipped,6,140506,,,140498,,140506,2021-10-26T13:19:52.255Z,140857.94,1635254246,full,ni_sequenzen,NI_Sequenzen,,,,,,,,,,,,,,
,Screen_6,canvas.Screen,0_2_5_5,,skipped,6,140508,,,140498,,140509,2021-10-26T13:19:52.257Z,140857.94,1635254246,full,ni_sequenzen,NI_Sequenzen,,,,,,,,,,,,,,
,Sequence,flow.Sequence,0_2_5,,completion,6,140497,,,140498,,140509,2021-10-26T13:19:52.258Z,140857.94,1635254246,full,ni_sequenzen,NI_Sequenzen,,,,,,,,,,,,,,
,Screen_1,canvas.Screen,0_2_6_0,,skipped,7,140512,,,140512,,140512,2021-10-26T13:19:52.260Z,140857.94,1635254246,full,ni_sequenzen,NI_Sequenzen,,,,,,,,,,,,,,
,Screen_2,canvas.Screen,0_2_6_1,,skipped,7,140513,,,140512,,140513,2021-10-26T13:19:52.262Z,140857.94,1635254246,full,ni_sequenzen,NI_Sequenzen,,,,,,,,,,,,,,
,Screen_3,canvas.Screen,0_2_6_2,,skipped,7,140515,,,140512,,140515,2021-10-26T13:19:52.263Z,140857.94,1635254246,full,ni_sequenzen,NI_Sequenzen,,,,,,,,,,,,,,
,Screen_4,canvas.Screen,0_2_6_3,,skipped,7,140517,,,140512,,140517,2021-10-26T13:19:52.266Z,140857.94,1635254246,full,ni_sequenzen,NI_Sequenzen,,,,,,,,,,,,,,
,Screen_5,canvas.Screen,0_2_6_4,,skipped,7,140520,,,140512,,140520,2021-10-26T13:19:52.268Z,140857.94,1635254246,full,ni_sequenzen,NI_Sequenzen,,,,,,,,,,,,,,
,Screen_6,canvas.Screen,0_2_6_5,,skipped,7,140522,,,140512,,140522,2021-10-26T13:19:52.270Z,140857.94,1635254246,full,ni_sequenzen,NI_Sequenzen,,,,,,,,,,,,,,
,Sequence,flow.Sequence,0_2_6,,completion,7,140509,,,140512,,140522,2021-10-26T13:19:52.270Z,140857.94,1635254246,full,ni_sequenzen,NI_Sequenzen,,,,,,,,,,,,,,
,Screen_1,canvas.Screen,0_2_7_0,,skipped,8,140524,,,140524,,140524,2021-10-26T13:19:52.273Z,140857.94,1635254246,full,ni_sequenzen,NI_Sequenzen,,,,,,,,,,,,,,
,Screen_2,canvas.Screen,0_2_7_1,,skipped,8,140527,,,140524,,140527,2021-10-26T13:19:52.275Z,140857.94,1635254246,full,ni_sequenzen,NI_Sequenzen,,,,,,,,,,,,,,
,Screen_3,canvas.Screen,0_2_7_2,,skipped,8,140528,,,140524,,140528,2021-10-26T13:19:52.276Z,140857.94,1635254246,full,ni_sequenzen,NI_Sequenzen,,,,,,,,,,,,,,
,Screen_4,canvas.Screen,0_2_7_3,,skipped,8,140530,,,140524,,140530,2021-10-26T13:19:52.278Z,140857.94,1635254246,full,ni_sequenzen,NI_Sequenzen,,,,,,,,,,,,,,
,Screen_5,canvas.Screen,0_2_7_4,,skipped,8,140532,,,140524,,140532,2021-10-26T13:19:52.280Z,140857.94,1635254246,full,ni_sequenzen,NI_Sequenzen,,,,,,,,,,,,,,
,Screen_6,canvas.Screen,0_2_7_5,,skipped,8,140534,,,140524,,140534,2021-10-26T13:19:52.282Z,140857.94,1635254246,full,ni_sequenzen,NI_Sequenzen,,,,,,,,,,,,,,
,Sequence,flow.Sequence,0_2_7,,completion,8,140523,,,140524,,140534,2021-10-26T13:19:52.282Z,140857.94,1635254246,full,ni_sequenzen,NI_Sequenzen,,,,,,,,,,,,,,
,Screen_1,canvas.Screen,0_2_8_0,,skipped,9,140537,,,140537,,140537,2021-10-26T13:19:52.285Z,140857.94,1635254246,full,ni_sequenzen,NI_Sequenzen,,,,,,,,,,,,,,
,Screen_2,canvas.Screen,0_2_8_1,,skipped,9,140538,,,140537,,140538,2021-10-26T13:19:52.287Z,140857.94,1635254246,full,ni_sequenzen,NI_Sequenzen,,,,,,,,,,,,,,
,Screen_3,canvas.Screen,0_2_8_2,,skipped,9,140540,,,140537,,140540,2021-10-26T13:19:52.289Z,140857.94,1635254246,full,ni_sequenzen,NI_Sequenzen,,,,,,,,,,,,,,
,Screen_4,canvas.Screen,0_2_8_3,,skipped,9,140542,,,140537,,140542,2021-10-26T13:19:52.290Z,140857.94,1635254246,full,ni_sequenzen,NI_Sequenzen,,,,,,,,,,,,,,
,Screen_5,canvas.Screen,0_2_8_4,,skipped,9,140543,,,140537,,140543,2021-10-26T13:19:52.292Z,140857.94,1635254246,full,ni_sequenzen,NI_Sequenzen,,,,,,,,,,,,,,
,Screen_6,canvas.Screen,0_2_8_5,,skipped,9,140546,,,140537,,140546,2021-10-26T13:19:52.294Z,140857.94,1635254246,full,ni_sequenzen,NI_Sequenzen,,,,,,,,,,,,,,
,Sequence,flow.Sequence,0_2_8,,completion,9,140535,,,140537,,140547,2021-10-26T13:19:52.294Z,140857.94,1635254246,full,ni_sequenzen,NI_Sequenzen,,,,,,,,,,,,,,
,Screen_1,canvas.Screen,0_2_9_0,,skipped,10,140550,,,140550,,140550,2021-10-26T13:19:52.297Z,140857.94,1635254246,full,ni_sequenzen,NI_Sequenzen,,,,,,,,,,,,,,
,Screen_2,canvas.Screen,0_2_9_1,,skipped,10,140551,,,140550,,140551,2021-10-26T13:19:52.300Z,140857.94,1635254246,full,ni_sequenzen,NI_Sequenzen,,,,,,,,,,,,,,
,Screen_3,canvas.Screen,0_2_9_2,,skipped,10,140553,,,140550,,140553,2021-10-26T13:19:52.301Z,140857.94,1635254246,full,ni_sequenzen,NI_Sequenzen,,,,,,,,,,,,,,
,Screen_4,canvas.Screen,0_2_9_3,,skipped,10,140555,,,140550,,140555,2021-10-26T13:19:52.303Z,140857.94,1635254246,full,ni_sequenzen,NI_Sequenzen,,,,,,,,,,,,,,
,Screen_5,canvas.Screen,0_2_9_4,,skipped,10,140557,,,140550,,140557,2021-10-26T13:19:52.305Z,140857.94,1635254246,full,ni_sequenzen,NI_Sequenzen,,,,,,,,,,,,,,
,Screen_6,canvas.Screen,0_2_9_5,,skipped,10,140559,,,140550,,140559,2021-10-26T13:19:52.307Z,140857.94,1635254246,full,ni_sequenzen,NI_Sequenzen,,,,,,,,,,,,,,
,Sequence,flow.Sequence,0_2_9,,completion,10,140548,,,140550,,140559,2021-10-26T13:19:52.307Z,140857.94,1635254246,full,ni_sequenzen,NI_Sequenzen,,,,,,,,,,,,,,
,Screen_1,canvas.Screen,0_2_10_0,,skipped,11,140560,,,140560,,140560,2021-10-26T13:19:52.309Z,140857.94,1635254246,full,ni_sequenzen,NI_Sequenzen,,,,,,,,,,,,,,
,Screen_2,canvas.Screen,0_2_10_1,,skipped,11,140562,,,140560,,140562,2021-10-26T13:19:52.311Z,140857.94,1635254246,full,ni_sequenzen,NI_Sequenzen,,,,,,,,,,,,,,
,Screen_3,canvas.Screen,0_2_10_2,,skipped,11,140564,,,140560,,140564,2021-10-26T13:19:52.313Z,140857.94,1635254246,full,ni_sequenzen,NI_Sequenzen,,,,,,,,,,,,,,
,Screen_4,canvas.Screen,0_2_10_3,,skipped,11,140567,,,140560,,140567,2021-10-26T13:19:52.315Z,140857.94,1635254246,full,ni_sequenzen,NI_Sequenzen,,,,,,,,,,,,,,
,Screen_5,canvas.Screen,0_2_10_4,,skipped,11,140568,,,140560,,140568,2021-10-26T13:19:52.317Z,140857.94,1635254246,full,ni_sequenzen,NI_Sequenzen,,,,,,,,,,,,,,
,Screen_6,canvas.Screen,0_2_10_5,,skipped,11,140569,,,140560,,140569,2021-10-26T13:19:52.318Z,140857.94,1635254246,full,ni_sequenzen,NI_Sequenzen,,,,,,,,,,,,,,
,Sequence,flow.Sequence,0_2_10,,completion,11,140559,,,140560,,140570,2021-10-26T13:19:52.319Z,140857.94,1635254246,full,ni_sequenzen,NI_Sequenzen,,,,,,,,,,,,,,
,Screen_1,canvas.Screen,0_2_11_0,,skipped,12,140572,,,140572,,140572,2021-10-26T13:19:52.321Z,140857.94,1635254246,full,ni_sequenzen,NI_Sequenzen,,,,,,,,,,,,,,
,Screen_2,canvas.Screen,0_2_11_1,,skipped,12,140573,,,140572,,140573,2021-10-26T13:19:52.322Z,140857.94,1635254246,full,ni_sequenzen,NI_Sequenzen,,,,,,,,,,,,,,
,Screen_3,canvas.Screen,0_2_11_2,,skipped,12,140576,,,140572,,140576,2021-10-26T13:19:52.324Z,140857.94,1635254246,full,ni_sequenzen,NI_Sequenzen,,,,,,,,,,,,,,
,Screen_4,canvas.Screen,0_2_11_3,,skipped,12,140578,,,140572,,140578,2021-10-26T13:19:52.326Z,140857.94,1635254246,full,ni_sequenzen,NI_Sequenzen,,,,,,,,,,,,,,
,Screen_5,canvas.Screen,0_2_11_4,,skipped,12,140579,,,140572,,140579,2021-10-26T13:19:52.328Z,140857.94,1635254246,full,ni_sequenzen,NI_Sequenzen,,,,,,,,,,,,,,
,Screen_6,canvas.Screen,0_2_11_5,,skipped,12,140581,,,140572,,140581,2021-10-26T13:19:52.330Z,140857.94,1635254246,full,ni_sequenzen,NI_Sequenzen,,,,,,,,,,,,,,
,Sequence,flow.Sequence,0_2_11,,completion,12,140570,,,140572,,140582,2021-10-26T13:19:52.330Z,140857.94,1635254246,full,ni_sequenzen,NI_Sequenzen,,,,,,,,,,,,,,
,Screen_1,canvas.Screen,0_2_12_0,,skipped,13,140584,,,140584,,140584,2021-10-26T13:19:52.333Z,140857.94,1635254246,full,ni_sequenzen,NI_Sequenzen,,,,,,,,,,,,,,
,Screen_2,canvas.Screen,0_2_12_1,,skipped,13,140586,,,140584,,140586,2021-10-26T13:19:52.335Z,140857.94,1635254246,full,ni_sequenzen,NI_Sequenzen,,,,,,,,,,,,,,
,Screen_3,canvas.Screen,0_2_12_2,,skipped,13,140587,,,140584,,140588,2021-10-26T13:19:52.336Z,140857.94,1635254246,full,ni_sequenzen,NI_Sequenzen,,,,,,,,,,,,,,
,Screen_4,canvas.Screen,0_2_12_3,,skipped,13,140590,,,140584,,140590,2021-10-26T13:19:52.338Z,140857.94,1635254246,full,ni_sequenzen,NI_Sequenzen,,,,,,,,,,,,,,
,Screen_5,canvas.Screen,0_2_12_4,,skipped,13,140591,,,140584,,140591,2021-10-26T13:19:52.340Z,140857.94,1635254246,full,ni_sequenzen,NI_Sequenzen,,,,,,,,,,,,,,
,Screen_6,canvas.Screen,0_2_12_5,,skipped,13,140593,,,140584,,140593,2021-10-26T13:19:52.341Z,140857.94,1635254246,full,ni_sequenzen,NI_Sequenzen,,,,,,,,,,,,,,
,Sequence,flow.Sequence,0_2_12,,completion,13,140583,,,140584,,140593,2021-10-26T13:19:52.341Z,140857.94,1635254246,full,ni_sequenzen,NI_Sequenzen,,,,,,,,,,,,,,
,Screen_1,canvas.Screen,0_2_13_0,,skipped,14,140595,,,140595,,140595,2021-10-26T13:19:52.344Z,140857.94,1635254246,full,ni_sequenzen,NI_Sequenzen,,,,,,,,,,,,,,
,Screen_2,canvas.Screen,0_2_13_1,,skipped,14,140597,,,140595,,140597,2021-10-26T13:19:52.346Z,140857.94,1635254246,full,ni_sequenzen,NI_Sequenzen,,,,,,,,,,,,,,
,Screen_3,canvas.Screen,0_2_13_2,,skipped,14,140598,,,140595,,140599,2021-10-26T13:19:52.348Z,140857.94,1635254246,full,ni_sequenzen,NI_Sequenzen,,,,,,,,,,,,,,
,Screen_4,canvas.Screen,0_2_13_3,,skipped,14,140600,,,140595,,140600,2021-10-26T13:19:52.349Z,140857.94,1635254246,full,ni_sequenzen,NI_Sequenzen,,,,,,,,,,,,,,
,Screen_5,canvas.Screen,0_2_13_4,,skipped,14,140602,,,140595,,140602,2021-10-26T13:19:52.351Z,140857.94,1635254246,full,ni_sequenzen,NI_Sequenzen,,,,,,,,,,,,,,
,Screen_6,canvas.Screen,0_2_13_5,,skipped,14,140604,,,140595,,140604,2021-10-26T13:19:52.353Z,140857.94,1635254246,full,ni_sequenzen,NI_Sequenzen,,,,,,,,,,,,,,
,Sequence,flow.Sequence,0_2_13,,completion,14,140594,,,140595,,140604,2021-10-26T13:19:52.353Z,140857.94,1635254246,full,ni_sequenzen,NI_Sequenzen,,,,,,,,,,,,,,
,Screen_1,canvas.Screen,0_2_14_0,,skipped,15,140606,,,140606,,140606,2021-10-26T13:19:52.354Z,140857.94,1635254246,full,ni_sequenzen,NI_Sequenzen,,,,,,,,,,,,,,
,Screen_2,canvas.Screen,0_2_14_1,,skipped,15,140608,,,140606,,140608,2021-10-26T13:19:52.356Z,140857.94,1635254246,full,ni_sequenzen,NI_Sequenzen,,,,,,,,,,,,,,
,Screen_3,canvas.Screen,0_2_14_2,,skipped,15,140610,,,140606,,140610,2021-10-26T13:19:52.358Z,140857.94,1635254246,full,ni_sequenzen,NI_Sequenzen,,,,,,,,,,,,,,
,Screen_4,canvas.Screen,0_2_14_3,,skipped,15,140612,,,140606,,140612,2021-10-26T13:19:52.360Z,140857.94,1635254246,full,ni_sequenzen,NI_Sequenzen,,,,,,,,,,,,,,
,Screen_5,canvas.Screen,0_2_14_4,,skipped,15,140613,,,140606,,140613,2021-10-26T13:19:52.361Z,140857.94,1635254246,full,ni_sequenzen,NI_Sequenzen,,,,,,,,,,,,,,
,Screen_6,canvas.Screen,0_2_14_5,,skipped,15,140615,,,140606,,140615,2021-10-26T13:19:52.363Z,140857.94,1635254246,full,ni_sequenzen,NI_Sequenzen,,,,,,,,,,,,,,
,Sequence,flow.Sequence,0_2_14,,completion,15,140604,,,140606,,140615,2021-10-26T13:19:52.363Z,140857.94,1635254246,full,ni_sequenzen,NI_Sequenzen,,,,,,,,,,,,,,
,Screen_1,canvas.Screen,0_2_15_0,,skipped,16,140618,,,140618,,140618,2021-10-26T13:19:52.366Z,140857.94,1635254246,full,ni_sequenzen,NI_Sequenzen,,,,,,,,,,,,,,
,Screen_2,canvas.Screen,0_2_15_1,,skipped,16,140620,,,140618,,140620,2021-10-26T13:19:52.368Z,140857.94,1635254246,full,ni_sequenzen,NI_Sequenzen,,,,,,,,,,,,,,
,Screen_3,canvas.Screen,0_2_15_2,,skipped,16,140621,,,140618,,140621,2021-10-26T13:19:52.370Z,140857.94,1635254246,full,ni_sequenzen,NI_Sequenzen,,,,,,,,,,,,,,
,Screen_4,canvas.Screen,0_2_15_3,,skipped,16,140623,,,140618,,140623,2021-10-26T13:19:52.372Z,140857.94,1635254246,full,ni_sequenzen,NI_Sequenzen,,,,,,,,,,,,,,
,Screen_5,canvas.Screen,0_2_15_4,,skipped,16,140624,,,140618,,140624,2021-10-26T13:19:52.373Z,140857.94,1635254246,full,ni_sequenzen,NI_Sequenzen,,,,,,,,,,,,,,
,Screen_6,canvas.Screen,0_2_15_5,,skipped,16,140626,,,140618,,140626,2021-10-26T13:19:52.375Z,140857.94,1635254246,full,ni_sequenzen,NI_Sequenzen,,,,,,,,,,,,,,
,Sequence,flow.Sequence,0_2_15,,completion,16,140616,,,140618,,140626,2021-10-26T13:19:52.375Z,140857.94,1635254246,full,ni_sequenzen,NI_Sequenzen,,,,,,,,,,,,,,
,Screen_1,canvas.Screen,0_2_16_0,,skipped,17,140628,,,140628,,140628,2021-10-26T13:19:52.377Z,140857.94,1635254246,full,ni_sequenzen,NI_Sequenzen,,,,,,,,,,,,,,
,Screen_2,canvas.Screen,0_2_16_1,,skipped,17,140630,,,140628,,140631,2021-10-26T13:19:52.379Z,140857.94,1635254246,full,ni_sequenzen,NI_Sequenzen,,,,,,,,,,,,,,
,Screen_3,canvas.Screen,0_2_16_2,,skipped,17,140632,,,140628,,140632,2021-10-26T13:19:52.381Z,140857.94,1635254246,full,ni_sequenzen,NI_Sequenzen,,,,,,,,,,,,,,
,Screen_4,canvas.Screen,0_2_16_3,,skipped,17,140633,,,140628,,140633,2021-10-26T13:19:52.382Z,140857.94,1635254246,full,ni_sequenzen,NI_Sequenzen,,,,,,,,,,,,,,
,Screen_5,canvas.Screen,0_2_16_4,,skipped,17,140635,,,140628,,140635,2021-10-26T13:19:52.384Z,140857.94,1635254246,full,ni_sequenzen,NI_Sequenzen,,,,,,,,,,,,,,
,Screen_6,canvas.Screen,0_2_16_5,,skipped,17,140638,,,140628,,140638,2021-10-26T13:19:52.386Z,140857.94,1635254246,full,ni_sequenzen,NI_Sequenzen,,,,,,,,,,,,,,
,Sequence,flow.Sequence,0_2_16,,completion,17,140627,,,140628,,140638,2021-10-26T13:19:52.386Z,140857.94,1635254246,full,ni_sequenzen,NI_Sequenzen,,,,,,,,,,,,,,
,Screen_1,canvas.Screen,0_2_17_0,,skipped,18,140639,,,140639,,140639,2021-10-26T13:19:52.388Z,140857.94,1635254246,full,ni_sequenzen,NI_Sequenzen,,,,,,,,,,,,,,
,Screen_2,canvas.Screen,0_2_17_1,,skipped,18,140641,,,140639,,140641,2021-10-26T13:19:52.390Z,140857.94,1635254246,full,ni_sequenzen,NI_Sequenzen,,,,,,,,,,,,,,
,Screen_3,canvas.Screen,0_2_17_2,,skipped,18,140643,,,140639,,140643,2021-10-26T13:19:52.391Z,140857.94,1635254246,full,ni_sequenzen,NI_Sequenzen,,,,,,,,,,,,,,
,Screen_4,canvas.Screen,0_2_17_3,,skipped,18,140645,,,140639,,140645,2021-10-26T13:19:52.393Z,140857.94,1635254246,full,ni_sequenzen,NI_Sequenzen,,,,,,,,,,,,,,
,Screen_5,canvas.Screen,0_2_17_4,,skipped,18,140646,,,140639,,140647,2021-10-26T13:19:52.395Z,140857.94,1635254246,full,ni_sequenzen,NI_Sequenzen,,,,,,,,,,,,,,
,Screen_6,canvas.Screen,0_2_17_5,,skipped,18,140648,,,140639,,140648,2021-10-26T13:19:52.397Z,140857.94,1635254246,full,ni_sequenzen,NI_Sequenzen,,,,,,,,,,,,,,
,Sequence,flow.Sequence,0_2_17,,completion,18,140638,,,140639,,140648,2021-10-26T13:19:52.397Z,140857.94,1635254246,full,ni_sequenzen,NI_Sequenzen,,,,,,,,,,,,,,
,Screen_1,canvas.Screen,0_2_18_0,,skipped,19,140651,,,140651,,140651,2021-10-26T13:19:52.399Z,140857.94,1635254246,full,ni_sequenzen,NI_Sequenzen,,,,,,,,,,,,,,
,Screen_2,canvas.Screen,0_2_18_1,,skipped,19,140652,,,140651,,140652,2021-10-26T13:19:52.401Z,140857.94,1635254246,full,ni_sequenzen,NI_Sequenzen,,,,,,,,,,,,,,
,Screen_3,canvas.Screen,0_2_18_2,,skipped,19,140654,,,140651,,140654,2021-10-26T13:19:52.403Z,140857.94,1635254246,full,ni_sequenzen,NI_Sequenzen,,,,,,,,,,,,,,
,Screen_4,canvas.Screen,0_2_18_3,,skipped,19,140656,,,140651,,140656,2021-10-26T13:19:52.405Z,140857.94,1635254246,full,ni_sequenzen,NI_Sequenzen,,,,,,,,,,,,,,
,Screen_5,canvas.Screen,0_2_18_4,,skipped,19,140658,,,140651,,140659,2021-10-26T13:19:52.407Z,140857.94,1635254246,full,ni_sequenzen,NI_Sequenzen,,,,,,,,,,,,,,
,Screen_6,canvas.Screen,0_2_18_5,,skipped,19,140660,,,140651,,140660,2021-10-26T13:19:52.409Z,140857.94,1635254246,full,ni_sequenzen,NI_Sequenzen,,,,,,,,,,,,,,
,Sequence,flow.Sequence,0_2_18,,completion,19,140649,,,140651,,140661,2021-10-26T13:19:52.409Z,140857.94,1635254246,full,ni_sequenzen,NI_Sequenzen,,,,,,,,,,,,,,
,Screen_1,canvas.Screen,0_2_19_0,,skipped,20,140662,,,140662,,140662,2021-10-26T13:19:52.411Z,140857.94,1635254246,full,ni_sequenzen,NI_Sequenzen,,,,,,,,,,,,,,
,Screen_2,canvas.Screen,0_2_19_1,,skipped,20,140664,,,140662,,140664,2021-10-26T13:19:52.413Z,140857.94,1635254246,full,ni_sequenzen,NI_Sequenzen,,,,,,,,,,,,,,
,Screen_3,canvas.Screen,0_2_19_2,,skipped,20,140667,,,140662,,140667,2021-10-26T13:19:52.415Z,140857.94,1635254246,full,ni_sequenzen,NI_Sequenzen,,,,,,,,,,,,,,
,Screen_4,canvas.Screen,0_2_19_3,,skipped,20,140669,,,140662,,140669,2021-10-26T13:19:52.417Z,140857.94,1635254246,full,ni_sequenzen,NI_Sequenzen,,,,,,,,,,,,,,
,Screen_5,canvas.Screen,0_2_19_4,,skipped,20,140670,,,140662,,140670,2021-10-26T13:19:52.418Z,140857.94,1635254246,full,ni_sequenzen,NI_Sequenzen,,,,,,,,,,,,,,
,Screen_6,canvas.Screen,0_2_19_5,,skipped,20,140673,,,140662,,140673,2021-10-26T13:19:52.421Z,140857.94,1635254246,full,ni_sequenzen,NI_Sequenzen,,,,,,,,,,,,,,
,Sequence,flow.Sequence,0_2_19,,completion,20,140661,,,140662,,140673,2021-10-26T13:19:52.421Z,140857.94,1635254246,full,ni_sequenzen,NI_Sequenzen,,,,,,,,,,,,,,
,Screen_1,canvas.Screen,0_2_20_0,,skipped,21,140676,,,140676,,140676,2021-10-26T13:19:52.424Z,140857.94,1635254246,full,ni_sequenzen,NI_Sequenzen,,,,,,,,,,,,,,
,Screen_2,canvas.Screen,0_2_20_1,,skipped,21,140678,,,140676,,140678,2021-10-26T13:19:52.426Z,140857.94,1635254246,full,ni_sequenzen,NI_Sequenzen,,,,,,,,,,,,,,
,Screen_3,canvas.Screen,0_2_20_2,,skipped,21,140679,,,140676,,140680,2021-10-26T13:19:52.428Z,140857.94,1635254246,full,ni_sequenzen,NI_Sequenzen,,,,,,,,,,,,,,
,Screen_4,canvas.Screen,0_2_20_3,,skipped,21,140681,,,140676,,140682,2021-10-26T13:19:52.430Z,140857.94,1635254246,full,ni_sequenzen,NI_Sequenzen,,,,,,,,,,,,,,
,Screen_5,canvas.Screen,0_2_20_4,,skipped,21,140683,,,140676,,140683,2021-10-26T13:19:52.431Z,140857.94,1635254246,full,ni_sequenzen,NI_Sequenzen,,,,,,,,,,,,,,
,Screen_6,canvas.Screen,0_2_20_5,,skipped,21,140685,,,140676,,140685,2021-10-26T13:19:52.433Z,140857.94,1635254246,full,ni_sequenzen,NI_Sequenzen,,,,,,,,,,,,,,
,Sequence,flow.Sequence,0_2_20,,completion,21,140673,,,140676,,140685,2021-10-26T13:19:52.434Z,140857.94,1635254246,full,ni_sequenzen,NI_Sequenzen,,,,,,,,,,,,,,
,Screen_1,canvas.Screen,0_2_21_0,,skipped,22,140687,,,140687,,140687,2021-10-26T13:19:52.436Z,140857.94,1635254246,full,ni_sequenzen,NI_Sequenzen,,,,,,,,,,,,,,
,Screen_2,canvas.Screen,0_2_21_1,,skipped,22,140689,,,140687,,140689,2021-10-26T13:19:52.438Z,140857.94,1635254246,full,ni_sequenzen,NI_Sequenzen,,,,,,,,,,,,,,
,Screen_3,canvas.Screen,0_2_21_2,,skipped,22,140691,,,140687,,140691,2021-10-26T13:19:52.439Z,140857.94,1635254246,full,ni_sequenzen,NI_Sequenzen,,,,,,,,,,,,,,
,Screen_4,canvas.Screen,0_2_21_3,,skipped,22,140692,,,140687,,140693,2021-10-26T13:19:52.441Z,140857.94,1635254246,full,ni_sequenzen,NI_Sequenzen,,,,,,,,,,,,,,
,Screen_5,canvas.Screen,0_2_21_4,,skipped,22,140695,,,140687,,140695,2021-10-26T13:19:52.443Z,140857.94,1635254246,full,ni_sequenzen,NI_Sequenzen,,,,,,,,,,,,,,
,Screen_6,canvas.Screen,0_2_21_5,,skipped,22,140696,,,140687,,140696,2021-10-26T13:19:52.445Z,140857.94,1635254246,full,ni_sequenzen,NI_Sequenzen,,,,,,,,,,,,,,
,Sequence,flow.Sequence,0_2_21,,completion,22,140686,,,140687,,140697,2021-10-26T13:19:52.445Z,140857.94,1635254246,full,ni_sequenzen,NI_Sequenzen,,,,,,,,,,,,,,
,Screen_1,canvas.Screen,0_2_22_0,,skipped,23,140698,,,140698,,140698,2021-10-26T13:19:52.447Z,140857.94,1635254246,full,ni_sequenzen,NI_Sequenzen,,,,,,,,,,,,,,
,Screen_2,canvas.Screen,0_2_22_1,,skipped,23,140700,,,140698,,140700,2021-10-26T13:19:52.449Z,140857.94,1635254246,full,ni_sequenzen,NI_Sequenzen,,,,,,,,,,,,,,
,Screen_3,canvas.Screen,0_2_22_2,,skipped,23,140702,,,140698,,140702,2021-10-26T13:19:52.450Z,140857.94,1635254246,full,ni_sequenzen,NI_Sequenzen,,,,,,,,,,,,,,
,Screen_4,canvas.Screen,0_2_22_3,,skipped,23,140704,,,140698,,140704,2021-10-26T13:19:52.453Z,140857.94,1635254246,full,ni_sequenzen,NI_Sequenzen,,,,,,,,,,,,,,
,Screen_5,canvas.Screen,0_2_22_4,,skipped,23,140706,,,140698,,140706,2021-10-26T13:19:52.455Z,140857.94,1635254246,full,ni_sequenzen,NI_Sequenzen,,,,,,,,,,,,,,
,Screen_6,canvas.Screen,0_2_22_5,,skipped,23,140708,,,140698,,140708,2021-10-26T13:19:52.456Z,140857.94,1635254246,full,ni_sequenzen,NI_Sequenzen,,,,,,,,,,,,,,
,Sequence,flow.Sequence,0_2_22,,completion,23,140697,,,140698,,140708,2021-10-26T13:19:52.456Z,140857.94,1635254246,full,ni_sequenzen,NI_Sequenzen,,,,,,,,,,,,,,
,Screen_1,canvas.Screen,0_2_23_0,,skipped,24,140711,,,140711,,140711,2021-10-26T13:19:52.459Z,140857.94,1635254246,full,ni_sequenzen,NI_Sequenzen,,,,,,,,,,,,,,
,Screen_2,canvas.Screen,0_2_23_1,,skipped,24,140712,,,140711,,140712,2021-10-26T13:19:52.461Z,140857.94,1635254246,full,ni_sequenzen,NI_Sequenzen,,,,,,,,,,,,,,
,Screen_3,canvas.Screen,0_2_23_2,,skipped,24,140714,,,140711,,140714,2021-10-26T13:19:52.463Z,140857.94,1635254246,full,ni_sequenzen,NI_Sequenzen,,,,,,,,,,,,,,
,Screen_4,canvas.Screen,0_2_23_3,,skipped,24,140716,,,140711,,140716,2021-10-26T13:19:52.465Z,140857.94,1635254246,full,ni_sequenzen,NI_Sequenzen,,,,,,,,,,,,,,
,Screen_5,canvas.Screen,0_2_23_4,,skipped,24,140718,,,140711,,140718,2021-10-26T13:19:52.467Z,140857.94,1635254246,full,ni_sequenzen,NI_Sequenzen,,,,,,,,,,,,,,
,Screen_6,canvas.Screen,0_2_23_5,,skipped,24,140721,,,140711,,140721,2021-10-26T13:19:52.469Z,140857.94,1635254246,full,ni_sequenzen,NI_Sequenzen,,,,,,,,,,,,,,
,Sequence,flow.Sequence,0_2_23,,completion,24,140709,,,140711,,140721,2021-10-26T13:19:52.469Z,140857.94,1635254246,full,ni_sequenzen,NI_Sequenzen,,,,,,,,,,,,,,
,Screen_1,canvas.Screen,0_2_24_0,,skipped,25,140724,,,140724,,140724,2021-10-26T13:19:52.473Z,140857.94,1635254246,full,ni_sequenzen,NI_Sequenzen,,,,,,,,,,,,,,
,Screen_2,canvas.Screen,0_2_24_1,,skipped,25,140726,,,140724,,140726,2021-10-26T13:19:52.474Z,140857.94,1635254246,full,ni_sequenzen,NI_Sequenzen,,,,,,,,,,,,,,
,Screen_3,canvas.Screen,0_2_24_2,,skipped,25,140727,,,140724,,140727,2021-10-26T13:19:52.476Z,140857.94,1635254246,full,ni_sequenzen,NI_Sequenzen,,,,,,,,,,,,,,
,Screen_4,canvas.Screen,0_2_24_3,,skipped,25,140729,,,140724,,140729,2021-10-26T13:19:52.478Z,140857.94,1635254246,full,ni_sequenzen,NI_Sequenzen,,,,,,,,,,,,,,
,Screen_5,canvas.Screen,0_2_24_4,,skipped,25,140731,,,140724,,140731,2021-10-26T13:19:52.480Z,140857.94,1635254246,full,ni_sequenzen,NI_Sequenzen,,,,,,,,,,,,,,
,Screen_6,canvas.Screen,0_2_24_5,,skipped,25,140732,,,140724,,140732,2021-10-26T13:19:52.481Z,140857.94,1635254246,full,ni_sequenzen,NI_Sequenzen,,,,,,,,,,,,,,
,Sequence,flow.Sequence,0_2_24,,completion,25,140721,,,140724,,140733,2021-10-26T13:19:52.481Z,140857.94,1635254246,full,ni_sequenzen,NI_Sequenzen,,,,,,,,,,,,,,
,Screen_1,canvas.Screen,0_2_25_0,,skipped,26,140735,,,140735,,140735,2021-10-26T13:19:52.483Z,140857.94,1635254246,full,ni_sequenzen,NI_Sequenzen,,,,,,,,,,,,,,
,Screen_2,canvas.Screen,0_2_25_1,,skipped,26,140737,,,140735,,140737,2021-10-26T13:19:52.485Z,140857.94,1635254246,full,ni_sequenzen,NI_Sequenzen,,,,,,,,,,,,,,
,Screen_3,canvas.Screen,0_2_25_2,,skipped,26,140738,,,140735,,140738,2021-10-26T13:19:52.487Z,140857.94,1635254246,full,ni_sequenzen,NI_Sequenzen,,,,,,,,,,,,,,
,Screen_4,canvas.Screen,0_2_25_3,,skipped,26,140740,,,140735,,140741,2021-10-26T13:19:52.489Z,140857.94,1635254246,full,ni_sequenzen,NI_Sequenzen,,,,,,,,,,,,,,
,Screen_5,canvas.Screen,0_2_25_4,,skipped,26,140742,,,140735,,140742,2021-10-26T13:19:52.491Z,140857.94,1635254246,full,ni_sequenzen,NI_Sequenzen,,,,,,,,,,,,,,
,Screen_6,canvas.Screen,0_2_25_5,,skipped,26,140744,,,140735,,140744,2021-10-26T13:19:52.492Z,140857.94,1635254246,full,ni_sequenzen,NI_Sequenzen,,,,,,,,,,,,,,
,Sequence,flow.Sequence,0_2_25,,completion,26,140733,,,140735,,140744,2021-10-26T13:19:52.492Z,140857.94,1635254246,full,ni_sequenzen,NI_Sequenzen,,,,,,,,,,,,,,
,Screen_1,canvas.Screen,0_2_26_0,,skipped,27,140746,,,140746,,140746,2021-10-26T13:19:52.494Z,140857.94,1635254246,full,ni_sequenzen,NI_Sequenzen,,,,,,,,,,,,,,
,Screen_2,canvas.Screen,0_2_26_1,,skipped,27,140748,,,140746,,140748,2021-10-26T13:19:52.496Z,140857.94,1635254246,full,ni_sequenzen,NI_Sequenzen,,,,,,,,,,,,,,
,Screen_3,canvas.Screen,0_2_26_2,,skipped,27,140749,,,140746,,140750,2021-10-26T13:19:52.498Z,140857.94,1635254246,full,ni_sequenzen,NI_Sequenzen,,,,,,,,,,,,,,
,Screen_4,canvas.Screen,0_2_26_3,,skipped,27,140751,,,140746,,140751,2021-10-26T13:19:52.500Z,140857.94,1635254246,full,ni_sequenzen,NI_Sequenzen,,,,,,,,,,,,,,
,Screen_5,canvas.Screen,0_2_26_4,,skipped,27,140753,,,140746,,140753,2021-10-26T13:19:52.501Z,140857.94,1635254246,full,ni_sequenzen,NI_Sequenzen,,,,,,,,,,,,,,
,Screen_6,canvas.Screen,0_2_26_5,,skipped,27,140754,,,140746,,140755,2021-10-26T13:19:52.503Z,140857.94,1635254246,full,ni_sequenzen,NI_Sequenzen,,,,,,,,,,,,,,
,Sequence,flow.Sequence,0_2_26,,completion,27,140744,,,140746,,140755,2021-10-26T13:19:52.503Z,140857.94,1635254246,full,ni_sequenzen,NI_Sequenzen,,,,,,,,,,,,,,
,Screen_1,canvas.Screen,0_2_27_0,,skipped,28,140756,,,140756,,140756,2021-10-26T13:19:52.505Z,140857.94,1635254246,full,ni_sequenzen,NI_Sequenzen,,,,,,,,,,,,,,
,Screen_2,canvas.Screen,0_2_27_1,,skipped,28,140759,,,140756,,140759,2021-10-26T13:19:52.507Z,140857.94,1635254246,full,ni_sequenzen,NI_Sequenzen,,,,,,,,,,,,,,
,Screen_3,canvas.Screen,0_2_27_2,,skipped,28,140761,,,140756,,140761,2021-10-26T13:19:52.510Z,140857.94,1635254246,full,ni_sequenzen,NI_Sequenzen,,,,,,,,,,,,,,
,Screen_4,canvas.Screen,0_2_27_3,,skipped,28,140763,,,140756,,140763,2021-10-26T13:19:52.512Z,140857.94,1635254246,full,ni_sequenzen,NI_Sequenzen,,,,,,,,,,,,,,
,Screen_5,canvas.Screen,0_2_27_4,,skipped,28,140765,,,140756,,140765,2021-10-26T13:19:52.514Z,140857.94,1635254246,full,ni_sequenzen,NI_Sequenzen,,,,,,,,,,,,,,
,Screen_6,canvas.Screen,0_2_27_5,,skipped,28,140767,,,140756,,140767,2021-10-26T13:19:52.516Z,140857.94,1635254246,full,ni_sequenzen,NI_Sequenzen,,,,,,,,,,,,,,
,Sequence,flow.Sequence,0_2_27,,completion,28,140755,,,140756,,140767,2021-10-26T13:19:52.516Z,140857.94,1635254246,full,ni_sequenzen,NI_Sequenzen,,,,,,,,,,,,,,
,Screen_1,canvas.Screen,0_2_28_0,,skipped,29,140768,,,140768,,140768,2021-10-26T13:19:52.518Z,140857.94,1635254246,full,ni_sequenzen,NI_Sequenzen,,,,,,,,,,,,,,
,Screen_2,canvas.Screen,0_2_28_1,,skipped,29,140771,,,140768,,140771,2021-10-26T13:19:52.519Z,140857.94,1635254246,full,ni_sequenzen,NI_Sequenzen,,,,,,,,,,,,,,
,Screen_3,canvas.Screen,0_2_28_2,,skipped,29,140772,,,140768,,140772,2021-10-26T13:19:52.520Z,140857.94,1635254246,full,ni_sequenzen,NI_Sequenzen,,,,,,,,,,,,,,
,Screen_4,canvas.Screen,0_2_28_3,,skipped,29,140773,,,140768,,140773,2021-10-26T13:19:52.522Z,140857.94,1635254246,full,ni_sequenzen,NI_Sequenzen,,,,,,,,,,,,,,
,Screen_5,canvas.Screen,0_2_28_4,,skipped,29,140775,,,140768,,140775,2021-10-26T13:19:52.524Z,140857.94,1635254246,full,ni_sequenzen,NI_Sequenzen,,,,,,,,,,,,,,
,Screen_6,canvas.Screen,0_2_28_5,,skipped,29,140777,,,140768,,140777,2021-10-26T13:19:52.525Z,140857.94,1635254246,full,ni_sequenzen,NI_Sequenzen,,,,,,,,,,,,,,
,Sequence,flow.Sequence,0_2_28,,completion,29,140767,,,140768,,140777,2021-10-26T13:19:52.526Z,140857.94,1635254246,full,ni_sequenzen,NI_Sequenzen,,,,,,,,,,,,,,
,Screen_1,canvas.Screen,0_2_29_0,,skipped,30,140780,,,140780,,140780,2021-10-26T13:19:52.528Z,140857.94,1635254246,full,ni_sequenzen,NI_Sequenzen,,,,,,,,,,,,,,
,Screen_2,canvas.Screen,0_2_29_1,,skipped,30,140781,,,140780,,140782,2021-10-26T13:19:52.529Z,140857.94,1635254246,full,ni_sequenzen,NI_Sequenzen,,,,,,,,,,,,,,
,Screen_3,canvas.Screen,0_2_29_2,,skipped,30,140782,,,140780,,140782,2021-10-26T13:19:52.531Z,140857.94,1635254246,full,ni_sequenzen,NI_Sequenzen,,,,,,,,,,,,,,
,Screen_4,canvas.Screen,0_2_29_3,,skipped,30,140784,,,140780,,140784,2021-10-26T13:19:52.533Z,140857.94,1635254246,full,ni_sequenzen,NI_Sequenzen,,,,,,,,,,,,,,
,Screen_5,canvas.Screen,0_2_29_4,,skipped,30,140786,,,140780,,140786,2021-10-26T13:19:52.535Z,140857.94,1635254246,full,ni_sequenzen,NI_Sequenzen,,,,,,,,,,,,,,
,Screen_6,canvas.Screen,0_2_29_5,,skipped,30,140787,,,140780,,140787,2021-10-26T13:19:52.536Z,140857.94,1635254246,full,ni_sequenzen,NI_Sequenzen,,,,,,,,,,,,,,
,Sequence,flow.Sequence,0_2_29,,completion,30,140778,,,140780,,140787,2021-10-26T13:19:52.537Z,140857.94,1635254246,full,ni_sequenzen,NI_Sequenzen,,,,,,,,,,,,,,
,Instructions_II,flow.Loop,0_2,,completion,,67310,67314.66,67314.82,140780,73465.18,140788,2021-10-26T13:19:52.537Z,140857.94,1635254246,full,ni_sequenzen,NI_Sequenzen,,,,,,,,,,,,,,
,Move,canvas.Screen,0_3_0_0_0_0,right,response,,140858,140857.8,140857.94,145359,4501.059999999998,145376,2021-10-26T13:19:57.124Z,145388.98,1635254246,full,ni_sequenzen,NI_Sequenzen,1,0,,,,,,,,,,,,
,Move,canvas.Screen,0_3_0_0_0_1,down,response,,145389,145388.86,145388.98,148968,3579.0199999999895,148972,2021-10-26T13:20:00.721Z,148988.2,1635254246,full,ni_sequenzen,NI_Sequenzen,2,0,,,,,,,,,,,,
,Move,canvas.Screen,0_3_0_0_0_2,down,response,,148988,148988.08,148988.2,149515,526.7999999999884,149523,2021-10-26T13:20:01.272Z,149534.02,1635254246,full,ni_sequenzen,NI_Sequenzen,3,0,,,,,,,,,,,,
,Move,canvas.Screen,0_3_0_0_0_3,right,response,,149534,149533.9,149534.02,149906,371.9800000000105,149919,2021-10-26T13:20:01.668Z,150040.7,1635254246,full,ni_sequenzen,NI_Sequenzen,4,0,,,,,,,,,,,,
,Move,canvas.Screen,0_3_0_0_0_4,-999,skipped,,149934,,,149906,,149934,2021-10-26T13:20:01.682Z,150040.7,1635254246,full,ni_sequenzen,NI_Sequenzen,5,0,,,,,,,,,,,,
,Move,canvas.Screen,0_3_0_0_0_5,-999,skipped,,149944,,,149906,,149944,2021-10-26T13:20:01.692Z,150040.7,1635254246,full,ni_sequenzen,NI_Sequenzen,6,0,,,,,,,,,,,,
,Move,canvas.Screen,0_3_0_0_0_6,-999,skipped,,149953,,,149906,,149953,2021-10-26T13:20:01.702Z,150040.7,1635254246,full,ni_sequenzen,NI_Sequenzen,7,0,,,,,,,,,,,,
,Move,canvas.Screen,0_3_0_0_0_7,-999,skipped,,149962,,,149906,,149962,2021-10-26T13:20:01.711Z,150040.7,1635254246,full,ni_sequenzen,NI_Sequenzen,8,0,,,,,,,,,,,,
,Move,canvas.Screen,0_3_0_0_0_8,-999,skipped,,149973,,,149906,,149973,2021-10-26T13:20:01.722Z,150040.7,1635254246,full,ni_sequenzen,NI_Sequenzen,9,0,,,,,,,,,,,,
,Move,canvas.Screen,0_3_0_0_0_9,-999,skipped,,149983,,,149906,,149983,2021-10-26T13:20:01.731Z,150040.7,1635254246,full,ni_sequenzen,NI_Sequenzen,10,0,,,,,,,,,,,,
,Move,canvas.Screen,0_3_0_0_0_10,-999,skipped,,149992,,,149906,,149993,2021-10-26T13:20:01.740Z,150040.7,1635254246,full,ni_sequenzen,NI_Sequenzen,11,0,,,,,,,,,,,,
,Move,canvas.Screen,0_3_0_0_0_11,-999,skipped,,150002,,,149906,,150002,2021-10-26T13:20:01.750Z,150040.7,1635254246,full,ni_sequenzen,NI_Sequenzen,12,0,,,,,,,,,,,,
,Move,canvas.Screen,0_3_0_0_0_12,-999,skipped,,150012,,,149906,,150012,2021-10-26T13:20:01.760Z,150040.7,1635254246,full,ni_sequenzen,NI_Sequenzen,13,0,,,,,,,,,,,,
,Move,canvas.Screen,0_3_0_0_0_13,-999,skipped,,150022,,,149906,,150022,2021-10-26T13:20:01.770Z,150040.7,1635254246,full,ni_sequenzen,NI_Sequenzen,14,0,,,,,,,,,,,,
,Move,canvas.Screen,0_3_0_0_0_14,-999,skipped,,150031,,,149906,,150031,2021-10-26T13:20:01.780Z,150040.7,1635254246,full,ni_sequenzen,NI_Sequenzen,15,0,,,,,,,,,,,,
,Loop,flow.Loop,0_3_0_0_0,-999,completion,,140809,140857.8,140857.94,149906,9048.059999999998,150031,2021-10-26T13:20:01.780Z,150040.7,1635254246,full,ni_sequenzen,NI_Sequenzen,,0,,,,,,,,,,,,
,Feedback,canvas.Screen,0_3_0_0_1,,timeout,,150040,150040.48,150040.7,154031.28,4008.139999999985,154032,2021-10-26T13:20:05.781Z,154048.84,1635254246,full,ni_sequenzen,NI_Sequenzen,,0,,,,,,,,,,,,
,Trial,flow.Sequence,0_3_0_0,,completion,,140802,140857.8,140857.94,154031.28,13173.339999999997,154032,2021-10-26T13:20:05.781Z,154064.62,1635254246,full,ni_sequenzen,NI_Sequenzen,,0,,,,,,,,,,,,
,Move,canvas.Screen,0_3_0_1_0_0,down,response,,154049,154048.84,154064.62,156907,2842.3800000000047,156921,2021-10-26T13:20:08.670Z,156937.32,1635254246,full,ni_sequenzen,NI_Sequenzen,1,1,,,,,,,,,,,,
,Move,canvas.Screen,0_3_0_1_0_1,left,response,,156937,156937.24,156937.32,157374,436.679999999993,157386,2021-10-26T13:20:09.134Z,157401.22,1635254246,full,ni_sequenzen,NI_Sequenzen,2,1,,,,,,,,,,,,
,Move,canvas.Screen,0_3_0_1_0_2,down,response,,157401,157401.1,157401.22,160390,2988.779999999999,160394,2021-10-26T13:20:12.143Z,160406.32,1635254246,full,ni_sequenzen,NI_Sequenzen,3,1,,,,,,,,,,,,
,Move,canvas.Screen,0_3_0_1_0_3,left,response,,160406,160406.22,160406.32,160703,296.679999999993,160711,2021-10-26T13:20:12.459Z,160826.26,1635254246,full,ni_sequenzen,NI_Sequenzen,4,1,,,,,,,,,,,,
,Move,canvas.Screen,0_3_0_1_0_4,-999,skipped,,160722,,,160703,,160722,2021-10-26T13:20:12.470Z,160826.26,1635254246,full,ni_sequenzen,NI_Sequenzen,5,1,,,,,,,,,,,,
,Move,canvas.Screen,0_3_0_1_0_5,-999,skipped,,160731,,,160703,,160731,2021-10-26T13:20:12.480Z,160826.26,1635254246,full,ni_sequenzen,NI_Sequenzen,6,1,,,,,,,,,,,,
,Move,canvas.Screen,0_3_0_1_0_6,-999,skipped,,160740,,,160703,,160740,2021-10-26T13:20:12.489Z,160826.26,1635254246,full,ni_sequenzen,NI_Sequenzen,7,1,,,,,,,,,,,,
,Move,canvas.Screen,0_3_0_1_0_7,-999,skipped,,160750,,,160703,,160750,2021-10-26T13:20:12.498Z,160826.26,1635254246,full,ni_sequenzen,NI_Sequenzen,8,1,,,,,,,,,,,,
,Move,canvas.Screen,0_3_0_1_0_8,-999,skipped,,160760,,,160703,,160760,2021-10-26T13:20:12.509Z,160826.26,1635254246,full,ni_sequenzen,NI_Sequenzen,9,1,,,,,,,,,,,,
,Move,canvas.Screen,0_3_0_1_0_9,-999,skipped,,160770,,,160703,,160770,2021-10-26T13:20:12.518Z,160826.26,1635254246,full,ni_sequenzen,NI_Sequenzen,10,1,,,,,,,,,,,,
,Move,canvas.Screen,0_3_0_1_0_10,-999,skipped,,160779,,,160703,,160779,2021-10-26T13:20:12.527Z,160826.26,1635254246,full,ni_sequenzen,NI_Sequenzen,11,1,,,,,,,,,,,,
,Move,canvas.Screen,0_3_0_1_0_11,-999,skipped,,160789,,,160703,,160789,2021-10-26T13:20:12.537Z,160826.26,1635254246,full,ni_sequenzen,NI_Sequenzen,12,1,,,,,,,,,,,,
,Move,canvas.Screen,0_3_0_1_0_12,-999,skipped,,160800,,,160703,,160800,2021-10-26T13:20:12.548Z,160826.26,1635254246,full,ni_sequenzen,NI_Sequenzen,13,1,,,,,,,,,,,,
,Move,canvas.Screen,0_3_0_1_0_13,-999,skipped,,160808,,,160703,,160808,2021-10-26T13:20:12.557Z,160826.26,1635254246,full,ni_sequenzen,NI_Sequenzen,14,1,,,,,,,,,,,,
,Move,canvas.Screen,0_3_0_1_0_14,-999,skipped,,160818,,,160703,,160818,2021-10-26T13:20:12.566Z,160826.26,1635254246,full,ni_sequenzen,NI_Sequenzen,15,1,,,,,,,,,,,,
,Loop,flow.Loop,0_3_0_1_0,-999,completion,,154038,154048.84,154064.62,160703,6638.380000000005,160819,2021-10-26T13:20:12.566Z,160826.26,1635254246,full,ni_sequenzen,NI_Sequenzen,,1,,,,,,,,,,,,
,Feedback,canvas.Screen,0_3_0_1_1,,timeout,,160827,160826.1,160826.26,164810.94,4002.4400000000023,164812,2021-10-26T13:20:16.560Z,164828.7,1635254246,full,ni_sequenzen,NI_Sequenzen,,1,,,,,,,,,,,,
,Trial,flow.Sequence,0_3_0_1,,completion,,154033,154048.84,154064.62,164810.94,10746.320000000007,164812,2021-10-26T13:20:16.561Z,164844.24,1635254246,full,ni_sequenzen,NI_Sequenzen,,1,,,,,,,,,,,,
,Move,canvas.Screen,0_3_0_2_0_0,right,response,,164829,164828.7,164844.24,168640,3795.7600000000093,168648,2021-10-26T13:20:20.397Z,168658.98,1635254246,full,ni_sequenzen,NI_Sequenzen,1,2,,,,,,,,,,,,
,Move,canvas.Screen,0_3_0_2_0_1,down,response,,168659,168658.82,168658.98,170656,1997.0199999999895,170662,2021-10-26T13:20:22.410Z,170676.9,1635254246,full,ni_sequenzen,NI_Sequenzen,2,2,,,,,,,,,,,,
,Move,canvas.Screen,0_3_0_2_0_2,down,response,,170676,170676.76,170676.9,170968,291.1000000000058,170973,2021-10-26T13:20:22.722Z,170994.72,1635254246,full,ni_sequenzen,NI_Sequenzen,3,2,,,,,,,,,,,,
,Move,canvas.Screen,0_3_0_2_0_3,right,response,,170995,170994.6,170994.72,171281,286.27999999999884,171285,2021-10-26T13:20:23.033Z,171421.5,1635254246,full,ni_sequenzen,NI_Sequenzen,4,2,,,,,,,,,,,,
,Move,canvas.Screen,0_3_0_2_0_4,-999,skipped,,171307,,,171281,,171307,2021-10-26T13:20:23.056Z,171421.5,1635254246,full,ni_sequenzen,NI_Sequenzen,5,2,,,,,,,,,,,,
,Move,canvas.Screen,0_3_0_2_0_5,-999,skipped,,171319,,,171281,,171319,2021-10-26T13:20:23.068Z,171421.5,1635254246,full,ni_sequenzen,NI_Sequenzen,6,2,,,,,,,,,,,,
,Move,canvas.Screen,0_3_0_2_0_6,-999,skipped,,171330,,,171281,,171330,2021-10-26T13:20:23.079Z,171421.5,1635254246,full,ni_sequenzen,NI_Sequenzen,7,2,,,,,,,,,,,,
,Move,canvas.Screen,0_3_0_2_0_7,-999,skipped,,171342,,,171281,,171342,2021-10-26T13:20:23.090Z,171421.5,1635254246,full,ni_sequenzen,NI_Sequenzen,8,2,,,,,,,,,,,,
,Move,canvas.Screen,0_3_0_2_0_8,-999,skipped,,171352,,,171281,,171352,2021-10-26T13:20:23.101Z,171421.5,1635254246,full,ni_sequenzen,NI_Sequenzen,9,2,,,,,,,,,,,,
,Move,canvas.Screen,0_3_0_2_0_9,-999,skipped,,171362,,,171281,,171362,2021-10-26T13:20:23.111Z,171421.5,1635254246,full,ni_sequenzen,NI_Sequenzen,10,2,,,,,,,,,,,,
,Move,canvas.Screen,0_3_0_2_0_10,-999,skipped,,171372,,,171281,,171372,2021-10-26T13:20:23.121Z,171421.5,1635254246,full,ni_sequenzen,NI_Sequenzen,11,2,,,,,,,,,,,,
,Move,canvas.Screen,0_3_0_2_0_11,-999,skipped,,171382,,,171281,,171383,2021-10-26T13:20:23.130Z,171421.5,1635254246,full,ni_sequenzen,NI_Sequenzen,12,2,,,,,,,,,,,,
,Move,canvas.Screen,0_3_0_2_0_12,-999,skipped,,171393,,,171281,,171393,2021-10-26T13:20:23.141Z,171421.5,1635254246,full,ni_sequenzen,NI_Sequenzen,13,2,,,,,,,,,,,,
,Move,canvas.Screen,0_3_0_2_0_13,-999,skipped,,171402,,,171281,,171402,2021-10-26T13:20:23.151Z,171421.5,1635254246,full,ni_sequenzen,NI_Sequenzen,14,2,,,,,,,,,,,,
,Move,canvas.Screen,0_3_0_2_0_14,-999,skipped,,171412,,,171281,,171413,2021-10-26T13:20:23.160Z,171421.5,1635254246,full,ni_sequenzen,NI_Sequenzen,15,2,,,,,,,,,,,,
,Loop,flow.Loop,0_3_0_2_0,-999,completion,,164817,164828.7,164844.24,171281,6436.760000000009,171413,2021-10-26T13:20:23.161Z,171421.5,1635254246,full,ni_sequenzen,NI_Sequenzen,,2,,,,,,,,,,,,
,Feedback,canvas.Screen,0_3_0_2_1,,timeout,,171421,171421.3,171421.5,175407.32,4015.2600000000093,175409,2021-10-26T13:20:27.157Z,175436.76,1635254246,full,ni_sequenzen,NI_Sequenzen,,2,,,,,,,,,,,,
,Trial,flow.Sequence,0_3_0_2,,completion,,164813,164828.7,164844.24,175407.32,10563.080000000016,175410,2021-10-26T13:20:27.158Z,175440.58,1635254246,full,ni_sequenzen,NI_Sequenzen,,2,,,,,,,,,,,,
,Move,canvas.Screen,0_3_0_3_0_0,left,response,,175437,175436.76,175440.58,176906,1465.4200000000128,176918,2021-10-26T13:20:28.667Z,176936.22,1635254246,full,ni_sequenzen,NI_Sequenzen,1,3,,,,,,,,,,,,
,Move,canvas.Screen,0_3_0_3_0_1,down,response,,176936,176936.12,176936.22,177281,344.77999999999884,177294,2021-10-26T13:20:29.042Z,177307.92,1635254246,full,ni_sequenzen,NI_Sequenzen,2,3,,,,,,,,,,,,
,Move,canvas.Screen,0_3_0_3_0_2,down,response,,177308,177307.82,177307.92,177812,504.0799999999872,177828,2021-10-26T13:20:29.578Z,177842.46,1635254246,full,ni_sequenzen,NI_Sequenzen,3,3,,,,,,,,,,,,
,Move,canvas.Screen,0_3_0_3_0_3,left,response,,177843,177842.34,177842.46,178109,266.54000000000815,178119,2021-10-26T13:20:29.867Z,178241.98,1635254246,full,ni_sequenzen,NI_Sequenzen,4,3,,,,,,,,,,,,
,Move,canvas.Screen,0_3_0_3_0_4,-999,skipped,,178134,,,178109,,178134,2021-10-26T13:20:29.883Z,178241.98,1635254246,full,ni_sequenzen,NI_Sequenzen,5,3,,,,,,,,,,,,
,Move,canvas.Screen,0_3_0_3_0_5,-999,skipped,,178144,,,178109,,178144,2021-10-26T13:20:29.893Z,178241.98,1635254246,full,ni_sequenzen,NI_Sequenzen,6,3,,,,,,,,,,,,
,Move,canvas.Screen,0_3_0_3_0_6,-999,skipped,,178154,,,178109,,178154,2021-10-26T13:20:29.902Z,178241.98,1635254246,full,ni_sequenzen,NI_Sequenzen,7,3,,,,,,,,,,,,
,Move,canvas.Screen,0_3_0_3_0_7,-999,skipped,,178164,,,178109,,178164,2021-10-26T13:20:29.912Z,178241.98,1635254246,full,ni_sequenzen,NI_Sequenzen,8,3,,,,,,,,,,,,
,Move,canvas.Screen,0_3_0_3_0_8,-999,skipped,,178174,,,178109,,178174,2021-10-26T13:20:29.923Z,178241.98,1635254246,full,ni_sequenzen,NI_Sequenzen,9,3,,,,,,,,,,,,
,Move,canvas.Screen,0_3_0_3_0_9,-999,skipped,,178184,,,178109,,178184,2021-10-26T13:20:29.932Z,178241.98,1635254246,full,ni_sequenzen,NI_Sequenzen,10,3,,,,,,,,,,,,
,Move,canvas.Screen,0_3_0_3_0_10,-999,skipped,,178194,,,178109,,178194,2021-10-26T13:20:29.942Z,178241.98,1635254246,full,ni_sequenzen,NI_Sequenzen,11,3,,,,,,,,,,,,
,Move,canvas.Screen,0_3_0_3_0_11,-999,skipped,,178205,,,178109,,178205,2021-10-26T13:20:29.954Z,178241.98,1635254246,full,ni_sequenzen,NI_Sequenzen,12,3,,,,,,,,,,,,
,Move,canvas.Screen,0_3_0_3_0_12,-999,skipped,,178214,,,178109,,178215,2021-10-26T13:20:29.963Z,178241.98,1635254246,full,ni_sequenzen,NI_Sequenzen,13,3,,,,,,,,,,,,
,Move,canvas.Screen,0_3_0_3_0_13,-999,skipped,,178224,,,178109,,178225,2021-10-26T13:20:29.973Z,178241.98,1635254246,full,ni_sequenzen,NI_Sequenzen,14,3,,,,,,,,,,,,
,Move,canvas.Screen,0_3_0_3_0_14,-999,skipped,,178234,,,178109,,178234,2021-10-26T13:20:29.982Z,178241.98,1635254246,full,ni_sequenzen,NI_Sequenzen,15,3,,,,,,,,,,,,
,Loop,flow.Loop,0_3_0_3_0,-999,completion,,175421,175436.76,175440.58,178109,2668.420000000013,178234,2021-10-26T13:20:29.982Z,178241.98,1635254246,full,ni_sequenzen,NI_Sequenzen,,3,,,,,,,,,,,,
,Feedback,canvas.Screen,0_3_0_3_1,,timeout,,178242,178241.76,178241.98,182221.66,4006.0599999999977,182222,2021-10-26T13:20:33.971Z,182248.04,1635254246,full,ni_sequenzen,NI_Sequenzen,,3,,,,,,,,,,,,
,Trial,flow.Sequence,0_3_0_3,,completion,,175411,175436.76,175440.58,182221.66,6781.080000000016,182222,2021-10-26T13:20:33.971Z,182254.94,1635254246,full,ni_sequenzen,NI_Sequenzen,,3,,,,,,,,,,,,
,Move,canvas.Screen,0_3_0_4_0_0,down,response,,182248,182248.04,182254.94,184234,1979.0599999999977,184246,2021-10-26T13:20:35.993Z,184258.84,1635254246,full,ni_sequenzen,NI_Sequenzen,1,4,,,,,,,,,,,,
,Move,canvas.Screen,0_3_0_4_0_1,left,response,,184259,184258.68,184258.84,184843,584.1600000000035,184847,2021-10-26T13:20:36.595Z,184865.98,1635254246,full,ni_sequenzen,NI_Sequenzen,2,4,,,,,,,,,,,,
,Move,canvas.Screen,0_3_0_4_0_2,down,response,,184866,184865.82,184865.98,187484,2618.0199999999895,187500,2021-10-26T13:20:39.249Z,187519.82,1635254246,full,ni_sequenzen,NI_Sequenzen,3,4,,,,,,,,,,,,
,Move,canvas.Screen,0_3_0_4_0_3,left,response,,187520,187519.7,187519.82,187749,229.17999999999302,187760,2021-10-26T13:20:39.508Z,187887.5,1635254246,full,ni_sequenzen,NI_Sequenzen,4,4,,,,,,,,,,,,
,Move,canvas.Screen,0_3_0_4_0_4,-999,skipped,,187777,,,187749,,187777,2021-10-26T13:20:39.525Z,187887.5,1635254246,full,ni_sequenzen,NI_Sequenzen,5,4,,,,,,,,,,,,
,Move,canvas.Screen,0_3_0_4_0_5,-999,skipped,,187787,,,187749,,187787,2021-10-26T13:20:39.535Z,187887.5,1635254246,full,ni_sequenzen,NI_Sequenzen,6,4,,,,,,,,,,,,
,Move,canvas.Screen,0_3_0_4_0_6,-999,skipped,,187796,,,187749,,187796,2021-10-26T13:20:39.544Z,187887.5,1635254246,full,ni_sequenzen,NI_Sequenzen,7,4,,,,,,,,,,,,
,Move,canvas.Screen,0_3_0_4_0_7,-999,skipped,,187806,,,187749,,187806,2021-10-26T13:20:39.555Z,187887.5,1635254246,full,ni_sequenzen,NI_Sequenzen,8,4,,,,,,,,,,,,
,Move,canvas.Screen,0_3_0_4_0_8,-999,skipped,,187823,,,187749,,187823,2021-10-26T13:20:39.571Z,187887.5,1635254246,full,ni_sequenzen,NI_Sequenzen,9,4,,,,,,,,,,,,
,Move,canvas.Screen,0_3_0_4_0_9,-999,skipped,,187833,,,187749,,187833,2021-10-26T13:20:39.582Z,187887.5,1635254246,full,ni_sequenzen,NI_Sequenzen,10,4,,,,,,,,,,,,
,Move,canvas.Screen,0_3_0_4_0_10,-999,skipped,,187843,,,187749,,187843,2021-10-26T13:20:39.591Z,187887.5,1635254246,full,ni_sequenzen,NI_Sequenzen,11,4,,,,,,,,,,,,
,Move,canvas.Screen,0_3_0_4_0_11,-999,skipped,,187852,,,187749,,187853,2021-10-26T13:20:39.600Z,187887.5,1635254246,full,ni_sequenzen,NI_Sequenzen,12,4,,,,,,,,,,,,
,Move,canvas.Screen,0_3_0_4_0_12,-999,skipped,,187861,,,187749,,187861,2021-10-26T13:20:39.609Z,187887.5,1635254246,full,ni_sequenzen,NI_Sequenzen,13,4,,,,,,,,,,,,
,Move,canvas.Screen,0_3_0_4_0_13,-999,skipped,,187870,,,187749,,187870,2021-10-26T13:20:39.619Z,187887.5,1635254246,full,ni_sequenzen,NI_Sequenzen,14,4,,,,,,,,,,,,
,Move,canvas.Screen,0_3_0_4_0_14,-999,skipped,,187880,,,187749,,187880,2021-10-26T13:20:39.628Z,187887.5,1635254246,full,ni_sequenzen,NI_Sequenzen,15,4,,,,,,,,,,,,
,Loop,flow.Loop,0_3_0_4_0,-999,completion,,182238,182248.04,182254.94,187749,5494.059999999998,187880,2021-10-26T13:20:39.628Z,187887.5,1635254246,full,ni_sequenzen,NI_Sequenzen,,4,,,,,,,,,,,,
,Feedback,canvas.Screen,0_3_0_4_1,,timeout,,187887,187887.28,187887.5,191868.32,4000.4800000000105,191869,2021-10-26T13:20:43.618Z,191887.98,1635254246,full,ni_sequenzen,NI_Sequenzen,,4,,,,,,,,,,,,
,Trial,flow.Sequence,0_3_0_4,,completion,,182224,182248.04,182254.94,191868.32,9613.380000000005,191870,2021-10-26T13:20:43.618Z,191901.66,1635254246,full,ni_sequenzen,NI_Sequenzen,,4,,,,,,,,,,,,
,Move,canvas.Screen,0_3_0_5_0_0,right,response,,191888,191887.98,191901.66,195187,3285.3399999999965,195193,2021-10-26T13:20:46.942Z,195214.34,1635254246,full,ni_sequenzen,NI_Sequenzen,1,5,,,,,,,,,,,,
,Move,canvas.Screen,0_3_0_5_0_1,down,response,,195214,195214.18,195214.34,195656,441.6600000000035,195663,2021-10-26T13:20:47.411Z,195680.78,1635254246,full,ni_sequenzen,NI_Sequenzen,2,5,,,,,,,,,,,,
,Move,canvas.Screen,0_3_0_5_0_2,down,response,,195681,195680.66,195680.78,196281,600.2200000000012,196283,2021-10-26T13:20:48.032Z,196293.14,1635254246,full,ni_sequenzen,NI_Sequenzen,3,5,,,,,,,,,,,,
,Move,canvas.Screen,0_3_0_5_0_3,left,response,,196293,196293.06,196293.14,197156,862.859999999986,197172,2021-10-26T13:20:48.921Z,197186.88,1635254246,full,ni_sequenzen,NI_Sequenzen,4,5,,,,,,,,,,,,
,Move,canvas.Screen,0_3_0_5_0_4,right,response,,197186,197186.76,197186.88,198937,1750.1199999999953,198942,2021-10-26T13:20:50.690Z,199050.7,1635254246,full,ni_sequenzen,NI_Sequenzen,5,5,,,,,,,,,,,,
,Move,canvas.Screen,0_3_0_5_0_5,-999,skipped,,198957,,,198937,,198957,2021-10-26T13:20:50.705Z,199050.7,1635254246,full,ni_sequenzen,NI_Sequenzen,6,5,,,,,,,,,,,,
,Move,canvas.Screen,0_3_0_5_0_6,-999,skipped,,198965,,,198937,,198965,2021-10-26T13:20:50.714Z,199050.7,1635254246,full,ni_sequenzen,NI_Sequenzen,7,5,,,,,,,,,,,,
,Move,canvas.Screen,0_3_0_5_0_7,-999,skipped,,198975,,,198937,,198975,2021-10-26T13:20:50.723Z,199050.7,1635254246,full,ni_sequenzen,NI_Sequenzen,8,5,,,,,,,,,,,,
,Move,canvas.Screen,0_3_0_5_0_8,-999,skipped,,198985,,,198937,,198985,2021-10-26T13:20:50.733Z,199050.7,1635254246,full,ni_sequenzen,NI_Sequenzen,9,5,,,,,,,,,,,,
,Move,canvas.Screen,0_3_0_5_0_9,-999,skipped,,198994,,,198937,,198994,2021-10-26T13:20:50.742Z,199050.7,1635254246,full,ni_sequenzen,NI_Sequenzen,10,5,,,,,,,,,,,,
,Move,canvas.Screen,0_3_0_5_0_10,-999,skipped,,199004,,,198937,,199005,2021-10-26T13:20:50.753Z,199050.7,1635254246,full,ni_sequenzen,NI_Sequenzen,11,5,,,,,,,,,,,,
,Move,canvas.Screen,0_3_0_5_0_11,-999,skipped,,199014,,,198937,,199014,2021-10-26T13:20:50.762Z,199050.7,1635254246,full,ni_sequenzen,NI_Sequenzen,12,5,,,,,,,,,,,,
,Move,canvas.Screen,0_3_0_5_0_12,-999,skipped,,199023,,,198937,,199023,2021-10-26T13:20:50.772Z,199050.7,1635254246,full,ni_sequenzen,NI_Sequenzen,13,5,,,,,,,,,,,,
,Move,canvas.Screen,0_3_0_5_0_13,-999,skipped,,199034,,,198937,,199034,2021-10-26T13:20:50.782Z,199050.7,1635254246,full,ni_sequenzen,NI_Sequenzen,14,5,,,,,,,,,,,,
,Move,canvas.Screen,0_3_0_5_0_14,-999,skipped,,199042,,,198937,,199042,2021-10-26T13:20:50.791Z,199050.7,1635254246,full,ni_sequenzen,NI_Sequenzen,15,5,,,,,,,,,,,,
,Loop,flow.Loop,0_3_0_5_0,-999,completion,,191877,191887.98,191901.66,198937,7035.3399999999965,199042,2021-10-26T13:20:50.791Z,199050.7,1635254246,full,ni_sequenzen,NI_Sequenzen,,5,,,,,,,,,,,,
,Feedback,canvas.Screen,0_3_0_5_1,,timeout,,199051,199050.48,199050.7,203031.18,3999.139999999985,203032,2021-10-26T13:20:54.781Z,203049.84,1635254246,full,ni_sequenzen,NI_Sequenzen,,5,,,,,,,,,,,,
,Trial,flow.Sequence,0_3_0_5,,completion,,191870,191887.98,191901.66,203031.18,11129.51999999999,203032,2021-10-26T13:20:54.781Z,203064.5,1635254246,full,ni_sequenzen,NI_Sequenzen,,5,,,,,,,,,,,,
,Move,canvas.Screen,0_3_0_6_0_0,down,response,,203049,203049.84,203064.5,205890,2825.5,205905,2021-10-26T13:20:57.654Z,205923.14,1635254246,full,ni_sequenzen,NI_Sequenzen,1,6,,,,,,,,,,,,
,Move,canvas.Screen,0_3_0_6_0_1,right,response,,205923,205923.02,205923.14,206406,482.85999999998603,206418,2021-10-26T13:20:58.166Z,206435.86,1635254246,full,ni_sequenzen,NI_Sequenzen,2,6,,,,,,,,,,,,
,Move,canvas.Screen,0_3_0_6_0_2,left,response,,206436,206435.7,206435.86,212687,6251.140000000014,212691,2021-10-26T13:21:04.439Z,212706.84,1635254246,full,ni_sequenzen,NI_Sequenzen,3,6,,,,,,,,,,,,
,Move,canvas.Screen,0_3_0_6_0_3,down,response,,212707,212706.7,212706.84,213203,496.1600000000035,213217,2021-10-26T13:21:04.966Z,213233.12,1635254246,full,ni_sequenzen,NI_Sequenzen,4,6,,,,,,,,,,,,
,Move,canvas.Screen,0_3_0_6_0_4,right,response,,213233,213232.96,213233.12,215843,2609.8800000000047,215851,2021-10-26T13:21:07.600Z,215957.12,1635254246,full,ni_sequenzen,NI_Sequenzen,5,6,,,,,,,,,,,,
,Move,canvas.Screen,0_3_0_6_0_5,-999,skipped,,215863,,,215843,,215863,2021-10-26T13:21:07.612Z,215957.12,1635254246,full,ni_sequenzen,NI_Sequenzen,6,6,,,,,,,,,,,,
,Move,canvas.Screen,0_3_0_6_0_6,-999,skipped,,215873,,,215843,,215873,2021-10-26T13:21:07.622Z,215957.12,1635254246,full,ni_sequenzen,NI_Sequenzen,7,6,,,,,,,,,,,,
,Move,canvas.Screen,0_3_0_6_0_7,-999,skipped,,215883,,,215843,,215883,2021-10-26T13:21:07.632Z,215957.12,1635254246,full,ni_sequenzen,NI_Sequenzen,8,6,,,,,,,,,,,,
,Move,canvas.Screen,0_3_0_6_0_8,-999,skipped,,215892,,,215843,,215892,2021-10-26T13:21:07.641Z,215957.12,1635254246,full,ni_sequenzen,NI_Sequenzen,9,6,,,,,,,,,,,,
,Move,canvas.Screen,0_3_0_6_0_9,-999,skipped,,215901,,,215843,,215901,2021-10-26T13:21:07.650Z,215957.12,1635254246,full,ni_sequenzen,NI_Sequenzen,10,6,,,,,,,,,,,,
,Move,canvas.Screen,0_3_0_6_0_10,-999,skipped,,215911,,,215843,,215911,2021-10-26T13:21:07.660Z,215957.12,1635254246,full,ni_sequenzen,NI_Sequenzen,11,6,,,,,,,,,,,,
,Move,canvas.Screen,0_3_0_6_0_11,-999,skipped,,215920,,,215843,,215920,2021-10-26T13:21:07.668Z,215957.12,1635254246,full,ni_sequenzen,NI_Sequenzen,12,6,,,,,,,,,,,,
,Move,canvas.Screen,0_3_0_6_0_12,-999,skipped,,215929,,,215843,,215930,2021-10-26T13:21:07.678Z,215957.12,1635254246,full,ni_sequenzen,NI_Sequenzen,13,6,,,,,,,,,,,,
,Move,canvas.Screen,0_3_0_6_0_13,-999,skipped,,215939,,,215843,,215939,2021-10-26T13:21:07.688Z,215957.12,1635254246,full,ni_sequenzen,NI_Sequenzen,14,6,,,,,,,,,,,,
,Move,canvas.Screen,0_3_0_6_0_14,-999,skipped,,215949,,,215843,,215949,2021-10-26T13:21:07.697Z,215957.12,1635254246,full,ni_sequenzen,NI_Sequenzen,15,6,,,,,,,,,,,,
,Loop,flow.Loop,0_3_0_6_0,-999,completion,,203039,203049.84,203064.5,215843,12778.5,215949,2021-10-26T13:21:07.697Z,215957.12,1635254246,full,ni_sequenzen,NI_Sequenzen,,6,,,,,,,,,,,,
,Feedback,canvas.Screen,0_3_0_6_1,,timeout,,215957,215956.96,215957.12,219942.08,4002.4400000000023,219942,2021-10-26T13:21:11.691Z,219959.56,1635254246,full,ni_sequenzen,NI_Sequenzen,,6,,,,,,,,,,,,
,Trial,flow.Sequence,0_3_0_6,,completion,,203033,203049.84,203064.5,219942.08,16877.579999999987,219944,2021-10-26T13:21:11.691Z,219975.4,1635254246,full,ni_sequenzen,NI_Sequenzen,,6,,,,,,,,,,,,
,Move,canvas.Screen,0_3_0_7_0_0,down,response,,219960,219959.56,219975.4,221406,1430.6000000000058,221421,2021-10-26T13:21:13.170Z,221437.54,1635254246,full,ni_sequenzen,NI_Sequenzen,1,7,,,,,,,,,,,,
,Move,canvas.Screen,0_3_0_7_0_1,left,response,,221438,221437.42,221437.54,222109,671.4599999999919,222123,2021-10-26T13:21:13.872Z,222136.14,1635254246,full,ni_sequenzen,NI_Sequenzen,2,7,,,,,,,,,,,,
,Move,canvas.Screen,0_3_0_7_0_2,down,response,,222136,222135.98,222136.14,222406,269.85999999998603,222421,2021-10-26T13:21:14.170Z,222433.1,1635254246,full,ni_sequenzen,NI_Sequenzen,3,7,,,,,,,,,,,,
,Move,canvas.Screen,0_3_0_7_0_3,left,response,,222433,222432.96,222433.1,222703,269.8999999999942,222718,2021-10-26T13:21:14.466Z,222834,1635254246,full,ni_sequenzen,NI_Sequenzen,4,7,,,,,,,,,,,,
,Move,canvas.Screen,0_3_0_7_0_4,-999,skipped,,222729,,,222703,,222729,2021-10-26T13:21:14.478Z,222834,1635254246,full,ni_sequenzen,NI_Sequenzen,5,7,,,,,,,,,,,,
,Move,canvas.Screen,0_3_0_7_0_5,-999,skipped,,222739,,,222703,,222739,2021-10-26T13:21:14.488Z,222834,1635254246,full,ni_sequenzen,NI_Sequenzen,6,7,,,,,,,,,,,,
,Move,canvas.Screen,0_3_0_7_0_6,-999,skipped,,222749,,,222703,,222749,2021-10-26T13:21:14.498Z,222834,1635254246,full,ni_sequenzen,NI_Sequenzen,7,7,,,,,,,,,,,,
,Move,canvas.Screen,0_3_0_7_0_7,-999,skipped,,222760,,,222703,,222760,2021-10-26T13:21:14.508Z,222834,1635254246,full,ni_sequenzen,NI_Sequenzen,8,7,,,,,,,,,,,,
,Move,canvas.Screen,0_3_0_7_0_8,-999,skipped,,222769,,,222703,,222769,2021-10-26T13:21:14.518Z,222834,1635254246,full,ni_sequenzen,NI_Sequenzen,9,7,,,,,,,,,,,,
,Move,canvas.Screen,0_3_0_7_0_9,-999,skipped,,222778,,,222703,,222778,2021-10-26T13:21:14.526Z,222834,1635254246,full,ni_sequenzen,NI_Sequenzen,10,7,,,,,,,,,,,,
,Move,canvas.Screen,0_3_0_7_0_10,-999,skipped,,222787,,,222703,,222787,2021-10-26T13:21:14.536Z,222834,1635254246,full,ni_sequenzen,NI_Sequenzen,11,7,,,,,,,,,,,,
,Move,canvas.Screen,0_3_0_7_0_11,-999,skipped,,222797,,,222703,,222797,2021-10-26T13:21:14.546Z,222834,1635254246,full,ni_sequenzen,NI_Sequenzen,12,7,,,,,,,,,,,,
,Move,canvas.Screen,0_3_0_7_0_12,-999,skipped,,222806,,,222703,,222806,2021-10-26T13:21:14.554Z,222834,1635254246,full,ni_sequenzen,NI_Sequenzen,13,7,,,,,,,,,,,,
,Move,canvas.Screen,0_3_0_7_0_13,-999,skipped,,222815,,,222703,,222816,2021-10-26T13:21:14.564Z,222834,1635254246,full,ni_sequenzen,NI_Sequenzen,14,7,,,,,,,,,,,,
,Move,canvas.Screen,0_3_0_7_0_14,-999,skipped,,222825,,,222703,,222825,2021-10-26T13:21:14.573Z,222834,1635254246,full,ni_sequenzen,NI_Sequenzen,15,7,,,,,,,,,,,,
,Loop,flow.Loop,0_3_0_7_0,-999,completion,,219949,219959.56,219975.4,222703,2727.600000000006,222825,2021-10-26T13:21:14.574Z,222834,1635254246,full,ni_sequenzen,NI_Sequenzen,,7,,,,,,,,,,,,
,Feedback,canvas.Screen,0_3_0_7_1,,timeout,,222834,222833.74,222834,226823.1,4009.6199999999953,226824,2021-10-26T13:21:18.572Z,226843.62,1635254246,full,ni_sequenzen,NI_Sequenzen,,7,,,,,,,,,,,,
,Trial,flow.Sequence,0_3_0_7,,completion,,219944,219959.56,219975.4,226823.1,6847.700000000012,226824,2021-10-26T13:21:18.572Z,226856.38,1635254246,full,ni_sequenzen,NI_Sequenzen,,7,,,,,,,,,,,,
,Move,canvas.Screen,0_3_0_8_0_0,down,response,,226844,226843.62,226856.38,227579,722.6199999999953,227587,2021-10-26T13:21:19.335Z,227608.06,1635254246,full,ni_sequenzen,NI_Sequenzen,1,8,,,,,,,,,,,,
,Move,canvas.Screen,0_3_0_8_0_1,left,response,,227608,227607.94,227608.06,227968,359.9400000000023,227973,2021-10-26T13:21:19.722Z,227986.74,1635254246,full,ni_sequenzen,NI_Sequenzen,2,8,,,,,,,,,,,,
,Move,canvas.Screen,0_3_0_8_0_2,down,response,,227986,227986.56,227986.74,228531,544.2600000000093,228538,2021-10-26T13:21:20.287Z,228552.88,1635254246,full,ni_sequenzen,NI_Sequenzen,3,8,,,,,,,,,,,,
,Move,canvas.Screen,0_3_0_8_0_3,left,response,,228553,228552.8,228552.88,228874,321.11999999999534,228883,2021-10-26T13:21:20.632Z,229014.52,1635254246,full,ni_sequenzen,NI_Sequenzen,4,8,,,,,,,,,,,,
,Move,canvas.Screen,0_3_0_8_0_4,-999,skipped,,228897,,,228874,,228897,2021-10-26T13:21:20.646Z,229014.52,1635254246,full,ni_sequenzen,NI_Sequenzen,5,8,,,,,,,,,,,,
,Move,canvas.Screen,0_3_0_8_0_5,-999,skipped,,228908,,,228874,,228908,2021-10-26T13:21:20.657Z,229014.52,1635254246,full,ni_sequenzen,NI_Sequenzen,6,8,,,,,,,,,,,,
,Move,canvas.Screen,0_3_0_8_0_6,-999,skipped,,228919,,,228874,,228919,2021-10-26T13:21:20.667Z,229014.52,1635254246,full,ni_sequenzen,NI_Sequenzen,7,8,,,,,,,,,,,,
,Move,canvas.Screen,0_3_0_8_0_7,-999,skipped,,228929,,,228874,,228929,2021-10-26T13:21:20.678Z,229014.52,1635254246,full,ni_sequenzen,NI_Sequenzen,8,8,,,,,,,,,,,,
,Move,canvas.Screen,0_3_0_8_0_8,-999,skipped,,228940,,,228874,,228940,2021-10-26T13:21:20.688Z,229014.52,1635254246,full,ni_sequenzen,NI_Sequenzen,9,8,,,,,,,,,,,,
,Move,canvas.Screen,0_3_0_8_0_9,-999,skipped,,228951,,,228874,,228951,2021-10-26T13:21:20.699Z,229014.52,1635254246,full,ni_sequenzen,NI_Sequenzen,10,8,,,,,,,,,,,,
,Move,canvas.Screen,0_3_0_8_0_10,-999,skipped,,228961,,,228874,,228963,2021-10-26T13:21:20.711Z,229014.52,1635254246,full,ni_sequenzen,NI_Sequenzen,11,8,,,,,,,,,,,,
,Move,canvas.Screen,0_3_0_8_0_11,-999,skipped,,228972,,,228874,,228972,2021-10-26T13:21:20.722Z,229014.52,1635254246,full,ni_sequenzen,NI_Sequenzen,12,8,,,,,,,,,,,,
,Move,canvas.Screen,0_3_0_8_0_12,-999,skipped,,228984,,,228874,,228984,2021-10-26T13:21:20.732Z,229014.52,1635254246,full,ni_sequenzen,NI_Sequenzen,13,8,,,,,,,,,,,,
,Move,canvas.Screen,0_3_0_8_0_13,-999,skipped,,228995,,,228874,,228995,2021-10-26T13:21:20.743Z,229014.52,1635254246,full,ni_sequenzen,NI_Sequenzen,14,8,,,,,,,,,,,,
,Move,canvas.Screen,0_3_0_8_0_14,-999,skipped,,229006,,,228874,,229006,2021-10-26T13:21:20.755Z,229014.52,1635254246,full,ni_sequenzen,NI_Sequenzen,15,8,,,,,,,,,,,,
,Loop,flow.Loop,0_3_0_8_0,-999,completion,,226832,226843.62,226856.38,228874,2017.6199999999953,229006,2021-10-26T13:21:20.755Z,229014.52,1635254246,full,ni_sequenzen,NI_Sequenzen,,8,,,,,,,,,,,,
,Feedback,canvas.Screen,0_3_0_8_1,,timeout,,229014,229014.38,229014.52,233004.28,4016.360000000015,233006,2021-10-26T13:21:24.754Z,233030.88,1635254246,full,ni_sequenzen,NI_Sequenzen,,8,,,,,,,,,,,,
,Trial,flow.Sequence,0_3_0_8,,completion,,226824,226843.62,226856.38,233004.28,6147.899999999994,233006,2021-10-26T13:21:24.755Z,233037.56,1635254246,full,ni_sequenzen,NI_Sequenzen,,8,,,,,,,,,,,,
,Move,canvas.Screen,0_3_0_9_0_0,down,response,,233031,233030.88,233037.56,234124,1086.4400000000023,234132,2021-10-26T13:21:25.881Z,234147.5,1635254246,full,ni_sequenzen,NI_Sequenzen,1,9,,,,,,,,,,,,
,Move,canvas.Screen,0_3_0_9_0_1,left,response,,234147,234147.38,234147.5,234468,320.5,234482,2021-10-26T13:21:26.230Z,234499.96,1635254246,full,ni_sequenzen,NI_Sequenzen,2,9,,,,,,,,,,,,
,Move,canvas.Screen,0_3_0_9_0_2,down,response,,234500,234499.88,234499.96,234828,328.04000000000815,234843,2021-10-26T13:21:26.591Z,234861.36,1635254246,full,ni_sequenzen,NI_Sequenzen,3,9,,,,,,,,,,,,
,Move,canvas.Screen,0_3_0_9_0_3,left,response,,234862,234861.2,234861.36,235204,342.64000000001397,235205,2021-10-26T13:21:26.953Z,235332.68,1635254246,full,ni_sequenzen,NI_Sequenzen,4,9,,,,,,,,,,,,
,Move,canvas.Screen,0_3_0_9_0_4,-999,skipped,,235217,,,235204,,235217,2021-10-26T13:21:26.966Z,235332.68,1635254246,full,ni_sequenzen,NI_Sequenzen,5,9,,,,,,,,,,,,
,Move,canvas.Screen,0_3_0_9_0_5,-999,skipped,,235228,,,235204,,235228,2021-10-26T13:21:26.977Z,235332.68,1635254246,full,ni_sequenzen,NI_Sequenzen,6,9,,,,,,,,,,,,
,Move,canvas.Screen,0_3_0_9_0_6,-999,skipped,,235240,,,235204,,235240,2021-10-26T13:21:26.989Z,235332.68,1635254246,full,ni_sequenzen,NI_Sequenzen,7,9,,,,,,,,,,,,
,Move,canvas.Screen,0_3_0_9_0_7,-999,skipped,,235250,,,235204,,235250,2021-10-26T13:21:26.999Z,235332.68,1635254246,full,ni_sequenzen,NI_Sequenzen,8,9,,,,,,,,,,,,
,Move,canvas.Screen,0_3_0_9_0_8,-999,skipped,,235262,,,235204,,235262,2021-10-26T13:21:27.010Z,235332.68,1635254246,full,ni_sequenzen,NI_Sequenzen,9,9,,,,,,,,,,,,
,Move,canvas.Screen,0_3_0_9_0_9,-999,skipped,,235273,,,235204,,235273,2021-10-26T13:21:27.021Z,235332.68,1635254246,full,ni_sequenzen,NI_Sequenzen,10,9,,,,,,,,,,,,
,Move,canvas.Screen,0_3_0_9_0_10,-999,skipped,,235283,,,235204,,235283,2021-10-26T13:21:27.032Z,235332.68,1635254246,full,ni_sequenzen,NI_Sequenzen,11,9,,,,,,,,,,,,
,Move,canvas.Screen,0_3_0_9_0_11,-999,skipped,,235293,,,235204,,235293,2021-10-26T13:21:27.041Z,235332.68,1635254246,full,ni_sequenzen,NI_Sequenzen,12,9,,,,,,,,,,,,
,Move,canvas.Screen,0_3_0_9_0_12,-999,skipped,,235303,,,235204,,235303,2021-10-26T13:21:27.052Z,235332.68,1635254246,full,ni_sequenzen,NI_Sequenzen,13,9,,,,,,,,,,,,
,Move,canvas.Screen,0_3_0_9_0_13,-999,skipped,,235313,,,235204,,235313,2021-10-26T13:21:27.062Z,235332.68,1635254246,full,ni_sequenzen,NI_Sequenzen,14,9,,,,,,,,,,,,
,Move,canvas.Screen,0_3_0_9_0_14,-999,skipped,,235324,,,235204,,235324,2021-10-26T13:21:27.072Z,235332.68,1635254246,full,ni_sequenzen,NI_Sequenzen,15,9,,,,,,,,,,,,
,Loop,flow.Loop,0_3_0_9_0,-999,completion,,233017,233030.88,233037.56,235204,2166.4400000000023,235324,2021-10-26T13:21:27.072Z,235332.68,1635254246,full,ni_sequenzen,NI_Sequenzen,,9,,,,,,,,,,,,
,Feedback,canvas.Screen,0_3_0_9_1,,timeout,,235333,235332.48,235332.68,239318.78,4051.4800000000105,239320,2021-10-26T13:21:31.068Z,239384.16,1635254246,full,ni_sequenzen,NI_Sequenzen,,9,,,,,,,,,,,,
,Trial,flow.Sequence,0_3_0_9,,completion,,233007,233030.88,233037.56,239318.78,6281.220000000001,239320,2021-10-26T13:21:31.068Z,239385.44,1635254246,full,ni_sequenzen,NI_Sequenzen,,9,,,,,,,,,,,,
,Block,flow.Loop,0_3_0,,completion,,140802,140857.8,140857.94,239318.78,98460.84,239321,2021-10-26T13:21:31.069Z,239385.44,1635254246,full,ni_sequenzen,NI_Sequenzen,,,,,,,,,,,,,,
,Training_II,flow.Sequence,0_3,,completion,,140789,140857.8,140857.94,239318.78,98460.84,239321,2021-10-26T13:21:31.069Z,239385.44,1635254246,full,ni_sequenzen,NI_Sequenzen,,,,,,,,,,,,,,
,Screen_1,canvas.Screen,0_4_0_0,cont,response,1,239384,239384.16,239385.44,247765,8379.559999999998,247775,2021-10-26T13:21:39.524Z,247783.22,1635254246,full,ni_sequenzen,NI_Sequenzen,,,,,,,,,,,,,,
,Screen_2,canvas.Screen,0_4_0_1,cont,response,1,247783,247783.04,247783.22,263499,15715.779999999999,263516,2021-10-26T13:21:55.264Z,263627.12,1635254246,full,ni_sequenzen,NI_Sequenzen,,,,,,,,,,,,,,
,Screen_3,canvas.Screen,0_4_0_2,cont,response,1,263624,263624.94,263627.12,275937,12309.880000000005,275938,2021-10-26T13:22:07.687Z,276138.94,1635254246,full,ni_sequenzen,NI_Sequenzen,,,,,,,,,,,,,,
,Sequence,flow.Sequence,0_4_0,,completion,1,239342,239384.16,239385.44,275937,36551.56,275939,2021-10-26T13:22:07.687Z,276138.94,1635254246,full,ni_sequenzen,NI_Sequenzen,,,,,,,,,,,,,,
,Screen_1,canvas.Screen,0_4_1_0,,skipped,2,275943,,,275943,,275943,2021-10-26T13:22:07.691Z,276138.94,1635254246,full,ni_sequenzen,NI_Sequenzen,,,,,,,,,,,,,,
,Screen_2,canvas.Screen,0_4_1_1,,skipped,2,275946,,,275943,,275946,2021-10-26T13:22:07.695Z,276138.94,1635254246,full,ni_sequenzen,NI_Sequenzen,,,,,,,,,,,,,,
,Screen_3,canvas.Screen,0_4_1_2,,skipped,2,275950,,,275943,,275950,2021-10-26T13:22:07.699Z,276138.94,1635254246,full,ni_sequenzen,NI_Sequenzen,,,,,,,,,,,,,,
,Sequence,flow.Sequence,0_4_1,,completion,2,275940,,,275943,,275950,2021-10-26T13:22:07.699Z,276138.94,1635254246,full,ni_sequenzen,NI_Sequenzen,,,,,,,,,,,,,,
,Screen_1,canvas.Screen,0_4_2_0,,skipped,3,275953,,,275953,,275953,2021-10-26T13:22:07.702Z,276138.94,1635254246,full,ni_sequenzen,NI_Sequenzen,,,,,,,,,,,,,,
,Screen_2,canvas.Screen,0_4_2_1,,skipped,3,275955,,,275953,,275955,2021-10-26T13:22:07.703Z,276138.94,1635254246,full,ni_sequenzen,NI_Sequenzen,,,,,,,,,,,,,,
,Screen_3,canvas.Screen,0_4_2_2,,skipped,3,275957,,,275953,,275957,2021-10-26T13:22:07.707Z,276138.94,1635254246,full,ni_sequenzen,NI_Sequenzen,,,,,,,,,,,,,,
,Sequence,flow.Sequence,0_4_2,,completion,3,275951,,,275953,,275958,2021-10-26T13:22:07.707Z,276138.94,1635254246,full,ni_sequenzen,NI_Sequenzen,,,,,,,,,,,,,,
,Screen_1,canvas.Screen,0_4_3_0,,skipped,4,275960,,,275960,,275960,2021-10-26T13:22:07.708Z,276138.94,1635254246,full,ni_sequenzen,NI_Sequenzen,,,,,,,,,,,,,,
,Screen_2,canvas.Screen,0_4_3_1,,skipped,4,275962,,,275960,,275962,2021-10-26T13:22:07.710Z,276138.94,1635254246,full,ni_sequenzen,NI_Sequenzen,,,,,,,,,,,,,,
,Screen_3,canvas.Screen,0_4_3_2,,skipped,4,275964,,,275960,,275964,2021-10-26T13:22:07.712Z,276138.94,1635254246,full,ni_sequenzen,NI_Sequenzen,,,,,,,,,,,,,,
,Sequence,flow.Sequence,0_4_3,,completion,4,275959,,,275960,,275964,2021-10-26T13:22:07.712Z,276138.94,1635254246,full,ni_sequenzen,NI_Sequenzen,,,,,,,,,,,,,,
,Screen_1,canvas.Screen,0_4_4_0,,skipped,5,275966,,,275966,,275966,2021-10-26T13:22:07.715Z,276138.94,1635254246,full,ni_sequenzen,NI_Sequenzen,,,,,,,,,,,,,,
,Screen_2,canvas.Screen,0_4_4_1,,skipped,5,275968,,,275966,,275968,2021-10-26T13:22:07.717Z,276138.94,1635254246,full,ni_sequenzen,NI_Sequenzen,,,,,,,,,,,,,,
,Screen_3,canvas.Screen,0_4_4_2,,skipped,5,275970,,,275966,,275970,2021-10-26T13:22:07.719Z,276138.94,1635254246,full,ni_sequenzen,NI_Sequenzen,,,,,,,,,,,,,,
,Sequence,flow.Sequence,0_4_4,,completion,5,275964,,,275966,,275970,2021-10-26T13:22:07.719Z,276138.94,1635254246,full,ni_sequenzen,NI_Sequenzen,,,,,,,,,,,,,,
,Screen_1,canvas.Screen,0_4_5_0,,skipped,6,275973,,,275973,,275973,2021-10-26T13:22:07.721Z,276138.94,1635254246,full,ni_sequenzen,NI_Sequenzen,,,,,,,,,,,,,,
,Screen_2,canvas.Screen,0_4_5_1,,skipped,6,275974,,,275973,,275974,2021-10-26T13:22:07.723Z,276138.94,1635254246,full,ni_sequenzen,NI_Sequenzen,,,,,,,,,,,,,,
,Screen_3,canvas.Screen,0_4_5_2,,skipped,6,275976,,,275973,,275976,2021-10-26T13:22:07.725Z,276138.94,1635254246,full,ni_sequenzen,NI_Sequenzen,,,,,,,,,,,,,,
,Sequence,flow.Sequence,0_4_5,,completion,6,275971,,,275973,,275976,2021-10-26T13:22:07.725Z,276138.94,1635254246,full,ni_sequenzen,NI_Sequenzen,,,,,,,,,,,,,,
,Screen_1,canvas.Screen,0_4_6_0,,skipped,7,275979,,,275979,,275979,2021-10-26T13:22:07.728Z,276138.94,1635254246,full,ni_sequenzen,NI_Sequenzen,,,,,,,,,,,,,,
,Screen_2,canvas.Screen,0_4_6_1,,skipped,7,275981,,,275979,,275981,2021-10-26T13:22:07.730Z,276138.94,1635254246,full,ni_sequenzen,NI_Sequenzen,,,,,,,,,,,,,,
,Screen_3,canvas.Screen,0_4_6_2,,skipped,7,275982,,,275979,,275982,2021-10-26T13:22:07.731Z,276138.94,1635254246,full,ni_sequenzen,NI_Sequenzen,,,,,,,,,,,,,,
,Sequence,flow.Sequence,0_4_6,,completion,7,275977,,,275979,,275982,2021-10-26T13:22:07.731Z,276138.94,1635254246,full,ni_sequenzen,NI_Sequenzen,,,,,,,,,,,,,,
,Screen_1,canvas.Screen,0_4_7_0,,skipped,8,275984,,,275984,,275984,2021-10-26T13:22:07.733Z,276138.94,1635254246,full,ni_sequenzen,NI_Sequenzen,,,,,,,,,,,,,,
,Screen_2,canvas.Screen,0_4_7_1,,skipped,8,275987,,,275984,,275987,2021-10-26T13:22:07.736Z,276138.94,1635254246,full,ni_sequenzen,NI_Sequenzen,,,,,,,,,,,,,,
,Screen_3,canvas.Screen,0_4_7_2,,skipped,8,275988,,,275984,,275988,2021-10-26T13:22:07.738Z,276138.94,1635254246,full,ni_sequenzen,NI_Sequenzen,,,,,,,,,,,,,,
,Sequence,flow.Sequence,0_4_7,,completion,8,275983,,,275984,,275988,2021-10-26T13:22:07.738Z,276138.94,1635254246,full,ni_sequenzen,NI_Sequenzen,,,,,,,,,,,,,,
,Screen_1,canvas.Screen,0_4_8_0,,skipped,9,275990,,,275990,,275990,2021-10-26T13:22:07.740Z,276138.94,1635254246,full,ni_sequenzen,NI_Sequenzen,,,,,,,,,,,,,,
,Screen_2,canvas.Screen,0_4_8_1,,skipped,9,275992,,,275990,,275992,2021-10-26T13:22:07.742Z,276138.94,1635254246,full,ni_sequenzen,NI_Sequenzen,,,,,,,,,,,,,,
,Screen_3,canvas.Screen,0_4_8_2,,skipped,9,275994,,,275990,,275994,2021-10-26T13:22:07.744Z,276138.94,1635254246,full,ni_sequenzen,NI_Sequenzen,,,,,,,,,,,,,,
,Sequence,flow.Sequence,0_4_8,,completion,9,275989,,,275990,,275995,2021-10-26T13:22:07.744Z,276138.94,1635254246,full,ni_sequenzen,NI_Sequenzen,,,,,,,,,,,,,,
,Screen_1,canvas.Screen,0_4_9_0,,skipped,10,275998,,,275998,,275998,2021-10-26T13:22:07.747Z,276138.94,1635254246,full,ni_sequenzen,NI_Sequenzen,,,,,,,,,,,,,,
,Screen_2,canvas.Screen,0_4_9_1,,skipped,10,276000,,,275998,,276000,2021-10-26T13:22:07.748Z,276138.94,1635254246,full,ni_sequenzen,NI_Sequenzen,,,,,,,,,,,,,,
,Screen_3,canvas.Screen,0_4_9_2,,skipped,10,276002,,,275998,,276002,2021-10-26T13:22:07.750Z,276138.94,1635254246,full,ni_sequenzen,NI_Sequenzen,,,,,,,,,,,,,,
,Sequence,flow.Sequence,0_4_9,,completion,10,275996,,,275998,,276002,2021-10-26T13:22:07.750Z,276138.94,1635254246,full,ni_sequenzen,NI_Sequenzen,,,,,,,,,,,,,,
,Screen_1,canvas.Screen,0_4_10_0,,skipped,11,276004,,,276004,,276004,2021-10-26T13:22:07.753Z,276138.94,1635254246,full,ni_sequenzen,NI_Sequenzen,,,,,,,,,,,,,,
,Screen_2,canvas.Screen,0_4_10_1,,skipped,11,276007,,,276004,,276007,2021-10-26T13:22:07.755Z,276138.94,1635254246,full,ni_sequenzen,NI_Sequenzen,,,,,,,,,,,,,,
,Screen_3,canvas.Screen,0_4_10_2,,skipped,11,276009,,,276004,,276009,2021-10-26T13:22:07.757Z,276138.94,1635254246,full,ni_sequenzen,NI_Sequenzen,,,,,,,,,,,,,,
,Sequence,flow.Sequence,0_4_10,,completion,11,276003,,,276004,,276009,2021-10-26T13:22:07.757Z,276138.94,1635254246,full,ni_sequenzen,NI_Sequenzen,,,,,,,,,,,,,,
,Screen_1,canvas.Screen,0_4_11_0,,skipped,12,276011,,,276011,,276011,2021-10-26T13:22:07.759Z,276138.94,1635254246,full,ni_sequenzen,NI_Sequenzen,,,,,,,,,,,,,,
,Screen_2,canvas.Screen,0_4_11_1,,skipped,12,276012,,,276011,,276012,2021-10-26T13:22:07.761Z,276138.94,1635254246,full,ni_sequenzen,NI_Sequenzen,,,,,,,,,,,,,,
,Screen_3,canvas.Screen,0_4_11_2,,skipped,12,276014,,,276011,,276014,2021-10-26T13:22:07.763Z,276138.94,1635254246,full,ni_sequenzen,NI_Sequenzen,,,,,,,,,,,,,,
,Sequence,flow.Sequence,0_4_11,,completion,12,276009,,,276011,,276014,2021-10-26T13:22:07.763Z,276138.94,1635254246,full,ni_sequenzen,NI_Sequenzen,,,,,,,,,,,,,,
,Screen_1,canvas.Screen,0_4_12_0,,skipped,13,276017,,,276017,,276017,2021-10-26T13:22:07.766Z,276138.94,1635254246,full,ni_sequenzen,NI_Sequenzen,,,,,,,,,,,,,,
,Screen_2,canvas.Screen,0_4_12_1,,skipped,13,276019,,,276017,,276019,2021-10-26T13:22:07.768Z,276138.94,1635254246,full,ni_sequenzen,NI_Sequenzen,,,,,,,,,,,,,,
,Screen_3,canvas.Screen,0_4_12_2,,skipped,13,276021,,,276017,,276021,2021-10-26T13:22:07.770Z,276138.94,1635254246,full,ni_sequenzen,NI_Sequenzen,,,,,,,,,,,,,,
,Sequence,flow.Sequence,0_4_12,,completion,13,276015,,,276017,,276021,2021-10-26T13:22:07.770Z,276138.94,1635254246,full,ni_sequenzen,NI_Sequenzen,,,,,,,,,,,,,,
,Screen_1,canvas.Screen,0_4_13_0,,skipped,14,276024,,,276024,,276024,2021-10-26T13:22:07.773Z,276138.94,1635254246,full,ni_sequenzen,NI_Sequenzen,,,,,,,,,,,,,,
,Screen_2,canvas.Screen,0_4_13_1,,skipped,14,276026,,,276024,,276026,2021-10-26T13:22:07.775Z,276138.94,1635254246,full,ni_sequenzen,NI_Sequenzen,,,,,,,,,,,,,,
,Screen_3,canvas.Screen,0_4_13_2,,skipped,14,276028,,,276024,,276028,2021-10-26T13:22:07.777Z,276138.94,1635254246,full,ni_sequenzen,NI_Sequenzen,,,,,,,,,,,,,,
,Sequence,flow.Sequence,0_4_13,,completion,14,276023,,,276024,,276028,2021-10-26T13:22:07.777Z,276138.94,1635254246,full,ni_sequenzen,NI_Sequenzen,,,,,,,,,,,,,,
,Screen_1,canvas.Screen,0_4_14_0,,skipped,15,276030,,,276030,,276030,2021-10-26T13:22:07.778Z,276138.94,1635254246,full,ni_sequenzen,NI_Sequenzen,,,,,,,,,,,,,,
,Screen_2,canvas.Screen,0_4_14_1,,skipped,15,276032,,,276030,,276032,2021-10-26T13:22:07.780Z,276138.94,1635254246,full,ni_sequenzen,NI_Sequenzen,,,,,,,,,,,,,,
,Screen_3,canvas.Screen,0_4_14_2,,skipped,15,276033,,,276030,,276033,2021-10-26T13:22:07.781Z,276138.94,1635254246,full,ni_sequenzen,NI_Sequenzen,,,,,,,,,,,,,,
,Sequence,flow.Sequence,0_4_14,,completion,15,276029,,,276030,,276033,2021-10-26T13:22:07.781Z,276138.94,1635254246,full,ni_sequenzen,NI_Sequenzen,,,,,,,,,,,,,,
,Screen_1,canvas.Screen,0_4_15_0,,skipped,16,276036,,,276036,,276036,2021-10-26T13:22:07.784Z,276138.94,1635254246,full,ni_sequenzen,NI_Sequenzen,,,,,,,,,,,,,,
,Screen_2,canvas.Screen,0_4_15_1,,skipped,16,276037,,,276036,,276038,2021-10-26T13:22:07.786Z,276138.94,1635254246,full,ni_sequenzen,NI_Sequenzen,,,,,,,,,,,,,,
,Screen_3,canvas.Screen,0_4_15_2,,skipped,16,276039,,,276036,,276039,2021-10-26T13:22:07.788Z,276138.94,1635254246,full,ni_sequenzen,NI_Sequenzen,,,,,,,,,,,,,,
,Sequence,flow.Sequence,0_4_15,,completion,16,276034,,,276036,,276039,2021-10-26T13:22:07.788Z,276138.94,1635254246,full,ni_sequenzen,NI_Sequenzen,,,,,,,,,,,,,,
,Screen_1,canvas.Screen,0_4_16_0,,skipped,17,276041,,,276041,,276041,2021-10-26T13:22:07.790Z,276138.94,1635254246,full,ni_sequenzen,NI_Sequenzen,,,,,,,,,,,,,,
,Screen_2,canvas.Screen,0_4_16_1,,skipped,17,276043,,,276041,,276043,2021-10-26T13:22:07.791Z,276138.94,1635254246,full,ni_sequenzen,NI_Sequenzen,,,,,,,,,,,,,,
,Screen_3,canvas.Screen,0_4_16_2,,skipped,17,276045,,,276041,,276045,2021-10-26T13:22:07.793Z,276138.94,1635254246,full,ni_sequenzen,NI_Sequenzen,,,,,,,,,,,,,,
,Sequence,flow.Sequence,0_4_16,,completion,17,276039,,,276041,,276045,2021-10-26T13:22:07.793Z,276138.94,1635254246,full,ni_sequenzen,NI_Sequenzen,,,,,,,,,,,,,,
,Screen_1,canvas.Screen,0_4_17_0,,skipped,18,276047,,,276047,,276047,2021-10-26T13:22:07.796Z,276138.94,1635254246,full,ni_sequenzen,NI_Sequenzen,,,,,,,,,,,,,,
