meta,sender,sender_type,sender_id,response,ended_on,instrCount,time_run,time_render,time_show,time_end,duration,time_commit,timestamp,time_switch,openLabId,type,task,project,move,trialN,blockN_Train,blockN,moveCount,currPP,points,movesTrial,visitedFields,diff,reward,Strategie,Zweck,Probleme
[object Object],Screen_1,canvas.Screen,0_0_0_0,cont,response,1,293.5,296.13,312.83,19034.600000023842,18721.77000002384,19038.5,2021-10-27T10:30:14.784Z,19062.022,1635330586,full,ni_sequenzen,NI_Sequenzen,,,,,,,,,,,,,,
,Screen_2,canvas.Screen,0_0_0_1,cont,response,1,19058.799999952316,19045.413,19062.022,39874.200000047684,20812.178000047683,39875.10000002384,2021-10-27T10:30:35.621Z,39911.2,1635330586,full,ni_sequenzen,NI_Sequenzen,,,,,,,,,,,,,,
,Screen_3,canvas.Screen,0_0_0_2,cont,response,1,39894.299999952316,39894.636,39911.2,235916.60000002384,196005.40000002383,235917.70000004768,2021-10-27T10:33:51.662Z,235936.212,1635330586,full,ni_sequenzen,NI_Sequenzen,,,,,,,,,,,,,,
,Screen_4,canvas.Screen,0_0_0_3,cont,response,1,235921,235908.293,235936.212,248633.10000002384,12696.888000023842,248633.79999995232,2021-10-27T10:34:04.378Z,248702.19,1635330586,full,ni_sequenzen,NI_Sequenzen,,,,,,,,,,,,,,
,Sequence,flow.Sequence,0_0_0,,completion,1,279.89999997615814,296.13,312.83,248633.10000002384,248320.27000002385,248638.10000002384,2021-10-27T10:34:04.382Z,248702.19,1635330586,full,ni_sequenzen,NI_Sequenzen,,,,,,,,,,,,,,
,Screen_1,canvas.Screen,0_0_1_0,,skipped,2,248641,,,248641,,248641.20000004768,2021-10-27T10:34:04.385Z,248702.19,1635330586,full,ni_sequenzen,NI_Sequenzen,,,,,,,,,,,,,,
,Screen_2,canvas.Screen,0_0_1_1,,skipped,2,248642.5,,,248641,,248642.60000002384,2021-10-27T10:34:04.387Z,248702.19,1635330586,full,ni_sequenzen,NI_Sequenzen,,,,,,,,,,,,,,
,Screen_3,canvas.Screen,0_0_1_2,,skipped,2,248644.10000002384,,,248641,,248644.29999995232,2021-10-27T10:34:04.389Z,248702.19,1635330586,full,ni_sequenzen,NI_Sequenzen,,,,,,,,,,,,,,
,Screen_4,canvas.Screen,0_0_1_3,,skipped,2,248645.79999995232,,,248641,,248646.10000002384,2021-10-27T10:34:04.390Z,248702.19,1635330586,full,ni_sequenzen,NI_Sequenzen,,,,,,,,,,,,,,
,Sequence,flow.Sequence,0_0_1,,completion,2,248639.10000002384,,,248641,,248646.29999995232,2021-10-27T10:34:04.391Z,248702.19,1635330586,full,ni_sequenzen,NI_Sequenzen,,,,,,,,,,,,,,
,Screen_1,canvas.Screen,0_0_2_0,,skipped,3,248647.5,,,248647.5,,248647.60000002384,2021-10-27T10:34:04.392Z,248702.19,1635330586,full,ni_sequenzen,NI_Sequenzen,,,,,,,,,,,,,,
,Screen_2,canvas.Screen,0_0_2_1,,skipped,3,248648.5,,,248647.5,,248648.60000002384,2021-10-27T10:34:04.393Z,248702.19,1635330586,full,ni_sequenzen,NI_Sequenzen,,,,,,,,,,,,,,
,Screen_3,canvas.Screen,0_0_2_2,,skipped,3,248649.5,,,248647.5,,248649.5,2021-10-27T10:34:04.394Z,248702.19,1635330586,full,ni_sequenzen,NI_Sequenzen,,,,,,,,,,,,,,
,Screen_4,canvas.Screen,0_0_2_3,,skipped,3,248650,,,248647.5,,248650.10000002384,2021-10-27T10:34:04.394Z,248702.19,1635330586,full,ni_sequenzen,NI_Sequenzen,,,,,,,,,,,,,,
,Sequence,flow.Sequence,0_0_2,,completion,3,248646.79999995232,,,248647.5,,248650.29999995232,2021-10-27T10:34:04.395Z,248702.19,1635330586,full,ni_sequenzen,NI_Sequenzen,,,,,,,,,,,,,,
,Screen_1,canvas.Screen,0_0_3_0,,skipped,4,248651,,,248651,,248651,2021-10-27T10:34:04.395Z,248702.19,1635330586,full,ni_sequenzen,NI_Sequenzen,,,,,,,,,,,,,,
,Screen_2,canvas.Screen,0_0_3_1,,skipped,4,248651.60000002384,,,248651,,248652.29999995232,2021-10-27T10:34:04.397Z,248702.19,1635330586,full,ni_sequenzen,NI_Sequenzen,,,,,,,,,,,,,,
,Screen_3,canvas.Screen,0_0_3_2,,skipped,4,248656,,,248651,,248656.10000002384,2021-10-27T10:34:04.400Z,248702.19,1635330586,full,ni_sequenzen,NI_Sequenzen,,,,,,,,,,,,,,
,Screen_4,canvas.Screen,0_0_3_3,,skipped,4,248656.70000004768,,,248651,,248656.79999995232,2021-10-27T10:34:04.401Z,248702.19,1635330586,full,ni_sequenzen,NI_Sequenzen,,,,,,,,,,,,,,
,Sequence,flow.Sequence,0_0_3,,completion,4,248650.5,,,248651,,248656.89999997616,2021-10-27T10:34:04.401Z,248702.19,1635330586,full,ni_sequenzen,NI_Sequenzen,,,,,,,,,,,,,,
,Screen_1,canvas.Screen,0_0_4_0,,skipped,5,248657.39999997616,,,248657.5,,248657.5,2021-10-27T10:34:04.402Z,248702.19,1635330586,full,ni_sequenzen,NI_Sequenzen,,,,,,,,,,,,,,
,Screen_2,canvas.Screen,0_0_4_1,,skipped,5,248657.79999995232,,,248657.5,,248657.89999997616,2021-10-27T10:34:04.402Z,248702.19,1635330586,full,ni_sequenzen,NI_Sequenzen,,,,,,,,,,,,,,
,Screen_3,canvas.Screen,0_0_4_2,,skipped,5,248658.29999995232,,,248657.5,,248658.29999995232,2021-10-27T10:34:04.403Z,248702.19,1635330586,full,ni_sequenzen,NI_Sequenzen,,,,,,,,,,,,,,
,Screen_4,canvas.Screen,0_0_4_3,,skipped,5,248658.79999995232,,,248657.5,,248658.79999995232,2021-10-27T10:34:04.403Z,248702.19,1635330586,full,ni_sequenzen,NI_Sequenzen,,,,,,,,,,,,,,
,Sequence,flow.Sequence,0_0_4,,completion,5,248657,,,248657.5,,248658.89999997616,2021-10-27T10:34:04.403Z,248702.19,1635330586,full,ni_sequenzen,NI_Sequenzen,,,,,,,,,,,,,,
,Screen_1,canvas.Screen,0_0_5_0,,skipped,6,248659.29999995232,,,248659.29999995232,,248659.29999995232,2021-10-27T10:34:04.404Z,248702.19,1635330586,full,ni_sequenzen,NI_Sequenzen,,,,,,,,,,,,,,
,Screen_2,canvas.Screen,0_0_5_1,,skipped,6,248659.5,,,248659.29999995232,,248659.5,2021-10-27T10:34:04.404Z,248702.19,1635330586,full,ni_sequenzen,NI_Sequenzen,,,,,,,,,,,,,,
,Screen_3,canvas.Screen,0_0_5_2,,skipped,6,248659.79999995232,,,248659.29999995232,,248659.89999997616,2021-10-27T10:34:04.404Z,248702.19,1635330586,full,ni_sequenzen,NI_Sequenzen,,,,,,,,,,,,,,
,Screen_4,canvas.Screen,0_0_5_3,,skipped,6,248660.20000004768,,,248659.29999995232,,248660.20000004768,2021-10-27T10:34:04.404Z,248702.19,1635330586,full,ni_sequenzen,NI_Sequenzen,,,,,,,,,,,,,,
,Sequence,flow.Sequence,0_0_5,,completion,6,248659,,,248659.29999995232,,248660.20000004768,2021-10-27T10:34:04.404Z,248702.19,1635330586,full,ni_sequenzen,NI_Sequenzen,,,,,,,,,,,,,,
,Screen_1,canvas.Screen,0_0_6_0,,skipped,7,248660.5,,,248660.5,,248660.5,2021-10-27T10:34:04.405Z,248702.19,1635330586,full,ni_sequenzen,NI_Sequenzen,,,,,,,,,,,,,,
,Screen_2,canvas.Screen,0_0_6_1,,skipped,7,248660.89999997616,,,248660.5,,248660.89999997616,2021-10-27T10:34:04.405Z,248702.19,1635330586,full,ni_sequenzen,NI_Sequenzen,,,,,,,,,,,,,,
,Screen_3,canvas.Screen,0_0_6_2,,skipped,7,248661.20000004768,,,248660.5,,248661.20000004768,2021-10-27T10:34:04.405Z,248702.19,1635330586,full,ni_sequenzen,NI_Sequenzen,,,,,,,,,,,,,,
,Screen_4,canvas.Screen,0_0_6_3,,skipped,7,248661.5,,,248660.5,,248661.5,2021-10-27T10:34:04.406Z,248702.19,1635330586,full,ni_sequenzen,NI_Sequenzen,,,,,,,,,,,,,,
,Sequence,flow.Sequence,0_0_6,,completion,7,248660.29999995232,,,248660.5,,248661.5,2021-10-27T10:34:04.406Z,248702.19,1635330586,full,ni_sequenzen,NI_Sequenzen,,,,,,,,,,,,,,
,Screen_1,canvas.Screen,0_0_7_0,,skipped,8,248661.89999997616,,,248661.89999997616,,248661.89999997616,2021-10-27T10:34:04.406Z,248702.19,1635330586,full,ni_sequenzen,NI_Sequenzen,,,,,,,,,,,,,,
,Screen_2,canvas.Screen,0_0_7_1,,skipped,8,248662.79999995232,,,248661.89999997616,,248662.79999995232,2021-10-27T10:34:04.407Z,248702.19,1635330586,full,ni_sequenzen,NI_Sequenzen,,,,,,,,,,,,,,
,Screen_3,canvas.Screen,0_0_7_2,,skipped,8,248663.20000004768,,,248661.89999997616,,248663.29999995232,2021-10-27T10:34:04.408Z,248702.19,1635330586,full,ni_sequenzen,NI_Sequenzen,,,,,,,,,,,,,,
,Screen_4,canvas.Screen,0_0_7_3,,skipped,8,248663.79999995232,,,248661.89999997616,,248663.89999997616,2021-10-27T10:34:04.408Z,248702.19,1635330586,full,ni_sequenzen,NI_Sequenzen,,,,,,,,,,,,,,
,Sequence,flow.Sequence,0_0_7,,completion,8,248661.60000002384,,,248661.89999997616,,248663.89999997616,2021-10-27T10:34:04.408Z,248702.19,1635330586,full,ni_sequenzen,NI_Sequenzen,,,,,,,,,,,,,,
,Screen_1,canvas.Screen,0_0_8_0,,skipped,9,248664.70000004768,,,248664.70000004768,,248664.70000004768,2021-10-27T10:34:04.409Z,248702.19,1635330586,full,ni_sequenzen,NI_Sequenzen,,,,,,,,,,,,,,
,Screen_2,canvas.Screen,0_0_8_1,,skipped,9,248665,,,248664.70000004768,,248665,2021-10-27T10:34:04.409Z,248702.19,1635330586,full,ni_sequenzen,NI_Sequenzen,,,,,,,,,,,,,,
,Screen_3,canvas.Screen,0_0_8_2,,skipped,9,248665.39999997616,,,248664.70000004768,,248665.5,2021-10-27T10:34:04.410Z,248702.19,1635330586,full,ni_sequenzen,NI_Sequenzen,,,,,,,,,,,,,,
,Screen_4,canvas.Screen,0_0_8_3,,skipped,9,248665.79999995232,,,248664.70000004768,,248665.89999997616,2021-10-27T10:34:04.410Z,248702.19,1635330586,full,ni_sequenzen,NI_Sequenzen,,,,,,,,,,,,,,
,Sequence,flow.Sequence,0_0_8,,completion,9,248664.20000004768,,,248664.70000004768,,248665.89999997616,2021-10-27T10:34:04.410Z,248702.19,1635330586,full,ni_sequenzen,NI_Sequenzen,,,,,,,,,,,,,,
,Screen_1,canvas.Screen,0_0_9_0,,skipped,10,248666.5,,,248666.5,,248666.60000002384,2021-10-27T10:34:04.411Z,248702.19,1635330586,full,ni_sequenzen,NI_Sequenzen,,,,,,,,,,,,,,
,Screen_2,canvas.Screen,0_0_9_1,,skipped,10,248666.89999997616,,,248666.5,,248666.89999997616,2021-10-27T10:34:04.411Z,248702.19,1635330586,full,ni_sequenzen,NI_Sequenzen,,,,,,,,,,,,,,
,Screen_3,canvas.Screen,0_0_9_2,,skipped,10,248667.29999995232,,,248666.5,,248667.39999997616,2021-10-27T10:34:04.412Z,248702.19,1635330586,full,ni_sequenzen,NI_Sequenzen,,,,,,,,,,,,,,
,Screen_4,canvas.Screen,0_0_9_3,,skipped,10,248667.70000004768,,,248666.5,,248667.70000004768,2021-10-27T10:34:04.412Z,248702.19,1635330586,full,ni_sequenzen,NI_Sequenzen,,,,,,,,,,,,,,
,Sequence,flow.Sequence,0_0_9,,completion,10,248666.10000002384,,,248666.5,,248667.70000004768,2021-10-27T10:34:04.412Z,248702.19,1635330586,full,ni_sequenzen,NI_Sequenzen,,,,,,,,,,,,,,
,Screen_1,canvas.Screen,0_0_10_0,,skipped,11,248668.10000002384,,,248668.10000002384,,248668.10000002384,2021-10-27T10:34:04.412Z,248702.19,1635330586,full,ni_sequenzen,NI_Sequenzen,,,,,,,,,,,,,,
,Screen_2,canvas.Screen,0_0_10_1,,skipped,11,248668.39999997616,,,248668.10000002384,,248668.39999997616,2021-10-27T10:34:04.413Z,248702.19,1635330586,full,ni_sequenzen,NI_Sequenzen,,,,,,,,,,,,,,
,Screen_3,canvas.Screen,0_0_10_2,,skipped,11,248669.20000004768,,,248668.10000002384,,248669.20000004768,2021-10-27T10:34:04.413Z,248702.19,1635330586,full,ni_sequenzen,NI_Sequenzen,,,,,,,,,,,,,,
,Screen_4,canvas.Screen,0_0_10_3,,skipped,11,248669.5,,,248668.10000002384,,248669.5,2021-10-27T10:34:04.414Z,248702.19,1635330586,full,ni_sequenzen,NI_Sequenzen,,,,,,,,,,,,,,
,Sequence,flow.Sequence,0_0_10,,completion,11,248667.89999997616,,,248668.10000002384,,248669.60000002384,2021-10-27T10:34:04.414Z,248702.19,1635330586,full,ni_sequenzen,NI_Sequenzen,,,,,,,,,,,,,,
,Screen_1,canvas.Screen,0_0_11_0,,skipped,12,248671,,,248671,,248671.10000002384,2021-10-27T10:34:04.415Z,248702.19,1635330586,full,ni_sequenzen,NI_Sequenzen,,,,,,,,,,,,,,
,Screen_2,canvas.Screen,0_0_11_1,,skipped,12,248671.5,,,248671,,248671.60000002384,2021-10-27T10:34:04.416Z,248702.19,1635330586,full,ni_sequenzen,NI_Sequenzen,,,,,,,,,,,,,,
,Screen_3,canvas.Screen,0_0_11_2,,skipped,12,248672.10000002384,,,248671,,248672.10000002384,2021-10-27T10:34:04.416Z,248702.19,1635330586,full,ni_sequenzen,NI_Sequenzen,,,,,,,,,,,,,,
,Screen_4,canvas.Screen,0_0_11_3,,skipped,12,248672.39999997616,,,248671,,248672.39999997616,2021-10-27T10:34:04.417Z,248702.19,1635330586,full,ni_sequenzen,NI_Sequenzen,,,,,,,,,,,,,,
,Sequence,flow.Sequence,0_0_11,,completion,12,248670,,,248671,,248672.5,2021-10-27T10:34:04.417Z,248702.19,1635330586,full,ni_sequenzen,NI_Sequenzen,,,,,,,,,,,,,,
,Screen_1,canvas.Screen,0_0_12_0,,skipped,13,248673,,,248673,,248673,2021-10-27T10:34:04.417Z,248702.19,1635330586,full,ni_sequenzen,NI_Sequenzen,,,,,,,,,,,,,,
,Screen_2,canvas.Screen,0_0_12_1,,skipped,13,248673.29999995232,,,248673,,248673.29999995232,2021-10-27T10:34:04.418Z,248702.19,1635330586,full,ni_sequenzen,NI_Sequenzen,,,,,,,,,,,,,,
,Screen_3,canvas.Screen,0_0_12_2,,skipped,13,248673.60000002384,,,248673,,248673.70000004768,2021-10-27T10:34:04.418Z,248702.19,1635330586,full,ni_sequenzen,NI_Sequenzen,,,,,,,,,,,,,,
,Screen_4,canvas.Screen,0_0_12_3,,skipped,13,248674,,,248673,,248674,2021-10-27T10:34:04.418Z,248702.19,1635330586,full,ni_sequenzen,NI_Sequenzen,,,,,,,,,,,,,,
,Sequence,flow.Sequence,0_0_12,,completion,13,248672.60000002384,,,248673,,248674.10000002384,2021-10-27T10:34:04.418Z,248702.19,1635330586,full,ni_sequenzen,NI_Sequenzen,,,,,,,,,,,,,,
,Screen_1,canvas.Screen,0_0_13_0,,skipped,14,248674.5,,,248674.5,,248674.60000002384,2021-10-27T10:34:04.419Z,248702.19,1635330586,full,ni_sequenzen,NI_Sequenzen,,,,,,,,,,,,,,
,Screen_2,canvas.Screen,0_0_13_1,,skipped,14,248674.79999995232,,,248674.5,,248674.79999995232,2021-10-27T10:34:04.419Z,248702.19,1635330586,full,ni_sequenzen,NI_Sequenzen,,,,,,,,,,,,,,
,Screen_3,canvas.Screen,0_0_13_2,,skipped,14,248675.29999995232,,,248674.5,,248675.29999995232,2021-10-27T10:34:04.420Z,248702.19,1635330586,full,ni_sequenzen,NI_Sequenzen,,,,,,,,,,,,,,
,Screen_4,canvas.Screen,0_0_13_3,,skipped,14,248676,,,248674.5,,248676,2021-10-27T10:34:04.420Z,248702.19,1635330586,full,ni_sequenzen,NI_Sequenzen,,,,,,,,,,,,,,
,Sequence,flow.Sequence,0_0_13,,completion,14,248674.10000002384,,,248674.5,,248676,2021-10-27T10:34:04.420Z,248702.19,1635330586,full,ni_sequenzen,NI_Sequenzen,,,,,,,,,,,,,,
,Screen_1,canvas.Screen,0_0_14_0,,skipped,15,248676.60000002384,,,248676.60000002384,,248676.60000002384,2021-10-27T10:34:04.421Z,248702.19,1635330586,full,ni_sequenzen,NI_Sequenzen,,,,,,,,,,,,,,
,Screen_2,canvas.Screen,0_0_14_1,,skipped,15,248676.89999997616,,,248676.60000002384,,248677,2021-10-27T10:34:04.421Z,248702.19,1635330586,full,ni_sequenzen,NI_Sequenzen,,,,,,,,,,,,,,
,Screen_3,canvas.Screen,0_0_14_2,,skipped,15,248677.20000004768,,,248676.60000002384,,248677.20000004768,2021-10-27T10:34:04.422Z,248702.19,1635330586,full,ni_sequenzen,NI_Sequenzen,,,,,,,,,,,,,,
,Screen_4,canvas.Screen,0_0_14_3,,skipped,15,248677.5,,,248676.60000002384,,248677.60000002384,2021-10-27T10:34:04.422Z,248702.19,1635330586,full,ni_sequenzen,NI_Sequenzen,,,,,,,,,,,,,,
,Sequence,flow.Sequence,0_0_14,,completion,15,248676.20000004768,,,248676.60000002384,,248677.60000002384,2021-10-27T10:34:04.422Z,248702.19,1635330586,full,ni_sequenzen,NI_Sequenzen,,,,,,,,,,,,,,
,Screen_1,canvas.Screen,0_0_15_0,,skipped,16,248678,,,248678,,248678,2021-10-27T10:34:04.422Z,248702.19,1635330586,full,ni_sequenzen,NI_Sequenzen,,,,,,,,,,,,,,
,Screen_2,canvas.Screen,0_0_15_1,,skipped,16,248678.5,,,248678,,248678.5,2021-10-27T10:34:04.423Z,248702.19,1635330586,full,ni_sequenzen,NI_Sequenzen,,,,,,,,,,,,,,
,Screen_3,canvas.Screen,0_0_15_2,,skipped,16,248679.29999995232,,,248678,,248679.29999995232,2021-10-27T10:34:04.424Z,248702.19,1635330586,full,ni_sequenzen,NI_Sequenzen,,,,,,,,,,,,,,
,Screen_4,canvas.Screen,0_0_15_3,,skipped,16,248679.70000004768,,,248678,,248679.70000004768,2021-10-27T10:34:04.424Z,248702.19,1635330586,full,ni_sequenzen,NI_Sequenzen,,,,,,,,,,,,,,
,Sequence,flow.Sequence,0_0_15,,completion,16,248677.70000004768,,,248678,,248679.70000004768,2021-10-27T10:34:04.424Z,248702.19,1635330586,full,ni_sequenzen,NI_Sequenzen,,,,,,,,,,,,,,
,Screen_1,canvas.Screen,0_0_16_0,,skipped,17,248680.10000002384,,,248680.20000004768,,248680.20000004768,2021-10-27T10:34:04.424Z,248702.19,1635330586,full,ni_sequenzen,NI_Sequenzen,,,,,,,,,,,,,,
,Screen_2,canvas.Screen,0_0_16_1,,skipped,17,248680.60000002384,,,248680.20000004768,,248680.60000002384,2021-10-27T10:34:04.425Z,248702.19,1635330586,full,ni_sequenzen,NI_Sequenzen,,,,,,,,,,,,,,
,Screen_3,canvas.Screen,0_0_16_2,,skipped,17,248680.89999997616,,,248680.20000004768,,248680.89999997616,2021-10-27T10:34:04.425Z,248702.19,1635330586,full,ni_sequenzen,NI_Sequenzen,,,,,,,,,,,,,,
,Screen_4,canvas.Screen,0_0_16_3,,skipped,17,248681.20000004768,,,248680.20000004768,,248681.20000004768,2021-10-27T10:34:04.426Z,248702.19,1635330586,full,ni_sequenzen,NI_Sequenzen,,,,,,,,,,,,,,
,Sequence,flow.Sequence,0_0_16,,completion,17,248679.89999997616,,,248680.20000004768,,248681.29999995232,2021-10-27T10:34:04.426Z,248702.19,1635330586,full,ni_sequenzen,NI_Sequenzen,,,,,,,,,,,,,,
,Screen_1,canvas.Screen,0_0_17_0,,skipped,18,248681.70000004768,,,248681.70000004768,,248681.70000004768,2021-10-27T10:34:04.426Z,248702.19,1635330586,full,ni_sequenzen,NI_Sequenzen,,,,,,,,,,,,,,
,Screen_2,canvas.Screen,0_0_17_1,,skipped,18,248682.70000004768,,,248681.70000004768,,248682.79999995232,2021-10-27T10:34:04.427Z,248702.19,1635330586,full,ni_sequenzen,NI_Sequenzen,,,,,,,,,,,,,,
,Screen_3,canvas.Screen,0_0_17_2,,skipped,18,248683.20000004768,,,248681.70000004768,,248683.20000004768,2021-10-27T10:34:04.428Z,248702.19,1635330586,full,ni_sequenzen,NI_Sequenzen,,,,,,,,,,,,,,
,Screen_4,canvas.Screen,0_0_17_3,,skipped,18,248683.60000002384,,,248681.70000004768,,248683.60000002384,2021-10-27T10:34:04.428Z,248702.19,1635330586,full,ni_sequenzen,NI_Sequenzen,,,,,,,,,,,,,,
,Sequence,flow.Sequence,0_0_17,,completion,18,248681.39999997616,,,248681.70000004768,,248683.79999995232,2021-10-27T10:34:04.428Z,248702.19,1635330586,full,ni_sequenzen,NI_Sequenzen,,,,,,,,,,,,,,
,Screen_1,canvas.Screen,0_0_18_0,,skipped,19,248684.29999995232,,,248684.29999995232,,248684.29999995232,2021-10-27T10:34:04.429Z,248702.19,1635330586,full,ni_sequenzen,NI_Sequenzen,,,,,,,,,,,,,,
,Screen_2,canvas.Screen,0_0_18_1,,skipped,19,248684.70000004768,,,248684.29999995232,,248684.70000004768,2021-10-27T10:34:04.429Z,248702.19,1635330586,full,ni_sequenzen,NI_Sequenzen,,,,,,,,,,,,,,
,Screen_3,canvas.Screen,0_0_18_2,,skipped,19,248685.10000002384,,,248684.29999995232,,248685.10000002384,2021-10-27T10:34:04.429Z,248702.19,1635330586,full,ni_sequenzen,NI_Sequenzen,,,,,,,,,,,,,,
,Screen_4,canvas.Screen,0_0_18_3,,skipped,19,248685.60000002384,,,248684.29999995232,,248685.70000004768,2021-10-27T10:34:04.430Z,248702.19,1635330586,full,ni_sequenzen,NI_Sequenzen,,,,,,,,,,,,,,
,Sequence,flow.Sequence,0_0_18,,completion,19,248683.89999997616,,,248684.29999995232,,248685.79999995232,2021-10-27T10:34:04.430Z,248702.19,1635330586,full,ni_sequenzen,NI_Sequenzen,,,,,,,,,,,,,,
,Screen_1,canvas.Screen,0_0_19_0,,skipped,20,248686.29999995232,,,248686.29999995232,,248686.39999997616,2021-10-27T10:34:04.431Z,248702.19,1635330586,full,ni_sequenzen,NI_Sequenzen,,,,,,,,,,,,,,
,Screen_2,canvas.Screen,0_0_19_1,,skipped,20,248686.70000004768,,,248686.29999995232,,248686.70000004768,2021-10-27T10:34:04.431Z,248702.19,1635330586,full,ni_sequenzen,NI_Sequenzen,,,,,,,,,,,,,,
,Screen_3,canvas.Screen,0_0_19_2,,skipped,20,248687.20000004768,,,248686.29999995232,,248687.20000004768,2021-10-27T10:34:04.431Z,248702.19,1635330586,full,ni_sequenzen,NI_Sequenzen,,,,,,,,,,,,,,
,Screen_4,canvas.Screen,0_0_19_3,,skipped,20,248687.5,,,248686.29999995232,,248687.5,2021-10-27T10:34:04.432Z,248702.19,1635330586,full,ni_sequenzen,NI_Sequenzen,,,,,,,,,,,,,,
,Sequence,flow.Sequence,0_0_19,,completion,20,248685.89999997616,,,248686.29999995232,,248687.60000002384,2021-10-27T10:34:04.432Z,248702.19,1635330586,full,ni_sequenzen,NI_Sequenzen,,,,,,,,,,,,,,
,Instructions_I,flow.Loop,0_0,,completion,,279.2000000476837,296.13,312.83,248686.29999995232,248373.46999995233,248687.70000004768,2021-10-27T10:34:04.432Z,248702.19,1635330586,full,ni_sequenzen,NI_Sequenzen,,,,,,,,,,,,,,
,Move,canvas.Screen,0_1_0_0,right,response,,248694.10000002384,248684.82,248702.19,249751.29999995232,1049.109999952314,249752.39999997616,2021-10-27T10:34:05.497Z,249768.958,1635330586,full,ni_sequenzen,NI_Sequenzen,1,,,,,,,,,,,,,
,Move,canvas.Screen,0_1_0_1,right,response,,249757,249752.075,249768.958,250442.70000004768,673.7420000476704,250443.60000002384,2021-10-27T10:34:06.188Z,250451.956,1635330586,full,ni_sequenzen,NI_Sequenzen,2,,,,,,,,,,,,,
,Move,canvas.Screen,0_1_0_2,left,response,,250447.70000004768,250435.378,250451.956,251189.70000004768,737.7440000476781,251190.79999995232,2021-10-27T10:34:06.935Z,251201.993,1635330586,full,ni_sequenzen,NI_Sequenzen,3,,,,,,,,,,,,,
,Move,canvas.Screen,0_1_0_3,down,response,,251193,251185.61,251201.993,254944.39999997616,3742.4069999761705,254945.29999995232,2021-10-27T10:34:10.690Z,254951.788,1635330586,full,ni_sequenzen,NI_Sequenzen,4,,,,,,,,,,,,,
,Move,canvas.Screen,0_1_0_4,down,response,,254947.39999997616,254935.063,254951.788,255498.39999997616,546.6119999761577,255499.5,2021-10-27T10:34:11.244Z,255535.463,1635330586,full,ni_sequenzen,NI_Sequenzen,5,,,,,,,,,,,,,
,Move,canvas.Screen,0_1_0_5,left,response,,255501.39999997616,255518.816,255535.463,255985.89999997616,450.4369999761693,255986.79999995232,2021-10-27T10:34:11.731Z,256002.03,1635330586,full,ni_sequenzen,NI_Sequenzen,6,,,,,,,,,,,,,
,Move,canvas.Screen,0_1_0_6,down,response,,255989.20000004768,255985.197,256002.03,256555.70000004768,553.6700000476849,256556.39999997616,2021-10-27T10:34:12.301Z,256568.695,1635330586,full,ni_sequenzen,NI_Sequenzen,7,,,,,,,,,,,,,
,Move,canvas.Screen,0_1_0_7,down,response,,256558.29999995232,256551.839,256568.695,257044.5,475.804999999993,257045.39999997616,2021-10-27T10:34:12.790Z,257051.667,1635330586,full,ni_sequenzen,NI_Sequenzen,8,,,,,,,,,,,,,
,Move,canvas.Screen,0_1_0_8,left,response,,257047.29999995232,257035.176,257051.667,257493.79999995232,442.13299995232956,257494.60000002384,2021-10-27T10:34:13.239Z,257501.701,1635330586,full,ni_sequenzen,NI_Sequenzen,9,,,,,,,,,,,,,
,Move,canvas.Screen,0_1_0_9,left,response,,257497.20000004768,257485.357,257501.701,258004.10000002384,502.3990000238409,258004.89999997616,2021-10-27T10:34:13.749Z,258018.62,1635330586,full,ni_sequenzen,NI_Sequenzen,10,,,,,,,,,,,,,
,Move,canvas.Screen,0_1_0_10,down,response,,258006.89999997616,258001.932,258018.62,258382.89999997616,364.2799999761628,258383.70000004768,2021-10-27T10:34:14.128Z,258401.934,1635330586,full,ni_sequenzen,NI_Sequenzen,11,,,,,,,,,,,,,
,Move,canvas.Screen,0_1_0_11,down,response,,258385.70000004768,258385.131,258401.934,258763.39999997616,361.46599997614976,258764.29999995232,2021-10-27T10:34:14.509Z,258768.295,1635330586,full,ni_sequenzen,NI_Sequenzen,12,,,,,,,,,,,,,
,Move,canvas.Screen,0_1_0_12,right,response,,258766.79999995232,258751.685,258768.295,259202.89999997616,434.60499997614534,259203.60000002384,2021-10-27T10:34:14.948Z,259218.424,1635330586,full,ni_sequenzen,NI_Sequenzen,13,,,,,,,,,,,,,
,Move,canvas.Screen,0_1_0_13,down,response,,259205.70000004768,259201.889,259218.424,259932.5,714.0760000000009,259933.29999995232,2021-10-27T10:34:15.678Z,259951.921,1635330586,full,ni_sequenzen,NI_Sequenzen,14,,,,,,,,,,,,,
,Move,canvas.Screen,0_1_0_14,right,response,,259935.79999995232,259935.107,259951.921,260340.89999997616,388.97899997615605,260341.70000004768,2021-10-27T10:34:16.086Z,260351.615,1635330586,full,ni_sequenzen,NI_Sequenzen,15,,,,,,,,,,,,,
,Move,canvas.Screen,0_1_0_15,down,response,,260344.39999997616,260335.063,260351.615,260865.70000004768,514.085000047693,260866.39999997616,2021-10-27T10:34:16.611Z,260885.099,1635330586,full,ni_sequenzen,NI_Sequenzen,16,,,,,,,,,,,,,
,Move,canvas.Screen,0_1_0_16,left,response,,260868.89999997616,260868.684,260885.099,262488,1602.9010000000126,262488.7999999523,2021-10-27T10:34:18.233Z,262501.797,1635330586,full,ni_sequenzen,NI_Sequenzen,17,,,,,,,,,,,,,
,Move,canvas.Screen,0_1_0_17,left,response,,262491,262485,262501.797,262848.10000002384,346.30300002382137,262849,2021-10-27T10:34:18.593Z,262885.089,1635330586,full,ni_sequenzen,NI_Sequenzen,18,,,,,,,,,,,,,
,Move,canvas.Screen,0_1_0_18,left,response,,262851.39999997616,262868.392,262885.089,263039.39999997616,154.31099997618003,263040.2000000477,2021-10-27T10:34:18.785Z,263051.549,1635330586,full,ni_sequenzen,NI_Sequenzen,19,,,,,,,,,,,,,
,Move,canvas.Screen,0_1_0_19,left,response,,263042.2999999523,263035.003,263051.549,263195.89999997616,144.35099997615907,263196.7000000477,2021-10-27T10:34:18.941Z,263201.438,1635330586,full,ni_sequenzen,NI_Sequenzen,20,,,,,,,,,,,,,
,Move,canvas.Screen,0_1_0_20,left,response,,263198.60000002384,263184.898,263201.438,263390.2000000477,188.76200004765997,263391,2021-10-27T10:34:19.135Z,263401.714,1635330586,full,ni_sequenzen,NI_Sequenzen,21,,,,,,,,,,,,,
,Move,canvas.Screen,0_1_0_21,down,response,,263393.2000000477,263385.125,263401.714,263924.7000000477,522.9860000477056,263925.60000002384,2021-10-27T10:34:19.670Z,263934.86,1635330586,full,ni_sequenzen,NI_Sequenzen,22,,,,,,,,,,,,,
,Move,canvas.Screen,0_1_0_22,down,response,,263927.7000000477,263918.198,263934.86,264207,272.14000000001397,264207.89999997616,2021-10-27T10:34:19.952Z,264218.11,1635330586,full,ni_sequenzen,NI_Sequenzen,23,,,,,,,,,,,,,
,Move,canvas.Screen,0_1_0_23,down,response,,264209.89999997616,264201.675,264218.11,264287.10000002384,68.99000002385583,264287.89999997616,2021-10-27T10:34:20.032Z,264301.754,1635330586,full,ni_sequenzen,NI_Sequenzen,24,,,,,,,,,,,,,
,Move,canvas.Screen,0_1_0_24,down,response,,264290.2000000477,264285.02,264301.754,264534.5,232.74599999998463,264535.2999999523,2021-10-27T10:34:20.280Z,264551.662,1635330586,full,ni_sequenzen,NI_Sequenzen,25,,,,,,,,,,,,,
,Move,canvas.Screen,0_1_0_25,right,response,,264537.2000000477,264534.875,264551.662,266621.2999999523,2069.637999952305,266622.10000002384,2021-10-27T10:34:22.366Z,266634.911,1635330586,full,ni_sequenzen,NI_Sequenzen,26,,,,,,,,,,,,,
,Move,canvas.Screen,0_1_0_26,right,response,,266624.2999999523,266618.053,266634.911,266989.2000000477,354.28900004766183,266990.10000002384,2021-10-27T10:34:22.734Z,267001.38,1635330586,full,ni_sequenzen,NI_Sequenzen,27,,,,,,,,,,,,,
,Move,canvas.Screen,0_1_0_27,right,response,,266992,266984.731,267001.38,267352,350.61999999999534,267352.89999997616,2021-10-27T10:34:23.097Z,267368.202,1635330586,full,ni_sequenzen,NI_Sequenzen,28,,,,,,,,,,,,,
,Move,canvas.Screen,0_1_0_28,right,response,,267354.7999999523,267351.478,267368.202,267615.2000000477,246.9980000476935,267616.2999999523,2021-10-27T10:34:23.361Z,267634.867,1635330586,full,ni_sequenzen,NI_Sequenzen,29,,,,,,,,,,,,,
,Move,canvas.Screen,0_1_0_29,down,response,,267618.60000002384,267618.13,267634.867,268166.10000002384,531.2330000238144,268166.7999999523,2021-10-27T10:34:23.911Z,268201.327,1635330586,full,ni_sequenzen,NI_Sequenzen,30,,,,,,,,,,,,,
,Loop,flow.Loop,0_1_0,-999,completion,,248692.60000002384,248684.82,248702.19,268166.10000002384,19463.91000002384,268167,2021-10-27T10:34:23.911Z,268201.327,1635330586,full,ni_sequenzen,NI_Sequenzen,,,,,,,,,,,,,,
,Training_I,flow.Sequence,0_1,,completion,,248687.79999995232,248684.82,248702.19,268166.10000002384,19463.91000002384,268167.2000000477,2021-10-27T10:34:23.911Z,268201.327,1635330586,full,ni_sequenzen,NI_Sequenzen,,,,,,,,,,,,,,
,Screen_1,canvas.Screen,0_2_0_0,cont,response,1,268193.2999999523,268184.613,268201.327,283105.7000000477,14904.373000047693,283106.39999997616,2021-10-27T10:34:38.851Z,283153.332,1635330586,full,ni_sequenzen,NI_Sequenzen,,,,,,,,,,,,,,
,Screen_2,canvas.Screen,0_2_0_1,cont,response,1,283132.7000000477,283116.747,283153.332,293115.10000002384,9961.768000023847,293116.10000002384,2021-10-27T10:34:48.860Z,293133.533,1635330586,full,ni_sequenzen,NI_Sequenzen,,,,,,,,,,,,,,
,Screen_3,canvas.Screen,0_2_0_2,cont,response,1,293120.60000002384,293116.613,293133.533,302864.10000002384,9730.567000023846,302864.89999997616,2021-10-27T10:34:58.605Z,302900.001,1635330586,full,ni_sequenzen,NI_Sequenzen,,,,,,,,,,,,,,
,Screen_4,canvas.Screen,0_2_0_3,cont,response,1,302885.2000000477,302882.645,302900.001,316700.10000002384,13800.099000023853,316700.89999997616,2021-10-27T10:35:12.441Z,316716.049,1635330586,full,ni_sequenzen,NI_Sequenzen,,,,,,,,,,,,,,
,Screen_5,canvas.Screen,0_2_0_4,cont,response,1,316705,316698.482,316716.049,326477.39999997616,9761.350999976159,326478.2000000477,2021-10-27T10:35:22.218Z,326515.374,1635330586,full,ni_sequenzen,NI_Sequenzen,,,,,,,,,,,,,,
,Screen_6,canvas.Screen,0_2_0_5,cont,response,1,326500.5,326498.365,326515.374,336503.2999999523,9987.925999952306,336504.10000002384,2021-10-27T10:35:32.244Z,336598.232,1635330586,full,ni_sequenzen,NI_Sequenzen,,,,,,,,,,,,,,
,Sequence,flow.Sequence,0_2_0,,completion,1,268192.7000000477,268184.613,268201.327,336503.2999999523,68301.97299995233,336506.5,2021-10-27T10:35:32.246Z,336598.232,1635330586,full,ni_sequenzen,NI_Sequenzen,,,,,,,,,,,,,,
,Screen_1,canvas.Screen,0_2_1_0,,skipped,2,336508.2000000477,,,336508.2000000477,,336508.2000000477,2021-10-27T10:35:32.248Z,336598.232,1635330586,full,ni_sequenzen,NI_Sequenzen,,,,,,,,,,,,,,
,Screen_2,canvas.Screen,0_2_1_1,,skipped,2,336508.60000002384,,,336508.2000000477,,336508.60000002384,2021-10-27T10:35:32.249Z,336598.232,1635330586,full,ni_sequenzen,NI_Sequenzen,,,,,,,,,,,,,,
,Screen_3,canvas.Screen,0_2_1_2,,skipped,2,336508.89999997616,,,336508.2000000477,,336508.89999997616,2021-10-27T10:35:32.249Z,336598.232,1635330586,full,ni_sequenzen,NI_Sequenzen,,,,,,,,,,,,,,
,Screen_4,canvas.Screen,0_2_1_3,,skipped,2,336509.2999999523,,,336508.2000000477,,336509.2999999523,2021-10-27T10:35:32.249Z,336598.232,1635330586,full,ni_sequenzen,NI_Sequenzen,,,,,,,,,,,,,,
,Screen_5,canvas.Screen,0_2_1_4,,skipped,2,336509.60000002384,,,336508.2000000477,,336509.60000002384,2021-10-27T10:35:32.250Z,336598.232,1635330586,full,ni_sequenzen,NI_Sequenzen,,,,,,,,,,,,,,
,Screen_6,canvas.Screen,0_2_1_5,,skipped,2,336510,,,336508.2000000477,,336510,2021-10-27T10:35:32.250Z,336598.232,1635330586,full,ni_sequenzen,NI_Sequenzen,,,,,,,,,,,,,,
,Sequence,flow.Sequence,0_2_1,,completion,2,336507.7000000477,,,336508.2000000477,,336510,2021-10-27T10:35:32.250Z,336598.232,1635330586,full,ni_sequenzen,NI_Sequenzen,,,,,,,,,,,,,,
,Screen_1,canvas.Screen,0_2_2_0,,skipped,3,336510.5,,,336510.5,,336510.5,2021-10-27T10:35:32.250Z,336598.232,1635330586,full,ni_sequenzen,NI_Sequenzen,,,,,,,,,,,,,,
,Screen_2,canvas.Screen,0_2_2_1,,skipped,3,336510.7999999523,,,336510.5,,336510.7999999523,2021-10-27T10:35:32.251Z,336598.232,1635330586,full,ni_sequenzen,NI_Sequenzen,,,,,,,,,,,,,,
,Screen_3,canvas.Screen,0_2_2_2,,skipped,3,336511,,,336510.5,,336511,2021-10-27T10:35:32.251Z,336598.232,1635330586,full,ni_sequenzen,NI_Sequenzen,,,,,,,,,,,,,,
,Screen_4,canvas.Screen,0_2_2_3,,skipped,3,336511.60000002384,,,336510.5,,336511.7000000477,2021-10-27T10:35:32.252Z,336598.232,1635330586,full,ni_sequenzen,NI_Sequenzen,,,,,,,,,,,,,,
,Screen_5,canvas.Screen,0_2_2_4,,skipped,3,336512,,,336510.5,,336512.10000002384,2021-10-27T10:35:32.252Z,336598.232,1635330586,full,ni_sequenzen,NI_Sequenzen,,,,,,,,,,,,,,
,Screen_6,canvas.Screen,0_2_2_5,,skipped,3,336512.2999999523,,,336510.5,,336512.2999999523,2021-10-27T10:35:32.252Z,336598.232,1635330586,full,ni_sequenzen,NI_Sequenzen,,,,,,,,,,,,,,
,Sequence,flow.Sequence,0_2_2,,completion,3,336510.2000000477,,,336510.5,,336512.39999997616,2021-10-27T10:35:32.252Z,336598.232,1635330586,full,ni_sequenzen,NI_Sequenzen,,,,,,,,,,,,,,
,Screen_1,canvas.Screen,0_2_3_0,,skipped,4,336512.7999999523,,,336512.7999999523,,336512.7999999523,2021-10-27T10:35:32.253Z,336598.232,1635330586,full,ni_sequenzen,NI_Sequenzen,,,,,,,,,,,,,,
,Screen_2,canvas.Screen,0_2_3_1,,skipped,4,336513,,,336512.7999999523,,336513,2021-10-27T10:35:32.253Z,336598.232,1635330586,full,ni_sequenzen,NI_Sequenzen,,,,,,,,,,,,,,
,Screen_3,canvas.Screen,0_2_3_2,,skipped,4,336513.2999999523,,,336512.7999999523,,336513.39999997616,2021-10-27T10:35:32.253Z,336598.232,1635330586,full,ni_sequenzen,NI_Sequenzen,,,,,,,,,,,,,,
,Screen_4,canvas.Screen,0_2_3_3,,skipped,4,336513.5,,,336512.7999999523,,336513.60000002384,2021-10-27T10:35:32.254Z,336598.232,1635330586,full,ni_sequenzen,NI_Sequenzen,,,,,,,,,,,,,,
,Screen_5,canvas.Screen,0_2_3_4,,skipped,4,336513.7999999523,,,336512.7999999523,,336513.7999999523,2021-10-27T10:35:32.254Z,336598.232,1635330586,full,ni_sequenzen,NI_Sequenzen,,,,,,,,,,,,,,
,Screen_6,canvas.Screen,0_2_3_5,,skipped,4,336514.10000002384,,,336512.7999999523,,336514.10000002384,2021-10-27T10:35:32.254Z,336598.232,1635330586,full,ni_sequenzen,NI_Sequenzen,,,,,,,,,,,,,,
,Sequence,flow.Sequence,0_2_3,,completion,4,336512.5,,,336512.7999999523,,336514.10000002384,2021-10-27T10:35:32.254Z,336598.232,1635330586,full,ni_sequenzen,NI_Sequenzen,,,,,,,,,,,,,,
,Screen_1,canvas.Screen,0_2_4_0,,skipped,5,336514.5,,,336514.5,,336514.5,2021-10-27T10:35:32.255Z,336598.232,1635330586,full,ni_sequenzen,NI_Sequenzen,,,,,,,,,,,,,,
,Screen_2,canvas.Screen,0_2_4_1,,skipped,5,336514.7000000477,,,336514.5,,336514.7000000477,2021-10-27T10:35:32.255Z,336598.232,1635330586,full,ni_sequenzen,NI_Sequenzen,,,,,,,,,,,,,,
,Screen_3,canvas.Screen,0_2_4_2,,skipped,5,336515,,,336514.5,,336515,2021-10-27T10:35:32.255Z,336598.232,1635330586,full,ni_sequenzen,NI_Sequenzen,,,,,,,,,,,,,,
,Screen_4,canvas.Screen,0_2_4_3,,skipped,5,336515.2999999523,,,336514.5,,336515.39999997616,2021-10-27T10:35:32.255Z,336598.232,1635330586,full,ni_sequenzen,NI_Sequenzen,,,,,,,,,,,,,,
,Screen_5,canvas.Screen,0_2_4_4,,skipped,5,336515.7999999523,,,336514.5,,336515.7999999523,2021-10-27T10:35:32.256Z,336598.232,1635330586,full,ni_sequenzen,NI_Sequenzen,,,,,,,,,,,,,,
,Screen_6,canvas.Screen,0_2_4_5,,skipped,5,336516,,,336514.5,,336516,2021-10-27T10:35:32.256Z,336598.232,1635330586,full,ni_sequenzen,NI_Sequenzen,,,,,,,,,,,,,,
,Sequence,flow.Sequence,0_2_4,,completion,5,336514.2999999523,,,336514.5,,336516,2021-10-27T10:35:32.256Z,336598.232,1635330586,full,ni_sequenzen,NI_Sequenzen,,,,,,,,,,,,,,
,Screen_1,canvas.Screen,0_2_5_0,,skipped,6,336516.7000000477,,,336516.7000000477,,336516.7000000477,2021-10-27T10:35:32.257Z,336598.232,1635330586,full,ni_sequenzen,NI_Sequenzen,,,,,,,,,,,,,,
,Screen_2,canvas.Screen,0_2_5_1,,skipped,6,336517,,,336516.7000000477,,336517,2021-10-27T10:35:32.257Z,336598.232,1635330586,full,ni_sequenzen,NI_Sequenzen,,,,,,,,,,,,,,
,Screen_3,canvas.Screen,0_2_5_2,,skipped,6,336517.39999997616,,,336516.7000000477,,336517.39999997616,2021-10-27T10:35:32.257Z,336598.232,1635330586,full,ni_sequenzen,NI_Sequenzen,,,,,,,,,,,,,,
,Screen_4,canvas.Screen,0_2_5_3,,skipped,6,336517.7000000477,,,336516.7000000477,,336517.7000000477,2021-10-27T10:35:32.258Z,336598.232,1635330586,full,ni_sequenzen,NI_Sequenzen,,,,,,,,,,,,,,
,Screen_5,canvas.Screen,0_2_5_4,,skipped,6,336517.89999997616,,,336516.7000000477,,336518,2021-10-27T10:35:32.258Z,336598.232,1635330586,full,ni_sequenzen,NI_Sequenzen,,,,,,,,,,,,,,
,Screen_6,canvas.Screen,0_2_5_5,,skipped,6,336518.10000002384,,,336516.7000000477,,336518.10000002384,2021-10-27T10:35:32.258Z,336598.232,1635330586,full,ni_sequenzen,NI_Sequenzen,,,,,,,,,,,,,,
,Sequence,flow.Sequence,0_2_5,,completion,6,336516.2000000477,,,336516.7000000477,,336518.2000000477,2021-10-27T10:35:32.258Z,336598.232,1635330586,full,ni_sequenzen,NI_Sequenzen,,,,,,,,,,,,,,
,Screen_1,canvas.Screen,0_2_6_0,,skipped,7,336518.60000002384,,,336518.60000002384,,336518.60000002384,2021-10-27T10:35:32.259Z,336598.232,1635330586,full,ni_sequenzen,NI_Sequenzen,,,,,,,,,,,,,,
,Screen_2,canvas.Screen,0_2_6_1,,skipped,7,336518.89999997616,,,336518.60000002384,,336518.89999997616,2021-10-27T10:35:32.259Z,336598.232,1635330586,full,ni_sequenzen,NI_Sequenzen,,,,,,,,,,,,,,
,Screen_3,canvas.Screen,0_2_6_2,,skipped,7,336519.10000002384,,,336518.60000002384,,336519.10000002384,2021-10-27T10:35:32.259Z,336598.232,1635330586,full,ni_sequenzen,NI_Sequenzen,,,,,,,,,,,,,,
,Screen_4,canvas.Screen,0_2_6_3,,skipped,7,336519.39999997616,,,336518.60000002384,,336519.5,2021-10-27T10:35:32.259Z,336598.232,1635330586,full,ni_sequenzen,NI_Sequenzen,,,,,,,,,,,,,,
,Screen_5,canvas.Screen,0_2_6_4,,skipped,7,336519.7000000477,,,336518.60000002384,,336519.7000000477,2021-10-27T10:35:32.260Z,336598.232,1635330586,full,ni_sequenzen,NI_Sequenzen,,,,,,,,,,,,,,
,Screen_6,canvas.Screen,0_2_6_5,,skipped,7,336519.89999997616,,,336518.60000002384,,336519.89999997616,2021-10-27T10:35:32.260Z,336598.232,1635330586,full,ni_sequenzen,NI_Sequenzen,,,,,,,,,,,,,,
,Sequence,flow.Sequence,0_2_6,,completion,7,336518.2999999523,,,336518.60000002384,,336519.89999997616,2021-10-27T10:35:32.260Z,336598.232,1635330586,full,ni_sequenzen,NI_Sequenzen,,,,,,,,,,,,,,
,Screen_1,canvas.Screen,0_2_7_0,,skipped,8,336520.39999997616,,,336520.39999997616,,336520.39999997616,2021-10-27T10:35:32.260Z,336598.232,1635330586,full,ni_sequenzen,NI_Sequenzen,,,,,,,,,,,,,,
,Screen_2,canvas.Screen,0_2_7_1,,skipped,8,336520.60000002384,,,336520.39999997616,,336520.60000002384,2021-10-27T10:35:32.261Z,336598.232,1635330586,full,ni_sequenzen,NI_Sequenzen,,,,,,,,,,,,,,
,Screen_3,canvas.Screen,0_2_7_2,,skipped,8,336520.89999997616,,,336520.39999997616,,336520.89999997616,2021-10-27T10:35:32.261Z,336598.232,1635330586,full,ni_sequenzen,NI_Sequenzen,,,,,,,,,,,,,,
,Screen_4,canvas.Screen,0_2_7_3,,skipped,8,336521.39999997616,,,336520.39999997616,,336521.39999997616,2021-10-27T10:35:32.261Z,336598.232,1635330586,full,ni_sequenzen,NI_Sequenzen,,,,,,,,,,,,,,
,Screen_5,canvas.Screen,0_2_7_4,,skipped,8,336521.7000000477,,,336520.39999997616,,336521.7000000477,2021-10-27T10:35:32.262Z,336598.232,1635330586,full,ni_sequenzen,NI_Sequenzen,,,,,,,,,,,,,,
,Screen_6,canvas.Screen,0_2_7_5,,skipped,8,336522,,,336520.39999997616,,336522.10000002384,2021-10-27T10:35:32.262Z,336598.232,1635330586,full,ni_sequenzen,NI_Sequenzen,,,,,,,,,,,,,,
,Sequence,flow.Sequence,0_2_7,,completion,8,336520,,,336520.39999997616,,336522.10000002384,2021-10-27T10:35:32.262Z,336598.232,1635330586,full,ni_sequenzen,NI_Sequenzen,,,,,,,,,,,,,,
,Screen_1,canvas.Screen,0_2_8_0,,skipped,9,336522.5,,,336522.5,,336522.5,2021-10-27T10:35:32.263Z,336598.232,1635330586,full,ni_sequenzen,NI_Sequenzen,,,,,,,,,,,,,,
,Screen_2,canvas.Screen,0_2_8_1,,skipped,9,336522.7999999523,,,336522.5,,336522.7999999523,2021-10-27T10:35:32.263Z,336598.232,1635330586,full,ni_sequenzen,NI_Sequenzen,,,,,,,,,,,,,,
,Screen_3,canvas.Screen,0_2_8_2,,skipped,9,336523.10000002384,,,336522.5,,336523.10000002384,2021-10-27T10:35:32.263Z,336598.232,1635330586,full,ni_sequenzen,NI_Sequenzen,,,,,,,,,,,,,,
,Screen_4,canvas.Screen,0_2_8_3,,skipped,9,336523.2999999523,,,336522.5,,336523.2999999523,2021-10-27T10:35:32.263Z,336598.232,1635330586,full,ni_sequenzen,NI_Sequenzen,,,,,,,,,,,,,,
,Screen_5,canvas.Screen,0_2_8_4,,skipped,9,336523.60000002384,,,336522.5,,336523.60000002384,2021-10-27T10:35:32.264Z,336598.232,1635330586,full,ni_sequenzen,NI_Sequenzen,,,,,,,,,,,,,,
,Screen_6,canvas.Screen,0_2_8_5,,skipped,9,336523.7999999523,,,336522.5,,336523.7999999523,2021-10-27T10:35:32.264Z,336598.232,1635330586,full,ni_sequenzen,NI_Sequenzen,,,,,,,,,,,,,,
,Sequence,flow.Sequence,0_2_8,,completion,9,336522.2000000477,,,336522.5,,336523.7999999523,2021-10-27T10:35:32.264Z,336598.232,1635330586,full,ni_sequenzen,NI_Sequenzen,,,,,,,,,,,,,,
,Screen_1,canvas.Screen,0_2_9_0,,skipped,10,336524.2999999523,,,336524.2999999523,,336524.2999999523,2021-10-27T10:35:32.264Z,336598.232,1635330586,full,ni_sequenzen,NI_Sequenzen,,,,,,,,,,,,,,
,Screen_2,canvas.Screen,0_2_9_1,,skipped,10,336524.5,,,336524.2999999523,,336524.60000002384,2021-10-27T10:35:32.265Z,336598.232,1635330586,full,ni_sequenzen,NI_Sequenzen,,,,,,,,,,,,,,
,Screen_3,canvas.Screen,0_2_9_2,,skipped,10,336524.89999997616,,,336524.2999999523,,336524.89999997616,2021-10-27T10:35:32.265Z,336598.232,1635330586,full,ni_sequenzen,NI_Sequenzen,,,,,,,,,,,,,,
,Screen_4,canvas.Screen,0_2_9_3,,skipped,10,336525.10000002384,,,336524.2999999523,,336525.2000000477,2021-10-27T10:35:32.265Z,336598.232,1635330586,full,ni_sequenzen,NI_Sequenzen,,,,,,,,,,,,,,
,Screen_5,canvas.Screen,0_2_9_4,,skipped,10,336525.89999997616,,,336524.2999999523,,336525.89999997616,2021-10-27T10:35:32.266Z,336598.232,1635330586,full,ni_sequenzen,NI_Sequenzen,,,,,,,,,,,,,,
,Screen_6,canvas.Screen,0_2_9_5,,skipped,10,336526.2000000477,,,336524.2999999523,,336526.2000000477,2021-10-27T10:35:32.266Z,336598.232,1635330586,full,ni_sequenzen,NI_Sequenzen,,,,,,,,,,,,,,
,Sequence,flow.Sequence,0_2_9,,completion,10,336524,,,336524.2999999523,,336526.2999999523,2021-10-27T10:35:32.266Z,336598.232,1635330586,full,ni_sequenzen,NI_Sequenzen,,,,,,,,,,,,,,
,Screen_1,canvas.Screen,0_2_10_0,,skipped,11,336526.7999999523,,,336526.7999999523,,336526.7999999523,2021-10-27T10:35:32.267Z,336598.232,1635330586,full,ni_sequenzen,NI_Sequenzen,,,,,,,,,,,,,,
,Screen_2,canvas.Screen,0_2_10_1,,skipped,11,336527.10000002384,,,336526.7999999523,,336527.10000002384,2021-10-27T10:35:32.267Z,336598.232,1635330586,full,ni_sequenzen,NI_Sequenzen,,,,,,,,,,,,,,
,Screen_3,canvas.Screen,0_2_10_2,,skipped,11,336527.2999999523,,,336526.7999999523,,336527.2999999523,2021-10-27T10:35:32.267Z,336598.232,1635330586,full,ni_sequenzen,NI_Sequenzen,,,,,,,,,,,,,,
,Screen_4,canvas.Screen,0_2_10_3,,skipped,11,336527.60000002384,,,336526.7999999523,,336527.7000000477,2021-10-27T10:35:32.268Z,336598.232,1635330586,full,ni_sequenzen,NI_Sequenzen,,,,,,,,,,,,,,
,Screen_5,canvas.Screen,0_2_10_4,,skipped,11,336527.89999997616,,,336526.7999999523,,336527.89999997616,2021-10-27T10:35:32.268Z,336598.232,1635330586,full,ni_sequenzen,NI_Sequenzen,,,,,,,,,,,,,,
,Screen_6,canvas.Screen,0_2_10_5,,skipped,11,336528.2000000477,,,336526.7999999523,,336528.2000000477,2021-10-27T10:35:32.268Z,336598.232,1635330586,full,ni_sequenzen,NI_Sequenzen,,,,,,,,,,,,,,
,Sequence,flow.Sequence,0_2_10,,completion,11,336526.39999997616,,,336526.7999999523,,336528.2000000477,2021-10-27T10:35:32.268Z,336598.232,1635330586,full,ni_sequenzen,NI_Sequenzen,,,,,,,,,,,,,,
,Screen_1,canvas.Screen,0_2_11_0,,skipped,12,336528.60000002384,,,336528.60000002384,,336528.60000002384,2021-10-27T10:35:32.269Z,336598.232,1635330586,full,ni_sequenzen,NI_Sequenzen,,,,,,,,,,,,,,
,Screen_2,canvas.Screen,0_2_11_1,,skipped,12,336528.89999997616,,,336528.60000002384,,336528.89999997616,2021-10-27T10:35:32.269Z,336598.232,1635330586,full,ni_sequenzen,NI_Sequenzen,,,,,,,,,,,,,,
,Screen_3,canvas.Screen,0_2_11_2,,skipped,12,336529.2000000477,,,336528.60000002384,,336529.2000000477,2021-10-27T10:35:32.269Z,336598.232,1635330586,full,ni_sequenzen,NI_Sequenzen,,,,,,,,,,,,,,
,Screen_4,canvas.Screen,0_2_11_3,,skipped,12,336529.39999997616,,,336528.60000002384,,336529.39999997616,2021-10-27T10:35:32.269Z,336598.232,1635330586,full,ni_sequenzen,NI_Sequenzen,,,,,,,,,,,,,,
,Screen_5,canvas.Screen,0_2_11_4,,skipped,12,336529.7000000477,,,336528.60000002384,,336529.7000000477,2021-10-27T10:35:32.270Z,336598.232,1635330586,full,ni_sequenzen,NI_Sequenzen,,,,,,,,,,,,,,
,Screen_6,canvas.Screen,0_2_11_5,,skipped,12,336529.89999997616,,,336528.60000002384,,336529.89999997616,2021-10-27T10:35:32.270Z,336598.232,1635330586,full,ni_sequenzen,NI_Sequenzen,,,,,,,,,,,,,,
,Sequence,flow.Sequence,0_2_11,,completion,12,336528.2999999523,,,336528.60000002384,,336530,2021-10-27T10:35:32.270Z,336598.232,1635330586,full,ni_sequenzen,NI_Sequenzen,,,,,,,,,,,,,,
,Screen_1,canvas.Screen,0_2_12_0,,skipped,13,336530.7000000477,,,336530.7000000477,,336530.7999999523,2021-10-27T10:35:32.271Z,336598.232,1635330586,full,ni_sequenzen,NI_Sequenzen,,,,,,,,,,,,,,
,Screen_2,canvas.Screen,0_2_12_1,,skipped,13,336531,,,336530.7000000477,,336531,2021-10-27T10:35:32.271Z,336598.232,1635330586,full,ni_sequenzen,NI_Sequenzen,,,,,,,,,,,,,,
,Screen_3,canvas.Screen,0_2_12_2,,skipped,13,336531.2999999523,,,336530.7000000477,,336531.2999999523,2021-10-27T10:35:32.271Z,336598.232,1635330586,full,ni_sequenzen,NI_Sequenzen,,,,,,,,,,,,,,
,Screen_4,canvas.Screen,0_2_12_3,,skipped,13,336531.60000002384,,,336530.7000000477,,336531.60000002384,2021-10-27T10:35:32.272Z,336598.232,1635330586,full,ni_sequenzen,NI_Sequenzen,,,,,,,,,,,,,,
,Screen_5,canvas.Screen,0_2_12_4,,skipped,13,336531.7999999523,,,336530.7000000477,,336531.7999999523,2021-10-27T10:35:32.272Z,336598.232,1635330586,full,ni_sequenzen,NI_Sequenzen,,,,,,,,,,,,,,
,Screen_6,canvas.Screen,0_2_12_5,,skipped,13,336532,,,336530.7000000477,,336532.10000002384,2021-10-27T10:35:32.272Z,336598.232,1635330586,full,ni_sequenzen,NI_Sequenzen,,,,,,,,,,,,,,
,Sequence,flow.Sequence,0_2_12,,completion,13,336530.10000002384,,,336530.7000000477,,336532.10000002384,2021-10-27T10:35:32.272Z,336598.232,1635330586,full,ni_sequenzen,NI_Sequenzen,,,,,,,,,,,,,,
,Screen_1,canvas.Screen,0_2_13_0,,skipped,14,336532.5,,,336532.5,,336532.60000002384,2021-10-27T10:35:32.273Z,336598.232,1635330586,full,ni_sequenzen,NI_Sequenzen,,,,,,,,,,,,,,
,Screen_2,canvas.Screen,0_2_13_1,,skipped,14,336532.7000000477,,,336532.5,,336532.7999999523,2021-10-27T10:35:32.273Z,336598.232,1635330586,full,ni_sequenzen,NI_Sequenzen,,,,,,,,,,,,,,
,Screen_3,canvas.Screen,0_2_13_2,,skipped,14,336533,,,336532.5,,336533.10000002384,2021-10-27T10:35:32.273Z,336598.232,1635330586,full,ni_sequenzen,NI_Sequenzen,,,,,,,,,,,,,,
,Screen_4,canvas.Screen,0_2_13_3,,skipped,14,336533.2999999523,,,336532.5,,336533.2999999523,2021-10-27T10:35:32.273Z,336598.232,1635330586,full,ni_sequenzen,NI_Sequenzen,,,,,,,,,,,,,,
,Screen_5,canvas.Screen,0_2_13_4,,skipped,14,336533.5,,,336532.5,,336533.60000002384,2021-10-27T10:35:32.274Z,336598.232,1635330586,full,ni_sequenzen,NI_Sequenzen,,,,,,,,,,,,,,
,Screen_6,canvas.Screen,0_2_13_5,,skipped,14,336533.7999999523,,,336532.5,,336533.7999999523,2021-10-27T10:35:32.274Z,336598.232,1635330586,full,ni_sequenzen,NI_Sequenzen,,,,,,,,,,,,,,
,Sequence,flow.Sequence,0_2_13,,completion,14,336532.2999999523,,,336532.5,,336533.7999999523,2021-10-27T10:35:32.274Z,336598.232,1635330586,full,ni_sequenzen,NI_Sequenzen,,,,,,,,,,,,,,
,Screen_1,canvas.Screen,0_2_14_0,,skipped,15,336534.2999999523,,,336534.2999999523,,336534.2999999523,2021-10-27T10:35:32.274Z,336598.232,1635330586,full,ni_sequenzen,NI_Sequenzen,,,,,,,,,,,,,,
,Screen_2,canvas.Screen,0_2_14_1,,skipped,15,336534.7999999523,,,336534.2999999523,,336534.7999999523,2021-10-27T10:35:32.275Z,336598.232,1635330586,full,ni_sequenzen,NI_Sequenzen,,,,,,,,,,,,,,
,Screen_3,canvas.Screen,0_2_14_2,,skipped,15,336535.10000002384,,,336534.2999999523,,336535.10000002384,2021-10-27T10:35:32.275Z,336598.232,1635330586,full,ni_sequenzen,NI_Sequenzen,,,,,,,,,,,,,,
,Screen_4,canvas.Screen,0_2_14_3,,skipped,15,336535.2999999523,,,336534.2999999523,,336535.39999997616,2021-10-27T10:35:32.275Z,336598.232,1635330586,full,ni_sequenzen,NI_Sequenzen,,,,,,,,,,,,,,
,Screen_5,canvas.Screen,0_2_14_4,,skipped,15,336535.7000000477,,,336534.2999999523,,336535.7000000477,2021-10-27T10:35:32.276Z,336598.232,1635330586,full,ni_sequenzen,NI_Sequenzen,,,,,,,,,,,,,,
,Screen_6,canvas.Screen,0_2_14_5,,skipped,15,336535.89999997616,,,336534.2999999523,,336535.89999997616,2021-10-27T10:35:32.276Z,336598.232,1635330586,full,ni_sequenzen,NI_Sequenzen,,,,,,,,,,,,,,
,Sequence,flow.Sequence,0_2_14,,completion,15,336534,,,336534.2999999523,,336536.10000002384,2021-10-27T10:35:32.276Z,336598.232,1635330586,full,ni_sequenzen,NI_Sequenzen,,,,,,,,,,,,,,
,Screen_1,canvas.Screen,0_2_15_0,,skipped,16,336536.39999997616,,,336536.39999997616,,336536.39999997616,2021-10-27T10:35:32.276Z,336598.232,1635330586,full,ni_sequenzen,NI_Sequenzen,,,,,,,,,,,,,,
,Screen_2,canvas.Screen,0_2_15_1,,skipped,16,336536.60000002384,,,336536.39999997616,,336536.7000000477,2021-10-27T10:35:32.277Z,336598.232,1635330586,full,ni_sequenzen,NI_Sequenzen,,,,,,,,,,,,,,
,Screen_3,canvas.Screen,0_2_15_2,,skipped,16,336536.89999997616,,,336536.39999997616,,336536.89999997616,2021-10-27T10:35:32.277Z,336598.232,1635330586,full,ni_sequenzen,NI_Sequenzen,,,,,,,,,,,,,,
,Screen_4,canvas.Screen,0_2_15_3,,skipped,16,336537.2000000477,,,336536.39999997616,,336537.2000000477,2021-10-27T10:35:32.277Z,336598.232,1635330586,full,ni_sequenzen,NI_Sequenzen,,,,,,,,,,,,,,
,Screen_5,canvas.Screen,0_2_15_4,,skipped,16,336537.39999997616,,,336536.39999997616,,336537.5,2021-10-27T10:35:32.277Z,336598.232,1635330586,full,ni_sequenzen,NI_Sequenzen,,,,,,,,,,,,,,
,Screen_6,canvas.Screen,0_2_15_5,,skipped,16,336537.7000000477,,,336536.39999997616,,336537.7000000477,2021-10-27T10:35:32.278Z,336598.232,1635330586,full,ni_sequenzen,NI_Sequenzen,,,,,,,,,,,,,,
,Sequence,flow.Sequence,0_2_15,,completion,16,336536.10000002384,,,336536.39999997616,,336537.7000000477,2021-10-27T10:35:32.278Z,336598.232,1635330586,full,ni_sequenzen,NI_Sequenzen,,,,,,,,,,,,,,
,Screen_1,canvas.Screen,0_2_16_0,,skipped,17,336538.10000002384,,,336538.10000002384,,336538.2000000477,2021-10-27T10:35:32.278Z,336598.232,1635330586,full,ni_sequenzen,NI_Sequenzen,,,,,,,,,,,,,,
,Screen_2,canvas.Screen,0_2_16_1,,skipped,17,336538.39999997616,,,336538.10000002384,,336538.39999997616,2021-10-27T10:35:32.278Z,336598.232,1635330586,full,ni_sequenzen,NI_Sequenzen,,,,,,,,,,,,,,
,Screen_3,canvas.Screen,0_2_16_2,,skipped,17,336538.7999999523,,,336538.10000002384,,336538.89999997616,2021-10-27T10:35:32.279Z,336598.232,1635330586,full,ni_sequenzen,NI_Sequenzen,,,,,,,,,,,,,,
,Screen_4,canvas.Screen,0_2_16_3,,skipped,17,336539.2000000477,,,336538.10000002384,,336539.2000000477,2021-10-27T10:35:32.279Z,336598.232,1635330586,full,ni_sequenzen,NI_Sequenzen,,,,,,,,,,,,,,
,Screen_5,canvas.Screen,0_2_16_4,,skipped,17,336539.5,,,336538.10000002384,,336539.5,2021-10-27T10:35:32.279Z,336598.232,1635330586,full,ni_sequenzen,NI_Sequenzen,,,,,,,,,,,,,,
,Screen_6,canvas.Screen,0_2_16_5,,skipped,17,336539.7000000477,,,336538.10000002384,,336539.7000000477,2021-10-27T10:35:32.280Z,336598.232,1635330586,full,ni_sequenzen,NI_Sequenzen,,,,,,,,,,,,,,
,Sequence,flow.Sequence,0_2_16,,completion,17,336537.89999997616,,,336538.10000002384,,336539.89999997616,2021-10-27T10:35:32.280Z,336598.232,1635330586,full,ni_sequenzen,NI_Sequenzen,,,,,,,,,,,,,,
,Screen_1,canvas.Screen,0_2_17_0,,skipped,18,336540.2000000477,,,336540.2000000477,,336540.2000000477,2021-10-27T10:35:32.280Z,336598.232,1635330586,full,ni_sequenzen,NI_Sequenzen,,,,,,,,,,,,,,
,Screen_2,canvas.Screen,0_2_17_1,,skipped,18,336540.5,,,336540.2000000477,,336540.5,2021-10-27T10:35:32.280Z,336598.232,1635330586,full,ni_sequenzen,NI_Sequenzen,,,,,,,,,,,,,,
,Screen_3,canvas.Screen,0_2_17_2,,skipped,18,336540.7000000477,,,336540.2000000477,,336540.7000000477,2021-10-27T10:35:32.281Z,336598.232,1635330586,full,ni_sequenzen,NI_Sequenzen,,,,,,,,,,,,,,
,Screen_4,canvas.Screen,0_2_17_3,,skipped,18,336541,,,336540.2000000477,,336541.10000002384,2021-10-27T10:35:32.281Z,336598.232,1635330586,full,ni_sequenzen,NI_Sequenzen,,,,,,,,,,,,,,
,Screen_5,canvas.Screen,0_2_17_4,,skipped,18,336541.2999999523,,,336540.2000000477,,336541.2999999523,2021-10-27T10:35:32.281Z,336598.232,1635330586,full,ni_sequenzen,NI_Sequenzen,,,,,,,,,,,,,,
,Screen_6,canvas.Screen,0_2_17_5,,skipped,18,336541.60000002384,,,336540.2000000477,,336541.60000002384,2021-10-27T10:35:32.282Z,336598.232,1635330586,full,ni_sequenzen,NI_Sequenzen,,,,,,,,,,,,,,
,Sequence,flow.Sequence,0_2_17,,completion,18,336539.89999997616,,,336540.2000000477,,336541.60000002384,2021-10-27T10:35:32.282Z,336598.232,1635330586,full,ni_sequenzen,NI_Sequenzen,,,,,,,,,,,,,,
,Screen_1,canvas.Screen,0_2_18_0,,skipped,19,336541.89999997616,,,336541.89999997616,,336541.89999997616,2021-10-27T10:35:32.282Z,336598.232,1635330586,full,ni_sequenzen,NI_Sequenzen,,,,,,,,,,,,,,
,Screen_2,canvas.Screen,0_2_18_1,,skipped,19,336542.2000000477,,,336541.89999997616,,336542.2000000477,2021-10-27T10:35:32.282Z,336598.232,1635330586,full,ni_sequenzen,NI_Sequenzen,,,,,,,,,,,,,,
,Screen_3,canvas.Screen,0_2_18_2,,skipped,19,336542.39999997616,,,336541.89999997616,,336542.5,2021-10-27T10:35:32.282Z,336598.232,1635330586,full,ni_sequenzen,NI_Sequenzen,,,,,,,,,,,,,,
,Screen_4,canvas.Screen,0_2_18_3,,skipped,19,336542.7000000477,,,336541.89999997616,,336542.7000000477,2021-10-27T10:35:32.283Z,336598.232,1635330586,full,ni_sequenzen,NI_Sequenzen,,,,,,,,,,,,,,
,Screen_5,canvas.Screen,0_2_18_4,,skipped,19,336543.2999999523,,,336541.89999997616,,336543.2999999523,2021-10-27T10:35:32.283Z,336598.232,1635330586,full,ni_sequenzen,NI_Sequenzen,,,,,,,,,,,,,,
,Screen_6,canvas.Screen,0_2_18_5,,skipped,19,336543.5,,,336541.89999997616,,336543.60000002384,2021-10-27T10:35:32.284Z,336598.232,1635330586,full,ni_sequenzen,NI_Sequenzen,,,,,,,,,,,,,,
,Sequence,flow.Sequence,0_2_18,,completion,19,336541.7000000477,,,336541.89999997616,,336543.7000000477,2021-10-27T10:35:32.284Z,336598.232,1635330586,full,ni_sequenzen,NI_Sequenzen,,,,,,,,,,,,,,
,Screen_1,canvas.Screen,0_2_19_0,,skipped,20,336544,,,336544,,336544.10000002384,2021-10-27T10:35:32.284Z,336598.232,1635330586,full,ni_sequenzen,NI_Sequenzen,,,,,,,,,,,,,,
,Screen_2,canvas.Screen,0_2_19_1,,skipped,20,336544.2999999523,,,336544,,336544.2999999523,2021-10-27T10:35:32.284Z,336598.232,1635330586,full,ni_sequenzen,NI_Sequenzen,,,,,,,,,,,,,,
,Screen_3,canvas.Screen,0_2_19_2,,skipped,20,336544.60000002384,,,336544,,336544.60000002384,2021-10-27T10:35:32.285Z,336598.232,1635330586,full,ni_sequenzen,NI_Sequenzen,,,,,,,,,,,,,,
,Screen_4,canvas.Screen,0_2_19_3,,skipped,20,336544.89999997616,,,336544,,336544.89999997616,2021-10-27T10:35:32.285Z,336598.232,1635330586,full,ni_sequenzen,NI_Sequenzen,,,,,,,,,,,,,,
,Screen_5,canvas.Screen,0_2_19_4,,skipped,20,336545.10000002384,,,336544,,336545.2000000477,2021-10-27T10:35:32.285Z,336598.232,1635330586,full,ni_sequenzen,NI_Sequenzen,,,,,,,,,,,,,,
,Screen_6,canvas.Screen,0_2_19_5,,skipped,20,336545.39999997616,,,336544,,336545.39999997616,2021-10-27T10:35:32.285Z,336598.232,1635330586,full,ni_sequenzen,NI_Sequenzen,,,,,,,,,,,,,,
,Sequence,flow.Sequence,0_2_19,,completion,20,336543.7999999523,,,336544,,336545.39999997616,2021-10-27T10:35:32.285Z,336598.232,1635330586,full,ni_sequenzen,NI_Sequenzen,,,,,,,,,,,,,,
,Screen_1,canvas.Screen,0_2_20_0,,skipped,21,336545.7000000477,,,336545.7000000477,,336545.7999999523,2021-10-27T10:35:32.286Z,336598.232,1635330586,full,ni_sequenzen,NI_Sequenzen,,,,,,,,,,,,,,
,Screen_2,canvas.Screen,0_2_20_1,,skipped,21,336546.10000002384,,,336545.7000000477,,336546.10000002384,2021-10-27T10:35:32.286Z,336598.232,1635330586,full,ni_sequenzen,NI_Sequenzen,,,,,,,,,,,,,,
,Screen_3,canvas.Screen,0_2_20_2,,skipped,21,336546.2999999523,,,336545.7000000477,,336546.39999997616,2021-10-27T10:35:32.286Z,336598.232,1635330586,full,ni_sequenzen,NI_Sequenzen,,,,,,,,,,,,,,
,Screen_4,canvas.Screen,0_2_20_3,,skipped,21,336546.60000002384,,,336545.7000000477,,336546.7000000477,2021-10-27T10:35:32.287Z,336598.232,1635330586,full,ni_sequenzen,NI_Sequenzen,,,,,,,,,,,,,,
,Screen_5,canvas.Screen,0_2_20_4,,skipped,21,336546.89999997616,,,336545.7000000477,,336546.89999997616,2021-10-27T10:35:32.287Z,336598.232,1635330586,full,ni_sequenzen,NI_Sequenzen,,,,,,,,,,,,,,
,Screen_6,canvas.Screen,0_2_20_5,,skipped,21,336547.5,,,336545.7000000477,,336547.60000002384,2021-10-27T10:35:32.288Z,336598.232,1635330586,full,ni_sequenzen,NI_Sequenzen,,,,,,,,,,,,,,
,Sequence,flow.Sequence,0_2_20,,completion,21,336545.60000002384,,,336545.7000000477,,336547.60000002384,2021-10-27T10:35:32.288Z,336598.232,1635330586,full,ni_sequenzen,NI_Sequenzen,,,,,,,,,,,,,,
,Screen_1,canvas.Screen,0_2_21_0,,skipped,22,336548,,,336548,,336548.10000002384,2021-10-27T10:35:32.288Z,336598.232,1635330586,full,ni_sequenzen,NI_Sequenzen,,,,,,,,,,,,,,
,Screen_2,canvas.Screen,0_2_21_1,,skipped,22,336548.39999997616,,,336548,,336548.39999997616,2021-10-27T10:35:32.288Z,336598.232,1635330586,full,ni_sequenzen,NI_Sequenzen,,,,,,,,,,,,,,
,Screen_3,canvas.Screen,0_2_21_2,,skipped,22,336548.60000002384,,,336548,,336548.60000002384,2021-10-27T10:35:32.289Z,336598.232,1635330586,full,ni_sequenzen,NI_Sequenzen,,,,,,,,,,,,,,
,Screen_4,canvas.Screen,0_2_21_3,,skipped,22,336548.89999997616,,,336548,,336548.89999997616,2021-10-27T10:35:32.289Z,336598.232,1635330586,full,ni_sequenzen,NI_Sequenzen,,,,,,,,,,,,,,
,Screen_5,canvas.Screen,0_2_21_4,,skipped,22,336549.39999997616,,,336548,,336549.39999997616,2021-10-27T10:35:32.289Z,336598.232,1635330586,full,ni_sequenzen,NI_Sequenzen,,,,,,,,,,,,,,
,Screen_6,canvas.Screen,0_2_21_5,,skipped,22,336549.89999997616,,,336548,,336549.89999997616,2021-10-27T10:35:32.290Z,336598.232,1635330586,full,ni_sequenzen,NI_Sequenzen,,,,,,,,,,,,,,
,Sequence,flow.Sequence,0_2_21,,completion,22,336547.7999999523,,,336548,,336550,2021-10-27T10:35:32.290Z,336598.232,1635330586,full,ni_sequenzen,NI_Sequenzen,,,,,,,,,,,,,,
,Screen_1,canvas.Screen,0_2_22_0,,skipped,23,336550.60000002384,,,336550.60000002384,,336550.7000000477,2021-10-27T10:35:32.291Z,336598.232,1635330586,full,ni_sequenzen,NI_Sequenzen,,,,,,,,,,,,,,
,Screen_2,canvas.Screen,0_2_22_1,,skipped,23,336551.10000002384,,,336550.60000002384,,336551.10000002384,2021-10-27T10:35:32.291Z,336598.232,1635330586,full,ni_sequenzen,NI_Sequenzen,,,,,,,,,,,,,,
,Screen_3,canvas.Screen,0_2_22_2,,skipped,23,336551.60000002384,,,336550.60000002384,,336551.60000002384,2021-10-27T10:35:32.292Z,336598.232,1635330586,full,ni_sequenzen,NI_Sequenzen,,,,,,,,,,,,,,
,Screen_4,canvas.Screen,0_2_22_3,,skipped,23,336552,,,336550.60000002384,,336552,2021-10-27T10:35:32.292Z,336598.232,1635330586,full,ni_sequenzen,NI_Sequenzen,,,,,,,,,,,,,,
,Screen_5,canvas.Screen,0_2_22_4,,skipped,23,336552.5,,,336550.60000002384,,336552.5,2021-10-27T10:35:32.293Z,336598.232,1635330586,full,ni_sequenzen,NI_Sequenzen,,,,,,,,,,,,,,
,Screen_6,canvas.Screen,0_2_22_5,,skipped,23,336553.10000002384,,,336550.60000002384,,336553.10000002384,2021-10-27T10:35:32.293Z,336598.232,1635330586,full,ni_sequenzen,NI_Sequenzen,,,,,,,,,,,,,,
,Sequence,flow.Sequence,0_2_22,,completion,23,336550.2000000477,,,336550.60000002384,,336553.2000000477,2021-10-27T10:35:32.293Z,336598.232,1635330586,full,ni_sequenzen,NI_Sequenzen,,,,,,,,,,,,,,
,Screen_1,canvas.Screen,0_2_23_0,,skipped,24,336553.60000002384,,,336553.60000002384,,336553.60000002384,2021-10-27T10:35:32.294Z,336598.232,1635330586,full,ni_sequenzen,NI_Sequenzen,,,,,,,,,,,,,,
,Screen_2,canvas.Screen,0_2_23_1,,skipped,24,336554,,,336553.60000002384,,336554,2021-10-27T10:35:32.294Z,336598.232,1635330586,full,ni_sequenzen,NI_Sequenzen,,,,,,,,,,,,,,
,Screen_3,canvas.Screen,0_2_23_2,,skipped,24,336554.2000000477,,,336553.60000002384,,336554.2000000477,2021-10-27T10:35:32.294Z,336598.232,1635330586,full,ni_sequenzen,NI_Sequenzen,,,,,,,,,,,,,,
,Screen_4,canvas.Screen,0_2_23_3,,skipped,24,336554.89999997616,,,336553.60000002384,,336554.89999997616,2021-10-27T10:35:32.295Z,336598.232,1635330586,full,ni_sequenzen,NI_Sequenzen,,,,,,,,,,,,,,
,Screen_5,canvas.Screen,0_2_23_4,,skipped,24,336555.10000002384,,,336553.60000002384,,336555.10000002384,2021-10-27T10:35:32.295Z,336598.232,1635330586,full,ni_sequenzen,NI_Sequenzen,,,,,,,,,,,,,,
,Screen_6,canvas.Screen,0_2_23_5,,skipped,24,336555.39999997616,,,336553.60000002384,,336555.39999997616,2021-10-27T10:35:32.295Z,336598.232,1635330586,full,ni_sequenzen,NI_Sequenzen,,,,,,,,,,,,,,
,Sequence,flow.Sequence,0_2_23,,completion,24,336553.2999999523,,,336553.60000002384,,336555.39999997616,2021-10-27T10:35:32.295Z,336598.232,1635330586,full,ni_sequenzen,NI_Sequenzen,,,,,,,,,,,,,,
,Screen_1,canvas.Screen,0_2_24_0,,skipped,25,336555.7999999523,,,336555.7999999523,,336555.89999997616,2021-10-27T10:35:32.296Z,336598.232,1635330586,full,ni_sequenzen,NI_Sequenzen,,,,,,,,,,,,,,
,Screen_2,canvas.Screen,0_2_24_1,,skipped,25,336556.10000002384,,,336555.7999999523,,336556.10000002384,2021-10-27T10:35:32.296Z,336598.232,1635330586,full,ni_sequenzen,NI_Sequenzen,,,,,,,,,,,,,,
,Screen_3,canvas.Screen,0_2_24_2,,skipped,25,336556.2999999523,,,336555.7999999523,,336556.39999997616,2021-10-27T10:35:32.296Z,336598.232,1635330586,full,ni_sequenzen,NI_Sequenzen,,,,,,,,,,,,,,
,Screen_4,canvas.Screen,0_2_24_3,,skipped,25,336556.60000002384,,,336555.7999999523,,336556.60000002384,2021-10-27T10:35:32.297Z,336598.232,1635330586,full,ni_sequenzen,NI_Sequenzen,,,,,,,,,,,,,,
,Screen_5,canvas.Screen,0_2_24_4,,skipped,25,336556.7999999523,,,336555.7999999523,,336556.7999999523,2021-10-27T10:35:32.297Z,336598.232,1635330586,full,ni_sequenzen,NI_Sequenzen,,,,,,,,,,,,,,
,Screen_6,canvas.Screen,0_2_24_5,,skipped,25,336557.10000002384,,,336555.7999999523,,336557.10000002384,2021-10-27T10:35:32.297Z,336598.232,1635330586,full,ni_sequenzen,NI_Sequenzen,,,,,,,,,,,,,,
,Sequence,flow.Sequence,0_2_24,,completion,25,336555.60000002384,,,336555.7999999523,,336557.10000002384,2021-10-27T10:35:32.297Z,336598.232,1635330586,full,ni_sequenzen,NI_Sequenzen,,,,,,,,,,,,,,
,Screen_1,canvas.Screen,0_2_25_0,,skipped,26,336557.5,,,336557.5,,336557.60000002384,2021-10-27T10:35:32.298Z,336598.232,1635330586,full,ni_sequenzen,NI_Sequenzen,,,,,,,,,,,,,,
,Screen_2,canvas.Screen,0_2_25_1,,skipped,26,336557.7000000477,,,336557.5,,336557.7999999523,2021-10-27T10:35:32.298Z,336598.232,1635330586,full,ni_sequenzen,NI_Sequenzen,,,,,,,,,,,,,,
,Screen_3,canvas.Screen,0_2_25_2,,skipped,26,336558,,,336557.5,,336558.10000002384,2021-10-27T10:35:32.298Z,336598.232,1635330586,full,ni_sequenzen,NI_Sequenzen,,,,,,,,,,,,,,
,Screen_4,canvas.Screen,0_2_25_3,,skipped,26,336558.2999999523,,,336557.5,,336558.2999999523,2021-10-27T10:35:32.298Z,336598.232,1635330586,full,ni_sequenzen,NI_Sequenzen,,,,,,,,,,,,,,
,Screen_5,canvas.Screen,0_2_25_4,,skipped,26,336558.60000002384,,,336557.5,,336558.60000002384,2021-10-27T10:35:32.299Z,336598.232,1635330586,full,ni_sequenzen,NI_Sequenzen,,,,,,,,,,,,,,
,Screen_6,canvas.Screen,0_2_25_5,,skipped,26,336558.7999999523,,,336557.5,,336558.7999999523,2021-10-27T10:35:32.299Z,336598.232,1635330586,full,ni_sequenzen,NI_Sequenzen,,,,,,,,,,,,,,
,Sequence,flow.Sequence,0_2_25,,completion,26,336557.2000000477,,,336557.5,,336558.7999999523,2021-10-27T10:35:32.299Z,336598.232,1635330586,full,ni_sequenzen,NI_Sequenzen,,,,,,,,,,,,,,
,Screen_1,canvas.Screen,0_2_26_0,,skipped,27,336559.60000002384,,,336559.60000002384,,336559.60000002384,2021-10-27T10:35:32.300Z,336598.232,1635330586,full,ni_sequenzen,NI_Sequenzen,,,,,,,,,,,,,,
,Screen_2,canvas.Screen,0_2_26_1,,skipped,27,336559.89999997616,,,336559.60000002384,,336559.89999997616,2021-10-27T10:35:32.300Z,336598.232,1635330586,full,ni_sequenzen,NI_Sequenzen,,,,,,,,,,,,,,
,Screen_3,canvas.Screen,0_2_26_2,,skipped,27,336560.2999999523,,,336559.60000002384,,336560.39999997616,2021-10-27T10:35:32.300Z,336598.232,1635330586,full,ni_sequenzen,NI_Sequenzen,,,,,,,,,,,,,,
,Screen_4,canvas.Screen,0_2_26_3,,skipped,27,336560.60000002384,,,336559.60000002384,,336560.60000002384,2021-10-27T10:35:32.301Z,336598.232,1635330586,full,ni_sequenzen,NI_Sequenzen,,,,,,,,,,,,,,
,Screen_5,canvas.Screen,0_2_26_4,,skipped,27,336560.89999997616,,,336559.60000002384,,336560.89999997616,2021-10-27T10:35:32.301Z,336598.232,1635330586,full,ni_sequenzen,NI_Sequenzen,,,,,,,,,,,,,,
,Screen_6,canvas.Screen,0_2_26_5,,skipped,27,336561.10000002384,,,336559.60000002384,,336561.10000002384,2021-10-27T10:35:32.301Z,336598.232,1635330586,full,ni_sequenzen,NI_Sequenzen,,,,,,,,,,,,,,
,Sequence,flow.Sequence,0_2_26,,completion,27,336558.89999997616,,,336559.60000002384,,336561.2000000477,2021-10-27T10:35:32.301Z,336598.232,1635330586,full,ni_sequenzen,NI_Sequenzen,,,,,,,,,,,,,,
,Screen_1,canvas.Screen,0_2_27_0,,skipped,28,336561.60000002384,,,336561.60000002384,,336561.60000002384,2021-10-27T10:35:32.302Z,336598.232,1635330586,full,ni_sequenzen,NI_Sequenzen,,,,,,,,,,,,,,
,Screen_2,canvas.Screen,0_2_27_1,,skipped,28,336561.7999999523,,,336561.60000002384,,336561.7999999523,2021-10-27T10:35:32.302Z,336598.232,1635330586,full,ni_sequenzen,NI_Sequenzen,,,,,,,,,,,,,,
,Screen_3,canvas.Screen,0_2_27_2,,skipped,28,336562.10000002384,,,336561.60000002384,,336562.10000002384,2021-10-27T10:35:32.302Z,336598.232,1635330586,full,ni_sequenzen,NI_Sequenzen,,,,,,,,,,,,,,
,Screen_4,canvas.Screen,0_2_27_3,,skipped,28,336562.2999999523,,,336561.60000002384,,336562.39999997616,2021-10-27T10:35:32.302Z,336598.232,1635330586,full,ni_sequenzen,NI_Sequenzen,,,,,,,,,,,,,,
,Screen_5,canvas.Screen,0_2_27_4,,skipped,28,336562.60000002384,,,336561.60000002384,,336562.60000002384,2021-10-27T10:35:32.303Z,336598.232,1635330586,full,ni_sequenzen,NI_Sequenzen,,,,,,,,,,,,,,
,Screen_6,canvas.Screen,0_2_27_5,,skipped,28,336562.7999999523,,,336561.60000002384,,336562.7999999523,2021-10-27T10:35:32.303Z,336598.232,1635330586,full,ni_sequenzen,NI_Sequenzen,,,,,,,,,,,,,,
,Sequence,flow.Sequence,0_2_27,,completion,28,336561.2000000477,,,336561.60000002384,,336562.89999997616,2021-10-27T10:35:32.303Z,336598.232,1635330586,full,ni_sequenzen,NI_Sequenzen,,,,,,,,,,,,,,
,Screen_1,canvas.Screen,0_2_28_0,,skipped,29,336563.2999999523,,,336563.2999999523,,336563.2999999523,2021-10-27T10:35:32.303Z,336598.232,1635330586,full,ni_sequenzen,NI_Sequenzen,,,,,,,,,,,,,,
,Screen_2,canvas.Screen,0_2_28_1,,skipped,29,336563.5,,,336563.2999999523,,336563.60000002384,2021-10-27T10:35:32.304Z,336598.232,1635330586,full,ni_sequenzen,NI_Sequenzen,,,,,,,,,,,,,,
,Screen_3,canvas.Screen,0_2_28_2,,skipped,29,336563.7999999523,,,336563.2999999523,,336563.7999999523,2021-10-27T10:35:32.304Z,336598.232,1635330586,full,ni_sequenzen,NI_Sequenzen,,,,,,,,,,,,,,
,Screen_4,canvas.Screen,0_2_28_3,,skipped,29,336564.39999997616,,,336563.2999999523,,336564.39999997616,2021-10-27T10:35:32.304Z,336598.232,1635330586,full,ni_sequenzen,NI_Sequenzen,,,,,,,,,,,,,,
,Screen_5,canvas.Screen,0_2_28_4,,skipped,29,336564.60000002384,,,336563.2999999523,,336564.60000002384,2021-10-27T10:35:32.305Z,336598.232,1635330586,full,ni_sequenzen,NI_Sequenzen,,,,,,,,,,,,,,
,Screen_6,canvas.Screen,0_2_28_5,,skipped,29,336565,,,336563.2999999523,,336565,2021-10-27T10:35:32.305Z,336598.232,1635330586,full,ni_sequenzen,NI_Sequenzen,,,,,,,,,,,,,,
,Sequence,flow.Sequence,0_2_28,,completion,29,336563,,,336563.2999999523,,336565,2021-10-27T10:35:32.305Z,336598.232,1635330586,full,ni_sequenzen,NI_Sequenzen,,,,,,,,,,,,,,
,Screen_1,canvas.Screen,0_2_29_0,,skipped,30,336565.39999997616,,,336565.39999997616,,336565.39999997616,2021-10-27T10:35:32.305Z,336598.232,1635330586,full,ni_sequenzen,NI_Sequenzen,,,,,,,,,,,,,,
,Screen_2,canvas.Screen,0_2_29_1,,skipped,30,336565.7000000477,,,336565.39999997616,,336565.7000000477,2021-10-27T10:35:32.306Z,336598.232,1635330586,full,ni_sequenzen,NI_Sequenzen,,,,,,,,,,,,,,
,Screen_3,canvas.Screen,0_2_29_2,,skipped,30,336565.89999997616,,,336565.39999997616,,336565.89999997616,2021-10-27T10:35:32.306Z,336598.232,1635330586,full,ni_sequenzen,NI_Sequenzen,,,,,,,,,,,,,,
,Screen_4,canvas.Screen,0_2_29_3,,skipped,30,336566.2000000477,,,336565.39999997616,,336566.2000000477,2021-10-27T10:35:32.306Z,336598.232,1635330586,full,ni_sequenzen,NI_Sequenzen,,,,,,,,,,,,,,
,Screen_5,canvas.Screen,0_2_29_4,,skipped,30,336566.39999997616,,,336565.39999997616,,336566.39999997616,2021-10-27T10:35:32.306Z,336598.232,1635330586,full,ni_sequenzen,NI_Sequenzen,,,,,,,,,,,,,,
,Screen_6,canvas.Screen,0_2_29_5,,skipped,30,336566.7000000477,,,336565.39999997616,,336566.7000000477,2021-10-27T10:35:32.307Z,336598.232,1635330586,full,ni_sequenzen,NI_Sequenzen,,,,,,,,,,,,,,
,Sequence,flow.Sequence,0_2_29,,completion,30,336565.10000002384,,,336565.39999997616,,336566.7000000477,2021-10-27T10:35:32.307Z,336598.232,1635330586,full,ni_sequenzen,NI_Sequenzen,,,,,,,,,,,,,,
,Instructions_II,flow.Loop,0_2,,completion,,268192.39999997616,268184.613,268201.327,336565.39999997616,68364.07299997617,336566.7999999523,2021-10-27T10:35:32.307Z,336598.232,1635330586,full,ni_sequenzen,NI_Sequenzen,,,,,,,,,,,,,,
,Move,canvas.Screen,0_3_0_0_0_0,right,response,,336585.7999999523,336581.258,336598.232,339504.2000000477,2905.9680000476656,339504.89999997616,2021-10-27T10:35:35.245Z,339514.85,1635330586,full,ni_sequenzen,NI_Sequenzen,1,0,,,,,,,,,,,,
,Move,canvas.Screen,0_3_0_0_0_1,down,response,,339511.10000002384,339498.044,339514.85,341931.60000002384,2416.750000023865,341932.2999999523,2021-10-27T10:35:37.672Z,341948.313,1635330586,full,ni_sequenzen,NI_Sequenzen,2,0,,,,,,,,,,,,
,Move,canvas.Screen,0_3_0_0_0_2,right,response,,341935.7000000477,341931.586,341948.313,343630.10000002384,1681.787000023818,343630.89999997616,2021-10-27T10:35:39.371Z,343648.224,1635330586,full,ni_sequenzen,NI_Sequenzen,3,0,,,,,,,,,,,,
,Move,canvas.Screen,0_3_0_0_0_3,down,response,,343634.2999999523,343631.346,343648.224,345026.2999999523,1378.0759999523289,345027.2000000477,2021-10-27T10:35:40.767Z,345064.82,1635330586,full,ni_sequenzen,NI_Sequenzen,4,0,,,,,,,,,,,,
,Move,canvas.Screen,0_3_0_0_0_4,-999,skipped,,345030.39999997616,,,345026.2999999523,,345030.60000002384,2021-10-27T10:35:40.771Z,345064.82,1635330586,full,ni_sequenzen,NI_Sequenzen,5,0,,,,,,,,,,,,
,Move,canvas.Screen,0_3_0_0_0_5,-999,skipped,,345033.89999997616,,,345026.2999999523,,345034,2021-10-27T10:35:40.774Z,345064.82,1635330586,full,ni_sequenzen,NI_Sequenzen,6,0,,,,,,,,,,,,
,Move,canvas.Screen,0_3_0_0_0_6,-999,skipped,,345037.2000000477,,,345026.2999999523,,345037.2999999523,2021-10-27T10:35:40.777Z,345064.82,1635330586,full,ni_sequenzen,NI_Sequenzen,7,0,,,,,,,,,,,,
,Move,canvas.Screen,0_3_0_0_0_7,-999,skipped,,345040.5,,,345026.2999999523,,345040.60000002384,2021-10-27T10:35:40.781Z,345064.82,1635330586,full,ni_sequenzen,NI_Sequenzen,8,0,,,,,,,,,,,,
,Move,canvas.Screen,0_3_0_0_0_8,-999,skipped,,345042.89999997616,,,345026.2999999523,,345043,2021-10-27T10:35:40.783Z,345064.82,1635330586,full,ni_sequenzen,NI_Sequenzen,9,0,,,,,,,,,,,,
,Move,canvas.Screen,0_3_0_0_0_9,-999,skipped,,345044.7999999523,,,345026.2999999523,,345044.7999999523,2021-10-27T10:35:40.785Z,345064.82,1635330586,full,ni_sequenzen,NI_Sequenzen,10,0,,,,,,,,,,,,
,Move,canvas.Screen,0_3_0_0_0_10,-999,skipped,,345046.89999997616,,,345026.2999999523,,345046.89999997616,2021-10-27T10:35:40.787Z,345064.82,1635330586,full,ni_sequenzen,NI_Sequenzen,11,0,,,,,,,,,,,,
,Move,canvas.Screen,0_3_0_0_0_11,-999,skipped,,345048.2000000477,,,345026.2999999523,,345048.2000000477,2021-10-27T10:35:40.788Z,345064.82,1635330586,full,ni_sequenzen,NI_Sequenzen,12,0,,,,,,,,,,,,
,Move,canvas.Screen,0_3_0_0_0_12,-999,skipped,,345049.5,,,345026.2999999523,,345049.5,2021-10-27T10:35:40.790Z,345064.82,1635330586,full,ni_sequenzen,NI_Sequenzen,13,0,,,,,,,,,,,,
,Move,canvas.Screen,0_3_0_0_0_13,-999,skipped,,345051.2000000477,,,345026.2999999523,,345051.2000000477,2021-10-27T10:35:40.791Z,345064.82,1635330586,full,ni_sequenzen,NI_Sequenzen,14,0,,,,,,,,,,,,
,Move,canvas.Screen,0_3_0_0_0_14,-999,skipped,,345052.2999999523,,,345026.2999999523,,345052.39999997616,2021-10-27T10:35:40.792Z,345064.82,1635330586,full,ni_sequenzen,NI_Sequenzen,15,0,,,,,,,,,,,,
,Loop,flow.Loop,0_3_0_0_0,-999,completion,,336583.2000000477,336581.258,336598.232,345026.2999999523,8428.067999952298,345052.5,2021-10-27T10:35:40.792Z,345064.82,1635330586,full,ni_sequenzen,NI_Sequenzen,,0,,,,,,,,,,,,
,Feedback,canvas.Screen,0_3_0_0_1,,timeout,,345053.60000002384,345048.056,345064.82,349047.813,3999.717000000004,349048.5,2021-10-27T10:35:44.788Z,349064.537,1635330586,full,ni_sequenzen,NI_Sequenzen,,0,,,,,,,,,,,,
,Trial,flow.Sequence,0_3_0_0,,completion,,336576.60000002384,336581.258,336598.232,349047.813,12449.581000000006,349048.7000000477,2021-10-27T10:35:44.789Z,349081.328,1635330586,full,ni_sequenzen,NI_Sequenzen,,0,,,,,,,,,,,,
,Move,canvas.Screen,0_3_0_1_0_0,right,response,,349058.10000002384,349064.537,349081.328,356480.2000000477,7398.872000047704,356481,2021-10-27T10:35:52.221Z,356497.684,1635330586,full,ni_sequenzen,NI_Sequenzen,1,1,,,,,,,,,,,,
,Move,canvas.Screen,0_3_0_1_0_1,down,response,,356484.39999997616,356480.466,356497.684,357410.5,912.8159999999916,357411.2999999523,2021-10-27T10:35:53.151Z,357430.987,1635330586,full,ni_sequenzen,NI_Sequenzen,2,1,,,,,,,,,,,,
,Move,canvas.Screen,0_3_0_1_0_2,right,response,,357414.7999999523,357414.237,357430.987,357904.60000002384,473.61300002381904,357905.2999999523,2021-10-27T10:35:53.645Z,357914,1635330586,full,ni_sequenzen,NI_Sequenzen,3,1,,,,,,,,,,,,
,Move,canvas.Screen,0_3_0_1_0_3,down,response,,357908.10000002384,357897.575,357914,358278.2999999523,364.2999999523163,358279.10000002384,2021-10-27T10:35:54.019Z,358314.015,1635330586,full,ni_sequenzen,NI_Sequenzen,4,1,,,,,,,,,,,,
,Move,canvas.Screen,0_3_0_1_0_4,-999,skipped,,358282.2999999523,,,358278.2999999523,,358282.5,2021-10-27T10:35:54.022Z,358314.015,1635330586,full,ni_sequenzen,NI_Sequenzen,5,1,,,,,,,,,,,,
,Move,canvas.Screen,0_3_0_1_0_5,-999,skipped,,358285.2999999523,,,358278.2999999523,,358285.2999999523,2021-10-27T10:35:54.025Z,358314.015,1635330586,full,ni_sequenzen,NI_Sequenzen,6,1,,,,,,,,,,,,
,Move,canvas.Screen,0_3_0_1_0_6,-999,skipped,,358288,,,358278.2999999523,,358288.10000002384,2021-10-27T10:35:54.028Z,358314.015,1635330586,full,ni_sequenzen,NI_Sequenzen,7,1,,,,,,,,,,,,
,Move,canvas.Screen,0_3_0_1_0_7,-999,skipped,,358291.60000002384,,,358278.2999999523,,358291.7000000477,2021-10-27T10:35:54.032Z,358314.015,1635330586,full,ni_sequenzen,NI_Sequenzen,8,1,,,,,,,,,,,,
,Move,canvas.Screen,0_3_0_1_0_8,-999,skipped,,358294,,,358278.2999999523,,358294.10000002384,2021-10-27T10:35:54.034Z,358314.015,1635330586,full,ni_sequenzen,NI_Sequenzen,9,1,,,,,,,,,,,,
,Move,canvas.Screen,0_3_0_1_0_9,-999,skipped,,358296.7999999523,,,358278.2999999523,,358297,2021-10-27T10:35:54.037Z,358314.015,1635330586,full,ni_sequenzen,NI_Sequenzen,10,1,,,,,,,,,,,,
,Move,canvas.Screen,0_3_0_1_0_10,-999,skipped,,358299.5,,,358278.2999999523,,358299.60000002384,2021-10-27T10:35:54.040Z,358314.015,1635330586,full,ni_sequenzen,NI_Sequenzen,11,1,,,,,,,,,,,,
,Move,canvas.Screen,0_3_0_1_0_11,-999,skipped,,358300.7000000477,,,358278.2999999523,,358300.7999999523,2021-10-27T10:35:54.041Z,358314.015,1635330586,full,ni_sequenzen,NI_Sequenzen,12,1,,,,,,,,,,,,
,Move,canvas.Screen,0_3_0_1_0_12,-999,skipped,,358301.7000000477,,,358278.2999999523,,358301.7000000477,2021-10-27T10:35:54.042Z,358314.015,1635330586,full,ni_sequenzen,NI_Sequenzen,13,1,,,,,,,,,,,,
,Move,canvas.Screen,0_3_0_1_0_13,-999,skipped,,358302.89999997616,,,358278.2999999523,,358302.89999997616,2021-10-27T10:35:54.043Z,358314.015,1635330586,full,ni_sequenzen,NI_Sequenzen,14,1,,,,,,,,,,,,
,Move,canvas.Screen,0_3_0_1_0_14,-999,skipped,,358304.39999997616,,,358278.2999999523,,358304.39999997616,2021-10-27T10:35:54.044Z,358314.015,1635330586,full,ni_sequenzen,NI_Sequenzen,15,1,,,,,,,,,,,,
,Loop,flow.Loop,0_3_0_1_0,-999,completion,,349057.10000002384,349064.537,349081.328,358278.2999999523,9196.971999952337,358304.39999997616,2021-10-27T10:35:54.044Z,358314.015,1635330586,full,ni_sequenzen,NI_Sequenzen,,1,,,,,,,,,,,,
,Feedback,canvas.Screen,0_3_0_1_1,,timeout,,358305.2000000477,358297.659,358314.015,362297.221,4000.017999999982,362297.7999999523,2021-10-27T10:35:58.038Z,362314.033,1635330586,full,ni_sequenzen,NI_Sequenzen,,1,,,,,,,,,,,,
,Trial,flow.Sequence,0_3_0_1,,completion,,349049,349064.537,349081.328,362297.221,13215.89300000004,362297.89999997616,2021-10-27T10:35:58.038Z,362330.748,1635330586,full,ni_sequenzen,NI_Sequenzen,,1,,,,,,,,,,,,
,Move,canvas.Screen,0_3_0_2_0_0,right,response,,362311.60000002384,362314.033,362330.748,368610.60000002384,6279.85200002382,368611.39999997616,2021-10-27T10:36:04.360Z,368630.36,1635330586,full,ni_sequenzen,NI_Sequenzen,1,2,,,,,,,,,,,,
,Move,canvas.Screen,0_3_0_2_0_1,down,response,,368615.89999997616,368613.33,368630.36,369053.89999997616,423.5399999761721,369054.60000002384,2021-10-27T10:36:04.803Z,369063.563,1635330586,full,ni_sequenzen,NI_Sequenzen,2,2,,,,,,,,,,,,
,Move,canvas.Screen,0_3_0_2_0_2,right,response,,369058.2000000477,369047.197,369063.563,370440.2000000477,1376.63700004766,370441,2021-10-27T10:36:06.190Z,370446.798,1635330586,full,ni_sequenzen,NI_Sequenzen,3,2,,,,,,,,,,,,
,Move,canvas.Screen,0_3_0_2_0_3,down,response,,370444.2000000477,370430.356,370446.798,370691.89999997616,245.10199997614836,370692.7000000477,2021-10-27T10:36:06.441Z,370730.407,1635330586,full,ni_sequenzen,NI_Sequenzen,4,2,,,,,,,,,,,,
,Move,canvas.Screen,0_3_0_2_0_4,-999,skipped,,370696.10000002384,,,370691.89999997616,,370696.2999999523,2021-10-27T10:36:06.445Z,370730.407,1635330586,full,ni_sequenzen,NI_Sequenzen,5,2,,,,,,,,,,,,
,Move,canvas.Screen,0_3_0_2_0_5,-999,skipped,,370699.60000002384,,,370691.89999997616,,370699.7000000477,2021-10-27T10:36:06.448Z,370730.407,1635330586,full,ni_sequenzen,NI_Sequenzen,6,2,,,,,,,,,,,,
,Move,canvas.Screen,0_3_0_2_0_6,-999,skipped,,370702.2999999523,,,370691.89999997616,,370702.2999999523,2021-10-27T10:36:06.451Z,370730.407,1635330586,full,ni_sequenzen,NI_Sequenzen,7,2,,,,,,,,,,,,
,Move,canvas.Screen,0_3_0_2_0_7,-999,skipped,,370705.7000000477,,,370691.89999997616,,370705.7999999523,2021-10-27T10:36:06.455Z,370730.407,1635330586,full,ni_sequenzen,NI_Sequenzen,8,2,,,,,,,,,,,,
,Move,canvas.Screen,0_3_0_2_0_8,-999,skipped,,370709,,,370691.89999997616,,370709.10000002384,2021-10-27T10:36:06.458Z,370730.407,1635330586,full,ni_sequenzen,NI_Sequenzen,9,2,,,,,,,,,,,,
,Move,canvas.Screen,0_3_0_2_0_9,-999,skipped,,370710.89999997616,,,370691.89999997616,,370711,2021-10-27T10:36:06.460Z,370730.407,1635330586,full,ni_sequenzen,NI_Sequenzen,10,2,,,,,,,,,,,,
,Move,canvas.Screen,0_3_0_2_0_10,-999,skipped,,370712.60000002384,,,370691.89999997616,,370712.7000000477,2021-10-27T10:36:06.461Z,370730.407,1635330586,full,ni_sequenzen,NI_Sequenzen,11,2,,,,,,,,,,,,
,Move,canvas.Screen,0_3_0_2_0_11,-999,skipped,,370714,,,370691.89999997616,,370714.10000002384,2021-10-27T10:36:06.463Z,370730.407,1635330586,full,ni_sequenzen,NI_Sequenzen,12,2,,,,,,,,,,,,
,Move,canvas.Screen,0_3_0_2_0_12,-999,skipped,,370714.89999997616,,,370691.89999997616,,370714.89999997616,2021-10-27T10:36:06.464Z,370730.407,1635330586,full,ni_sequenzen,NI_Sequenzen,13,2,,,,,,,,,,,,
,Move,canvas.Screen,0_3_0_2_0_13,-999,skipped,,370716.2000000477,,,370691.89999997616,,370716.2000000477,2021-10-27T10:36:06.465Z,370730.407,1635330586,full,ni_sequenzen,NI_Sequenzen,14,2,,,,,,,,,,,,
,Move,canvas.Screen,0_3_0_2_0_14,-999,skipped,,370717.2999999523,,,370691.89999997616,,370717.2999999523,2021-10-27T10:36:06.466Z,370730.407,1635330586,full,ni_sequenzen,NI_Sequenzen,15,2,,,,,,,,,,,,
,Loop,flow.Loop,0_3_0_2_0,-999,completion,,362310.10000002384,362314.033,362330.748,370691.89999997616,8361.151999976137,370717.39999997616,2021-10-27T10:36:06.466Z,370730.407,1635330586,full,ni_sequenzen,NI_Sequenzen,,2,,,,,,,,,,,,
,Feedback,canvas.Screen,0_3_0_2_1,,timeout,,370718,370713.79,370730.407,374713.583,3999.6570000000065,374714.10000002384,2021-10-27T10:36:10.463Z,374730.064,1635330586,full,ni_sequenzen,NI_Sequenzen,,2,,,,,,,,,,,,
,Trial,flow.Sequence,0_3_0_2,,completion,,362298.2999999523,362314.033,362330.748,374713.583,12382.834999999963,374714.2000000477,2021-10-27T10:36:10.463Z,374746.941,1635330586,full,ni_sequenzen,NI_Sequenzen,,2,,,,,,,,,,,,
,Move,canvas.Screen,0_3_0_3_0_0,right,response,,374726,374730.064,374746.941,383656.39999997616,8909.458999976167,383657.2000000477,2021-10-27T10:36:19.406Z,383662.896,1635330586,full,ni_sequenzen,NI_Sequenzen,1,3,,,,,,,,,,,,
,Move,canvas.Screen,0_3_0_3_0_1,down,response,,383660.10000002384,383645.96,383662.896,384034.10000002384,371.20400002383394,384034.89999997616,2021-10-27T10:36:19.784Z,384046.496,1635330586,full,ni_sequenzen,NI_Sequenzen,2,3,,,,,,,,,,,,
,Move,canvas.Screen,0_3_0_3_0_2,right,response,,384038.2000000477,384029.887,384046.496,384422.39999997616,375.9039999761735,384423.2000000477,2021-10-27T10:36:20.172Z,384429.527,1635330586,full,ni_sequenzen,NI_Sequenzen,3,3,,,,,,,,,,,,
,Move,canvas.Screen,0_3_0_3_0_3,down,response,,384426.2999999523,384412.983,384429.527,384706.5,276.97299999999814,384707.39999997616,2021-10-27T10:36:20.456Z,384746.441,1635330586,full,ni_sequenzen,NI_Sequenzen,4,3,,,,,,,,,,,,
,Move,canvas.Screen,0_3_0_3_0_4,-999,skipped,,384710.2000000477,,,384706.5,,384710.2999999523,2021-10-27T10:36:20.459Z,384746.441,1635330586,full,ni_sequenzen,NI_Sequenzen,5,3,,,,,,,,,,,,
,Move,canvas.Screen,0_3_0_3_0_5,-999,skipped,,384713.39999997616,,,384706.5,,384713.60000002384,2021-10-27T10:36:20.462Z,384746.441,1635330586,full,ni_sequenzen,NI_Sequenzen,6,3,,,,,,,,,,,,
,Move,canvas.Screen,0_3_0_3_0_6,-999,skipped,,384716.10000002384,,,384706.5,,384716.2000000477,2021-10-27T10:36:20.465Z,384746.441,1635330586,full,ni_sequenzen,NI_Sequenzen,7,3,,,,,,,,,,,,
,Move,canvas.Screen,0_3_0_3_0_7,-999,skipped,,384718.7000000477,,,384706.5,,384718.89999997616,2021-10-27T10:36:20.468Z,384746.441,1635330586,full,ni_sequenzen,NI_Sequenzen,8,3,,,,,,,,,,,,
,Move,canvas.Screen,0_3_0_3_0_8,-999,skipped,,384722.2000000477,,,384706.5,,384722.2000000477,2021-10-27T10:36:20.471Z,384746.441,1635330586,full,ni_sequenzen,NI_Sequenzen,9,3,,,,,,,,,,,,
,Move,canvas.Screen,0_3_0_3_0_9,-999,skipped,,384724,,,384706.5,,384724.10000002384,2021-10-27T10:36:20.473Z,384746.441,1635330586,full,ni_sequenzen,NI_Sequenzen,10,3,,,,,,,,,,,,
,Move,canvas.Screen,0_3_0_3_0_10,-999,skipped,,384725.7000000477,,,384706.5,,384725.7000000477,2021-10-27T10:36:20.474Z,384746.441,1635330586,full,ni_sequenzen,NI_Sequenzen,11,3,,,,,,,,,,,,
,Move,canvas.Screen,0_3_0_3_0_11,-999,skipped,,384727.2000000477,,,384706.5,,384727.2999999523,2021-10-27T10:36:20.476Z,384746.441,1635330586,full,ni_sequenzen,NI_Sequenzen,12,3,,,,,,,,,,,,
,Move,canvas.Screen,0_3_0_3_0_12,-999,skipped,,384728.7000000477,,,384706.5,,384728.7000000477,2021-10-27T10:36:20.477Z,384746.441,1635330586,full,ni_sequenzen,NI_Sequenzen,13,3,,,,,,,,,,,,
,Move,canvas.Screen,0_3_0_3_0_13,-999,skipped,,384729.60000002384,,,384706.5,,384729.7000000477,2021-10-27T10:36:20.478Z,384746.441,1635330586,full,ni_sequenzen,NI_Sequenzen,14,3,,,,,,,,,,,,
,Move,canvas.Screen,0_3_0_3_0_14,-999,skipped,,384730.7999999523,,,384706.5,,384730.89999997616,2021-10-27T10:36:20.480Z,384746.441,1635330586,full,ni_sequenzen,NI_Sequenzen,15,3,,,,,,,,,,,,
,Loop,flow.Loop,0_3_0_3_0,-999,completion,,374724.60000002384,374730.064,374746.941,384706.5,9959.559000000008,384730.89999997616,2021-10-27T10:36:20.480Z,384746.441,1635330586,full,ni_sequenzen,NI_Sequenzen,,3,,,,,,,,,,,,
,Feedback,canvas.Screen,0_3_0_3_1,,timeout,,384731.5,384729.818,384746.441,388729.514,3999.829000000027,388730,2021-10-27T10:36:24.479Z,388746.27,1635330586,full,ni_sequenzen,NI_Sequenzen,,3,,,,,,,,,,,,
,Trial,flow.Sequence,0_3_0_3,,completion,,374714.60000002384,374730.064,374746.941,388729.514,13982.573000000033,388730.2000000477,2021-10-27T10:36:24.479Z,388762.93,1635330586,full,ni_sequenzen,NI_Sequenzen,,3,,,,,,,,,,,,
,Move,canvas.Screen,0_3_0_4_0_0,right,response,,388741,388746.27,388762.93,396693.7999999523,7930.869999952323,396694.60000002384,2021-10-27T10:36:32.443Z,396712.618,1635330586,full,ni_sequenzen,NI_Sequenzen,1,4,,,,,,,,,,,,
,Move,canvas.Screen,0_3_0_4_0_1,down,response,,396697.2999999523,396695.362,396712.618,397098.10000002384,385.4820000238251,397098.7000000477,2021-10-27T10:36:32.847Z,397112.416,1635330586,full,ni_sequenzen,NI_Sequenzen,2,4,,,,,,,,,,,,
,Move,canvas.Screen,0_3_0_4_0_2,right,response,,397100,397095.858,397112.416,397491.5,379.08399999997346,397492.2999999523,2021-10-27T10:36:33.241Z,397513.033,1635330586,full,ni_sequenzen,NI_Sequenzen,3,4,,,,,,,,,,,,
,Move,canvas.Screen,0_3_0_4_0_3,down,response,,397495.10000002384,397479.099,397513.033,397784.39999997616,271.36699997616233,397785.10000002384,2021-10-27T10:36:33.534Z,397845.65,1635330586,full,ni_sequenzen,NI_Sequenzen,4,4,,,,,,,,,,,,
,Move,canvas.Screen,0_3_0_4_0_4,-999,skipped,,397787.89999997616,,,397784.39999997616,,397788.10000002384,2021-10-27T10:36:33.537Z,397845.65,1635330586,full,ni_sequenzen,NI_Sequenzen,5,4,,,,,,,,,,,,
,Move,canvas.Screen,0_3_0_4_0_5,-999,skipped,,397791,,,397784.39999997616,,397791.10000002384,2021-10-27T10:36:33.540Z,397845.65,1635330586,full,ni_sequenzen,NI_Sequenzen,6,4,,,,,,,,,,,,
,Move,canvas.Screen,0_3_0_4_0_6,-999,skipped,,397794.5,,,397784.39999997616,,397794.60000002384,2021-10-27T10:36:33.543Z,397845.65,1635330586,full,ni_sequenzen,NI_Sequenzen,7,4,,,,,,,,,,,,
,Move,canvas.Screen,0_3_0_4_0_7,-999,skipped,,397797,,,397784.39999997616,,397797.10000002384,2021-10-27T10:36:33.546Z,397845.65,1635330586,full,ni_sequenzen,NI_Sequenzen,8,4,,,,,,,,,,,,
,Move,canvas.Screen,0_3_0_4_0_8,-999,skipped,,397799.39999997616,,,397784.39999997616,,397799.5,2021-10-27T10:36:33.548Z,397845.65,1635330586,full,ni_sequenzen,NI_Sequenzen,9,4,,,,,,,,,,,,
,Move,canvas.Screen,0_3_0_4_0_9,-999,skipped,,397802.5,,,397784.39999997616,,397802.7000000477,2021-10-27T10:36:33.551Z,397845.65,1635330586,full,ni_sequenzen,NI_Sequenzen,10,4,,,,,,,,,,,,
,Move,canvas.Screen,0_3_0_4_0_10,-999,skipped,,397804.5,,,397784.39999997616,,397804.7000000477,2021-10-27T10:36:33.553Z,397845.65,1635330586,full,ni_sequenzen,NI_Sequenzen,11,4,,,,,,,,,,,,
,Move,canvas.Screen,0_3_0_4_0_11,-999,skipped,,397807,,,397784.39999997616,,397807.10000002384,2021-10-27T10:36:33.556Z,397845.65,1635330586,full,ni_sequenzen,NI_Sequenzen,12,4,,,,,,,,,,,,
,Move,canvas.Screen,0_3_0_4_0_12,-999,skipped,,397809.60000002384,,,397784.39999997616,,397809.7000000477,2021-10-27T10:36:33.558Z,397845.65,1635330586,full,ni_sequenzen,NI_Sequenzen,13,4,,,,,,,,,,,,
,Move,canvas.Screen,0_3_0_4_0_13,-999,skipped,,397810.5,,,397784.39999997616,,397810.60000002384,2021-10-27T10:36:33.559Z,397845.65,1635330586,full,ni_sequenzen,NI_Sequenzen,14,4,,,,,,,,,,,,
,Move,canvas.Screen,0_3_0_4_0_14,-999,skipped,,397811.39999997616,,,397784.39999997616,,397811.39999997616,2021-10-27T10:36:33.560Z,397845.65,1635330586,full,ni_sequenzen,NI_Sequenzen,15,4,,,,,,,,,,,,
,Loop,flow.Loop,0_3_0_4_0,-999,completion,,388739.60000002384,388746.27,388762.93,397784.39999997616,9021.469999976165,397811.60000002384,2021-10-27T10:36:33.560Z,397845.65,1635330586,full,ni_sequenzen,NI_Sequenzen,,4,,,,,,,,,,,,
,Feedback,canvas.Screen,0_3_0_4_1,,timeout,,397812.2999999523,397829.233,397845.65,401828.881,3999.816999999981,401841,2021-10-27T10:36:37.590Z,401845.467,1635330586,full,ni_sequenzen,NI_Sequenzen,,4,,,,,,,,,,,,
,Trial,flow.Sequence,0_3_0_4,,completion,,388730.60000002384,388746.27,388762.93,401828.881,13065.951000000001,401841.2000000477,2021-10-27T10:36:37.590Z,401862.196,1635330586,full,ni_sequenzen,NI_Sequenzen,,4,,,,,,,,,,,,
,Move,canvas.Screen,0_3_0_5_0_0,right,response,,401862,401845.467,401862.196,403923.39999997616,2061.203999976162,403924.39999997616,2021-10-27T10:36:39.673Z,403960.833,1635330586,full,ni_sequenzen,NI_Sequenzen,1,5,,,,,,,,,,,,
,Move,canvas.Screen,0_3_0_5_0_1,down,response,,403927.60000002384,403912.28,403960.833,404230.7999999523,269.9669999523321,404231.7000000477,2021-10-27T10:36:39.980Z,404245.62,1635330586,full,ni_sequenzen,NI_Sequenzen,2,5,,,,,,,,,,,,
,Move,canvas.Screen,0_3_0_5_0_2,right,response,,404234.60000002384,404228.917,404245.62,404553,307.38000000000466,404553.7999999523,2021-10-27T10:36:40.303Z,404562.007,1635330586,full,ni_sequenzen,NI_Sequenzen,3,5,,,,,,,,,,,,
,Move,canvas.Screen,0_3_0_5_0_3,down,response,,404556.60000002384,404545.535,404562.007,404821.60000002384,259.5930000238586,404822.5,2021-10-27T10:36:40.571Z,404862.236,1635330586,full,ni_sequenzen,NI_Sequenzen,4,5,,,,,,,,,,,,
,Move,canvas.Screen,0_3_0_5_0_4,-999,skipped,,404825.60000002384,,,404821.60000002384,,404825.7000000477,2021-10-27T10:36:40.575Z,404862.236,1635330586,full,ni_sequenzen,NI_Sequenzen,5,5,,,,,,,,,,,,
,Move,canvas.Screen,0_3_0_5_0_5,-999,skipped,,404828.2000000477,,,404821.60000002384,,404828.2999999523,2021-10-27T10:36:40.577Z,404862.236,1635330586,full,ni_sequenzen,NI_Sequenzen,6,5,,,,,,,,,,,,
,Move,canvas.Screen,0_3_0_5_0_6,-999,skipped,,404831.60000002384,,,404821.60000002384,,404831.7999999523,2021-10-27T10:36:40.580Z,404862.236,1635330586,full,ni_sequenzen,NI_Sequenzen,7,5,,,,,,,,,,,,
,Move,canvas.Screen,0_3_0_5_0_7,-999,skipped,,404834.2999999523,,,404821.60000002384,,404834.39999997616,2021-10-27T10:36:40.583Z,404862.236,1635330586,full,ni_sequenzen,NI_Sequenzen,8,5,,,,,,,,,,,,
,Move,canvas.Screen,0_3_0_5_0_8,-999,skipped,,404836.89999997616,,,404821.60000002384,,404837,2021-10-27T10:36:40.586Z,404862.236,1635330586,full,ni_sequenzen,NI_Sequenzen,9,5,,,,,,,,,,,,
,Move,canvas.Screen,0_3_0_5_0_9,-999,skipped,,404839,,,404821.60000002384,,404839,2021-10-27T10:36:40.588Z,404862.236,1635330586,full,ni_sequenzen,NI_Sequenzen,10,5,,,,,,,,,,,,
,Move,canvas.Screen,0_3_0_5_0_10,-999,skipped,,404841,,,404821.60000002384,,404841.10000002384,2021-10-27T10:36:40.590Z,404862.236,1635330586,full,ni_sequenzen,NI_Sequenzen,11,5,,,,,,,,,,,,
,Move,canvas.Screen,0_3_0_5_0_11,-999,skipped,,404842.39999997616,,,404821.60000002384,,404842.5,2021-10-27T10:36:40.591Z,404862.236,1635330586,full,ni_sequenzen,NI_Sequenzen,12,5,,,,,,,,,,,,
,Move,canvas.Screen,0_3_0_5_0_12,-999,skipped,,404843.7000000477,,,404821.60000002384,,404843.7000000477,2021-10-27T10:36:40.592Z,404862.236,1635330586,full,ni_sequenzen,NI_Sequenzen,13,5,,,,,,,,,,,,
,Move,canvas.Screen,0_3_0_5_0_13,-999,skipped,,404844.7999999523,,,404821.60000002384,,404844.7999999523,2021-10-27T10:36:40.594Z,404862.236,1635330586,full,ni_sequenzen,NI_Sequenzen,14,5,,,,,,,,,,,,
,Move,canvas.Screen,0_3_0_5_0_14,-999,skipped,,404845.7000000477,,,404821.60000002384,,404845.7999999523,2021-10-27T10:36:40.594Z,404862.236,1635330586,full,ni_sequenzen,NI_Sequenzen,15,5,,,,,,,,,,,,
,Loop,flow.Loop,0_3_0_5_0,-999,completion,,401859.89999997616,401845.467,401862.196,404821.60000002384,2959.4040000238456,404845.7999999523,2021-10-27T10:36:40.595Z,404862.236,1635330586,full,ni_sequenzen,NI_Sequenzen,,5,,,,,,,,,,,,
,Feedback,canvas.Screen,0_3_0_5_1,,timeout,,404846.5,404845.677,404862.236,408845.431,3999.9190000000526,408845.89999997616,2021-10-27T10:36:44.595Z,408862.155,1635330586,full,ni_sequenzen,NI_Sequenzen,,5,,,,,,,,,,,,
,Trial,flow.Sequence,0_3_0_5,,completion,,401841.5,401845.467,401862.196,408845.431,6983.234999999986,408846.10000002384,2021-10-27T10:36:44.595Z,408878.8,1635330586,full,ni_sequenzen,NI_Sequenzen,,5,,,,,,,,,,,,
,Move,canvas.Screen,0_3_0_6_0_0,right,response,,408857.2999999523,408862.155,408878.8,410316.7999999523,1437.999999952328,410317.7000000477,2021-10-27T10:36:46.066Z,410328.418,1635330586,full,ni_sequenzen,NI_Sequenzen,1,6,,,,,,,,,,,,
,Move,canvas.Screen,0_3_0_6_0_1,down,response,,410320.2999999523,410311.89,410328.418,410674,345.5819999999949,410674.7999999523,2021-10-27T10:36:46.424Z,410695.206,1635330586,full,ni_sequenzen,NI_Sequenzen,2,6,,,,,,,,,,,,
,Move,canvas.Screen,0_3_0_6_0_2,right,response,,410678,410662.07,410695.206,411000.10000002384,304.89400002383627,411000.7999999523,2021-10-27T10:36:46.750Z,411012.015,1635330586,full,ni_sequenzen,NI_Sequenzen,3,6,,,,,,,,,,,,
,Move,canvas.Screen,0_3_0_6_0_3,down,response,,411003.60000002384,410995.14,411012.015,411297.39999997616,285.3849999761442,411298.2000000477,2021-10-27T10:36:47.047Z,411328.435,1635330586,full,ni_sequenzen,NI_Sequenzen,4,6,,,,,,,,,,,,
,Move,canvas.Screen,0_3_0_6_0_4,-999,skipped,,411301,,,411297.39999997616,,411301.10000002384,2021-10-27T10:36:47.050Z,411328.435,1635330586,full,ni_sequenzen,NI_Sequenzen,5,6,,,,,,,,,,,,
,Move,canvas.Screen,0_3_0_6_0_5,-999,skipped,,411305.10000002384,,,411297.39999997616,,411305.2000000477,2021-10-27T10:36:47.054Z,411328.435,1635330586,full,ni_sequenzen,NI_Sequenzen,6,6,,,,,,,,,,,,
,Move,canvas.Screen,0_3_0_6_0_6,-999,skipped,,411307.7000000477,,,411297.39999997616,,411307.7999999523,2021-10-27T10:36:47.057Z,411328.435,1635330586,full,ni_sequenzen,NI_Sequenzen,7,6,,,,,,,,,,,,
,Move,canvas.Screen,0_3_0_6_0_7,-999,skipped,,411310.2999999523,,,411297.39999997616,,411310.39999997616,2021-10-27T10:36:47.059Z,411328.435,1635330586,full,ni_sequenzen,NI_Sequenzen,8,6,,,,,,,,,,,,
,Move,canvas.Screen,0_3_0_6_0_8,-999,skipped,,411313.2999999523,,,411297.39999997616,,411313.39999997616,2021-10-27T10:36:47.062Z,411328.435,1635330586,full,ni_sequenzen,NI_Sequenzen,9,6,,,,,,,,,,,,
,Move,canvas.Screen,0_3_0_6_0_9,-999,skipped,,411315.39999997616,,,411297.39999997616,,411315.5,2021-10-27T10:36:47.064Z,411328.435,1635330586,full,ni_sequenzen,NI_Sequenzen,10,6,,,,,,,,,,,,
,Move,canvas.Screen,0_3_0_6_0_10,-999,skipped,,411316.7999999523,,,411297.39999997616,,411317,2021-10-27T10:36:47.066Z,411328.435,1635330586,full,ni_sequenzen,NI_Sequenzen,11,6,,,,,,,,,,,,
,Move,canvas.Screen,0_3_0_6_0_11,-999,skipped,,411318.2999999523,,,411297.39999997616,,411318.39999997616,2021-10-27T10:36:47.067Z,411328.435,1635330586,full,ni_sequenzen,NI_Sequenzen,12,6,,,,,,,,,,,,
,Move,canvas.Screen,0_3_0_6_0_12,-999,skipped,,411319.7999999523,,,411297.39999997616,,411319.7999999523,2021-10-27T10:36:47.068Z,411328.435,1635330586,full,ni_sequenzen,NI_Sequenzen,13,6,,,,,,,,,,,,
,Move,canvas.Screen,0_3_0_6_0_13,-999,skipped,,411320.7999999523,,,411297.39999997616,,411320.89999997616,2021-10-27T10:36:47.070Z,411328.435,1635330586,full,ni_sequenzen,NI_Sequenzen,14,6,,,,,,,,,,,,
,Move,canvas.Screen,0_3_0_6_0_14,-999,skipped,,411321.7000000477,,,411297.39999997616,,411321.7000000477,2021-10-27T10:36:47.070Z,411328.435,1635330586,full,ni_sequenzen,NI_Sequenzen,15,6,,,,,,,,,,,,
,Loop,flow.Loop,0_3_0_6_0,-999,completion,,408856.2999999523,408862.155,408878.8,411297.39999997616,2418.59999997617,411321.7999999523,2021-10-27T10:36:47.071Z,411328.435,1635330586,full,ni_sequenzen,NI_Sequenzen,,6,,,,,,,,,,,,
,Feedback,canvas.Screen,0_3_0_6_1,,timeout,,411322.60000002384,411311.896,411328.435,415311.815,3999.954000000027,415312.39999997616,2021-10-27T10:36:51.061Z,415328.389,1635330586,full,ni_sequenzen,NI_Sequenzen,,6,,,,,,,,,,,,
,Trial,flow.Sequence,0_3_0_6,,completion,,408846.5,408862.155,408878.8,415311.815,6433.015000000014,415312.5,2021-10-27T10:36:51.061Z,415345.2,1635330586,full,ni_sequenzen,NI_Sequenzen,,6,,,,,,,,,,,,
,Move,canvas.Screen,0_3_0_7_0_0,right,response,,415321.89999997616,415328.389,415345.2,417633.2000000477,2288.000000047672,417634.2000000477,2021-10-27T10:36:53.383Z,417644.797,1635330586,full,ni_sequenzen,NI_Sequenzen,1,7,,,,,,,,,,,,
,Move,canvas.Screen,0_3_0_7_0_1,down,response,,417638,417628.114,417644.797,417961.89999997616,317.10299997613765,417962.7000000477,2021-10-27T10:36:53.711Z,417978.365,1635330586,full,ni_sequenzen,NI_Sequenzen,2,7,,,,,,,,,,,,
,Move,canvas.Screen,0_3_0_7_0_2,right,response,,417965.7000000477,417961.751,417978.365,418289.39999997616,311.03499997616746,418290.2000000477,2021-10-27T10:36:54.039Z,418294.722,1635330586,full,ni_sequenzen,NI_Sequenzen,3,7,,,,,,,,,,,,
,Move,canvas.Screen,0_3_0_7_0_3,down,response,,418293,418278.273,418294.722,418622,327.27799999999115,418622.89999997616,2021-10-27T10:36:54.372Z,418644.748,1635330586,full,ni_sequenzen,NI_Sequenzen,4,7,,,,,,,,,,,,
,Move,canvas.Screen,0_3_0_7_0_4,-999,skipped,,418625.7000000477,,,418622,,418625.7999999523,2021-10-27T10:36:54.375Z,418644.748,1635330586,full,ni_sequenzen,NI_Sequenzen,5,7,,,,,,,,,,,,
,Move,canvas.Screen,0_3_0_7_0_5,-999,skipped,,418628.89999997616,,,418622,,418628.89999997616,2021-10-27T10:36:54.378Z,418644.748,1635330586,full,ni_sequenzen,NI_Sequenzen,6,7,,,,,,,,,,,,
,Move,canvas.Screen,0_3_0_7_0_6,-999,skipped,,418629.7000000477,,,418622,,418629.7000000477,2021-10-27T10:36:54.378Z,418644.748,1635330586,full,ni_sequenzen,NI_Sequenzen,7,7,,,,,,,,,,,,
,Move,canvas.Screen,0_3_0_7_0_7,-999,skipped,,418630.39999997616,,,418622,,418630.5,2021-10-27T10:36:54.379Z,418644.748,1635330586,full,ni_sequenzen,NI_Sequenzen,8,7,,,,,,,,,,,,
,Move,canvas.Screen,0_3_0_7_0_8,-999,skipped,,418631.2999999523,,,418622,,418631.39999997616,2021-10-27T10:36:54.380Z,418644.748,1635330586,full,ni_sequenzen,NI_Sequenzen,9,7,,,,,,,,,,,,
,Move,canvas.Screen,0_3_0_7_0_9,-999,skipped,,418632.10000002384,,,418622,,418632.10000002384,2021-10-27T10:36:54.381Z,418644.748,1635330586,full,ni_sequenzen,NI_Sequenzen,10,7,,,,,,,,,,,,
,Move,canvas.Screen,0_3_0_7_0_10,-999,skipped,,418633.2000000477,,,418622,,418633.2000000477,2021-10-27T10:36:54.382Z,418644.748,1635330586,full,ni_sequenzen,NI_Sequenzen,11,7,,,,,,,,,,,,
,Move,canvas.Screen,0_3_0_7_0_11,-999,skipped,,418634.2999999523,,,418622,,418634.2999999523,2021-10-27T10:36:54.383Z,418644.748,1635330586,full,ni_sequenzen,NI_Sequenzen,12,7,,,,,,,,,,,,
,Move,canvas.Screen,0_3_0_7_0_12,-999,skipped,,418635.5,,,418622,,418635.5,2021-10-27T10:36:54.384Z,418644.748,1635330586,full,ni_sequenzen,NI_Sequenzen,13,7,,,,,,,,,,,,
,Move,canvas.Screen,0_3_0_7_0_13,-999,skipped,,418636.2999999523,,,418622,,418636.2999999523,2021-10-27T10:36:54.385Z,418644.748,1635330586,full,ni_sequenzen,NI_Sequenzen,14,7,,,,,,,,,,,,
,Move,canvas.Screen,0_3_0_7_0_14,-999,skipped,,418636.89999997616,,,418622,,418637,2021-10-27T10:36:54.386Z,418644.748,1635330586,full,ni_sequenzen,NI_Sequenzen,15,7,,,,,,,,,,,,
,Loop,flow.Loop,0_3_0_7_0,-999,completion,,415320.10000002384,415328.389,415345.2,418622,3276.7999999999884,418637.10000002384,2021-10-27T10:36:54.386Z,418644.748,1635330586,full,ni_sequenzen,NI_Sequenzen,,7,,,,,,,,,,,,
,Feedback,canvas.Screen,0_3_0_7_1,,timeout,,418637.89999997616,418628.389,418644.748,422628.164,4000.0499999999884,422628.7000000477,2021-10-27T10:36:58.377Z,422644.798,1635330586,full,ni_sequenzen,NI_Sequenzen,,7,,,,,,,,,,,,
,Trial,flow.Sequence,0_3_0_7,,completion,,415312.7999999523,415328.389,415345.2,422628.164,7282.963999999978,422628.89999997616,2021-10-27T10:36:58.378Z,422661.468,1635330586,full,ni_sequenzen,NI_Sequenzen,,7,,,,,,,,,,,,
,Move,canvas.Screen,0_3_0_8_0_0,right,response,,422638.10000002384,422644.798,422661.468,426717.2000000477,4055.7320000476902,426718.10000002384,2021-10-27T10:37:02.467Z,426727.723,1635330586,full,ni_sequenzen,NI_Sequenzen,1,8,,,,,,,,,,,,
,Move,canvas.Screen,0_3_0_8_0_1,down,response,,426720.7000000477,426710.958,426727.723,427065.7000000477,337.9770000476856,427066.60000002384,2021-10-27T10:37:02.815Z,427077.911,1635330586,full,ni_sequenzen,NI_Sequenzen,2,8,,,,,,,,,,,,
,Move,canvas.Screen,0_3_0_8_0_2,right,response,,427069.7999999523,427061.395,427077.911,427388.39999997616,310.48899997613626,427389.2999999523,2021-10-27T10:37:03.138Z,427394.3,1635330586,full,ni_sequenzen,NI_Sequenzen,3,8,,,,,,,,,,,,
,Move,canvas.Screen,0_3_0_8_0_3,down,response,,427392.2999999523,427378.024,427394.3,427799.5,405.20000000001164,427800.39999997616,2021-10-27T10:37:03.549Z,427827.711,1635330586,full,ni_sequenzen,NI_Sequenzen,4,8,,,,,,,,,,,,
,Move,canvas.Screen,0_3_0_8_0_4,-999,skipped,,427803.2000000477,,,427799.5,,427803.2999999523,2021-10-27T10:37:03.552Z,427827.711,1635330586,full,ni_sequenzen,NI_Sequenzen,5,8,,,,,,,,,,,,
,Move,canvas.Screen,0_3_0_8_0_5,-999,skipped,,427806.60000002384,,,427799.5,,427806.60000002384,2021-10-27T10:37:03.555Z,427827.711,1635330586,full,ni_sequenzen,NI_Sequenzen,6,8,,,,,,,,,,,,
,Move,canvas.Screen,0_3_0_8_0_6,-999,skipped,,427809.2000000477,,,427799.5,,427809.2000000477,2021-10-27T10:37:03.558Z,427827.711,1635330586,full,ni_sequenzen,NI_Sequenzen,7,8,,,,,,,,,,,,
,Move,canvas.Screen,0_3_0_8_0_7,-999,skipped,,427813,,,427799.5,,427813.10000002384,2021-10-27T10:37:03.562Z,427827.711,1635330586,full,ni_sequenzen,NI_Sequenzen,8,8,,,,,,,,,,,,
,Move,canvas.Screen,0_3_0_8_0_8,-999,skipped,,427815.89999997616,,,427799.5,,427816,2021-10-27T10:37:03.565Z,427827.711,1635330586,full,ni_sequenzen,NI_Sequenzen,9,8,,,,,,,,,,,,
,Move,canvas.Screen,0_3_0_8_0_9,-999,skipped,,427817.7000000477,,,427799.5,,427817.7999999523,2021-10-27T10:37:03.567Z,427827.711,1635330586,full,ni_sequenzen,NI_Sequenzen,10,8,,,,,,,,,,,,
,Move,canvas.Screen,0_3_0_8_0_10,-999,skipped,,427819.2000000477,,,427799.5,,427819.2000000477,2021-10-27T10:37:03.568Z,427827.711,1635330586,full,ni_sequenzen,NI_Sequenzen,11,8,,,,,,,,,,,,
,Move,canvas.Screen,0_3_0_8_0_11,-999,skipped,,427820.5,,,427799.5,,427820.5,2021-10-27T10:37:03.569Z,427827.711,1635330586,full,ni_sequenzen,NI_Sequenzen,12,8,,,,,,,,,,,,
,Move,canvas.Screen,0_3_0_8_0_12,-999,skipped,,427821.89999997616,,,427799.5,,427821.89999997616,2021-10-27T10:37:03.571Z,427827.711,1635330586,full,ni_sequenzen,NI_Sequenzen,13,8,,,,,,,,,,,,
,Move,canvas.Screen,0_3_0_8_0_13,-999,skipped,,427822.7000000477,,,427799.5,,427822.7000000477,2021-10-27T10:37:03.572Z,427827.711,1635330586,full,ni_sequenzen,NI_Sequenzen,14,8,,,,,,,,,,,,
,Move,canvas.Screen,0_3_0_8_0_14,-999,skipped,,427823.5,,,427799.5,,427823.5,2021-10-27T10:37:03.572Z,427827.711,1635330586,full,ni_sequenzen,NI_Sequenzen,15,8,,,,,,,,,,,,
