meta,sender,sender_type,sender_id,response,ended_on,instrCount,time_run,time_render,time_show,time_end,duration,time_commit,timestamp,time_switch,openLabId,type,task,project,move,trialN,blockN_Train,blockN,moveCount,currPP,points,movesTrial,visitedFields,diff,reward,Strategie,Zweck,Probleme
[object Object],Screen_1,canvas.Screen,0_0_0_0,cont,response,1,1444,1443.92,1472.02,48822,47349.98,48834,2021-10-26T08:03:11.584Z,49082.82,1635235335,full,ni_sequenzen,NI_Sequenzen,,,,,,,,,,,,,,
,Screen_2,canvas.Screen,0_0_0_1,cont,response,1,49075,49075.1,49082.82,71528,22445.18,71535,2021-10-26T08:03:34.285Z,71730.82,1635235335,full,ni_sequenzen,NI_Sequenzen,,,,,,,,,,,,,,
,Screen_3,canvas.Screen,0_0_0_2,cont,response,1,71720,71719.72,71730.82,92637,20906.179999999993,92644,2021-10-26T08:03:55.393Z,92649.62,1635235335,full,ni_sequenzen,NI_Sequenzen,,,,,,,,,,,,,,
,Screen_4,canvas.Screen,0_0_0_3,cont,response,1,92650,92649.32,92649.62,98372,5722.380000000005,98377,2021-10-26T08:04:01.125Z,98526.02,1635235335,full,ni_sequenzen,NI_Sequenzen,,,,,,,,,,,,,,
,Sequence,flow.Sequence,0_0_0,,completion,1,1268,1443.92,1472.02,98372,96899.98,98378,2021-10-26T08:04:01.128Z,98526.02,1635235335,full,ni_sequenzen,NI_Sequenzen,,,,,,,,,,,,,,
,Screen_1,canvas.Screen,0_0_1_0,,skipped,2,98384,,,98384,,98385,2021-10-26T08:04:01.134Z,98526.02,1635235335,full,ni_sequenzen,NI_Sequenzen,,,,,,,,,,,,,,
,Screen_2,canvas.Screen,0_0_1_1,,skipped,2,98387,,,98384,,98388,2021-10-26T08:04:01.137Z,98526.02,1635235335,full,ni_sequenzen,NI_Sequenzen,,,,,,,,,,,,,,
,Screen_3,canvas.Screen,0_0_1_2,,skipped,2,98389,,,98384,,98389,2021-10-26T08:04:01.138Z,98526.02,1635235335,full,ni_sequenzen,NI_Sequenzen,,,,,,,,,,,,,,
,Screen_4,canvas.Screen,0_0_1_3,,skipped,2,98390,,,98384,,98390,2021-10-26T08:04:01.139Z,98526.02,1635235335,full,ni_sequenzen,NI_Sequenzen,,,,,,,,,,,,,,
,Sequence,flow.Sequence,0_0_1,,completion,2,98381,,,98384,,98390,2021-10-26T08:04:01.139Z,98526.02,1635235335,full,ni_sequenzen,NI_Sequenzen,,,,,,,,,,,,,,
,Screen_1,canvas.Screen,0_0_2_0,,skipped,3,98392,,,98392,,98392,2021-10-26T08:04:01.141Z,98526.02,1635235335,full,ni_sequenzen,NI_Sequenzen,,,,,,,,,,,,,,
,Screen_2,canvas.Screen,0_0_2_1,,skipped,3,98393,,,98392,,98393,2021-10-26T08:04:01.141Z,98526.02,1635235335,full,ni_sequenzen,NI_Sequenzen,,,,,,,,,,,,,,
,Screen_3,canvas.Screen,0_0_2_2,,skipped,3,98395,,,98392,,98395,2021-10-26T08:04:01.144Z,98526.02,1635235335,full,ni_sequenzen,NI_Sequenzen,,,,,,,,,,,,,,
,Screen_4,canvas.Screen,0_0_2_3,,skipped,3,98397,,,98392,,98397,2021-10-26T08:04:01.146Z,98526.02,1635235335,full,ni_sequenzen,NI_Sequenzen,,,,,,,,,,,,,,
,Sequence,flow.Sequence,0_0_2,,completion,3,98391,,,98392,,98398,2021-10-26T08:04:01.147Z,98526.02,1635235335,full,ni_sequenzen,NI_Sequenzen,,,,,,,,,,,,,,
,Screen_1,canvas.Screen,0_0_3_0,,skipped,4,98401,,,98401,,98401,2021-10-26T08:04:01.150Z,98526.02,1635235335,full,ni_sequenzen,NI_Sequenzen,,,,,,,,,,,,,,
,Screen_2,canvas.Screen,0_0_3_1,,skipped,4,98403,,,98401,,98403,2021-10-26T08:04:01.153Z,98526.02,1635235335,full,ni_sequenzen,NI_Sequenzen,,,,,,,,,,,,,,
,Screen_3,canvas.Screen,0_0_3_2,,skipped,4,98405,,,98401,,98405,2021-10-26T08:04:01.155Z,98526.02,1635235335,full,ni_sequenzen,NI_Sequenzen,,,,,,,,,,,,,,
,Screen_4,canvas.Screen,0_0_3_3,,skipped,4,98408,,,98401,,98408,2021-10-26T08:04:01.158Z,98526.02,1635235335,full,ni_sequenzen,NI_Sequenzen,,,,,,,,,,,,,,
,Sequence,flow.Sequence,0_0_3,,completion,4,98399,,,98401,,98409,2021-10-26T08:04:01.159Z,98526.02,1635235335,full,ni_sequenzen,NI_Sequenzen,,,,,,,,,,,,,,
,Screen_1,canvas.Screen,0_0_4_0,,skipped,5,98414,,,98414,,98414,2021-10-26T08:04:01.164Z,98526.02,1635235335,full,ni_sequenzen,NI_Sequenzen,,,,,,,,,,,,,,
,Screen_2,canvas.Screen,0_0_4_1,,skipped,5,98417,,,98414,,98417,2021-10-26T08:04:01.166Z,98526.02,1635235335,full,ni_sequenzen,NI_Sequenzen,,,,,,,,,,,,,,
,Screen_3,canvas.Screen,0_0_4_2,,skipped,5,98419,,,98414,,98419,2021-10-26T08:04:01.169Z,98526.02,1635235335,full,ni_sequenzen,NI_Sequenzen,,,,,,,,,,,,,,
,Screen_4,canvas.Screen,0_0_4_3,,skipped,5,98422,,,98414,,98422,2021-10-26T08:04:01.171Z,98526.02,1635235335,full,ni_sequenzen,NI_Sequenzen,,,,,,,,,,,,,,
,Sequence,flow.Sequence,0_0_4,,completion,5,98410,,,98414,,98422,2021-10-26T08:04:01.172Z,98526.02,1635235335,full,ni_sequenzen,NI_Sequenzen,,,,,,,,,,,,,,
,Screen_1,canvas.Screen,0_0_5_0,,skipped,6,98425,,,98425,,98425,2021-10-26T08:04:01.175Z,98526.02,1635235335,full,ni_sequenzen,NI_Sequenzen,,,,,,,,,,,,,,
,Screen_2,canvas.Screen,0_0_5_1,,skipped,6,98427,,,98425,,98427,2021-10-26T08:04:01.177Z,98526.02,1635235335,full,ni_sequenzen,NI_Sequenzen,,,,,,,,,,,,,,
,Screen_3,canvas.Screen,0_0_5_2,,skipped,6,98429,,,98425,,98429,2021-10-26T08:04:01.179Z,98526.02,1635235335,full,ni_sequenzen,NI_Sequenzen,,,,,,,,,,,,,,
,Screen_4,canvas.Screen,0_0_5_3,,skipped,6,98432,,,98425,,98432,2021-10-26T08:04:01.181Z,98526.02,1635235335,full,ni_sequenzen,NI_Sequenzen,,,,,,,,,,,,,,
,Sequence,flow.Sequence,0_0_5,,completion,6,98423,,,98425,,98432,2021-10-26T08:04:01.181Z,98526.02,1635235335,full,ni_sequenzen,NI_Sequenzen,,,,,,,,,,,,,,
,Screen_1,canvas.Screen,0_0_6_0,,skipped,7,98433,,,98433,,98434,2021-10-26T08:04:01.183Z,98526.02,1635235335,full,ni_sequenzen,NI_Sequenzen,,,,,,,,,,,,,,
,Screen_2,canvas.Screen,0_0_6_1,,skipped,7,98437,,,98433,,98437,2021-10-26T08:04:01.186Z,98526.02,1635235335,full,ni_sequenzen,NI_Sequenzen,,,,,,,,,,,,,,
,Screen_3,canvas.Screen,0_0_6_2,,skipped,7,98438,,,98433,,98438,2021-10-26T08:04:01.187Z,98526.02,1635235335,full,ni_sequenzen,NI_Sequenzen,,,,,,,,,,,,,,
,Screen_4,canvas.Screen,0_0_6_3,,skipped,7,98440,,,98433,,98440,2021-10-26T08:04:01.189Z,98526.02,1635235335,full,ni_sequenzen,NI_Sequenzen,,,,,,,,,,,,,,
,Sequence,flow.Sequence,0_0_6,,completion,7,98433,,,98433,,98440,2021-10-26T08:04:01.189Z,98526.02,1635235335,full,ni_sequenzen,NI_Sequenzen,,,,,,,,,,,,,,
,Screen_1,canvas.Screen,0_0_7_0,,skipped,8,98442,,,98442,,98443,2021-10-26T08:04:01.192Z,98526.02,1635235335,full,ni_sequenzen,NI_Sequenzen,,,,,,,,,,,,,,
,Screen_2,canvas.Screen,0_0_7_1,,skipped,8,98444,,,98442,,98444,2021-10-26T08:04:01.193Z,98526.02,1635235335,full,ni_sequenzen,NI_Sequenzen,,,,,,,,,,,,,,
,Screen_3,canvas.Screen,0_0_7_2,,skipped,8,98446,,,98442,,98446,2021-10-26T08:04:01.196Z,98526.02,1635235335,full,ni_sequenzen,NI_Sequenzen,,,,,,,,,,,,,,
,Screen_4,canvas.Screen,0_0_7_3,,skipped,8,98448,,,98442,,98448,2021-10-26T08:04:01.198Z,98526.02,1635235335,full,ni_sequenzen,NI_Sequenzen,,,,,,,,,,,,,,
,Sequence,flow.Sequence,0_0_7,,completion,8,98441,,,98442,,98449,2021-10-26T08:04:01.198Z,98526.02,1635235335,full,ni_sequenzen,NI_Sequenzen,,,,,,,,,,,,,,
,Screen_1,canvas.Screen,0_0_8_0,,skipped,9,98452,,,98452,,98452,2021-10-26T08:04:01.202Z,98526.02,1635235335,full,ni_sequenzen,NI_Sequenzen,,,,,,,,,,,,,,
,Screen_2,canvas.Screen,0_0_8_1,,skipped,9,98453,,,98452,,98453,2021-10-26T08:04:01.203Z,98526.02,1635235335,full,ni_sequenzen,NI_Sequenzen,,,,,,,,,,,,,,
,Screen_3,canvas.Screen,0_0_8_2,,skipped,9,98455,,,98452,,98455,2021-10-26T08:04:01.205Z,98526.02,1635235335,full,ni_sequenzen,NI_Sequenzen,,,,,,,,,,,,,,
,Screen_4,canvas.Screen,0_0_8_3,,skipped,9,98457,,,98452,,98457,2021-10-26T08:04:01.207Z,98526.02,1635235335,full,ni_sequenzen,NI_Sequenzen,,,,,,,,,,,,,,
,Sequence,flow.Sequence,0_0_8,,completion,9,98450,,,98452,,98457,2021-10-26T08:04:01.207Z,98526.02,1635235335,full,ni_sequenzen,NI_Sequenzen,,,,,,,,,,,,,,
,Screen_1,canvas.Screen,0_0_9_0,,skipped,10,98461,,,98461,,98461,2021-10-26T08:04:01.210Z,98526.02,1635235335,full,ni_sequenzen,NI_Sequenzen,,,,,,,,,,,,,,
,Screen_2,canvas.Screen,0_0_9_1,,skipped,10,98463,,,98461,,98463,2021-10-26T08:04:01.213Z,98526.02,1635235335,full,ni_sequenzen,NI_Sequenzen,,,,,,,,,,,,,,
,Screen_3,canvas.Screen,0_0_9_2,,skipped,10,98465,,,98461,,98465,2021-10-26T08:04:01.214Z,98526.02,1635235335,full,ni_sequenzen,NI_Sequenzen,,,,,,,,,,,,,,
,Screen_4,canvas.Screen,0_0_9_3,,skipped,10,98467,,,98461,,98467,2021-10-26T08:04:01.216Z,98526.02,1635235335,full,ni_sequenzen,NI_Sequenzen,,,,,,,,,,,,,,
,Sequence,flow.Sequence,0_0_9,,completion,10,98459,,,98461,,98467,2021-10-26T08:04:01.216Z,98526.02,1635235335,full,ni_sequenzen,NI_Sequenzen,,,,,,,,,,,,,,
,Screen_1,canvas.Screen,0_0_10_0,,skipped,11,98469,,,98469,,98469,2021-10-26T08:04:01.219Z,98526.02,1635235335,full,ni_sequenzen,NI_Sequenzen,,,,,,,,,,,,,,
,Screen_2,canvas.Screen,0_0_10_1,,skipped,11,98471,,,98469,,98471,2021-10-26T08:04:01.220Z,98526.02,1635235335,full,ni_sequenzen,NI_Sequenzen,,,,,,,,,,,,,,
,Screen_3,canvas.Screen,0_0_10_2,,skipped,11,98473,,,98469,,98473,2021-10-26T08:04:01.222Z,98526.02,1635235335,full,ni_sequenzen,NI_Sequenzen,,,,,,,,,,,,,,
,Screen_4,canvas.Screen,0_0_10_3,,skipped,11,98474,,,98469,,98474,2021-10-26T08:04:01.224Z,98526.02,1635235335,full,ni_sequenzen,NI_Sequenzen,,,,,,,,,,,,,,
,Sequence,flow.Sequence,0_0_10,,completion,11,98468,,,98469,,98474,2021-10-26T08:04:01.224Z,98526.02,1635235335,full,ni_sequenzen,NI_Sequenzen,,,,,,,,,,,,,,
,Screen_1,canvas.Screen,0_0_11_0,,skipped,12,98477,,,98477,,98477,2021-10-26T08:04:01.227Z,98526.02,1635235335,full,ni_sequenzen,NI_Sequenzen,,,,,,,,,,,,,,
,Screen_2,canvas.Screen,0_0_11_1,,skipped,12,98480,,,98477,,98480,2021-10-26T08:04:01.229Z,98526.02,1635235335,full,ni_sequenzen,NI_Sequenzen,,,,,,,,,,,,,,
,Screen_3,canvas.Screen,0_0_11_2,,skipped,12,98481,,,98477,,98481,2021-10-26T08:04:01.230Z,98526.02,1635235335,full,ni_sequenzen,NI_Sequenzen,,,,,,,,,,,,,,
,Screen_4,canvas.Screen,0_0_11_3,,skipped,12,98481,,,98477,,98481,2021-10-26T08:04:01.231Z,98526.02,1635235335,full,ni_sequenzen,NI_Sequenzen,,,,,,,,,,,,,,
,Sequence,flow.Sequence,0_0_11,,completion,12,98476,,,98477,,98481,2021-10-26T08:04:01.231Z,98526.02,1635235335,full,ni_sequenzen,NI_Sequenzen,,,,,,,,,,,,,,
,Screen_1,canvas.Screen,0_0_12_0,,skipped,13,98484,,,98484,,98484,2021-10-26T08:04:01.233Z,98526.02,1635235335,full,ni_sequenzen,NI_Sequenzen,,,,,,,,,,,,,,
,Screen_2,canvas.Screen,0_0_12_1,,skipped,13,98485,,,98484,,98485,2021-10-26T08:04:01.234Z,98526.02,1635235335,full,ni_sequenzen,NI_Sequenzen,,,,,,,,,,,,,,
,Screen_3,canvas.Screen,0_0_12_2,,skipped,13,98485,,,98484,,98485,2021-10-26T08:04:01.235Z,98526.02,1635235335,full,ni_sequenzen,NI_Sequenzen,,,,,,,,,,,,,,
,Screen_4,canvas.Screen,0_0_12_3,,skipped,13,98486,,,98484,,98486,2021-10-26T08:04:01.236Z,98526.02,1635235335,full,ni_sequenzen,NI_Sequenzen,,,,,,,,,,,,,,
,Sequence,flow.Sequence,0_0_12,,completion,13,98483,,,98484,,98486,2021-10-26T08:04:01.236Z,98526.02,1635235335,full,ni_sequenzen,NI_Sequenzen,,,,,,,,,,,,,,
,Screen_1,canvas.Screen,0_0_13_0,,skipped,14,98488,,,98488,,98488,2021-10-26T08:04:01.237Z,98526.02,1635235335,full,ni_sequenzen,NI_Sequenzen,,,,,,,,,,,,,,
,Screen_2,canvas.Screen,0_0_13_1,,skipped,14,98488,,,98488,,98489,2021-10-26T08:04:01.238Z,98526.02,1635235335,full,ni_sequenzen,NI_Sequenzen,,,,,,,,,,,,,,
,Screen_3,canvas.Screen,0_0_13_2,,skipped,14,98490,,,98488,,98490,2021-10-26T08:04:01.240Z,98526.02,1635235335,full,ni_sequenzen,NI_Sequenzen,,,,,,,,,,,,,,
,Screen_4,canvas.Screen,0_0_13_3,,skipped,14,98491,,,98488,,98491,2021-10-26T08:04:01.240Z,98526.02,1635235335,full,ni_sequenzen,NI_Sequenzen,,,,,,,,,,,,,,
,Sequence,flow.Sequence,0_0_13,,completion,14,98487,,,98488,,98491,2021-10-26T08:04:01.241Z,98526.02,1635235335,full,ni_sequenzen,NI_Sequenzen,,,,,,,,,,,,,,
,Screen_1,canvas.Screen,0_0_14_0,,skipped,15,98492,,,98492,,98492,2021-10-26T08:04:01.242Z,98526.02,1635235335,full,ni_sequenzen,NI_Sequenzen,,,,,,,,,,,,,,
,Screen_2,canvas.Screen,0_0_14_1,,skipped,15,98493,,,98492,,98493,2021-10-26T08:04:01.242Z,98526.02,1635235335,full,ni_sequenzen,NI_Sequenzen,,,,,,,,,,,,,,
,Screen_3,canvas.Screen,0_0_14_2,,skipped,15,98493,,,98492,,98493,2021-10-26T08:04:01.243Z,98526.02,1635235335,full,ni_sequenzen,NI_Sequenzen,,,,,,,,,,,,,,
,Screen_4,canvas.Screen,0_0_14_3,,skipped,15,98494,,,98492,,98494,2021-10-26T08:04:01.244Z,98526.02,1635235335,full,ni_sequenzen,NI_Sequenzen,,,,,,,,,,,,,,
,Sequence,flow.Sequence,0_0_14,,completion,15,98492,,,98492,,98494,2021-10-26T08:04:01.244Z,98526.02,1635235335,full,ni_sequenzen,NI_Sequenzen,,,,,,,,,,,,,,
,Screen_1,canvas.Screen,0_0_15_0,,skipped,16,98495,,,98495,,98495,2021-10-26T08:04:01.245Z,98526.02,1635235335,full,ni_sequenzen,NI_Sequenzen,,,,,,,,,,,,,,
,Screen_2,canvas.Screen,0_0_15_1,,skipped,16,98496,,,98495,,98496,2021-10-26T08:04:01.246Z,98526.02,1635235335,full,ni_sequenzen,NI_Sequenzen,,,,,,,,,,,,,,
,Screen_3,canvas.Screen,0_0_15_2,,skipped,16,98496,,,98495,,98497,2021-10-26T08:04:01.246Z,98526.02,1635235335,full,ni_sequenzen,NI_Sequenzen,,,,,,,,,,,,,,
,Screen_4,canvas.Screen,0_0_15_3,,skipped,16,98497,,,98495,,98497,2021-10-26T08:04:01.247Z,98526.02,1635235335,full,ni_sequenzen,NI_Sequenzen,,,,,,,,,,,,,,
,Sequence,flow.Sequence,0_0_15,,completion,16,98494,,,98495,,98498,2021-10-26T08:04:01.247Z,98526.02,1635235335,full,ni_sequenzen,NI_Sequenzen,,,,,,,,,,,,,,
,Screen_1,canvas.Screen,0_0_16_0,,skipped,17,98499,,,98499,,98499,2021-10-26T08:04:01.249Z,98526.02,1635235335,full,ni_sequenzen,NI_Sequenzen,,,,,,,,,,,,,,
,Screen_2,canvas.Screen,0_0_16_1,,skipped,17,98500,,,98499,,98500,2021-10-26T08:04:01.250Z,98526.02,1635235335,full,ni_sequenzen,NI_Sequenzen,,,,,,,,,,,,,,
,Screen_3,canvas.Screen,0_0_16_2,,skipped,17,98501,,,98499,,98501,2021-10-26T08:04:01.251Z,98526.02,1635235335,full,ni_sequenzen,NI_Sequenzen,,,,,,,,,,,,,,
,Screen_4,canvas.Screen,0_0_16_3,,skipped,17,98502,,,98499,,98502,2021-10-26T08:04:01.251Z,98526.02,1635235335,full,ni_sequenzen,NI_Sequenzen,,,,,,,,,,,,,,
,Sequence,flow.Sequence,0_0_16,,completion,17,98498,,,98499,,98502,2021-10-26T08:04:01.251Z,98526.02,1635235335,full,ni_sequenzen,NI_Sequenzen,,,,,,,,,,,,,,
,Screen_1,canvas.Screen,0_0_17_0,,skipped,18,98503,,,98503,,98503,2021-10-26T08:04:01.252Z,98526.02,1635235335,full,ni_sequenzen,NI_Sequenzen,,,,,,,,,,,,,,
,Screen_2,canvas.Screen,0_0_17_1,,skipped,18,98504,,,98503,,98504,2021-10-26T08:04:01.253Z,98526.02,1635235335,full,ni_sequenzen,NI_Sequenzen,,,,,,,,,,,,,,
,Screen_3,canvas.Screen,0_0_17_2,,skipped,18,98504,,,98503,,98504,2021-10-26T08:04:01.254Z,98526.02,1635235335,full,ni_sequenzen,NI_Sequenzen,,,,,,,,,,,,,,
,Screen_4,canvas.Screen,0_0_17_3,,skipped,18,98505,,,98503,,98505,2021-10-26T08:04:01.255Z,98526.02,1635235335,full,ni_sequenzen,NI_Sequenzen,,,,,,,,,,,,,,
,Sequence,flow.Sequence,0_0_17,,completion,18,98502,,,98503,,98505,2021-10-26T08:04:01.255Z,98526.02,1635235335,full,ni_sequenzen,NI_Sequenzen,,,,,,,,,,,,,,
,Screen_1,canvas.Screen,0_0_18_0,,skipped,19,98506,,,98506,,98506,2021-10-26T08:04:01.255Z,98526.02,1635235335,full,ni_sequenzen,NI_Sequenzen,,,,,,,,,,,,,,
,Screen_2,canvas.Screen,0_0_18_1,,skipped,19,98507,,,98506,,98507,2021-10-26T08:04:01.256Z,98526.02,1635235335,full,ni_sequenzen,NI_Sequenzen,,,,,,,,,,,,,,
,Screen_3,canvas.Screen,0_0_18_2,,skipped,19,98508,,,98506,,98508,2021-10-26T08:04:01.257Z,98526.02,1635235335,full,ni_sequenzen,NI_Sequenzen,,,,,,,,,,,,,,
,Screen_4,canvas.Screen,0_0_18_3,,skipped,19,98509,,,98506,,98509,2021-10-26T08:04:01.258Z,98526.02,1635235335,full,ni_sequenzen,NI_Sequenzen,,,,,,,,,,,,,,
,Sequence,flow.Sequence,0_0_18,,completion,19,98505,,,98506,,98509,2021-10-26T08:04:01.258Z,98526.02,1635235335,full,ni_sequenzen,NI_Sequenzen,,,,,,,,,,,,,,
,Screen_1,canvas.Screen,0_0_19_0,,skipped,20,98509,,,98509,,98509,2021-10-26T08:04:01.259Z,98526.02,1635235335,full,ni_sequenzen,NI_Sequenzen,,,,,,,,,,,,,,
,Screen_2,canvas.Screen,0_0_19_1,,skipped,20,98510,,,98509,,98510,2021-10-26T08:04:01.259Z,98526.02,1635235335,full,ni_sequenzen,NI_Sequenzen,,,,,,,,,,,,,,
,Screen_3,canvas.Screen,0_0_19_2,,skipped,20,98510,,,98509,,98510,2021-10-26T08:04:01.260Z,98526.02,1635235335,full,ni_sequenzen,NI_Sequenzen,,,,,,,,,,,,,,
,Screen_4,canvas.Screen,0_0_19_3,,skipped,20,98511,,,98509,,98511,2021-10-26T08:04:01.261Z,98526.02,1635235335,full,ni_sequenzen,NI_Sequenzen,,,,,,,,,,,,,,
,Sequence,flow.Sequence,0_0_19,,completion,20,98509,,,98509,,98511,2021-10-26T08:04:01.261Z,98526.02,1635235335,full,ni_sequenzen,NI_Sequenzen,,,,,,,,,,,,,,
,Instructions_I,flow.Loop,0_0,,completion,,1267,1443.92,1472.02,98509,97036.98,98512,2021-10-26T08:04:01.261Z,98526.02,1635235335,full,ni_sequenzen,NI_Sequenzen,,,,,,,,,,,,,,
,Move,canvas.Screen,0_1_0_0,left,response,,98525,98525.68,98526.02,99824,1297.979999999996,99838,2021-10-26T08:04:02.588Z,99845.16,1635235335,full,ni_sequenzen,NI_Sequenzen,1,,,,,,,,,,,,,
,Move,canvas.Screen,0_1_0_1,right,response,,99845,99844.96,99845.16,100247,401.8399999999965,100253,2021-10-26T08:04:03.002Z,100260.12,1635235335,full,ni_sequenzen,NI_Sequenzen,2,,,,,,,,,,,,,
,Move,canvas.Screen,0_1_0_2,down,response,,100260,100259.76,100260.12,101043,782.8800000000047,101049,2021-10-26T08:04:03.798Z,101054.98,1635235335,full,ni_sequenzen,NI_Sequenzen,3,,,,,,,,,,,,,
,Move,canvas.Screen,0_1_0_3,right,response,,101055,101054.68,101054.98,101825,770.0200000000041,101829,2021-10-26T08:04:04.578Z,101835.94,1635235335,full,ni_sequenzen,NI_Sequenzen,4,,,,,,,,,,,,,
,Move,canvas.Screen,0_1_0_4,left,response,,101836,101835.7,101835.94,102559,723.0599999999977,102572,2021-10-26T08:04:05.322Z,102588.74,1635235335,full,ni_sequenzen,NI_Sequenzen,5,,,,,,,,,,,,,
,Move,canvas.Screen,0_1_0_5,right,response,,102586,102586.24,102588.74,106309,3720.2599999999948,106323,2021-10-26T08:04:09.073Z,106352.34,1635235335,full,ni_sequenzen,NI_Sequenzen,6,,,,,,,,,,,,,
,Move,canvas.Screen,0_1_0_6,down,response,,106341,106340.94,106352.34,108528,2175.6600000000035,108533,2021-10-26T08:04:11.282Z,108541.68,1635235335,full,ni_sequenzen,NI_Sequenzen,7,,,,,,,,,,,,,
,Move,canvas.Screen,0_1_0_7,down,response,,108541,108541.38,108541.68,109168,626.320000000007,109173,2021-10-26T08:04:11.923Z,109183.88,1635235335,full,ni_sequenzen,NI_Sequenzen,8,,,,,,,,,,,,,
,Move,canvas.Screen,0_1_0_8,right,response,,109183,109183.46,109183.88,109918,734.1199999999953,109923,2021-10-26T08:04:12.672Z,109931.08,1635235335,full,ni_sequenzen,NI_Sequenzen,9,,,,,,,,,,,,,
,Move,canvas.Screen,0_1_0_9,left,response,,109931,109930.82,109931.08,110699,767.9199999999983,110715,2021-10-26T08:04:13.465Z,110723.06,1635235335,full,ni_sequenzen,NI_Sequenzen,10,,,,,,,,,,,,,
,Move,canvas.Screen,0_1_0_10,down,response,,110722,110722.76,110723.06,112497,1773.9400000000023,112507,2021-10-26T08:04:15.257Z,112515.88,1635235335,full,ni_sequenzen,NI_Sequenzen,11,,,,,,,,,,,,,
,Move,canvas.Screen,0_1_0_11,down,response,,112516,112515.5,112515.88,112840,324.11999999999534,112847,2021-10-26T08:04:15.597Z,112854.34,1635235335,full,ni_sequenzen,NI_Sequenzen,12,,,,,,,,,,,,,
,Move,canvas.Screen,0_1_0_12,right,response,,112854,112854.18,112854.34,113512,657.6600000000035,113515,2021-10-26T08:04:16.264Z,113522.82,1635235335,full,ni_sequenzen,NI_Sequenzen,13,,,,,,,,,,,,,
,Move,canvas.Screen,0_1_0_13,left,response,,113523,113522.56,113522.82,114106,583.179999999993,114110,2021-10-26T08:04:16.859Z,114117.94,1635235335,full,ni_sequenzen,NI_Sequenzen,14,,,,,,,,,,,,,
,Move,canvas.Screen,0_1_0_14,down,response,,114117,114117.56,114117.94,114700,582.0599999999977,114705,2021-10-26T08:04:17.454Z,114712.54,1635235335,full,ni_sequenzen,NI_Sequenzen,15,,,,,,,,,,,,,
,Move,canvas.Screen,0_1_0_15,down,response,,114712,114712.14,114712.54,115043,330.4600000000064,115049,2021-10-26T08:04:17.799Z,115056.18,1635235335,full,ni_sequenzen,NI_Sequenzen,16,,,,,,,,,,,,,
,Move,canvas.Screen,0_1_0_16,down,response,,115056,115055.8,115056.18,115278,221.82000000000698,115280,2021-10-26T08:04:18.030Z,115287.1,1635235335,full,ni_sequenzen,NI_Sequenzen,17,,,,,,,,,,,,,
,Move,canvas.Screen,0_1_0_17,down,response,,115286,115286.72,115287.1,115481,193.89999999999418,115495,2021-10-26T08:04:18.245Z,115501.64,1635235335,full,ni_sequenzen,NI_Sequenzen,18,,,,,,,,,,,,,
,Move,canvas.Screen,0_1_0_18,right,response,,115501,115501.38,115501.64,117042,1540.3600000000006,117046,2021-10-26T08:04:19.795Z,117052.24,1635235335,full,ni_sequenzen,NI_Sequenzen,19,,,,,,,,,,,,,
,Move,canvas.Screen,0_1_0_19,left,response,,117052,117052.02,117052.24,117682,629.7599999999948,117685,2021-10-26T08:04:20.434Z,117690.78,1635235335,full,ni_sequenzen,NI_Sequenzen,20,,,,,,,,,,,,,
,Move,canvas.Screen,0_1_0_20,right,response,,117691,117690.56,117690.78,118011,320.22000000000116,118034,2021-10-26T08:04:20.783Z,118038.28,1635235335,full,ni_sequenzen,NI_Sequenzen,21,,,,,,,,,,,,,
,Move,canvas.Screen,0_1_0_21,left,response,,118038,118038.08,118038.28,118401,362.72000000000116,118416,2021-10-26T08:04:21.166Z,118423.74,1635235335,full,ni_sequenzen,NI_Sequenzen,22,,,,,,,,,,,,,
,Move,canvas.Screen,0_1_0_22,down,response,,118423,118423.36,118423.74,118745,321.25999999999476,118753,2021-10-26T08:04:21.501Z,118757.84,1635235335,full,ni_sequenzen,NI_Sequenzen,23,,,,,,,,,,,,,
,Move,canvas.Screen,0_1_0_23,down,response,,118758,118757.58,118757.84,118948,190.1600000000035,118952,2021-10-26T08:04:21.702Z,118958.58,1635235335,full,ni_sequenzen,NI_Sequenzen,24,,,,,,,,,,,,,
,Move,canvas.Screen,0_1_0_24,left,response,,118958,118957.66,118958.58,119417,458.41999999999825,119423,2021-10-26T08:04:22.173Z,119429.22,1635235335,full,ni_sequenzen,NI_Sequenzen,25,,,,,,,,,,,,,
,Move,canvas.Screen,0_1_0_25,left,response,,119429,119429,119429.22,119948,518.7799999999988,119973,2021-10-26T08:04:22.723Z,119979.1,1635235335,full,ni_sequenzen,NI_Sequenzen,26,,,,,,,,,,,,,
,Move,canvas.Screen,0_1_0_26,down,response,,119979,119978.78,119979.1,120371,391.8999999999942,120380,2021-10-26T08:04:23.130Z,120385.96,1635235335,full,ni_sequenzen,NI_Sequenzen,27,,,,,,,,,,,,,
,Move,canvas.Screen,0_1_0_27,down,response,,120386,120385.7,120385.96,120573,187.0399999999936,120580,2021-10-26T08:04:23.330Z,120590.56,1635235335,full,ni_sequenzen,NI_Sequenzen,28,,,,,,,,,,,,,
,Move,canvas.Screen,0_1_0_28,right,response,,120586,120585.74,120590.56,120949,358.4400000000023,120971,2021-10-26T08:04:23.721Z,120977.56,1635235335,full,ni_sequenzen,NI_Sequenzen,29,,,,,,,,,,,,,
,Move,canvas.Screen,0_1_0_29,left,response,,120978,120977.26,120977.56,121324,346.4400000000023,121336,2021-10-26T08:04:24.085Z,121409.92,1635235335,full,ni_sequenzen,NI_Sequenzen,30,,,,,,,,,,,,,
,Loop,flow.Loop,0_1_0,-999,completion,,98523,98525.68,98526.02,121324,22797.979999999996,121336,2021-10-26T08:04:24.085Z,121409.92,1635235335,full,ni_sequenzen,NI_Sequenzen,,,,,,,,,,,,,,
,Training_I,flow.Sequence,0_1,,completion,,98512,98525.68,98526.02,121324,22797.979999999996,121337,2021-10-26T08:04:24.085Z,121409.92,1635235335,full,ni_sequenzen,NI_Sequenzen,,,,,,,,,,,,,,
,Screen_1,canvas.Screen,0_2_0_0,cont,response,1,121409,121409.7,121409.92,142480,21070.08,142487,2021-10-26T08:04:45.237Z,142957,1635235335,full,ni_sequenzen,NI_Sequenzen,,,,,,,,,,,,,,
,Screen_2,canvas.Screen,0_2_0_1,cont,response,1,142957,142956.76,142957,155871,12914,155882,2021-10-26T08:04:58.632Z,155886.12,1635235335,full,ni_sequenzen,NI_Sequenzen,,,,,,,,,,,,,,
,Screen_3,canvas.Screen,0_2_0_2,cont,response,1,155885,155885.78,155886.12,165464,9577.880000000005,165472,2021-10-26T08:05:08.221Z,165721.78,1635235335,full,ni_sequenzen,NI_Sequenzen,,,,,,,,,,,,,,
,Screen_4,canvas.Screen,0_2_0_3,cont,response,1,165721,165721.4,165721.78,185011,19289.22,185027,2021-10-26T08:05:27.777Z,185033.8,1635235335,full,ni_sequenzen,NI_Sequenzen,,,,,,,,,,,,,,
,Screen_5,canvas.Screen,0_2_0_4,cont,response,1,185034,185033.54,185033.8,190994,5960.200000000012,190996,2021-10-26T08:05:33.745Z,191265.74,1635235335,full,ni_sequenzen,NI_Sequenzen,,,,,,,,,,,,,,
,Screen_6,canvas.Screen,0_2_0_5,cont,response,1,191258,191258.48,191265.74,200198,8932.26000000001,200214,2021-10-26T08:05:42.964Z,200458.14,1635235335,full,ni_sequenzen,NI_Sequenzen,,,,,,,,,,,,,,
,Sequence,flow.Sequence,0_2_0,,completion,1,121407,121409.7,121409.92,200198,78788.08,200215,2021-10-26T08:05:42.965Z,200458.14,1635235335,full,ni_sequenzen,NI_Sequenzen,,,,,,,,,,,,,,
,Screen_1,canvas.Screen,0_2_1_0,,skipped,2,200221,,,200221,,200222,2021-10-26T08:05:42.970Z,200458.14,1635235335,full,ni_sequenzen,NI_Sequenzen,,,,,,,,,,,,,,
,Screen_2,canvas.Screen,0_2_1_1,,skipped,2,200225,,,200221,,200225,2021-10-26T08:05:42.974Z,200458.14,1635235335,full,ni_sequenzen,NI_Sequenzen,,,,,,,,,,,,,,
,Screen_3,canvas.Screen,0_2_1_2,,skipped,2,200228,,,200221,,200228,2021-10-26T08:05:42.977Z,200458.14,1635235335,full,ni_sequenzen,NI_Sequenzen,,,,,,,,,,,,,,
,Screen_4,canvas.Screen,0_2_1_3,,skipped,2,200231,,,200221,,200231,2021-10-26T08:05:42.981Z,200458.14,1635235335,full,ni_sequenzen,NI_Sequenzen,,,,,,,,,,,,,,
,Screen_5,canvas.Screen,0_2_1_4,,skipped,2,200233,,,200221,,200234,2021-10-26T08:05:42.983Z,200458.14,1635235335,full,ni_sequenzen,NI_Sequenzen,,,,,,,,,,,,,,
,Screen_6,canvas.Screen,0_2_1_5,,skipped,2,200236,,,200221,,200237,2021-10-26T08:05:42.986Z,200458.14,1635235335,full,ni_sequenzen,NI_Sequenzen,,,,,,,,,,,,,,
,Sequence,flow.Sequence,0_2_1,,completion,2,200217,,,200221,,200237,2021-10-26T08:05:42.986Z,200458.14,1635235335,full,ni_sequenzen,NI_Sequenzen,,,,,,,,,,,,,,
,Screen_1,canvas.Screen,0_2_2_0,,skipped,3,200242,,,200242,,200243,2021-10-26T08:05:42.992Z,200458.14,1635235335,full,ni_sequenzen,NI_Sequenzen,,,,,,,,,,,,,,
,Screen_2,canvas.Screen,0_2_2_1,,skipped,3,200247,,,200242,,200247,2021-10-26T08:05:42.995Z,200458.14,1635235335,full,ni_sequenzen,NI_Sequenzen,,,,,,,,,,,,,,
,Screen_3,canvas.Screen,0_2_2_2,,skipped,3,200249,,,200242,,200249,2021-10-26T08:05:42.998Z,200458.14,1635235335,full,ni_sequenzen,NI_Sequenzen,,,,,,,,,,,,,,
,Screen_4,canvas.Screen,0_2_2_3,,skipped,3,200251,,,200242,,200251,2021-10-26T08:05:43.000Z,200458.14,1635235335,full,ni_sequenzen,NI_Sequenzen,,,,,,,,,,,,,,
,Screen_5,canvas.Screen,0_2_2_4,,skipped,3,200253,,,200242,,200253,2021-10-26T08:05:43.002Z,200458.14,1635235335,full,ni_sequenzen,NI_Sequenzen,,,,,,,,,,,,,,
,Screen_6,canvas.Screen,0_2_2_5,,skipped,3,200255,,,200242,,200255,2021-10-26T08:05:43.004Z,200458.14,1635235335,full,ni_sequenzen,NI_Sequenzen,,,,,,,,,,,,,,
,Sequence,flow.Sequence,0_2_2,,completion,3,200240,,,200242,,200255,2021-10-26T08:05:43.005Z,200458.14,1635235335,full,ni_sequenzen,NI_Sequenzen,,,,,,,,,,,,,,
,Screen_1,canvas.Screen,0_2_3_0,,skipped,4,200258,,,200258,,200258,2021-10-26T08:05:43.007Z,200458.14,1635235335,full,ni_sequenzen,NI_Sequenzen,,,,,,,,,,,,,,
,Screen_2,canvas.Screen,0_2_3_1,,skipped,4,200260,,,200258,,200261,2021-10-26T08:05:43.010Z,200458.14,1635235335,full,ni_sequenzen,NI_Sequenzen,,,,,,,,,,,,,,
,Screen_3,canvas.Screen,0_2_3_2,,skipped,4,200263,,,200258,,200263,2021-10-26T08:05:43.011Z,200458.14,1635235335,full,ni_sequenzen,NI_Sequenzen,,,,,,,,,,,,,,
,Screen_4,canvas.Screen,0_2_3_3,,skipped,4,200264,,,200258,,200264,2021-10-26T08:05:43.013Z,200458.14,1635235335,full,ni_sequenzen,NI_Sequenzen,,,,,,,,,,,,,,
,Screen_5,canvas.Screen,0_2_3_4,,skipped,4,200266,,,200258,,200266,2021-10-26T08:05:43.015Z,200458.14,1635235335,full,ni_sequenzen,NI_Sequenzen,,,,,,,,,,,,,,
,Screen_6,canvas.Screen,0_2_3_5,,skipped,4,200267,,,200258,,200267,2021-10-26T08:05:43.016Z,200458.14,1635235335,full,ni_sequenzen,NI_Sequenzen,,,,,,,,,,,,,,
,Sequence,flow.Sequence,0_2_3,,completion,4,200256,,,200258,,200268,2021-10-26T08:05:43.016Z,200458.14,1635235335,full,ni_sequenzen,NI_Sequenzen,,,,,,,,,,,,,,
,Screen_1,canvas.Screen,0_2_4_0,,skipped,5,200268,,,200268,,200268,2021-10-26T08:05:43.018Z,200458.14,1635235335,full,ni_sequenzen,NI_Sequenzen,,,,,,,,,,,,,,
,Screen_2,canvas.Screen,0_2_4_1,,skipped,5,200270,,,200268,,200270,2021-10-26T08:05:43.019Z,200458.14,1635235335,full,ni_sequenzen,NI_Sequenzen,,,,,,,,,,,,,,
,Screen_3,canvas.Screen,0_2_4_2,,skipped,5,200271,,,200268,,200271,2021-10-26T08:05:43.020Z,200458.14,1635235335,full,ni_sequenzen,NI_Sequenzen,,,,,,,,,,,,,,
,Screen_4,canvas.Screen,0_2_4_3,,skipped,5,200272,,,200268,,200272,2021-10-26T08:05:43.021Z,200458.14,1635235335,full,ni_sequenzen,NI_Sequenzen,,,,,,,,,,,,,,
,Screen_5,canvas.Screen,0_2_4_4,,skipped,5,200273,,,200268,,200273,2021-10-26T08:05:43.022Z,200458.14,1635235335,full,ni_sequenzen,NI_Sequenzen,,,,,,,,,,,,,,
,Screen_6,canvas.Screen,0_2_4_5,,skipped,5,200274,,,200268,,200274,2021-10-26T08:05:43.023Z,200458.14,1635235335,full,ni_sequenzen,NI_Sequenzen,,,,,,,,,,,,,,
,Sequence,flow.Sequence,0_2_4,,completion,5,200268,,,200268,,200274,2021-10-26T08:05:43.023Z,200458.14,1635235335,full,ni_sequenzen,NI_Sequenzen,,,,,,,,,,,,,,
,Screen_1,canvas.Screen,0_2_5_0,,skipped,6,200276,,,200276,,200276,2021-10-26T08:05:43.025Z,200458.14,1635235335,full,ni_sequenzen,NI_Sequenzen,,,,,,,,,,,,,,
,Screen_2,canvas.Screen,0_2_5_1,,skipped,6,200276,,,200276,,200276,2021-10-26T08:05:43.026Z,200458.14,1635235335,full,ni_sequenzen,NI_Sequenzen,,,,,,,,,,,,,,
,Screen_3,canvas.Screen,0_2_5_2,,skipped,6,200277,,,200276,,200278,2021-10-26T08:05:43.027Z,200458.14,1635235335,full,ni_sequenzen,NI_Sequenzen,,,,,,,,,,,,,,
,Screen_4,canvas.Screen,0_2_5_3,,skipped,6,200278,,,200276,,200278,2021-10-26T08:05:43.027Z,200458.14,1635235335,full,ni_sequenzen,NI_Sequenzen,,,,,,,,,,,,,,
,Screen_5,canvas.Screen,0_2_5_4,,skipped,6,200279,,,200276,,200279,2021-10-26T08:05:43.028Z,200458.14,1635235335,full,ni_sequenzen,NI_Sequenzen,,,,,,,,,,,,,,
,Screen_6,canvas.Screen,0_2_5_5,,skipped,6,200280,,,200276,,200280,2021-10-26T08:05:43.029Z,200458.14,1635235335,full,ni_sequenzen,NI_Sequenzen,,,,,,,,,,,,,,
,Sequence,flow.Sequence,0_2_5,,completion,6,200275,,,200276,,200280,2021-10-26T08:05:43.029Z,200458.14,1635235335,full,ni_sequenzen,NI_Sequenzen,,,,,,,,,,,,,,
,Screen_1,canvas.Screen,0_2_6_0,,skipped,7,200281,,,200281,,200281,2021-10-26T08:05:43.030Z,200458.14,1635235335,full,ni_sequenzen,NI_Sequenzen,,,,,,,,,,,,,,
,Screen_2,canvas.Screen,0_2_6_1,,skipped,7,200282,,,200281,,200282,2021-10-26T08:05:43.031Z,200458.14,1635235335,full,ni_sequenzen,NI_Sequenzen,,,,,,,,,,,,,,
,Screen_3,canvas.Screen,0_2_6_2,,skipped,7,200283,,,200281,,200283,2021-10-26T08:05:43.032Z,200458.14,1635235335,full,ni_sequenzen,NI_Sequenzen,,,,,,,,,,,,,,
,Screen_4,canvas.Screen,0_2_6_3,,skipped,7,200284,,,200281,,200284,2021-10-26T08:05:43.033Z,200458.14,1635235335,full,ni_sequenzen,NI_Sequenzen,,,,,,,,,,,,,,
,Screen_5,canvas.Screen,0_2_6_4,,skipped,7,200285,,,200281,,200285,2021-10-26T08:05:43.034Z,200458.14,1635235335,full,ni_sequenzen,NI_Sequenzen,,,,,,,,,,,,,,
,Screen_6,canvas.Screen,0_2_6_5,,skipped,7,200285,,,200281,,200285,2021-10-26T08:05:43.035Z,200458.14,1635235335,full,ni_sequenzen,NI_Sequenzen,,,,,,,,,,,,,,
,Sequence,flow.Sequence,0_2_6,,completion,7,200280,,,200281,,200286,2021-10-26T08:05:43.035Z,200458.14,1635235335,full,ni_sequenzen,NI_Sequenzen,,,,,,,,,,,,,,
,Screen_1,canvas.Screen,0_2_7_0,,skipped,8,200287,,,200287,,200287,2021-10-26T08:05:43.036Z,200458.14,1635235335,full,ni_sequenzen,NI_Sequenzen,,,,,,,,,,,,,,
,Screen_2,canvas.Screen,0_2_7_1,,skipped,8,200288,,,200287,,200288,2021-10-26T08:05:43.037Z,200458.14,1635235335,full,ni_sequenzen,NI_Sequenzen,,,,,,,,,,,,,,
,Screen_3,canvas.Screen,0_2_7_2,,skipped,8,200289,,,200287,,200289,2021-10-26T08:05:43.038Z,200458.14,1635235335,full,ni_sequenzen,NI_Sequenzen,,,,,,,,,,,,,,
,Screen_4,canvas.Screen,0_2_7_3,,skipped,8,200289,,,200287,,200289,2021-10-26T08:05:43.039Z,200458.14,1635235335,full,ni_sequenzen,NI_Sequenzen,,,,,,,,,,,,,,
,Screen_5,canvas.Screen,0_2_7_4,,skipped,8,200291,,,200287,,200291,2021-10-26T08:05:43.039Z,200458.14,1635235335,full,ni_sequenzen,NI_Sequenzen,,,,,,,,,,,,,,
,Screen_6,canvas.Screen,0_2_7_5,,skipped,8,200291,,,200287,,200292,2021-10-26T08:05:43.040Z,200458.14,1635235335,full,ni_sequenzen,NI_Sequenzen,,,,,,,,,,,,,,
,Sequence,flow.Sequence,0_2_7,,completion,8,200286,,,200287,,200292,2021-10-26T08:05:43.040Z,200458.14,1635235335,full,ni_sequenzen,NI_Sequenzen,,,,,,,,,,,,,,
,Screen_1,canvas.Screen,0_2_8_0,,skipped,9,200293,,,200293,,200293,2021-10-26T08:05:43.042Z,200458.14,1635235335,full,ni_sequenzen,NI_Sequenzen,,,,,,,,,,,,,,
,Screen_2,canvas.Screen,0_2_8_1,,skipped,9,200294,,,200293,,200294,2021-10-26T08:05:43.043Z,200458.14,1635235335,full,ni_sequenzen,NI_Sequenzen,,,,,,,,,,,,,,
,Screen_3,canvas.Screen,0_2_8_2,,skipped,9,200295,,,200293,,200295,2021-10-26T08:05:43.044Z,200458.14,1635235335,full,ni_sequenzen,NI_Sequenzen,,,,,,,,,,,,,,
,Screen_4,canvas.Screen,0_2_8_3,,skipped,9,200296,,,200293,,200296,2021-10-26T08:05:43.045Z,200458.14,1635235335,full,ni_sequenzen,NI_Sequenzen,,,,,,,,,,,,,,
,Screen_5,canvas.Screen,0_2_8_4,,skipped,9,200297,,,200293,,200298,2021-10-26T08:05:43.047Z,200458.14,1635235335,full,ni_sequenzen,NI_Sequenzen,,,,,,,,,,,,,,
,Screen_6,canvas.Screen,0_2_8_5,,skipped,9,200299,,,200293,,200299,2021-10-26T08:05:43.048Z,200458.14,1635235335,full,ni_sequenzen,NI_Sequenzen,,,,,,,,,,,,,,
,Sequence,flow.Sequence,0_2_8,,completion,9,200292,,,200293,,200299,2021-10-26T08:05:43.048Z,200458.14,1635235335,full,ni_sequenzen,NI_Sequenzen,,,,,,,,,,,,,,
,Screen_1,canvas.Screen,0_2_9_0,,skipped,10,200301,,,200301,,200301,2021-10-26T08:05:43.050Z,200458.14,1635235335,full,ni_sequenzen,NI_Sequenzen,,,,,,,,,,,,,,
,Screen_2,canvas.Screen,0_2_9_1,,skipped,10,200302,,,200301,,200302,2021-10-26T08:05:43.052Z,200458.14,1635235335,full,ni_sequenzen,NI_Sequenzen,,,,,,,,,,,,,,
,Screen_3,canvas.Screen,0_2_9_2,,skipped,10,200303,,,200301,,200303,2021-10-26T08:05:43.053Z,200458.14,1635235335,full,ni_sequenzen,NI_Sequenzen,,,,,,,,,,,,,,
,Screen_4,canvas.Screen,0_2_9_3,,skipped,10,200306,,,200301,,200307,2021-10-26T08:05:43.056Z,200458.14,1635235335,full,ni_sequenzen,NI_Sequenzen,,,,,,,,,,,,,,
,Screen_5,canvas.Screen,0_2_9_4,,skipped,10,200310,,,200301,,200310,2021-10-26T08:05:43.059Z,200458.14,1635235335,full,ni_sequenzen,NI_Sequenzen,,,,,,,,,,,,,,
,Screen_6,canvas.Screen,0_2_9_5,,skipped,10,200313,,,200301,,200313,2021-10-26T08:05:43.061Z,200458.14,1635235335,full,ni_sequenzen,NI_Sequenzen,,,,,,,,,,,,,,
,Sequence,flow.Sequence,0_2_9,,completion,10,200300,,,200301,,200313,2021-10-26T08:05:43.062Z,200458.14,1635235335,full,ni_sequenzen,NI_Sequenzen,,,,,,,,,,,,,,
,Screen_1,canvas.Screen,0_2_10_0,,skipped,11,200315,,,200315,,200315,2021-10-26T08:05:43.064Z,200458.14,1635235335,full,ni_sequenzen,NI_Sequenzen,,,,,,,,,,,,,,
,Screen_2,canvas.Screen,0_2_10_1,,skipped,11,200317,,,200315,,200317,2021-10-26T08:05:43.065Z,200458.14,1635235335,full,ni_sequenzen,NI_Sequenzen,,,,,,,,,,,,,,
,Screen_3,canvas.Screen,0_2_10_2,,skipped,11,200318,,,200315,,200318,2021-10-26T08:05:43.067Z,200458.14,1635235335,full,ni_sequenzen,NI_Sequenzen,,,,,,,,,,,,,,
,Screen_4,canvas.Screen,0_2_10_3,,skipped,11,200319,,,200315,,200319,2021-10-26T08:05:43.068Z,200458.14,1635235335,full,ni_sequenzen,NI_Sequenzen,,,,,,,,,,,,,,
,Screen_5,canvas.Screen,0_2_10_4,,skipped,11,200320,,,200315,,200320,2021-10-26T08:05:43.069Z,200458.14,1635235335,full,ni_sequenzen,NI_Sequenzen,,,,,,,,,,,,,,
,Screen_6,canvas.Screen,0_2_10_5,,skipped,11,200321,,,200315,,200321,2021-10-26T08:05:43.070Z,200458.14,1635235335,full,ni_sequenzen,NI_Sequenzen,,,,,,,,,,,,,,
,Sequence,flow.Sequence,0_2_10,,completion,11,200314,,,200315,,200322,2021-10-26T08:05:43.071Z,200458.14,1635235335,full,ni_sequenzen,NI_Sequenzen,,,,,,,,,,,,,,
,Screen_1,canvas.Screen,0_2_11_0,,skipped,12,200323,,,200323,,200323,2021-10-26T08:05:43.072Z,200458.14,1635235335,full,ni_sequenzen,NI_Sequenzen,,,,,,,,,,,,,,
,Screen_2,canvas.Screen,0_2_11_1,,skipped,12,200324,,,200323,,200324,2021-10-26T08:05:43.074Z,200458.14,1635235335,full,ni_sequenzen,NI_Sequenzen,,,,,,,,,,,,,,
,Screen_3,canvas.Screen,0_2_11_2,,skipped,12,200326,,,200323,,200326,2021-10-26T08:05:43.075Z,200458.14,1635235335,full,ni_sequenzen,NI_Sequenzen,,,,,,,,,,,,,,
,Screen_4,canvas.Screen,0_2_11_3,,skipped,12,200327,,,200323,,200327,2021-10-26T08:05:43.076Z,200458.14,1635235335,full,ni_sequenzen,NI_Sequenzen,,,,,,,,,,,,,,
,Screen_5,canvas.Screen,0_2_11_4,,skipped,12,200328,,,200323,,200328,2021-10-26T08:05:43.077Z,200458.14,1635235335,full,ni_sequenzen,NI_Sequenzen,,,,,,,,,,,,,,
,Screen_6,canvas.Screen,0_2_11_5,,skipped,12,200330,,,200323,,200330,2021-10-26T08:05:43.078Z,200458.14,1635235335,full,ni_sequenzen,NI_Sequenzen,,,,,,,,,,,,,,
,Sequence,flow.Sequence,0_2_11,,completion,12,200322,,,200323,,200330,2021-10-26T08:05:43.079Z,200458.14,1635235335,full,ni_sequenzen,NI_Sequenzen,,,,,,,,,,,,,,
,Screen_1,canvas.Screen,0_2_12_0,,skipped,13,200331,,,200331,,200331,2021-10-26T08:05:43.080Z,200458.14,1635235335,full,ni_sequenzen,NI_Sequenzen,,,,,,,,,,,,,,
,Screen_2,canvas.Screen,0_2_12_1,,skipped,13,200331,,,200331,,200331,2021-10-26T08:05:43.081Z,200458.14,1635235335,full,ni_sequenzen,NI_Sequenzen,,,,,,,,,,,,,,
,Screen_3,canvas.Screen,0_2_12_2,,skipped,13,200331,,,200331,,200331,2021-10-26T08:05:43.081Z,200458.14,1635235335,full,ni_sequenzen,NI_Sequenzen,,,,,,,,,,,,,,
,Screen_4,canvas.Screen,0_2_12_3,,skipped,13,200332,,,200331,,200332,2021-10-26T08:05:43.082Z,200458.14,1635235335,full,ni_sequenzen,NI_Sequenzen,,,,,,,,,,,,,,
,Screen_5,canvas.Screen,0_2_12_4,,skipped,13,200333,,,200331,,200333,2021-10-26T08:05:43.082Z,200458.14,1635235335,full,ni_sequenzen,NI_Sequenzen,,,,,,,,,,,,,,
,Screen_6,canvas.Screen,0_2_12_5,,skipped,13,200334,,,200331,,200334,2021-10-26T08:05:43.083Z,200458.14,1635235335,full,ni_sequenzen,NI_Sequenzen,,,,,,,,,,,,,,
,Sequence,flow.Sequence,0_2_12,,completion,13,200330,,,200331,,200335,2021-10-26T08:05:43.083Z,200458.14,1635235335,full,ni_sequenzen,NI_Sequenzen,,,,,,,,,,,,,,
,Screen_1,canvas.Screen,0_2_13_0,,skipped,14,200336,,,200336,,200336,2021-10-26T08:05:43.084Z,200458.14,1635235335,full,ni_sequenzen,NI_Sequenzen,,,,,,,,,,,,,,
,Screen_2,canvas.Screen,0_2_13_1,,skipped,14,200336,,,200336,,200336,2021-10-26T08:05:43.085Z,200458.14,1635235335,full,ni_sequenzen,NI_Sequenzen,,,,,,,,,,,,,,
,Screen_3,canvas.Screen,0_2_13_2,,skipped,14,200337,,,200336,,200337,2021-10-26T08:05:43.086Z,200458.14,1635235335,full,ni_sequenzen,NI_Sequenzen,,,,,,,,,,,,,,
,Screen_4,canvas.Screen,0_2_13_3,,skipped,14,200337,,,200336,,200337,2021-10-26T08:05:43.086Z,200458.14,1635235335,full,ni_sequenzen,NI_Sequenzen,,,,,,,,,,,,,,
,Screen_5,canvas.Screen,0_2_13_4,,skipped,14,200338,,,200336,,200339,2021-10-26T08:05:43.087Z,200458.14,1635235335,full,ni_sequenzen,NI_Sequenzen,,,,,,,,,,,,,,
,Screen_6,canvas.Screen,0_2_13_5,,skipped,14,200339,,,200336,,200339,2021-10-26T08:05:43.088Z,200458.14,1635235335,full,ni_sequenzen,NI_Sequenzen,,,,,,,,,,,,,,
,Sequence,flow.Sequence,0_2_13,,completion,14,200335,,,200336,,200339,2021-10-26T08:05:43.088Z,200458.14,1635235335,full,ni_sequenzen,NI_Sequenzen,,,,,,,,,,,,,,
,Screen_1,canvas.Screen,0_2_14_0,,skipped,15,200340,,,200340,,200340,2021-10-26T08:05:43.090Z,200458.14,1635235335,full,ni_sequenzen,NI_Sequenzen,,,,,,,,,,,,,,
,Screen_2,canvas.Screen,0_2_14_1,,skipped,15,200341,,,200340,,200341,2021-10-26T08:05:43.090Z,200458.14,1635235335,full,ni_sequenzen,NI_Sequenzen,,,,,,,,,,,,,,
,Screen_3,canvas.Screen,0_2_14_2,,skipped,15,200342,,,200340,,200342,2021-10-26T08:05:43.091Z,200458.14,1635235335,full,ni_sequenzen,NI_Sequenzen,,,,,,,,,,,,,,
,Screen_4,canvas.Screen,0_2_14_3,,skipped,15,200342,,,200340,,200342,2021-10-26T08:05:43.091Z,200458.14,1635235335,full,ni_sequenzen,NI_Sequenzen,,,,,,,,,,,,,,
,Screen_5,canvas.Screen,0_2_14_4,,skipped,15,200343,,,200340,,200343,2021-10-26T08:05:43.092Z,200458.14,1635235335,full,ni_sequenzen,NI_Sequenzen,,,,,,,,,,,,,,
,Screen_6,canvas.Screen,0_2_14_5,,skipped,15,200344,,,200340,,200344,2021-10-26T08:05:43.093Z,200458.14,1635235335,full,ni_sequenzen,NI_Sequenzen,,,,,,,,,,,,,,
,Sequence,flow.Sequence,0_2_14,,completion,15,200340,,,200340,,200344,2021-10-26T08:05:43.093Z,200458.14,1635235335,full,ni_sequenzen,NI_Sequenzen,,,,,,,,,,,,,,
,Screen_1,canvas.Screen,0_2_15_0,,skipped,16,200344,,,200344,,200345,2021-10-26T08:05:43.094Z,200458.14,1635235335,full,ni_sequenzen,NI_Sequenzen,,,,,,,,,,,,,,
,Screen_2,canvas.Screen,0_2_15_1,,skipped,16,200345,,,200344,,200345,2021-10-26T08:05:43.095Z,200458.14,1635235335,full,ni_sequenzen,NI_Sequenzen,,,,,,,,,,,,,,
,Screen_3,canvas.Screen,0_2_15_2,,skipped,16,200346,,,200344,,200346,2021-10-26T08:05:43.095Z,200458.14,1635235335,full,ni_sequenzen,NI_Sequenzen,,,,,,,,,,,,,,
,Screen_4,canvas.Screen,0_2_15_3,,skipped,16,200346,,,200344,,200346,2021-10-26T08:05:43.096Z,200458.14,1635235335,full,ni_sequenzen,NI_Sequenzen,,,,,,,,,,,,,,
,Screen_5,canvas.Screen,0_2_15_4,,skipped,16,200347,,,200344,,200347,2021-10-26T08:05:43.097Z,200458.14,1635235335,full,ni_sequenzen,NI_Sequenzen,,,,,,,,,,,,,,
,Screen_6,canvas.Screen,0_2_15_5,,skipped,16,200348,,,200344,,200348,2021-10-26T08:05:43.097Z,200458.14,1635235335,full,ni_sequenzen,NI_Sequenzen,,,,,,,,,,,,,,
,Sequence,flow.Sequence,0_2_15,,completion,16,200344,,,200344,,200348,2021-10-26T08:05:43.097Z,200458.14,1635235335,full,ni_sequenzen,NI_Sequenzen,,,,,,,,,,,,,,
,Screen_1,canvas.Screen,0_2_16_0,,skipped,17,200349,,,200349,,200349,2021-10-26T08:05:43.098Z,200458.14,1635235335,full,ni_sequenzen,NI_Sequenzen,,,,,,,,,,,,,,
,Screen_2,canvas.Screen,0_2_16_1,,skipped,17,200349,,,200349,,200349,2021-10-26T08:05:43.098Z,200458.14,1635235335,full,ni_sequenzen,NI_Sequenzen,,,,,,,,,,,,,,
,Screen_3,canvas.Screen,0_2_16_2,,skipped,17,200350,,,200349,,200350,2021-10-26T08:05:43.100Z,200458.14,1635235335,full,ni_sequenzen,NI_Sequenzen,,,,,,,,,,,,,,
,Screen_4,canvas.Screen,0_2_16_3,,skipped,17,200351,,,200349,,200351,2021-10-26T08:05:43.100Z,200458.14,1635235335,full,ni_sequenzen,NI_Sequenzen,,,,,,,,,,,,,,
,Screen_5,canvas.Screen,0_2_16_4,,skipped,17,200351,,,200349,,200351,2021-10-26T08:05:43.101Z,200458.14,1635235335,full,ni_sequenzen,NI_Sequenzen,,,,,,,,,,,,,,
,Screen_6,canvas.Screen,0_2_16_5,,skipped,17,200353,,,200349,,200353,2021-10-26T08:05:43.102Z,200458.14,1635235335,full,ni_sequenzen,NI_Sequenzen,,,,,,,,,,,,,,
,Sequence,flow.Sequence,0_2_16,,completion,17,200348,,,200349,,200353,2021-10-26T08:05:43.102Z,200458.14,1635235335,full,ni_sequenzen,NI_Sequenzen,,,,,,,,,,,,,,
,Screen_1,canvas.Screen,0_2_17_0,,skipped,18,200354,,,200354,,200354,2021-10-26T08:05:43.102Z,200458.14,1635235335,full,ni_sequenzen,NI_Sequenzen,,,,,,,,,,,,,,
,Screen_2,canvas.Screen,0_2_17_1,,skipped,18,200354,,,200354,,200354,2021-10-26T08:05:43.103Z,200458.14,1635235335,full,ni_sequenzen,NI_Sequenzen,,,,,,,,,,,,,,
,Screen_3,canvas.Screen,0_2_17_2,,skipped,18,200355,,,200354,,200355,2021-10-26T08:05:43.104Z,200458.14,1635235335,full,ni_sequenzen,NI_Sequenzen,,,,,,,,,,,,,,
,Screen_4,canvas.Screen,0_2_17_3,,skipped,18,200355,,,200354,,200355,2021-10-26T08:05:43.104Z,200458.14,1635235335,full,ni_sequenzen,NI_Sequenzen,,,,,,,,,,,,,,
,Screen_5,canvas.Screen,0_2_17_4,,skipped,18,200356,,,200354,,200356,2021-10-26T08:05:43.105Z,200458.14,1635235335,full,ni_sequenzen,NI_Sequenzen,,,,,,,,,,,,,,
,Screen_6,canvas.Screen,0_2_17_5,,skipped,18,200357,,,200354,,200357,2021-10-26T08:05:43.106Z,200458.14,1635235335,full,ni_sequenzen,NI_Sequenzen,,,,,,,,,,,,,,
,Sequence,flow.Sequence,0_2_17,,completion,18,200353,,,200354,,200357,2021-10-26T08:05:43.106Z,200458.14,1635235335,full,ni_sequenzen,NI_Sequenzen,,,,,,,,,,,,,,
,Screen_1,canvas.Screen,0_2_18_0,,skipped,19,200358,,,200358,,200358,2021-10-26T08:05:43.107Z,200458.14,1635235335,full,ni_sequenzen,NI_Sequenzen,,,,,,,,,,,,,,
,Screen_2,canvas.Screen,0_2_18_1,,skipped,19,200358,,,200358,,200358,2021-10-26T08:05:43.107Z,200458.14,1635235335,full,ni_sequenzen,NI_Sequenzen,,,,,,,,,,,,,,
,Screen_3,canvas.Screen,0_2_18_2,,skipped,19,200359,,,200358,,200359,2021-10-26T08:05:43.108Z,200458.14,1635235335,full,ni_sequenzen,NI_Sequenzen,,,,,,,,,,,,,,
,Screen_4,canvas.Screen,0_2_18_3,,skipped,19,200360,,,200358,,200360,2021-10-26T08:05:43.108Z,200458.14,1635235335,full,ni_sequenzen,NI_Sequenzen,,,,,,,,,,,,,,
,Screen_5,canvas.Screen,0_2_18_4,,skipped,19,200360,,,200358,,200360,2021-10-26T08:05:43.109Z,200458.14,1635235335,full,ni_sequenzen,NI_Sequenzen,,,,,,,,,,,,,,
,Screen_6,canvas.Screen,0_2_18_5,,skipped,19,200361,,,200358,,200361,2021-10-26T08:05:43.110Z,200458.14,1635235335,full,ni_sequenzen,NI_Sequenzen,,,,,,,,,,,,,,
,Sequence,flow.Sequence,0_2_18,,completion,19,200357,,,200358,,200361,2021-10-26T08:05:43.110Z,200458.14,1635235335,full,ni_sequenzen,NI_Sequenzen,,,,,,,,,,,,,,
,Screen_1,canvas.Screen,0_2_19_0,,skipped,20,200361,,,200361,,200361,2021-10-26T08:05:43.111Z,200458.14,1635235335,full,ni_sequenzen,NI_Sequenzen,,,,,,,,,,,,,,
,Screen_2,canvas.Screen,0_2_19_1,,skipped,20,200362,,,200361,,200362,2021-10-26T08:05:43.111Z,200458.14,1635235335,full,ni_sequenzen,NI_Sequenzen,,,,,,,,,,,,,,
,Screen_3,canvas.Screen,0_2_19_2,,skipped,20,200363,,,200361,,200363,2021-10-26T08:05:43.112Z,200458.14,1635235335,full,ni_sequenzen,NI_Sequenzen,,,,,,,,,,,,,,
,Screen_4,canvas.Screen,0_2_19_3,,skipped,20,200363,,,200361,,200363,2021-10-26T08:05:43.113Z,200458.14,1635235335,full,ni_sequenzen,NI_Sequenzen,,,,,,,,,,,,,,
,Screen_5,canvas.Screen,0_2_19_4,,skipped,20,200364,,,200361,,200364,2021-10-26T08:05:43.113Z,200458.14,1635235335,full,ni_sequenzen,NI_Sequenzen,,,,,,,,,,,,,,
,Screen_6,canvas.Screen,0_2_19_5,,skipped,20,200365,,,200361,,200365,2021-10-26T08:05:43.114Z,200458.14,1635235335,full,ni_sequenzen,NI_Sequenzen,,,,,,,,,,,,,,
,Sequence,flow.Sequence,0_2_19,,completion,20,200361,,,200361,,200365,2021-10-26T08:05:43.114Z,200458.14,1635235335,full,ni_sequenzen,NI_Sequenzen,,,,,,,,,,,,,,
,Screen_1,canvas.Screen,0_2_20_0,,skipped,21,200366,,,200366,,200366,2021-10-26T08:05:43.115Z,200458.14,1635235335,full,ni_sequenzen,NI_Sequenzen,,,,,,,,,,,,,,
,Screen_2,canvas.Screen,0_2_20_1,,skipped,21,200366,,,200366,,200366,2021-10-26T08:05:43.116Z,200458.14,1635235335,full,ni_sequenzen,NI_Sequenzen,,,,,,,,,,,,,,
,Screen_3,canvas.Screen,0_2_20_2,,skipped,21,200367,,,200366,,200367,2021-10-26T08:05:43.116Z,200458.14,1635235335,full,ni_sequenzen,NI_Sequenzen,,,,,,,,,,,,,,
,Screen_4,canvas.Screen,0_2_20_3,,skipped,21,200367,,,200366,,200367,2021-10-26T08:05:43.117Z,200458.14,1635235335,full,ni_sequenzen,NI_Sequenzen,,,,,,,,,,,,,,
,Screen_5,canvas.Screen,0_2_20_4,,skipped,21,200368,,,200366,,200368,2021-10-26T08:05:43.118Z,200458.14,1635235335,full,ni_sequenzen,NI_Sequenzen,,,,,,,,,,,,,,
,Screen_6,canvas.Screen,0_2_20_5,,skipped,21,200369,,,200366,,200369,2021-10-26T08:05:43.118Z,200458.14,1635235335,full,ni_sequenzen,NI_Sequenzen,,,,,,,,,,,,,,
,Sequence,flow.Sequence,0_2_20,,completion,21,200365,,,200366,,200369,2021-10-26T08:05:43.118Z,200458.14,1635235335,full,ni_sequenzen,NI_Sequenzen,,,,,,,,,,,,,,
,Screen_1,canvas.Screen,0_2_21_0,,skipped,22,200370,,,200370,,200370,2021-10-26T08:05:43.119Z,200458.14,1635235335,full,ni_sequenzen,NI_Sequenzen,,,,,,,,,,,,,,
,Screen_2,canvas.Screen,0_2_21_1,,skipped,22,200371,,,200370,,200371,2021-10-26T08:05:43.120Z,200458.14,1635235335,full,ni_sequenzen,NI_Sequenzen,,,,,,,,,,,,,,
,Screen_3,canvas.Screen,0_2_21_2,,skipped,22,200371,,,200370,,200371,2021-10-26T08:05:43.121Z,200458.14,1635235335,full,ni_sequenzen,NI_Sequenzen,,,,,,,,,,,,,,
,Screen_4,canvas.Screen,0_2_21_3,,skipped,22,200373,,,200370,,200373,2021-10-26T08:05:43.122Z,200458.14,1635235335,full,ni_sequenzen,NI_Sequenzen,,,,,,,,,,,,,,
,Screen_5,canvas.Screen,0_2_21_4,,skipped,22,200373,,,200370,,200373,2021-10-26T08:05:43.122Z,200458.14,1635235335,full,ni_sequenzen,NI_Sequenzen,,,,,,,,,,,,,,
,Screen_6,canvas.Screen,0_2_21_5,,skipped,22,200374,,,200370,,200374,2021-10-26T08:05:43.124Z,200458.14,1635235335,full,ni_sequenzen,NI_Sequenzen,,,,,,,,,,,,,,
,Sequence,flow.Sequence,0_2_21,,completion,22,200369,,,200370,,200374,2021-10-26T08:05:43.124Z,200458.14,1635235335,full,ni_sequenzen,NI_Sequenzen,,,,,,,,,,,,,,
,Screen_1,canvas.Screen,0_2_22_0,,skipped,23,200375,,,200375,,200375,2021-10-26T08:05:43.124Z,200458.14,1635235335,full,ni_sequenzen,NI_Sequenzen,,,,,,,,,,,,,,
,Screen_2,canvas.Screen,0_2_22_1,,skipped,23,200376,,,200375,,200376,2021-10-26T08:05:43.125Z,200458.14,1635235335,full,ni_sequenzen,NI_Sequenzen,,,,,,,,,,,,,,
,Screen_3,canvas.Screen,0_2_22_2,,skipped,23,200376,,,200375,,200376,2021-10-26T08:05:43.126Z,200458.14,1635235335,full,ni_sequenzen,NI_Sequenzen,,,,,,,,,,,,,,
,Screen_4,canvas.Screen,0_2_22_3,,skipped,23,200378,,,200375,,200378,2021-10-26T08:05:43.127Z,200458.14,1635235335,full,ni_sequenzen,NI_Sequenzen,,,,,,,,,,,,,,
,Screen_5,canvas.Screen,0_2_22_4,,skipped,23,200378,,,200375,,200378,2021-10-26T08:05:43.127Z,200458.14,1635235335,full,ni_sequenzen,NI_Sequenzen,,,,,,,,,,,,,,
,Screen_6,canvas.Screen,0_2_22_5,,skipped,23,200379,,,200375,,200379,2021-10-26T08:05:43.128Z,200458.14,1635235335,full,ni_sequenzen,NI_Sequenzen,,,,,,,,,,,,,,
,Sequence,flow.Sequence,0_2_22,,completion,23,200374,,,200375,,200380,2021-10-26T08:05:43.128Z,200458.14,1635235335,full,ni_sequenzen,NI_Sequenzen,,,,,,,,,,,,,,
,Screen_1,canvas.Screen,0_2_23_0,,skipped,24,200381,,,200381,,200381,2021-10-26T08:05:43.129Z,200458.14,1635235335,full,ni_sequenzen,NI_Sequenzen,,,,,,,,,,,,,,
,Screen_2,canvas.Screen,0_2_23_1,,skipped,24,200381,,,200381,,200381,2021-10-26T08:05:43.130Z,200458.14,1635235335,full,ni_sequenzen,NI_Sequenzen,,,,,,,,,,,,,,
,Screen_3,canvas.Screen,0_2_23_2,,skipped,24,200382,,,200381,,200382,2021-10-26T08:05:43.131Z,200458.14,1635235335,full,ni_sequenzen,NI_Sequenzen,,,,,,,,,,,,,,
,Screen_4,canvas.Screen,0_2_23_3,,skipped,24,200383,,,200381,,200383,2021-10-26T08:05:43.132Z,200458.14,1635235335,full,ni_sequenzen,NI_Sequenzen,,,,,,,,,,,,,,
,Screen_5,canvas.Screen,0_2_23_4,,skipped,24,200384,,,200381,,200384,2021-10-26T08:05:43.133Z,200458.14,1635235335,full,ni_sequenzen,NI_Sequenzen,,,,,,,,,,,,,,
,Screen_6,canvas.Screen,0_2_23_5,,skipped,24,200385,,,200381,,200385,2021-10-26T08:05:43.134Z,200458.14,1635235335,full,ni_sequenzen,NI_Sequenzen,,,,,,,,,,,,,,
,Sequence,flow.Sequence,0_2_23,,completion,24,200380,,,200381,,200385,2021-10-26T08:05:43.134Z,200458.14,1635235335,full,ni_sequenzen,NI_Sequenzen,,,,,,,,,,,,,,
,Screen_1,canvas.Screen,0_2_24_0,,skipped,25,200386,,,200386,,200386,2021-10-26T08:05:43.136Z,200458.14,1635235335,full,ni_sequenzen,NI_Sequenzen,,,,,,,,,,,,,,
,Screen_2,canvas.Screen,0_2_24_1,,skipped,25,200387,,,200386,,200387,2021-10-26T08:05:43.137Z,200458.14,1635235335,full,ni_sequenzen,NI_Sequenzen,,,,,,,,,,,,,,
,Screen_3,canvas.Screen,0_2_24_2,,skipped,25,200389,,,200386,,200389,2021-10-26T08:05:43.138Z,200458.14,1635235335,full,ni_sequenzen,NI_Sequenzen,,,,,,,,,,,,,,
,Screen_4,canvas.Screen,0_2_24_3,,skipped,25,200390,,,200386,,200390,2021-10-26T08:05:43.140Z,200458.14,1635235335,full,ni_sequenzen,NI_Sequenzen,,,,,,,,,,,,,,
,Screen_5,canvas.Screen,0_2_24_4,,skipped,25,200391,,,200386,,200391,2021-10-26T08:05:43.141Z,200458.14,1635235335,full,ni_sequenzen,NI_Sequenzen,,,,,,,,,,,,,,
,Screen_6,canvas.Screen,0_2_24_5,,skipped,25,200392,,,200386,,200392,2021-10-26T08:05:43.141Z,200458.14,1635235335,full,ni_sequenzen,NI_Sequenzen,,,,,,,,,,,,,,
,Sequence,flow.Sequence,0_2_24,,completion,25,200385,,,200386,,200392,2021-10-26T08:05:43.141Z,200458.14,1635235335,full,ni_sequenzen,NI_Sequenzen,,,,,,,,,,,,,,
,Screen_1,canvas.Screen,0_2_25_0,,skipped,26,200394,,,200394,,200394,2021-10-26T08:05:43.143Z,200458.14,1635235335,full,ni_sequenzen,NI_Sequenzen,,,,,,,,,,,,,,
,Screen_2,canvas.Screen,0_2_25_1,,skipped,26,200395,,,200394,,200395,2021-10-26T08:05:43.144Z,200458.14,1635235335,full,ni_sequenzen,NI_Sequenzen,,,,,,,,,,,,,,
,Screen_3,canvas.Screen,0_2_25_2,,skipped,26,200397,,,200394,,200397,2021-10-26T08:05:43.145Z,200458.14,1635235335,full,ni_sequenzen,NI_Sequenzen,,,,,,,,,,,,,,
,Screen_4,canvas.Screen,0_2_25_3,,skipped,26,200397,,,200394,,200397,2021-10-26T08:05:43.147Z,200458.14,1635235335,full,ni_sequenzen,NI_Sequenzen,,,,,,,,,,,,,,
,Screen_5,canvas.Screen,0_2_25_4,,skipped,26,200400,,,200394,,200400,2021-10-26T08:05:43.148Z,200458.14,1635235335,full,ni_sequenzen,NI_Sequenzen,,,,,,,,,,,,,,
,Screen_6,canvas.Screen,0_2_25_5,,skipped,26,200403,,,200394,,200403,2021-10-26T08:05:43.153Z,200458.14,1635235335,full,ni_sequenzen,NI_Sequenzen,,,,,,,,,,,,,,
,Sequence,flow.Sequence,0_2_25,,completion,26,200393,,,200394,,200403,2021-10-26T08:05:43.153Z,200458.14,1635235335,full,ni_sequenzen,NI_Sequenzen,,,,,,,,,,,,,,
,Screen_1,canvas.Screen,0_2_26_0,,skipped,27,200405,,,200405,,200405,2021-10-26T08:05:43.154Z,200458.14,1635235335,full,ni_sequenzen,NI_Sequenzen,,,,,,,,,,,,,,
,Screen_2,canvas.Screen,0_2_26_1,,skipped,27,200406,,,200405,,200406,2021-10-26T08:05:43.156Z,200458.14,1635235335,full,ni_sequenzen,NI_Sequenzen,,,,,,,,,,,,,,
,Screen_3,canvas.Screen,0_2_26_2,,skipped,27,200407,,,200405,,200408,2021-10-26T08:05:43.157Z,200458.14,1635235335,full,ni_sequenzen,NI_Sequenzen,,,,,,,,,,,,,,
,Screen_4,canvas.Screen,0_2_26_3,,skipped,27,200409,,,200405,,200409,2021-10-26T08:05:43.158Z,200458.14,1635235335,full,ni_sequenzen,NI_Sequenzen,,,,,,,,,,,,,,
,Screen_5,canvas.Screen,0_2_26_4,,skipped,27,200410,,,200405,,200410,2021-10-26T08:05:43.159Z,200458.14,1635235335,full,ni_sequenzen,NI_Sequenzen,,,,,,,,,,,,,,
,Screen_6,canvas.Screen,0_2_26_5,,skipped,27,200411,,,200405,,200411,2021-10-26T08:05:43.160Z,200458.14,1635235335,full,ni_sequenzen,NI_Sequenzen,,,,,,,,,,,,,,
,Sequence,flow.Sequence,0_2_26,,completion,27,200404,,,200405,,200411,2021-10-26T08:05:43.160Z,200458.14,1635235335,full,ni_sequenzen,NI_Sequenzen,,,,,,,,,,,,,,
,Screen_1,canvas.Screen,0_2_27_0,,skipped,28,200412,,,200412,,200412,2021-10-26T08:05:43.161Z,200458.14,1635235335,full,ni_sequenzen,NI_Sequenzen,,,,,,,,,,,,,,
,Screen_2,canvas.Screen,0_2_27_1,,skipped,28,200413,,,200412,,200413,2021-10-26T08:05:43.162Z,200458.14,1635235335,full,ni_sequenzen,NI_Sequenzen,,,,,,,,,,,,,,
,Screen_3,canvas.Screen,0_2_27_2,,skipped,28,200414,,,200412,,200414,2021-10-26T08:05:43.163Z,200458.14,1635235335,full,ni_sequenzen,NI_Sequenzen,,,,,,,,,,,,,,
,Screen_4,canvas.Screen,0_2_27_3,,skipped,28,200414,,,200412,,200414,2021-10-26T08:05:43.163Z,200458.14,1635235335,full,ni_sequenzen,NI_Sequenzen,,,,,,,,,,,,,,
,Screen_5,canvas.Screen,0_2_27_4,,skipped,28,200416,,,200412,,200416,2021-10-26T08:05:43.165Z,200458.14,1635235335,full,ni_sequenzen,NI_Sequenzen,,,,,,,,,,,,,,
,Screen_6,canvas.Screen,0_2_27_5,,skipped,28,200417,,,200412,,200417,2021-10-26T08:05:43.166Z,200458.14,1635235335,full,ni_sequenzen,NI_Sequenzen,,,,,,,,,,,,,,
,Sequence,flow.Sequence,0_2_27,,completion,28,200411,,,200412,,200418,2021-10-26T08:05:43.167Z,200458.14,1635235335,full,ni_sequenzen,NI_Sequenzen,,,,,,,,,,,,,,
,Screen_1,canvas.Screen,0_2_28_0,,skipped,29,200418,,,200418,,200418,2021-10-26T08:05:43.168Z,200458.14,1635235335,full,ni_sequenzen,NI_Sequenzen,,,,,,,,,,,,,,
,Screen_2,canvas.Screen,0_2_28_1,,skipped,29,200420,,,200418,,200420,2021-10-26T08:05:43.169Z,200458.14,1635235335,full,ni_sequenzen,NI_Sequenzen,,,,,,,,,,,,,,
,Screen_3,canvas.Screen,0_2_28_2,,skipped,29,200420,,,200418,,200420,2021-10-26T08:05:43.169Z,200458.14,1635235335,full,ni_sequenzen,NI_Sequenzen,,,,,,,,,,,,,,
,Screen_4,canvas.Screen,0_2_28_3,,skipped,29,200420,,,200418,,200420,2021-10-26T08:05:43.169Z,200458.14,1635235335,full,ni_sequenzen,NI_Sequenzen,,,,,,,,,,,,,,
,Screen_5,canvas.Screen,0_2_28_4,,skipped,29,200420,,,200418,,200420,2021-10-26T08:05:43.170Z,200458.14,1635235335,full,ni_sequenzen,NI_Sequenzen,,,,,,,,,,,,,,
,Screen_6,canvas.Screen,0_2_28_5,,skipped,29,200422,,,200418,,200422,2021-10-26T08:05:43.171Z,200458.14,1635235335,full,ni_sequenzen,NI_Sequenzen,,,,,,,,,,,,,,
,Sequence,flow.Sequence,0_2_28,,completion,29,200418,,,200418,,200422,2021-10-26T08:05:43.171Z,200458.14,1635235335,full,ni_sequenzen,NI_Sequenzen,,,,,,,,,,,,,,
,Screen_1,canvas.Screen,0_2_29_0,,skipped,30,200422,,,200422,,200422,2021-10-26T08:05:43.171Z,200458.14,1635235335,full,ni_sequenzen,NI_Sequenzen,,,,,,,,,,,,,,
,Screen_2,canvas.Screen,0_2_29_1,,skipped,30,200423,,,200422,,200423,2021-10-26T08:05:43.173Z,200458.14,1635235335,full,ni_sequenzen,NI_Sequenzen,,,,,,,,,,,,,,
,Screen_3,canvas.Screen,0_2_29_2,,skipped,30,200423,,,200422,,200423,2021-10-26T08:05:43.173Z,200458.14,1635235335,full,ni_sequenzen,NI_Sequenzen,,,,,,,,,,,,,,
,Screen_4,canvas.Screen,0_2_29_3,,skipped,30,200424,,,200422,,200424,2021-10-26T08:05:43.174Z,200458.14,1635235335,full,ni_sequenzen,NI_Sequenzen,,,,,,,,,,,,,,
,Screen_5,canvas.Screen,0_2_29_4,,skipped,30,200424,,,200422,,200425,2021-10-26T08:05:43.174Z,200458.14,1635235335,full,ni_sequenzen,NI_Sequenzen,,,,,,,,,,,,,,
,Screen_6,canvas.Screen,0_2_29_5,,skipped,30,200426,,,200422,,200426,2021-10-26T08:05:43.175Z,200458.14,1635235335,full,ni_sequenzen,NI_Sequenzen,,,,,,,,,,,,,,
,Sequence,flow.Sequence,0_2_29,,completion,30,200422,,,200422,,200426,2021-10-26T08:05:43.175Z,200458.14,1635235335,full,ni_sequenzen,NI_Sequenzen,,,,,,,,,,,,,,
,Instructions_II,flow.Loop,0_2,,completion,,121406,121409.7,121409.92,200422,79012.08,200426,2021-10-26T08:05:43.175Z,200458.14,1635235335,full,ni_sequenzen,NI_Sequenzen,,,,,,,,,,,,,,
,Move,canvas.Screen,0_3_0_0_0_0,down,response,,200456,200455.6,200458.14,207619,7160.859999999986,207636,2021-10-26T08:05:50.385Z,207647.86,1635235335,full,ni_sequenzen,NI_Sequenzen,1,0,,,,,,,,,,,,
,Move,canvas.Screen,0_3_0_0_0_1,right,response,,207647,207647.56,207647.86,216510,8862.140000000014,216527,2021-10-26T08:05:59.277Z,216544.38,1635235335,full,ni_sequenzen,NI_Sequenzen,2,0,,,,,,,,,,,,
,Move,canvas.Screen,0_3_0_0_0_2,right,response,,216544,216544.06,216544.38,216947,402.61999999999534,216955,2021-10-26T08:05:59.704Z,216970.92,1635235335,full,ni_sequenzen,NI_Sequenzen,3,0,,,,,,,,,,,,
,Move,canvas.Screen,0_3_0_0_0_3,down,response,,216971,216970.62,216970.92,217853,882.0799999999872,217862,2021-10-26T08:06:00.611Z,217955.1,1635235335,full,ni_sequenzen,NI_Sequenzen,4,0,,,,,,,,,,,,
,Move,canvas.Screen,0_3_0_0_0_4,-999,skipped,,217873,,,217853,,217874,2021-10-26T08:06:00.623Z,217955.1,1635235335,full,ni_sequenzen,NI_Sequenzen,5,0,,,,,,,,,,,,
,Move,canvas.Screen,0_3_0_0_0_5,-999,skipped,,217883,,,217853,,217885,2021-10-26T08:06:00.633Z,217955.1,1635235335,full,ni_sequenzen,NI_Sequenzen,6,0,,,,,,,,,,,,
,Move,canvas.Screen,0_3_0_0_0_6,-999,skipped,,217889,,,217853,,217889,2021-10-26T08:06:00.638Z,217955.1,1635235335,full,ni_sequenzen,NI_Sequenzen,7,0,,,,,,,,,,,,
,Move,canvas.Screen,0_3_0_0_0_7,-999,skipped,,217898,,,217853,,217898,2021-10-26T08:06:00.647Z,217955.1,1635235335,full,ni_sequenzen,NI_Sequenzen,8,0,,,,,,,,,,,,
,Move,canvas.Screen,0_3_0_0_0_8,-999,skipped,,217905,,,217853,,217905,2021-10-26T08:06:00.655Z,217955.1,1635235335,full,ni_sequenzen,NI_Sequenzen,9,0,,,,,,,,,,,,
,Move,canvas.Screen,0_3_0_0_0_9,-999,skipped,,217915,,,217853,,217915,2021-10-26T08:06:00.664Z,217955.1,1635235335,full,ni_sequenzen,NI_Sequenzen,10,0,,,,,,,,,,,,
,Move,canvas.Screen,0_3_0_0_0_10,-999,skipped,,217921,,,217853,,217921,2021-10-26T08:06:00.670Z,217955.1,1635235335,full,ni_sequenzen,NI_Sequenzen,11,0,,,,,,,,,,,,
,Move,canvas.Screen,0_3_0_0_0_11,-999,skipped,,217927,,,217853,,217928,2021-10-26T08:06:00.678Z,217955.1,1635235335,full,ni_sequenzen,NI_Sequenzen,12,0,,,,,,,,,,,,
,Move,canvas.Screen,0_3_0_0_0_12,-999,skipped,,217936,,,217853,,217936,2021-10-26T08:06:00.685Z,217955.1,1635235335,full,ni_sequenzen,NI_Sequenzen,13,0,,,,,,,,,,,,
,Move,canvas.Screen,0_3_0_0_0_13,-999,skipped,,217942,,,217853,,217942,2021-10-26T08:06:00.692Z,217955.1,1635235335,full,ni_sequenzen,NI_Sequenzen,14,0,,,,,,,,,,,,
,Move,canvas.Screen,0_3_0_0_0_14,-999,skipped,,217950,,,217853,,217950,2021-10-26T08:06:00.699Z,217955.1,1635235335,full,ni_sequenzen,NI_Sequenzen,15,0,,,,,,,,,,,,
,Loop,flow.Loop,0_3_0_0_0,-999,completion,,200452,200455.6,200458.14,217853,17394.859999999986,217950,2021-10-26T08:06:00.700Z,217955.1,1635235335,full,ni_sequenzen,NI_Sequenzen,,0,,,,,,,,,,,,
,Feedback,canvas.Screen,0_3_0_0_1,,timeout,,217955,217954.84,217955.1,221940.48,4030.820000000007,221942,2021-10-26T08:06:04.692Z,221985.92,1635235335,full,ni_sequenzen,NI_Sequenzen,,0,,,,,,,,,,,,
,Trial,flow.Sequence,0_3_0_0,,completion,,200447,200455.6,200458.14,221940.48,21482.339999999997,221944,2021-10-26T08:06:04.693Z,221990.4,1635235335,full,ni_sequenzen,NI_Sequenzen,,0,,,,,,,,,,,,
,Move,canvas.Screen,0_3_0_1_0_0,down,response,,221986,221985.92,221990.4,232103,10112.600000000006,232125,2021-10-26T08:06:14.874Z,232139.72,1635235335,full,ni_sequenzen,NI_Sequenzen,1,1,,,,,,,,,,,,
,Move,canvas.Screen,0_3_0_1_0_1,left,response,,232139,232139.46,232139.72,232932,792.2799999999988,232948,2021-10-26T08:06:15.697Z,232961.32,1635235335,full,ni_sequenzen,NI_Sequenzen,2,1,,,,,,,,,,,,
,Move,canvas.Screen,0_3_0_1_0_2,down,response,,232961,232960.94,232961.32,233603,641.679999999993,233618,2021-10-26T08:06:16.367Z,233630.52,1635235335,full,ni_sequenzen,NI_Sequenzen,3,1,,,,,,,,,,,,
,Move,canvas.Screen,0_3_0_1_0_3,left,response,,233630,233630.24,233630.52,234026,395.4800000000105,234040,2021-10-26T08:06:16.790Z,234112.18,1635235335,full,ni_sequenzen,NI_Sequenzen,4,1,,,,,,,,,,,,
,Move,canvas.Screen,0_3_0_1_0_4,-999,skipped,,234053,,,234026,,234054,2021-10-26T08:06:16.802Z,234112.18,1635235335,full,ni_sequenzen,NI_Sequenzen,5,1,,,,,,,,,,,,
,Move,canvas.Screen,0_3_0_1_0_5,-999,skipped,,234062,,,234026,,234063,2021-10-26T08:06:16.811Z,234112.18,1635235335,full,ni_sequenzen,NI_Sequenzen,6,1,,,,,,,,,,,,
,Move,canvas.Screen,0_3_0_1_0_6,-999,skipped,,234071,,,234026,,234071,2021-10-26T08:06:16.819Z,234112.18,1635235335,full,ni_sequenzen,NI_Sequenzen,7,1,,,,,,,,,,,,
,Move,canvas.Screen,0_3_0_1_0_7,-999,skipped,,234078,,,234026,,234078,2021-10-26T08:06:16.827Z,234112.18,1635235335,full,ni_sequenzen,NI_Sequenzen,8,1,,,,,,,,,,,,
,Move,canvas.Screen,0_3_0_1_0_8,-999,skipped,,234086,,,234026,,234086,2021-10-26T08:06:16.835Z,234112.18,1635235335,full,ni_sequenzen,NI_Sequenzen,9,1,,,,,,,,,,,,
,Move,canvas.Screen,0_3_0_1_0_9,-999,skipped,,234092,,,234026,,234092,2021-10-26T08:06:16.841Z,234112.18,1635235335,full,ni_sequenzen,NI_Sequenzen,10,1,,,,,,,,,,,,
,Move,canvas.Screen,0_3_0_1_0_10,-999,skipped,,234096,,,234026,,234096,2021-10-26T08:06:16.845Z,234112.18,1635235335,full,ni_sequenzen,NI_Sequenzen,11,1,,,,,,,,,,,,
,Move,canvas.Screen,0_3_0_1_0_11,-999,skipped,,234100,,,234026,,234100,2021-10-26T08:06:16.849Z,234112.18,1635235335,full,ni_sequenzen,NI_Sequenzen,12,1,,,,,,,,,,,,
,Move,canvas.Screen,0_3_0_1_0_12,-999,skipped,,234103,,,234026,,234103,2021-10-26T08:06:16.852Z,234112.18,1635235335,full,ni_sequenzen,NI_Sequenzen,13,1,,,,,,,,,,,,
,Move,canvas.Screen,0_3_0_1_0_13,-999,skipped,,234107,,,234026,,234107,2021-10-26T08:06:16.856Z,234112.18,1635235335,full,ni_sequenzen,NI_Sequenzen,14,1,,,,,,,,,,,,
,Move,canvas.Screen,0_3_0_1_0_14,-999,skipped,,234109,,,234026,,234109,2021-10-26T08:06:16.859Z,234112.18,1635235335,full,ni_sequenzen,NI_Sequenzen,15,1,,,,,,,,,,,,
,Loop,flow.Loop,0_3_0_1_0,-999,completion,,221972,221985.92,221990.4,234026,12035.600000000006,234109,2021-10-26T08:06:16.859Z,234112.18,1635235335,full,ni_sequenzen,NI_Sequenzen,,1,,,,,,,,,,,,
,Feedback,canvas.Screen,0_3_0_1_1,,timeout,,234112,234111.88,234112.18,238094.06,4003.720000000001,238095,2021-10-26T08:06:20.844Z,238115.9,1635235335,full,ni_sequenzen,NI_Sequenzen,,1,,,,,,,,,,,,
,Trial,flow.Sequence,0_3_0_1,,completion,,221946,221985.92,221990.4,238094.06,16103.660000000003,238096,2021-10-26T08:06:20.845Z,238127.14,1635235335,full,ni_sequenzen,NI_Sequenzen,,1,,,,,,,,,,,,
,Move,canvas.Screen,0_3_0_2_0_0,down,response,,238116,238115.9,238127.14,242135,4007.859999999986,242143,2021-10-26T08:06:24.892Z,242153.16,1635235335,full,ni_sequenzen,NI_Sequenzen,1,2,,,,,,,,,,,,
,Move,canvas.Screen,0_3_0_2_0_1,right,response,,242152,242152.8,242153.16,243244,1090.8399999999965,243252,2021-10-26T08:06:26.001Z,243261.74,1635235335,full,ni_sequenzen,NI_Sequenzen,2,2,,,,,,,,,,,,
,Move,canvas.Screen,0_3_0_2_0_2,right,response,,243261,243261.46,243261.74,245134,1872.2600000000093,245150,2021-10-26T08:06:27.900Z,245158.1,1635235335,full,ni_sequenzen,NI_Sequenzen,3,2,,,,,,,,,,,,
,Move,canvas.Screen,0_3_0_2_0_3,down,response,,245157,245157.96,245158.1,245494,335.8999999999942,245519,2021-10-26T08:06:28.269Z,245585.56,1635235335,full,ni_sequenzen,NI_Sequenzen,4,2,,,,,,,,,,,,
,Move,canvas.Screen,0_3_0_2_0_4,-999,skipped,,245530,,,245494,,245530,2021-10-26T08:06:28.280Z,245585.56,1635235335,full,ni_sequenzen,NI_Sequenzen,5,2,,,,,,,,,,,,
,Move,canvas.Screen,0_3_0_2_0_5,-999,skipped,,245539,,,245494,,245539,2021-10-26T08:06:28.288Z,245585.56,1635235335,full,ni_sequenzen,NI_Sequenzen,6,2,,,,,,,,,,,,
,Move,canvas.Screen,0_3_0_2_0_6,-999,skipped,,245545,,,245494,,245545,2021-10-26T08:06:28.295Z,245585.56,1635235335,full,ni_sequenzen,NI_Sequenzen,7,2,,,,,,,,,,,,
,Move,canvas.Screen,0_3_0_2_0_7,-999,skipped,,245553,,,245494,,245553,2021-10-26T08:06:28.302Z,245585.56,1635235335,full,ni_sequenzen,NI_Sequenzen,8,2,,,,,,,,,,,,
,Move,canvas.Screen,0_3_0_2_0_8,-999,skipped,,245559,,,245494,,245559,2021-10-26T08:06:28.308Z,245585.56,1635235335,full,ni_sequenzen,NI_Sequenzen,9,2,,,,,,,,,,,,
,Move,canvas.Screen,0_3_0_2_0_9,-999,skipped,,245564,,,245494,,245564,2021-10-26T08:06:28.314Z,245585.56,1635235335,full,ni_sequenzen,NI_Sequenzen,10,2,,,,,,,,,,,,
,Move,canvas.Screen,0_3_0_2_0_10,-999,skipped,,245570,,,245494,,245570,2021-10-26T08:06:28.319Z,245585.56,1635235335,full,ni_sequenzen,NI_Sequenzen,11,2,,,,,,,,,,,,
,Move,canvas.Screen,0_3_0_2_0_11,-999,skipped,,245575,,,245494,,245575,2021-10-26T08:06:28.324Z,245585.56,1635235335,full,ni_sequenzen,NI_Sequenzen,12,2,,,,,,,,,,,,
,Move,canvas.Screen,0_3_0_2_0_12,-999,skipped,,245578,,,245494,,245578,2021-10-26T08:06:28.327Z,245585.56,1635235335,full,ni_sequenzen,NI_Sequenzen,13,2,,,,,,,,,,,,
,Move,canvas.Screen,0_3_0_2_0_13,-999,skipped,,245580,,,245494,,245580,2021-10-26T08:06:28.330Z,245585.56,1635235335,full,ni_sequenzen,NI_Sequenzen,14,2,,,,,,,,,,,,
,Move,canvas.Screen,0_3_0_2_0_14,-999,skipped,,245583,,,245494,,245583,2021-10-26T08:06:28.333Z,245585.56,1635235335,full,ni_sequenzen,NI_Sequenzen,15,2,,,,,,,,,,,,
,Loop,flow.Loop,0_3_0_2_0,-999,completion,,238112,238115.9,238127.14,245494,7366.859999999986,245583,2021-10-26T08:06:28.333Z,245585.56,1635235335,full,ni_sequenzen,NI_Sequenzen,,2,,,,,,,,,,,,
,Feedback,canvas.Screen,0_3_0_2_1,,timeout,,245585,245585.38,245585.56,249567.94,4002.4400000000023,249569,2021-10-26T08:06:32.318Z,249588,1635235335,full,ni_sequenzen,NI_Sequenzen,,2,,,,,,,,,,,,
,Trial,flow.Sequence,0_3_0_2,,completion,,238097,238115.9,238127.14,249567.94,11440.799999999988,249569,2021-10-26T08:06:32.318Z,249601.04,1635235335,full,ni_sequenzen,NI_Sequenzen,,2,,,,,,,,,,,,
,Move,canvas.Screen,0_3_0_3_0_0,left,response,,249588,249588,249601.04,253009,3407.959999999992,253027,2021-10-26T08:06:35.776Z,253033.66,1635235335,full,ni_sequenzen,NI_Sequenzen,1,3,,,,,,,,,,,,
,Move,canvas.Screen,0_3_0_3_0_1,down,response,,253033,253033.46,253033.66,253932,898.3399999999965,253946,2021-10-26T08:06:36.695Z,253956.24,1635235335,full,ni_sequenzen,NI_Sequenzen,2,3,,,,,,,,,,,,
,Move,canvas.Screen,0_3_0_3_0_2,down,response,,253956,253955.96,253956.24,254432,475.7600000000093,254444,2021-10-26T08:06:37.193Z,254450.48,1635235335,full,ni_sequenzen,NI_Sequenzen,3,3,,,,,,,,,,,,
,Move,canvas.Screen,0_3_0_3_0_3,left,response,,254450,254450.34,254450.48,254884,433.5199999999895,254911,2021-10-26T08:06:37.660Z,254989.6,1635235335,full,ni_sequenzen,NI_Sequenzen,4,3,,,,,,,,,,,,
,Move,canvas.Screen,0_3_0_3_0_4,-999,skipped,,254919,,,254884,,254919,2021-10-26T08:06:37.669Z,254989.6,1635235335,full,ni_sequenzen,NI_Sequenzen,5,3,,,,,,,,,,,,
,Move,canvas.Screen,0_3_0_3_0_5,-999,skipped,,254925,,,254884,,254926,2021-10-26T08:06:37.675Z,254989.6,1635235335,full,ni_sequenzen,NI_Sequenzen,6,3,,,,,,,,,,,,
,Move,canvas.Screen,0_3_0_3_0_6,-999,skipped,,254932,,,254884,,254933,2021-10-26T08:06:37.682Z,254989.6,1635235335,full,ni_sequenzen,NI_Sequenzen,7,3,,,,,,,,,,,,
,Move,canvas.Screen,0_3_0_3_0_7,-999,skipped,,254939,,,254884,,254939,2021-10-26T08:06:37.687Z,254989.6,1635235335,full,ni_sequenzen,NI_Sequenzen,8,3,,,,,,,,,,,,
,Move,canvas.Screen,0_3_0_3_0_8,-999,skipped,,254944,,,254884,,254944,2021-10-26T08:06:37.694Z,254989.6,1635235335,full,ni_sequenzen,NI_Sequenzen,9,3,,,,,,,,,,,,
,Move,canvas.Screen,0_3_0_3_0_9,-999,skipped,,254950,,,254884,,254950,2021-10-26T08:06:37.700Z,254989.6,1635235335,full,ni_sequenzen,NI_Sequenzen,10,3,,,,,,,,,,,,
,Move,canvas.Screen,0_3_0_3_0_10,-999,skipped,,254959,,,254884,,254959,2021-10-26T08:06:37.708Z,254989.6,1635235335,full,ni_sequenzen,NI_Sequenzen,11,3,,,,,,,,,,,,
,Move,canvas.Screen,0_3_0_3_0_11,-999,skipped,,254965,,,254884,,254965,2021-10-26T08:06:37.715Z,254989.6,1635235335,full,ni_sequenzen,NI_Sequenzen,12,3,,,,,,,,,,,,
,Move,canvas.Screen,0_3_0_3_0_12,-999,skipped,,254972,,,254884,,254972,2021-10-26T08:06:37.721Z,254989.6,1635235335,full,ni_sequenzen,NI_Sequenzen,13,3,,,,,,,,,,,,
,Move,canvas.Screen,0_3_0_3_0_13,-999,skipped,,254977,,,254884,,254977,2021-10-26T08:06:37.727Z,254989.6,1635235335,full,ni_sequenzen,NI_Sequenzen,14,3,,,,,,,,,,,,
,Move,canvas.Screen,0_3_0_3_0_14,-999,skipped,,254984,,,254884,,254984,2021-10-26T08:06:37.734Z,254989.6,1635235335,full,ni_sequenzen,NI_Sequenzen,15,3,,,,,,,,,,,,
,Loop,flow.Loop,0_3_0_3_0,-999,completion,,249581,249588,249601.04,254884,5282.959999999992,254985,2021-10-26T08:06:37.734Z,254989.6,1635235335,full,ni_sequenzen,NI_Sequenzen,,3,,,,,,,,,,,,
,Feedback,canvas.Screen,0_3_0_3_1,,timeout,,254989,254989.06,254989.6,258976.7,4006.4199999999837,258977,2021-10-26T08:06:41.727Z,258996.02,1635235335,full,ni_sequenzen,NI_Sequenzen,,3,,,,,,,,,,,,
,Trial,flow.Sequence,0_3_0_3,,completion,,249570,249588,249601.04,258976.7,9375.660000000003,258978,2021-10-26T08:06:41.727Z,259010,1635235335,full,ni_sequenzen,NI_Sequenzen,,3,,,,,,,,,,,,
,Move,canvas.Screen,0_3_0_4_0_0,right,response,,258996,258996.02,259010,261212,2202,261225,2021-10-26T08:06:43.976Z,261234.74,1635235335,full,ni_sequenzen,NI_Sequenzen,1,4,,,,,,,,,,,,
,Move,canvas.Screen,0_3_0_4_0_1,left,response,,261234,261234.4,261234.74,262775,1540.2600000000093,262778,2021-10-26T08:06:45.528Z,262786.42,1635235335,full,ni_sequenzen,NI_Sequenzen,2,4,,,,,,,,,,,,
,Move,canvas.Screen,0_3_0_4_0_2,down,response,,262786,262786.2,262786.42,263087,300.5800000000163,263098,2021-10-26T08:06:45.848Z,263107.66,1635235335,full,ni_sequenzen,NI_Sequenzen,3,4,,,,,,,,,,,,
,Move,canvas.Screen,0_3_0_4_0_3,down,response,,263108,263107.36,263107.66,263494,386.3400000000256,263497,2021-10-26T08:06:46.246Z,263505.98,1635235335,full,ni_sequenzen,NI_Sequenzen,4,4,,,,,,,,,,,,
,Move,canvas.Screen,0_3_0_4_0_4,left,response,,263506,263505.66,263505.98,265369,1863.0200000000186,265385,2021-10-26T08:06:48.134Z,265417.56,1635235335,full,ni_sequenzen,NI_Sequenzen,5,4,,,,,,,,,,,,
,Move,canvas.Screen,0_3_0_4_0_5,-999,skipped,,265393,,,265369,,265393,2021-10-26T08:06:48.142Z,265417.56,1635235335,full,ni_sequenzen,NI_Sequenzen,6,4,,,,,,,,,,,,
,Move,canvas.Screen,0_3_0_4_0_6,-999,skipped,,265395,,,265369,,265395,2021-10-26T08:06:48.144Z,265417.56,1635235335,full,ni_sequenzen,NI_Sequenzen,7,4,,,,,,,,,,,,
,Move,canvas.Screen,0_3_0_4_0_7,-999,skipped,,265398,,,265369,,265398,2021-10-26T08:06:48.147Z,265417.56,1635235335,full,ni_sequenzen,NI_Sequenzen,8,4,,,,,,,,,,,,
,Move,canvas.Screen,0_3_0_4_0_8,-999,skipped,,265400,,,265369,,265400,2021-10-26T08:06:48.149Z,265417.56,1635235335,full,ni_sequenzen,NI_Sequenzen,9,4,,,,,,,,,,,,
,Move,canvas.Screen,0_3_0_4_0_9,-999,skipped,,265402,,,265369,,265403,2021-10-26T08:06:48.152Z,265417.56,1635235335,full,ni_sequenzen,NI_Sequenzen,10,4,,,,,,,,,,,,
,Move,canvas.Screen,0_3_0_4_0_10,-999,skipped,,265405,,,265369,,265405,2021-10-26T08:06:48.154Z,265417.56,1635235335,full,ni_sequenzen,NI_Sequenzen,11,4,,,,,,,,,,,,
,Move,canvas.Screen,0_3_0_4_0_11,-999,skipped,,265407,,,265369,,265407,2021-10-26T08:06:48.157Z,265417.56,1635235335,full,ni_sequenzen,NI_Sequenzen,12,4,,,,,,,,,,,,
,Move,canvas.Screen,0_3_0_4_0_12,-999,skipped,,265410,,,265369,,265410,2021-10-26T08:06:48.159Z,265417.56,1635235335,full,ni_sequenzen,NI_Sequenzen,13,4,,,,,,,,,,,,
,Move,canvas.Screen,0_3_0_4_0_13,-999,skipped,,265412,,,265369,,265412,2021-10-26T08:06:48.162Z,265417.56,1635235335,full,ni_sequenzen,NI_Sequenzen,14,4,,,,,,,,,,,,
,Move,canvas.Screen,0_3_0_4_0_14,-999,skipped,,265416,,,265369,,265416,2021-10-26T08:06:48.164Z,265417.56,1635235335,full,ni_sequenzen,NI_Sequenzen,15,4,,,,,,,,,,,,
,Loop,flow.Loop,0_3_0_4_0,-999,completion,,258989,258996.02,259010,265369,6359,265416,2021-10-26T08:06:48.164Z,265417.56,1635235335,full,ni_sequenzen,NI_Sequenzen,,4,,,,,,,,,,,,
,Feedback,canvas.Screen,0_3_0_4_1,,timeout,,265418,265417.34,265417.56,269401.6,4000.7000000000116,269402,2021-10-26T08:06:52.151Z,269418.26,1635235335,full,ni_sequenzen,NI_Sequenzen,,4,,,,,,,,,,,,
,Trial,flow.Sequence,0_3_0_4,,completion,,258979,258996.02,259010,269401.6,10391.599999999977,269402,2021-10-26T08:06:52.152Z,269434.9,1635235335,full,ni_sequenzen,NI_Sequenzen,,4,,,,,,,,,,,,
,Move,canvas.Screen,0_3_0_5_0_0,down,response,,269415,269418.26,269434.9,272338,2903.0999999999767,272344,2021-10-26T08:06:55.092Z,272351.86,1635235335,full,ni_sequenzen,NI_Sequenzen,1,5,,,,,,,,,,,,
,Move,canvas.Screen,0_3_0_5_0_1,right,response,,272351,272351.6,272351.86,272884,532.140000000014,272904,2021-10-26T08:06:55.654Z,272924.16,1635235335,full,ni_sequenzen,NI_Sequenzen,2,5,,,,,,,,,,,,
,Move,canvas.Screen,0_3_0_5_0_2,right,response,,272924,272923.94,272924.16,273182,257.8400000000256,273195,2021-10-26T08:06:55.944Z,273211.04,1635235335,full,ni_sequenzen,NI_Sequenzen,3,5,,,,,,,,,,,,
,Move,canvas.Screen,0_3_0_5_0_3,right,response,,273211,273210.74,273211.04,273244,32.960000000020955,273257,2021-10-26T08:06:56.006Z,273281.5,1635235335,full,ni_sequenzen,NI_Sequenzen,4,5,,,,,,,,,,,,
,Move,canvas.Screen,0_3_0_5_0_4,down,response,,273270,273269.92,273281.5,274337,1055.5,274359,2021-10-26T08:06:57.108Z,274430.38,1635235335,full,ni_sequenzen,NI_Sequenzen,5,5,,,,,,,,,,,,
,Move,canvas.Screen,0_3_0_5_0_5,-999,skipped,,274372,,,274337,,274373,2021-10-26T08:06:57.122Z,274430.38,1635235335,full,ni_sequenzen,NI_Sequenzen,6,5,,,,,,,,,,,,
,Move,canvas.Screen,0_3_0_5_0_6,-999,skipped,,274383,,,274337,,274383,2021-10-26T08:06:57.132Z,274430.38,1635235335,full,ni_sequenzen,NI_Sequenzen,7,5,,,,,,,,,,,,
,Move,canvas.Screen,0_3_0_5_0_7,-999,skipped,,274392,,,274337,,274392,2021-10-26T08:06:57.141Z,274430.38,1635235335,full,ni_sequenzen,NI_Sequenzen,8,5,,,,,,,,,,,,
,Move,canvas.Screen,0_3_0_5_0_8,-999,skipped,,274400,,,274337,,274400,2021-10-26T08:06:57.149Z,274430.38,1635235335,full,ni_sequenzen,NI_Sequenzen,9,5,,,,,,,,,,,,
,Move,canvas.Screen,0_3_0_5_0_9,-999,skipped,,274407,,,274337,,274407,2021-10-26T08:06:57.156Z,274430.38,1635235335,full,ni_sequenzen,NI_Sequenzen,10,5,,,,,,,,,,,,
,Move,canvas.Screen,0_3_0_5_0_10,-999,skipped,,274412,,,274337,,274413,2021-10-26T08:06:57.161Z,274430.38,1635235335,full,ni_sequenzen,NI_Sequenzen,11,5,,,,,,,,,,,,
,Move,canvas.Screen,0_3_0_5_0_11,-999,skipped,,274417,,,274337,,274417,2021-10-26T08:06:57.166Z,274430.38,1635235335,full,ni_sequenzen,NI_Sequenzen,12,5,,,,,,,,,,,,
,Move,canvas.Screen,0_3_0_5_0_12,-999,skipped,,274420,,,274337,,274420,2021-10-26T08:06:57.170Z,274430.38,1635235335,full,ni_sequenzen,NI_Sequenzen,13,5,,,,,,,,,,,,
,Move,canvas.Screen,0_3_0_5_0_13,-999,skipped,,274424,,,274337,,274424,2021-10-26T08:06:57.173Z,274430.38,1635235335,full,ni_sequenzen,NI_Sequenzen,14,5,,,,,,,,,,,,
,Move,canvas.Screen,0_3_0_5_0_14,-999,skipped,,274427,,,274337,,274427,2021-10-26T08:06:57.177Z,274430.38,1635235335,full,ni_sequenzen,NI_Sequenzen,15,5,,,,,,,,,,,,
,Loop,flow.Loop,0_3_0_5_0,-999,completion,,269412,269418.26,269434.9,274337,4902.099999999977,274427,2021-10-26T08:06:57.177Z,274430.38,1635235335,full,ni_sequenzen,NI_Sequenzen,,5,,,,,,,,,,,,
,Feedback,canvas.Screen,0_3_0_5_1,,timeout,,274431,274430.14,274430.38,278410.86,4014.3800000000047,278411,2021-10-26T08:07:01.160Z,278444.76,1635235335,full,ni_sequenzen,NI_Sequenzen,,5,,,,,,,,,,,,
,Trial,flow.Sequence,0_3_0_5,,completion,,269403,269418.26,269434.9,278410.86,8975.959999999963,278412,2021-10-26T08:07:01.162Z,278460.58,1635235335,full,ni_sequenzen,NI_Sequenzen,,5,,,,,,,,,,,,
,Move,canvas.Screen,0_3_0_6_0_0,down,response,,278445,278444.76,278460.58,281306,2845.4199999999837,281323,2021-10-26T08:07:04.072Z,281345.52,1635235335,full,ni_sequenzen,NI_Sequenzen,1,6,,,,,,,,,,,,
,Move,canvas.Screen,0_3_0_6_0_1,left,response,,281345,281345.24,281345.52,284323,2977.4799999999814,284343,2021-10-26T08:07:07.093Z,284359.4,1635235335,full,ni_sequenzen,NI_Sequenzen,2,6,,,,,,,,,,,,
,Move,canvas.Screen,0_3_0_6_0_2,left,response,,284359,284359.02,284359.4,284666,306.5999999999767,284672,2021-10-26T08:07:07.421Z,284685.9,1635235335,full,ni_sequenzen,NI_Sequenzen,3,6,,,,,,,,,,,,
,Move,canvas.Screen,0_3_0_6_0_3,down,response,,284685,284685.54,284685.9,285165,479.0999999999767,285178,2021-10-26T08:07:07.927Z,285261.1,1635235335,full,ni_sequenzen,NI_Sequenzen,4,6,,,,,,,,,,,,
,Move,canvas.Screen,0_3_0_6_0_4,-999,skipped,,285192,,,285165,,285192,2021-10-26T08:07:07.941Z,285261.1,1635235335,full,ni_sequenzen,NI_Sequenzen,5,6,,,,,,,,,,,,
,Move,canvas.Screen,0_3_0_6_0_5,-999,skipped,,285201,,,285165,,285201,2021-10-26T08:07:07.951Z,285261.1,1635235335,full,ni_sequenzen,NI_Sequenzen,6,6,,,,,,,,,,,,
,Move,canvas.Screen,0_3_0_6_0_6,-999,skipped,,285210,,,285165,,285210,2021-10-26T08:07:07.960Z,285261.1,1635235335,full,ni_sequenzen,NI_Sequenzen,7,6,,,,,,,,,,,,
,Move,canvas.Screen,0_3_0_6_0_7,-999,skipped,,285219,,,285165,,285219,2021-10-26T08:07:07.968Z,285261.1,1635235335,full,ni_sequenzen,NI_Sequenzen,8,6,,,,,,,,,,,,
,Move,canvas.Screen,0_3_0_6_0_8,-999,skipped,,285226,,,285165,,285226,2021-10-26T08:07:07.975Z,285261.1,1635235335,full,ni_sequenzen,NI_Sequenzen,9,6,,,,,,,,,,,,
,Move,canvas.Screen,0_3_0_6_0_9,-999,skipped,,285232,,,285165,,285232,2021-10-26T08:07:07.982Z,285261.1,1635235335,full,ni_sequenzen,NI_Sequenzen,10,6,,,,,,,,,,,,
,Move,canvas.Screen,0_3_0_6_0_10,-999,skipped,,285241,,,285165,,285241,2021-10-26T08:07:07.991Z,285261.1,1635235335,full,ni_sequenzen,NI_Sequenzen,11,6,,,,,,,,,,,,
,Move,canvas.Screen,0_3_0_6_0_11,-999,skipped,,285247,,,285165,,285247,2021-10-26T08:07:07.996Z,285261.1,1635235335,full,ni_sequenzen,NI_Sequenzen,12,6,,,,,,,,,,,,
,Move,canvas.Screen,0_3_0_6_0_12,-999,skipped,,285251,,,285165,,285251,2021-10-26T08:07:08.000Z,285261.1,1635235335,full,ni_sequenzen,NI_Sequenzen,13,6,,,,,,,,,,,,
,Move,canvas.Screen,0_3_0_6_0_13,-999,skipped,,285254,,,285165,,285254,2021-10-26T08:07:08.004Z,285261.1,1635235335,full,ni_sequenzen,NI_Sequenzen,14,6,,,,,,,,,,,,
,Move,canvas.Screen,0_3_0_6_0_14,-999,skipped,,285259,,,285165,,285259,2021-10-26T08:07:08.008Z,285261.1,1635235335,full,ni_sequenzen,NI_Sequenzen,15,6,,,,,,,,,,,,
,Loop,flow.Loop,0_3_0_6_0,-999,completion,,278437,278444.76,278460.58,285165,6704.419999999984,285259,2021-10-26T08:07:08.008Z,285261.1,1635235335,full,ni_sequenzen,NI_Sequenzen,,6,,,,,,,,,,,,
,Feedback,canvas.Screen,0_3_0_6_1,,timeout,,285260,285260.8,285261.1,289251.92,4025.8800000000047,289253,2021-10-26T08:07:12.002Z,289286.98,1635235335,full,ni_sequenzen,NI_Sequenzen,,6,,,,,,,,,,,,
,Trial,flow.Sequence,0_3_0_6,,completion,,278413,278444.76,278460.58,289251.92,10791.339999999967,289253,2021-10-26T08:07:12.002Z,289301.68,1635235335,full,ni_sequenzen,NI_Sequenzen,,6,,,,,,,,,,,,
,Move,canvas.Screen,0_3_0_7_0_0,down,response,,289287,289286.98,289301.68,291212,1910.320000000007,291241,2021-10-26T08:07:13.990Z,291250.88,1635235335,full,ni_sequenzen,NI_Sequenzen,1,7,,,,,,,,,,,,
,Move,canvas.Screen,0_3_0_7_0_1,right,response,,291251,291250.66,291250.88,292276,1025.1199999999953,292284,2021-10-26T08:07:15.034Z,292292.4,1635235335,full,ni_sequenzen,NI_Sequenzen,2,7,,,,,,,,,,,,
,Move,canvas.Screen,0_3_0_7_0_2,down,response,,292292,292292.16,292292.4,293150,857.5999999999767,293162,2021-10-26T08:07:15.911Z,293172.32,1635235335,full,ni_sequenzen,NI_Sequenzen,3,7,,,,,,,,,,,,
,Move,canvas.Screen,0_3_0_7_0_3,right,response,,293172,293172.06,293172.32,293463,290.679999999993,293475,2021-10-26T08:07:16.224Z,293550.64,1635235335,full,ni_sequenzen,NI_Sequenzen,4,7,,,,,,,,,,,,
,Move,canvas.Screen,0_3_0_7_0_4,-999,skipped,,293484,,,293463,,293484,2021-10-26T08:07:16.234Z,293550.64,1635235335,full,ni_sequenzen,NI_Sequenzen,5,7,,,,,,,,,,,,
,Move,canvas.Screen,0_3_0_7_0_5,-999,skipped,,293492,,,293463,,293492,2021-10-26T08:07:16.241Z,293550.64,1635235335,full,ni_sequenzen,NI_Sequenzen,6,7,,,,,,,,,,,,
,Move,canvas.Screen,0_3_0_7_0_6,-999,skipped,,293501,,,293463,,293501,2021-10-26T08:07:16.250Z,293550.64,1635235335,full,ni_sequenzen,NI_Sequenzen,7,7,,,,,,,,,,,,
,Move,canvas.Screen,0_3_0_7_0_7,-999,skipped,,293508,,,293463,,293508,2021-10-26T08:07:16.257Z,293550.64,1635235335,full,ni_sequenzen,NI_Sequenzen,8,7,,,,,,,,,,,,
,Move,canvas.Screen,0_3_0_7_0_8,-999,skipped,,293515,,,293463,,293515,2021-10-26T08:07:16.264Z,293550.64,1635235335,full,ni_sequenzen,NI_Sequenzen,9,7,,,,,,,,,,,,
,Move,canvas.Screen,0_3_0_7_0_9,-999,skipped,,293521,,,293463,,293521,2021-10-26T08:07:16.271Z,293550.64,1635235335,full,ni_sequenzen,NI_Sequenzen,10,7,,,,,,,,,,,,
,Move,canvas.Screen,0_3_0_7_0_10,-999,skipped,,293528,,,293463,,293528,2021-10-26T08:07:16.277Z,293550.64,1635235335,full,ni_sequenzen,NI_Sequenzen,11,7,,,,,,,,,,,,
,Move,canvas.Screen,0_3_0_7_0_11,-999,skipped,,293536,,,293463,,293536,2021-10-26T08:07:16.286Z,293550.64,1635235335,full,ni_sequenzen,NI_Sequenzen,12,7,,,,,,,,,,,,
,Move,canvas.Screen,0_3_0_7_0_12,-999,skipped,,293541,,,293463,,293541,2021-10-26T08:07:16.291Z,293550.64,1635235335,full,ni_sequenzen,NI_Sequenzen,13,7,,,,,,,,,,,,
,Move,canvas.Screen,0_3_0_7_0_13,-999,skipped,,293544,,,293463,,293544,2021-10-26T08:07:16.294Z,293550.64,1635235335,full,ni_sequenzen,NI_Sequenzen,14,7,,,,,,,,,,,,
,Move,canvas.Screen,0_3_0_7_0_14,-999,skipped,,293548,,,293463,,293548,2021-10-26T08:07:16.297Z,293550.64,1635235335,full,ni_sequenzen,NI_Sequenzen,15,7,,,,,,,,,,,,
,Loop,flow.Loop,0_3_0_7_0,-999,completion,,289279,289286.98,289301.68,293463,4161.320000000007,293548,2021-10-26T08:07:16.298Z,293550.64,1635235335,full,ni_sequenzen,NI_Sequenzen,,7,,,,,,,,,,,,
,Feedback,canvas.Screen,0_3_0_7_1,,timeout,,293551,293550.48,293550.64,297528.44,4002.4199999999837,297529,2021-10-26T08:07:20.279Z,297553.06,1635235335,full,ni_sequenzen,NI_Sequenzen,,7,,,,,,,,,,,,
,Trial,flow.Sequence,0_3_0_7,,completion,,289254,289286.98,289301.68,297528.44,8226.76000000001,297529,2021-10-26T08:07:20.279Z,297561.56,1635235335,full,ni_sequenzen,NI_Sequenzen,,7,,,,,,,,,,,,
,Move,canvas.Screen,0_3_0_8_0_0,down,response,,297553,297553.06,297561.56,298244,682.4400000000023,298251,2021-10-26T08:07:21.000Z,298260.68,1635235335,full,ni_sequenzen,NI_Sequenzen,1,8,,,,,,,,,,,,
,Move,canvas.Screen,0_3_0_8_0_1,left,response,,298260,298260.34,298260.68,299025,764.320000000007,299042,2021-10-26T08:07:21.792Z,299048.48,1635235335,full,ni_sequenzen,NI_Sequenzen,2,8,,,,,,,,,,,,
,Move,canvas.Screen,0_3_0_8_0_2,down,response,,299048,299048.2,299048.48,299556,507.5200000000186,299561,2021-10-26T08:07:22.310Z,299570.18,1635235335,full,ni_sequenzen,NI_Sequenzen,3,8,,,,,,,,,,,,
,Move,canvas.Screen,0_3_0_8_0_3,left,response,,299570,299569.88,299570.18,299900,329.820000000007,299913,2021-10-26T08:07:22.663Z,299987.3,1635235335,full,ni_sequenzen,NI_Sequenzen,4,8,,,,,,,,,,,,
,Move,canvas.Screen,0_3_0_8_0_4,-999,skipped,,299922,,,299900,,299922,2021-10-26T08:07:22.672Z,299987.3,1635235335,full,ni_sequenzen,NI_Sequenzen,5,8,,,,,,,,,,,,
,Move,canvas.Screen,0_3_0_8_0_5,-999,skipped,,299930,,,299900,,299930,2021-10-26T08:07:22.680Z,299987.3,1635235335,full,ni_sequenzen,NI_Sequenzen,6,8,,,,,,,,,,,,
,Move,canvas.Screen,0_3_0_8_0_6,-999,skipped,,299936,,,299900,,299936,2021-10-26T08:07:22.686Z,299987.3,1635235335,full,ni_sequenzen,NI_Sequenzen,7,8,,,,,,,,,,,,
,Move,canvas.Screen,0_3_0_8_0_7,-999,skipped,,299944,,,299900,,299944,2021-10-26T08:07:22.693Z,299987.3,1635235335,full,ni_sequenzen,NI_Sequenzen,8,8,,,,,,,,,,,,
,Move,canvas.Screen,0_3_0_8_0_8,-999,skipped,,299950,,,299900,,299950,2021-10-26T08:07:22.700Z,299987.3,1635235335,full,ni_sequenzen,NI_Sequenzen,9,8,,,,,,,,,,,,
,Move,canvas.Screen,0_3_0_8_0_9,-999,skipped,,299956,,,299900,,299956,2021-10-26T08:07:22.706Z,299987.3,1635235335,full,ni_sequenzen,NI_Sequenzen,10,8,,,,,,,,,,,,
,Move,canvas.Screen,0_3_0_8_0_10,-999,skipped,,299962,,,299900,,299962,2021-10-26T08:07:22.712Z,299987.3,1635235335,full,ni_sequenzen,NI_Sequenzen,11,8,,,,,,,,,,,,
,Move,canvas.Screen,0_3_0_8_0_11,-999,skipped,,299969,,,299900,,299969,2021-10-26T08:07:22.718Z,299987.3,1635235335,full,ni_sequenzen,NI_Sequenzen,12,8,,,,,,,,,,,,
,Move,canvas.Screen,0_3_0_8_0_12,-999,skipped,,299975,,,299900,,299975,2021-10-26T08:07:22.724Z,299987.3,1635235335,full,ni_sequenzen,NI_Sequenzen,13,8,,,,,,,,,,,,
,Move,canvas.Screen,0_3_0_8_0_13,-999,skipped,,299979,,,299900,,299979,2021-10-26T08:07:22.729Z,299987.3,1635235335,full,ni_sequenzen,NI_Sequenzen,14,8,,,,,,,,,,,,
,Move,canvas.Screen,0_3_0_8_0_14,-999,skipped,,299985,,,299900,,299985,2021-10-26T08:07:22.734Z,299987.3,1635235335,full,ni_sequenzen,NI_Sequenzen,15,8,,,,,,,,,,,,
,Loop,flow.Loop,0_3_0_8_0,-999,completion,,297545,297553.06,297561.56,299900,2338.4400000000023,299985,2021-10-26T08:07:22.734Z,299987.3,1635235335,full,ni_sequenzen,NI_Sequenzen,,8,,,,,,,,,,,,
,Feedback,canvas.Screen,0_3_0_8_1,,timeout,,299987,299986.98,299987.3,303973,4002.2600000000093,303974,2021-10-26T08:07:26.724Z,303989.56,1635235335,full,ni_sequenzen,NI_Sequenzen,,8,,,,,,,,,,,,
,Trial,flow.Sequence,0_3_0_8,,completion,,297530,297553.06,297561.56,303973,6411.440000000002,303975,2021-10-26T08:07:26.724Z,304006.2,1635235335,full,ni_sequenzen,NI_Sequenzen,,8,,,,,,,,,,,,
,Move,canvas.Screen,0_3_0_9_0_0,down,response,,303988,303989.56,304006.2,304494,487.79999999998836,304498,2021-10-26T08:07:27.248Z,304507.02,1635235335,full,ni_sequenzen,NI_Sequenzen,1,9,,,,,,,,,,,,
,Move,canvas.Screen,0_3_0_9_0_1,left,response,,304507,304506.8,304507.02,304884,376.9799999999814,304893,2021-10-26T08:07:27.643Z,304902.26,1635235335,full,ni_sequenzen,NI_Sequenzen,2,9,,,,,,,,,,,,
,Move,canvas.Screen,0_3_0_9_0_2,down,response,,304902,304901.92,304902.26,305244,341.7399999999907,305252,2021-10-26T08:07:28.001Z,305260.54,1635235335,full,ni_sequenzen,NI_Sequenzen,3,9,,,,,,,,,,,,
,Move,canvas.Screen,0_3_0_9_0_3,left,response,,305260,305260.26,305260.54,305509,248.46000000002095,305516,2021-10-26T08:07:28.265Z,305580.2,1635235335,full,ni_sequenzen,NI_Sequenzen,4,9,,,,,,,,,,,,
,Move,canvas.Screen,0_3_0_9_0_4,-999,skipped,,305524,,,305509,,305524,2021-10-26T08:07:28.273Z,305580.2,1635235335,full,ni_sequenzen,NI_Sequenzen,5,9,,,,,,,,,,,,
,Move,canvas.Screen,0_3_0_9_0_5,-999,skipped,,305531,,,305509,,305531,2021-10-26T08:07:28.281Z,305580.2,1635235335,full,ni_sequenzen,NI_Sequenzen,6,9,,,,,,,,,,,,
,Move,canvas.Screen,0_3_0_9_0_6,-999,skipped,,305538,,,305509,,305538,2021-10-26T08:07:28.288Z,305580.2,1635235335,full,ni_sequenzen,NI_Sequenzen,7,9,,,,,,,,,,,,
,Move,canvas.Screen,0_3_0_9_0_7,-999,skipped,,305545,,,305509,,305545,2021-10-26T08:07:28.294Z,305580.2,1635235335,full,ni_sequenzen,NI_Sequenzen,8,9,,,,,,,,,,,,
,Move,canvas.Screen,0_3_0_9_0_8,-999,skipped,,305551,,,305509,,305551,2021-10-26T08:07:28.301Z,305580.2,1635235335,full,ni_sequenzen,NI_Sequenzen,9,9,,,,,,,,,,,,
,Move,canvas.Screen,0_3_0_9_0_9,-999,skipped,,305559,,,305509,,305559,2021-10-26T08:07:28.309Z,305580.2,1635235335,full,ni_sequenzen,NI_Sequenzen,10,9,,,,,,,,,,,,
,Move,canvas.Screen,0_3_0_9_0_10,-999,skipped,,305565,,,305509,,305565,2021-10-26T08:07:28.314Z,305580.2,1635235335,full,ni_sequenzen,NI_Sequenzen,11,9,,,,,,,,,,,,
,Move,canvas.Screen,0_3_0_9_0_11,-999,skipped,,305569,,,305509,,305569,2021-10-26T08:07:28.319Z,305580.2,1635235335,full,ni_sequenzen,NI_Sequenzen,12,9,,,,,,,,,,,,
,Move,canvas.Screen,0_3_0_9_0_12,-999,skipped,,305572,,,305509,,305572,2021-10-26T08:07:28.322Z,305580.2,1635235335,full,ni_sequenzen,NI_Sequenzen,13,9,,,,,,,,,,,,
,Move,canvas.Screen,0_3_0_9_0_13,-999,skipped,,305575,,,305509,,305575,2021-10-26T08:07:28.325Z,305580.2,1635235335,full,ni_sequenzen,NI_Sequenzen,14,9,,,,,,,,,,,,
,Move,canvas.Screen,0_3_0_9_0_14,-999,skipped,,305577,,,305509,,305578,2021-10-26T08:07:28.327Z,305580.2,1635235335,full,ni_sequenzen,NI_Sequenzen,15,9,,,,,,,,,,,,
,Loop,flow.Loop,0_3_0_9_0,-999,completion,,303983,303989.56,304006.2,305509,1502.7999999999884,305578,2021-10-26T08:07:28.327Z,305580.2,1635235335,full,ni_sequenzen,NI_Sequenzen,,9,,,,,,,,,,,,
,Feedback,canvas.Screen,0_3_0_9_1,,timeout,,305580,305579.94,305580.2,309568.52,4131.239999999991,309570,2021-10-26T08:07:32.319Z,309711.44,1635235335,full,ni_sequenzen,NI_Sequenzen,,9,,,,,,,,,,,,
,Trial,flow.Sequence,0_3_0_9,,completion,,303976,303989.56,304006.2,309568.52,5562.320000000007,309570,2021-10-26T08:07:32.319Z,309718.16,1635235335,full,ni_sequenzen,NI_Sequenzen,,9,,,,,,,,,,,,
,Block,flow.Loop,0_3_0,,completion,,200447,200455.6,200458.14,309568.52,109110.38,309570,2021-10-26T08:07:32.319Z,309718.16,1635235335,full,ni_sequenzen,NI_Sequenzen,,,,,,,,,,,,,,
,Training_II,flow.Sequence,0_3,,completion,,200426,200455.6,200458.14,309568.52,109110.38,309570,2021-10-26T08:07:32.320Z,309718.16,1635235335,full,ni_sequenzen,NI_Sequenzen,,,,,,,,,,,,,,
,Screen_1,canvas.Screen,0_4_0_0,cont,response,1,309711,309711.44,309718.16,320651,10932.840000000026,320662,2021-10-26T08:07:43.411Z,320675.84,1635235335,full,ni_sequenzen,NI_Sequenzen,,,,,,,,,,,,,,
,Screen_2,canvas.Screen,0_4_0_1,cont,response,1,320666,320666.56,320675.84,333916,13240.159999999974,333934,2021-10-26T08:07:56.683Z,334181.38,1635235335,full,ni_sequenzen,NI_Sequenzen,,,,,,,,,,,,,,
,Screen_3,canvas.Screen,0_4_0_2,cont,response,1,334175,334175.68,334181.38,351806,17624.619999999995,351819,2021-10-26T08:08:14.568Z,351969.8,1635235335,full,ni_sequenzen,NI_Sequenzen,,,,,,,,,,,,,,
,Sequence,flow.Sequence,0_4_0,,completion,1,309604,309711.44,309718.16,351806,42087.840000000026,351821,2021-10-26T08:08:14.571Z,351969.8,1635235335,full,ni_sequenzen,NI_Sequenzen,,,,,,,,,,,,,,
,Screen_1,canvas.Screen,0_4_1_0,,skipped,2,351829,,,351829,,351829,2021-10-26T08:08:14.578Z,351969.8,1635235335,full,ni_sequenzen,NI_Sequenzen,,,,,,,,,,,,,,
,Screen_2,canvas.Screen,0_4_1_1,,skipped,2,351831,,,351829,,351831,2021-10-26T08:08:14.580Z,351969.8,1635235335,full,ni_sequenzen,NI_Sequenzen,,,,,,,,,,,,,,
,Screen_3,canvas.Screen,0_4_1_2,,skipped,2,351832,,,351829,,351832,2021-10-26T08:08:14.581Z,351969.8,1635235335,full,ni_sequenzen,NI_Sequenzen,,,,,,,,,,,,,,
,Sequence,flow.Sequence,0_4_1,,completion,2,351825,,,351829,,351832,2021-10-26T08:08:14.582Z,351969.8,1635235335,full,ni_sequenzen,NI_Sequenzen,,,,,,,,,,,,,,
,Screen_1,canvas.Screen,0_4_2_0,,skipped,3,351834,,,351834,,351834,2021-10-26T08:08:14.583Z,351969.8,1635235335,full,ni_sequenzen,NI_Sequenzen,,,,,,,,,,,,,,
,Screen_2,canvas.Screen,0_4_2_1,,skipped,3,351835,,,351834,,351835,2021-10-26T08:08:14.585Z,351969.8,1635235335,full,ni_sequenzen,NI_Sequenzen,,,,,,,,,,,,,,
,Screen_3,canvas.Screen,0_4_2_2,,skipped,3,351836,,,351834,,351836,2021-10-26T08:08:14.586Z,351969.8,1635235335,full,ni_sequenzen,NI_Sequenzen,,,,,,,,,,,,,,
,Sequence,flow.Sequence,0_4_2,,completion,3,351833,,,351834,,351836,2021-10-26T08:08:14.586Z,351969.8,1635235335,full,ni_sequenzen,NI_Sequenzen,,,,,,,,,,,,,,
,Screen_1,canvas.Screen,0_4_3_0,,skipped,4,351838,,,351838,,351839,2021-10-26T08:08:14.589Z,351969.8,1635235335,full,ni_sequenzen,NI_Sequenzen,,,,,,,,,,,,,,
,Screen_2,canvas.Screen,0_4_3_1,,skipped,4,351843,,,351838,,351843,2021-10-26T08:08:14.592Z,351969.8,1635235335,full,ni_sequenzen,NI_Sequenzen,,,,,,,,,,,,,,
,Screen_3,canvas.Screen,0_4_3_2,,skipped,4,351845,,,351838,,351845,2021-10-26T08:08:14.594Z,351969.8,1635235335,full,ni_sequenzen,NI_Sequenzen,,,,,,,,,,,,,,
,Sequence,flow.Sequence,0_4_3,,completion,4,351837,,,351838,,351846,2021-10-26T08:08:14.594Z,351969.8,1635235335,full,ni_sequenzen,NI_Sequenzen,,,,,,,,,,,,,,
,Screen_1,canvas.Screen,0_4_4_0,,skipped,5,351849,,,351849,,351849,2021-10-26T08:08:14.598Z,351969.8,1635235335,full,ni_sequenzen,NI_Sequenzen,,,,,,,,,,,,,,
,Screen_2,canvas.Screen,0_4_4_1,,skipped,5,351852,,,351849,,351852,2021-10-26T08:08:14.602Z,351969.8,1635235335,full,ni_sequenzen,NI_Sequenzen,,,,,,,,,,,,,,
,Screen_3,canvas.Screen,0_4_4_2,,skipped,5,351854,,,351849,,351854,2021-10-26T08:08:14.604Z,351969.8,1635235335,full,ni_sequenzen,NI_Sequenzen,,,,,,,,,,,,,,
,Sequence,flow.Sequence,0_4_4,,completion,5,351847,,,351849,,351855,2021-10-26T08:08:14.604Z,351969.8,1635235335,full,ni_sequenzen,NI_Sequenzen,,,,,,,,,,,,,,
,Screen_1,canvas.Screen,0_4_5_0,,skipped,6,351857,,,351857,,351857,2021-10-26T08:08:14.607Z,351969.8,1635235335,full,ni_sequenzen,NI_Sequenzen,,,,,,,,,,,,,,
,Screen_2,canvas.Screen,0_4_5_1,,skipped,6,351859,,,351857,,351859,2021-10-26T08:08:14.610Z,351969.8,1635235335,full,ni_sequenzen,NI_Sequenzen,,,,,,,,,,,,,,
,Screen_3,canvas.Screen,0_4_5_2,,skipped,6,351861,,,351857,,351862,2021-10-26T08:08:14.612Z,351969.8,1635235335,full,ni_sequenzen,NI_Sequenzen,,,,,,,,,,,,,,
,Sequence,flow.Sequence,0_4_5,,completion,6,351855,,,351857,,351862,2021-10-26T08:08:14.612Z,351969.8,1635235335,full,ni_sequenzen,NI_Sequenzen,,,,,,,,,,,,,,
,Screen_1,canvas.Screen,0_4_6_0,,skipped,7,351865,,,351865,,351865,2021-10-26T08:08:14.614Z,351969.8,1635235335,full,ni_sequenzen,NI_Sequenzen,,,,,,,,,,,,,,
,Screen_2,canvas.Screen,0_4_6_1,,skipped,7,351866,,,351865,,351866,2021-10-26T08:08:14.615Z,351969.8,1635235335,full,ni_sequenzen,NI_Sequenzen,,,,,,,,,,,,,,
,Screen_3,canvas.Screen,0_4_6_2,,skipped,7,351868,,,351865,,351868,2021-10-26T08:08:14.617Z,351969.8,1635235335,full,ni_sequenzen,NI_Sequenzen,,,,,,,,,,,,,,
,Sequence,flow.Sequence,0_4_6,,completion,7,351863,,,351865,,351868,2021-10-26T08:08:14.617Z,351969.8,1635235335,full,ni_sequenzen,NI_Sequenzen,,,,,,,,,,,,,,
,Screen_1,canvas.Screen,0_4_7_0,,skipped,8,351870,,,351870,,351870,2021-10-26T08:08:14.619Z,351969.8,1635235335,full,ni_sequenzen,NI_Sequenzen,,,,,,,,,,,,,,
,Screen_2,canvas.Screen,0_4_7_1,,skipped,8,351871,,,351870,,351871,2021-10-26T08:08:14.620Z,351969.8,1635235335,full,ni_sequenzen,NI_Sequenzen,,,,,,,,,,,,,,
,Screen_3,canvas.Screen,0_4_7_2,,skipped,8,351872,,,351870,,351872,2021-10-26T08:08:14.622Z,351969.8,1635235335,full,ni_sequenzen,NI_Sequenzen,,,,,,,,,,,,,,
,Sequence,flow.Sequence,0_4_7,,completion,8,351869,,,351870,,351872,2021-10-26T08:08:14.622Z,351969.8,1635235335,full,ni_sequenzen,NI_Sequenzen,,,,,,,,,,,,,,
,Screen_1,canvas.Screen,0_4_8_0,,skipped,9,351874,,,351874,,351874,2021-10-26T08:08:14.624Z,351969.8,1635235335,full,ni_sequenzen,NI_Sequenzen,,,,,,,,,,,,,,
,Screen_2,canvas.Screen,0_4_8_1,,skipped,9,351875,,,351874,,351875,2021-10-26T08:08:14.625Z,351969.8,1635235335,full,ni_sequenzen,NI_Sequenzen,,,,,,,,,,,,,,
,Screen_3,canvas.Screen,0_4_8_2,,skipped,9,351876,,,351874,,351876,2021-10-26T08:08:14.626Z,351969.8,1635235335,full,ni_sequenzen,NI_Sequenzen,,,,,,,,,,,,,,
,Sequence,flow.Sequence,0_4_8,,completion,9,351873,,,351874,,351876,2021-10-26T08:08:14.626Z,351969.8,1635235335,full,ni_sequenzen,NI_Sequenzen,,,,,,,,,,,,,,
,Screen_1,canvas.Screen,0_4_9_0,,skipped,10,351877,,,351877,,351877,2021-10-26T08:08:14.627Z,351969.8,1635235335,full,ni_sequenzen,NI_Sequenzen,,,,,,,,,,,,,,
,Screen_2,canvas.Screen,0_4_9_1,,skipped,10,351878,,,351877,,351879,2021-10-26T08:08:14.628Z,351969.8,1635235335,full,ni_sequenzen,NI_Sequenzen,,,,,,,,,,,,,,
,Screen_3,canvas.Screen,0_4_9_2,,skipped,10,351880,,,351877,,351880,2021-10-26T08:08:14.629Z,351969.8,1635235335,full,ni_sequenzen,NI_Sequenzen,,,,,,,,,,,,,,
,Sequence,flow.Sequence,0_4_9,,completion,10,351876,,,351877,,351880,2021-10-26T08:08:14.629Z,351969.8,1635235335,full,ni_sequenzen,NI_Sequenzen,,,,,,,,,,,,,,
,Screen_1,canvas.Screen,0_4_10_0,,skipped,11,351881,,,351881,,351881,2021-10-26T08:08:14.631Z,351969.8,1635235335,full,ni_sequenzen,NI_Sequenzen,,,,,,,,,,,,,,
,Screen_2,canvas.Screen,0_4_10_1,,skipped,11,351882,,,351881,,351882,2021-10-26T08:08:14.631Z,351969.8,1635235335,full,ni_sequenzen,NI_Sequenzen,,,,,,,,,,,,,,
,Screen_3,canvas.Screen,0_4_10_2,,skipped,11,351883,,,351881,,351883,2021-10-26T08:08:14.632Z,351969.8,1635235335,full,ni_sequenzen,NI_Sequenzen,,,,,,,,,,,,,,
,Sequence,flow.Sequence,0_4_10,,completion,11,351880,,,351881,,351884,2021-10-26T08:08:14.632Z,351969.8,1635235335,full,ni_sequenzen,NI_Sequenzen,,,,,,,,,,,,,,
,Screen_1,canvas.Screen,0_4_11_0,,skipped,12,351885,,,351886,,351886,2021-10-26T08:08:14.635Z,351969.8,1635235335,full,ni_sequenzen,NI_Sequenzen,,,,,,,,,,,,,,
,Screen_2,canvas.Screen,0_4_11_1,,skipped,12,351887,,,351886,,351887,2021-10-26T08:08:14.635Z,351969.8,1635235335,full,ni_sequenzen,NI_Sequenzen,,,,,,,,,,,,,,
,Screen_3,canvas.Screen,0_4_11_2,,skipped,12,351888,,,351886,,351888,2021-10-26T08:08:14.637Z,351969.8,1635235335,full,ni_sequenzen,NI_Sequenzen,,,,,,,,,,,,,,
,Sequence,flow.Sequence,0_4_11,,completion,12,351884,,,351886,,351888,2021-10-26T08:08:14.637Z,351969.8,1635235335,full,ni_sequenzen,NI_Sequenzen,,,,,,,,,,,,,,
,Screen_1,canvas.Screen,0_4_12_0,,skipped,13,351891,,,351891,,351891,2021-10-26T08:08:14.640Z,351969.8,1635235335,full,ni_sequenzen,NI_Sequenzen,,,,,,,,,,,,,,
,Screen_2,canvas.Screen,0_4_12_1,,skipped,13,351892,,,351891,,351893,2021-10-26T08:08:14.641Z,351969.8,1635235335,full,ni_sequenzen,NI_Sequenzen,,,,,,,,,,,,,,
,Screen_3,canvas.Screen,0_4_12_2,,skipped,13,351893,,,351891,,351893,2021-10-26T08:08:14.643Z,351969.8,1635235335,full,ni_sequenzen,NI_Sequenzen,,,,,,,,,,,,,,
,Sequence,flow.Sequence,0_4_12,,completion,13,351889,,,351891,,351893,2021-10-26T08:08:14.643Z,351969.8,1635235335,full,ni_sequenzen,NI_Sequenzen,,,,,,,,,,,,,,
,Screen_1,canvas.Screen,0_4_13_0,,skipped,14,351895,,,351895,,351895,2021-10-26T08:08:14.644Z,351969.8,1635235335,full,ni_sequenzen,NI_Sequenzen,,,,,,,,,,,,,,
,Screen_2,canvas.Screen,0_4_13_1,,skipped,14,351896,,,351895,,351896,2021-10-26T08:08:14.645Z,351969.8,1635235335,full,ni_sequenzen,NI_Sequenzen,,,,,,,,,,,,,,
,Screen_3,canvas.Screen,0_4_13_2,,skipped,14,351896,,,351895,,351896,2021-10-26T08:08:14.646Z,351969.8,1635235335,full,ni_sequenzen,NI_Sequenzen,,,,,,,,,,,,,,
,Sequence,flow.Sequence,0_4_13,,completion,14,351894,,,351895,,351896,2021-10-26T08:08:14.646Z,351969.8,1635235335,full,ni_sequenzen,NI_Sequenzen,,,,,,,,,,,,,,
,Screen_1,canvas.Screen,0_4_14_0,,skipped,15,351897,,,351897,,351897,2021-10-26T08:08:14.648Z,351969.8,1635235335,full,ni_sequenzen,NI_Sequenzen,,,,,,,,,,,,,,
,Screen_2,canvas.Screen,0_4_14_1,,skipped,15,351899,,,351897,,351899,2021-10-26T08:08:14.649Z,351969.8,1635235335,full,ni_sequenzen,NI_Sequenzen,,,,,,,,,,,,,,
,Screen_3,canvas.Screen,0_4_14_2,,skipped,15,351900,,,351897,,351900,2021-10-26T08:08:14.650Z,351969.8,1635235335,full,ni_sequenzen,NI_Sequenzen,,,,,,,,,,,,,,
,Sequence,flow.Sequence,0_4_14,,completion,15,351897,,,351897,,351900,2021-10-26T08:08:14.650Z,351969.8,1635235335,full,ni_sequenzen,NI_Sequenzen,,,,,,,,,,,,,,
,Screen_1,canvas.Screen,0_4_15_0,,skipped,16,351901,,,351901,,351901,2021-10-26T08:08:14.651Z,351969.8,1635235335,full,ni_sequenzen,NI_Sequenzen,,,,,,,,,,,,,,
,Screen_2,canvas.Screen,0_4_15_1,,skipped,16,351902,,,351901,,351902,2021-10-26T08:08:14.652Z,351969.8,1635235335,full,ni_sequenzen,NI_Sequenzen,,,,,,,,,,,,,,
,Screen_3,canvas.Screen,0_4_15_2,,skipped,16,351903,,,351901,,351903,2021-10-26T08:08:14.653Z,351969.8,1635235335,full,ni_sequenzen,NI_Sequenzen,,,,,,,,,,,,,,
,Sequence,flow.Sequence,0_4_15,,completion,16,351901,,,351901,,351903,2021-10-26T08:08:14.653Z,351969.8,1635235335,full,ni_sequenzen,NI_Sequenzen,,,,,,,,,,,,,,
,Screen_1,canvas.Screen,0_4_16_0,,skipped,17,351904,,,351904,,351904,2021-10-26T08:08:14.653Z,351969.8,1635235335,full,ni_sequenzen,NI_Sequenzen,,,,,,,,,,,,,,
,Screen_2,canvas.Screen,0_4_16_1,,skipped,17,351905,,,351904,,351905,2021-10-26T08:08:14.654Z,351969.8,1635235335,full,ni_sequenzen,NI_Sequenzen,,,,,,,,,,,,,,
,Screen_3,canvas.Screen,0_4_16_2,,skipped,17,351906,,,351904,,351906,2021-10-26T08:08:14.655Z,351969.8,1635235335,full,ni_sequenzen,NI_Sequenzen,,,,,,,,,,,,,,
,Sequence,flow.Sequence,0_4_16,,completion,17,351903,,,351904,,351906,2021-10-26T08:08:14.655Z,351969.8,1635235335,full,ni_sequenzen,NI_Sequenzen,,,,,,,,,,,,,,
