meta,sender,sender_type,sender_id,response,ended_on,instrCount,time_run,time_render,time_show,time_end,duration,time_commit,timestamp,time_switch,openLabId,type,task,project,move,trialN,blockN_Train,blockN,moveCount,currPP,points,movesTrial,visitedFields,diff,reward,Strategie,Zweck,Probleme
[object Object],Screen_1,canvas.Screen,0_0_0_0,cont,response,1,597.0999999046326,596.501,613.167,8978.599999904633,8365.432999904633,8982.599999904633,2021-11-03T20:02:26.792Z,9118.285,1635969724,full,ni_sequenzen,NI_Sequenzen,,,,,,,,,,,,,,
,Screen_2,canvas.Screen,0_0_0_1,cont,response,1,9109.5,9101.84,9118.285,23149.799999952316,14031.514999952316,23150.399999976158,2021-11-03T20:02:40.960Z,23232.379,1635969724,full,ni_sequenzen,NI_Sequenzen,,,,,,,,,,,,,,
,Screen_3,canvas.Screen,0_0_0_2,cont,response,1,23220.199999928474,23216.94,23232.379,35623.39999997616,12391.020999976157,35623.89999997616,2021-11-03T20:02:53.434Z,35632.219,1635969724,full,ni_sequenzen,NI_Sequenzen,,,,,,,,,,,,,,
,Screen_4,canvas.Screen,0_0_0_3,cont,response,1,35627.59999990463,35621.582,35632.219,42326.89999997616,6694.680999976161,42327.39999997616,2021-11-03T20:03:00.137Z,42506.216,1635969724,full,ni_sequenzen,NI_Sequenzen,,,,,,,,,,,,,,
,Sequence,flow.Sequence,0_0_0,,completion,1,561.1999999284744,596.501,613.167,42326.89999997616,41713.73299997616,42330.59999990463,2021-11-03T20:03:00.140Z,42506.216,1635969724,full,ni_sequenzen,NI_Sequenzen,,,,,,,,,,,,,,
,Screen_1,canvas.Screen,0_0_1_0,,skipped,2,42332.59999990463,,,42332.59999990463,,42332.799999952316,2021-11-03T20:03:00.143Z,42506.216,1635969724,full,ni_sequenzen,NI_Sequenzen,,,,,,,,,,,,,,
,Screen_2,canvas.Screen,0_0_1_1,,skipped,2,42333.89999997616,,,42332.59999990463,,42334,2021-11-03T20:03:00.144Z,42506.216,1635969724,full,ni_sequenzen,NI_Sequenzen,,,,,,,,,,,,,,
,Screen_3,canvas.Screen,0_0_1_2,,skipped,2,42335.09999990463,,,42332.59999990463,,42335.199999928474,2021-11-03T20:03:00.145Z,42506.216,1635969724,full,ni_sequenzen,NI_Sequenzen,,,,,,,,,,,,,,
,Screen_4,canvas.Screen,0_0_1_3,,skipped,2,42336.299999952316,,,42332.59999990463,,42336.5,2021-11-03T20:03:00.146Z,42506.216,1635969724,full,ni_sequenzen,NI_Sequenzen,,,,,,,,,,,,,,
,Sequence,flow.Sequence,0_0_1,,completion,2,42331.39999997616,,,42332.59999990463,,42336.699999928474,2021-11-03T20:03:00.146Z,42506.216,1635969724,full,ni_sequenzen,NI_Sequenzen,,,,,,,,,,,,,,
,Screen_1,canvas.Screen,0_0_2_0,,skipped,3,42337.799999952316,,,42337.799999952316,,42338,2021-11-03T20:03:00.148Z,42506.216,1635969724,full,ni_sequenzen,NI_Sequenzen,,,,,,,,,,,,,,
,Screen_2,canvas.Screen,0_0_2_1,,skipped,3,42338.799999952316,,,42337.799999952316,,42338.89999997616,2021-11-03T20:03:00.149Z,42506.216,1635969724,full,ni_sequenzen,NI_Sequenzen,,,,,,,,,,,,,,
,Screen_3,canvas.Screen,0_0_2_2,,skipped,3,42339.89999997616,,,42337.799999952316,,42340,2021-11-03T20:03:00.150Z,42506.216,1635969724,full,ni_sequenzen,NI_Sequenzen,,,,,,,,,,,,,,
,Screen_4,canvas.Screen,0_0_2_3,,skipped,3,42340.799999952316,,,42337.799999952316,,42340.89999997616,2021-11-03T20:03:00.151Z,42506.216,1635969724,full,ni_sequenzen,NI_Sequenzen,,,,,,,,,,,,,,
,Sequence,flow.Sequence,0_0_2,,completion,3,42337.09999990463,,,42337.799999952316,,42341,2021-11-03T20:03:00.151Z,42506.216,1635969724,full,ni_sequenzen,NI_Sequenzen,,,,,,,,,,,,,,
,Screen_1,canvas.Screen,0_0_3_0,,skipped,4,42342.09999990463,,,42342.09999990463,,42342.09999990463,2021-11-03T20:03:00.152Z,42506.216,1635969724,full,ni_sequenzen,NI_Sequenzen,,,,,,,,,,,,,,
,Screen_2,canvas.Screen,0_0_3_1,,skipped,4,42343.5,,,42342.09999990463,,42343.799999952316,2021-11-03T20:03:00.154Z,42506.216,1635969724,full,ni_sequenzen,NI_Sequenzen,,,,,,,,,,,,,,
,Screen_3,canvas.Screen,0_0_3_2,,skipped,4,42344.699999928474,,,42342.09999990463,,42344.799999952316,2021-11-03T20:03:00.154Z,42506.216,1635969724,full,ni_sequenzen,NI_Sequenzen,,,,,,,,,,,,,,
,Screen_4,canvas.Screen,0_0_3_3,,skipped,4,42345.59999990463,,,42342.09999990463,,42345.699999928474,2021-11-03T20:03:00.155Z,42506.216,1635969724,full,ni_sequenzen,NI_Sequenzen,,,,,,,,,,,,,,
,Sequence,flow.Sequence,0_0_3,,completion,4,42341.39999997616,,,42342.09999990463,,42345.799999952316,2021-11-03T20:03:00.156Z,42506.216,1635969724,full,ni_sequenzen,NI_Sequenzen,,,,,,,,,,,,,,
,Screen_1,canvas.Screen,0_0_4_0,,skipped,5,42346.89999997616,,,42346.89999997616,,42346.89999997616,2021-11-03T20:03:00.157Z,42506.216,1635969724,full,ni_sequenzen,NI_Sequenzen,,,,,,,,,,,,,,
,Screen_2,canvas.Screen,0_0_4_1,,skipped,5,42347.699999928474,,,42346.89999997616,,42347.799999952316,2021-11-03T20:03:00.158Z,42506.216,1635969724,full,ni_sequenzen,NI_Sequenzen,,,,,,,,,,,,,,
,Screen_3,canvas.Screen,0_0_4_2,,skipped,5,42348.59999990463,,,42346.89999997616,,42348.699999928474,2021-11-03T20:03:00.158Z,42506.216,1635969724,full,ni_sequenzen,NI_Sequenzen,,,,,,,,,,,,,,
,Screen_4,canvas.Screen,0_0_4_3,,skipped,5,42349.59999990463,,,42346.89999997616,,42349.699999928474,2021-11-03T20:03:00.159Z,42506.216,1635969724,full,ni_sequenzen,NI_Sequenzen,,,,,,,,,,,,,,
,Sequence,flow.Sequence,0_0_4,,completion,5,42346.09999990463,,,42346.89999997616,,42349.799999952316,2021-11-03T20:03:00.160Z,42506.216,1635969724,full,ni_sequenzen,NI_Sequenzen,,,,,,,,,,,,,,
,Screen_1,canvas.Screen,0_0_5_0,,skipped,6,42350.799999952316,,,42350.799999952316,,42350.89999997616,2021-11-03T20:03:00.161Z,42506.216,1635969724,full,ni_sequenzen,NI_Sequenzen,,,,,,,,,,,,,,
,Screen_2,canvas.Screen,0_0_5_1,,skipped,6,42351.699999928474,,,42350.799999952316,,42351.699999928474,2021-11-03T20:03:00.162Z,42506.216,1635969724,full,ni_sequenzen,NI_Sequenzen,,,,,,,,,,,,,,
,Screen_3,canvas.Screen,0_0_5_2,,skipped,6,42352.699999928474,,,42350.799999952316,,42352.799999952316,2021-11-03T20:03:00.163Z,42506.216,1635969724,full,ni_sequenzen,NI_Sequenzen,,,,,,,,,,,,,,
,Screen_4,canvas.Screen,0_0_5_3,,skipped,6,42353.59999990463,,,42350.799999952316,,42353.699999928474,2021-11-03T20:03:00.163Z,42506.216,1635969724,full,ni_sequenzen,NI_Sequenzen,,,,,,,,,,,,,,
,Sequence,flow.Sequence,0_0_5,,completion,6,42350.199999928474,,,42350.799999952316,,42353.799999952316,2021-11-03T20:03:00.164Z,42506.216,1635969724,full,ni_sequenzen,NI_Sequenzen,,,,,,,,,,,,,,
,Screen_1,canvas.Screen,0_0_6_0,,skipped,7,42354.89999997616,,,42354.89999997616,,42354.89999997616,2021-11-03T20:03:00.165Z,42506.216,1635969724,full,ni_sequenzen,NI_Sequenzen,,,,,,,,,,,,,,
,Screen_2,canvas.Screen,0_0_6_1,,skipped,7,42355.59999990463,,,42354.89999997616,,42355.799999952316,2021-11-03T20:03:00.166Z,42506.216,1635969724,full,ni_sequenzen,NI_Sequenzen,,,,,,,,,,,,,,
,Screen_3,canvas.Screen,0_0_6_2,,skipped,7,42357.299999952316,,,42354.89999997616,,42357.5,2021-11-03T20:03:00.167Z,42506.216,1635969724,full,ni_sequenzen,NI_Sequenzen,,,,,,,,,,,,,,
,Screen_4,canvas.Screen,0_0_6_3,,skipped,7,42358.299999952316,,,42354.89999997616,,42358.39999997616,2021-11-03T20:03:00.168Z,42506.216,1635969724,full,ni_sequenzen,NI_Sequenzen,,,,,,,,,,,,,,
,Sequence,flow.Sequence,0_0_6,,completion,7,42354.09999990463,,,42354.89999997616,,42358.5,2021-11-03T20:03:00.168Z,42506.216,1635969724,full,ni_sequenzen,NI_Sequenzen,,,,,,,,,,,,,,
,Screen_1,canvas.Screen,0_0_7_0,,skipped,8,42359.5,,,42359.5,,42359.59999990463,2021-11-03T20:03:00.169Z,42506.216,1635969724,full,ni_sequenzen,NI_Sequenzen,,,,,,,,,,,,,,
,Screen_2,canvas.Screen,0_0_7_1,,skipped,8,42360.39999997616,,,42359.5,,42360.5,2021-11-03T20:03:00.170Z,42506.216,1635969724,full,ni_sequenzen,NI_Sequenzen,,,,,,,,,,,,,,
,Screen_3,canvas.Screen,0_0_7_2,,skipped,8,42361.5,,,42359.5,,42361.699999928474,2021-11-03T20:03:00.171Z,42506.216,1635969724,full,ni_sequenzen,NI_Sequenzen,,,,,,,,,,,,,,
,Screen_4,canvas.Screen,0_0_7_3,,skipped,8,42362.5,,,42359.5,,42362.59999990463,2021-11-03T20:03:00.172Z,42506.216,1635969724,full,ni_sequenzen,NI_Sequenzen,,,,,,,,,,,,,,
,Sequence,flow.Sequence,0_0_7,,completion,8,42358.799999952316,,,42359.5,,42362.699999928474,2021-11-03T20:03:00.172Z,42506.216,1635969724,full,ni_sequenzen,NI_Sequenzen,,,,,,,,,,,,,,
,Screen_1,canvas.Screen,0_0_8_0,,skipped,9,42363.799999952316,,,42363.799999952316,,42363.799999952316,2021-11-03T20:03:00.174Z,42506.216,1635969724,full,ni_sequenzen,NI_Sequenzen,,,,,,,,,,,,,,
,Screen_2,canvas.Screen,0_0_8_1,,skipped,9,42364.59999990463,,,42363.799999952316,,42364.699999928474,2021-11-03T20:03:00.174Z,42506.216,1635969724,full,ni_sequenzen,NI_Sequenzen,,,,,,,,,,,,,,
,Screen_3,canvas.Screen,0_0_8_2,,skipped,9,42365.5,,,42363.799999952316,,42365.5,2021-11-03T20:03:00.175Z,42506.216,1635969724,full,ni_sequenzen,NI_Sequenzen,,,,,,,,,,,,,,
,Screen_4,canvas.Screen,0_0_8_3,,skipped,9,42366.39999997616,,,42363.799999952316,,42366.39999997616,2021-11-03T20:03:00.176Z,42506.216,1635969724,full,ni_sequenzen,NI_Sequenzen,,,,,,,,,,,,,,
,Sequence,flow.Sequence,0_0_8,,completion,9,42363,,,42363.799999952316,,42366.59999990463,2021-11-03T20:03:00.176Z,42506.216,1635969724,full,ni_sequenzen,NI_Sequenzen,,,,,,,,,,,,,,
,Screen_1,canvas.Screen,0_0_9_0,,skipped,10,42367.699999928474,,,42367.699999928474,,42367.89999997616,2021-11-03T20:03:00.178Z,42506.216,1635969724,full,ni_sequenzen,NI_Sequenzen,,,,,,,,,,,,,,
,Screen_2,canvas.Screen,0_0_9_1,,skipped,10,42368.699999928474,,,42367.699999928474,,42368.699999928474,2021-11-03T20:03:00.179Z,42506.216,1635969724,full,ni_sequenzen,NI_Sequenzen,,,,,,,,,,,,,,
,Screen_3,canvas.Screen,0_0_9_2,,skipped,10,42369.59999990463,,,42367.699999928474,,42369.59999990463,2021-11-03T20:03:00.179Z,42506.216,1635969724,full,ni_sequenzen,NI_Sequenzen,,,,,,,,,,,,,,
,Screen_4,canvas.Screen,0_0_9_3,,skipped,10,42371.199999928474,,,42367.699999928474,,42371.299999952316,2021-11-03T20:03:00.181Z,42506.216,1635969724,full,ni_sequenzen,NI_Sequenzen,,,,,,,,,,,,,,
,Sequence,flow.Sequence,0_0_9,,completion,10,42366.89999997616,,,42367.699999928474,,42371.299999952316,2021-11-03T20:03:00.181Z,42506.216,1635969724,full,ni_sequenzen,NI_Sequenzen,,,,,,,,,,,,,,
,Screen_1,canvas.Screen,0_0_10_0,,skipped,11,42372.5,,,42372.5,,42372.699999928474,2021-11-03T20:03:00.182Z,42506.216,1635969724,full,ni_sequenzen,NI_Sequenzen,,,,,,,,,,,,,,
,Screen_2,canvas.Screen,0_0_10_1,,skipped,11,42373.39999997616,,,42372.5,,42373.5,2021-11-03T20:03:00.183Z,42506.216,1635969724,full,ni_sequenzen,NI_Sequenzen,,,,,,,,,,,,,,
,Screen_3,canvas.Screen,0_0_10_2,,skipped,11,42374.299999952316,,,42372.5,,42374.299999952316,2021-11-03T20:03:00.184Z,42506.216,1635969724,full,ni_sequenzen,NI_Sequenzen,,,,,,,,,,,,,,
,Screen_4,canvas.Screen,0_0_10_3,,skipped,11,42375.09999990463,,,42372.5,,42375.199999928474,2021-11-03T20:03:00.185Z,42506.216,1635969724,full,ni_sequenzen,NI_Sequenzen,,,,,,,,,,,,,,
,Sequence,flow.Sequence,0_0_10,,completion,11,42371.699999928474,,,42372.5,,42375.39999997616,2021-11-03T20:03:00.185Z,42506.216,1635969724,full,ni_sequenzen,NI_Sequenzen,,,,,,,,,,,,,,
,Screen_1,canvas.Screen,0_0_11_0,,skipped,12,42376.39999997616,,,42376.39999997616,,42376.5,2021-11-03T20:03:00.186Z,42506.216,1635969724,full,ni_sequenzen,NI_Sequenzen,,,,,,,,,,,,,,
,Screen_2,canvas.Screen,0_0_11_1,,skipped,12,42387.299999952316,,,42376.39999997616,,42387.39999997616,2021-11-03T20:03:00.197Z,42506.216,1635969724,full,ni_sequenzen,NI_Sequenzen,,,,,,,,,,,,,,
,Screen_3,canvas.Screen,0_0_11_2,,skipped,12,42388.59999990463,,,42376.39999997616,,42388.59999990463,2021-11-03T20:03:00.198Z,42506.216,1635969724,full,ni_sequenzen,NI_Sequenzen,,,,,,,,,,,,,,
,Screen_4,canvas.Screen,0_0_11_3,,skipped,12,42389.5,,,42376.39999997616,,42389.59999990463,2021-11-03T20:03:00.199Z,42506.216,1635969724,full,ni_sequenzen,NI_Sequenzen,,,,,,,,,,,,,,
,Sequence,flow.Sequence,0_0_11,,completion,12,42375.699999928474,,,42376.39999997616,,42389.699999928474,2021-11-03T20:03:00.199Z,42506.216,1635969724,full,ni_sequenzen,NI_Sequenzen,,,,,,,,,,,,,,
,Screen_1,canvas.Screen,0_0_12_0,,skipped,13,42390.699999928474,,,42390.699999928474,,42390.799999952316,2021-11-03T20:03:00.201Z,42506.216,1635969724,full,ni_sequenzen,NI_Sequenzen,,,,,,,,,,,,,,
,Screen_2,canvas.Screen,0_0_12_1,,skipped,13,42391.699999928474,,,42390.699999928474,,42391.699999928474,2021-11-03T20:03:00.201Z,42506.216,1635969724,full,ni_sequenzen,NI_Sequenzen,,,,,,,,,,,,,,
,Screen_3,canvas.Screen,0_0_12_2,,skipped,13,42392.59999990463,,,42390.699999928474,,42392.59999990463,2021-11-03T20:03:00.202Z,42506.216,1635969724,full,ni_sequenzen,NI_Sequenzen,,,,,,,,,,,,,,
,Screen_4,canvas.Screen,0_0_12_3,,skipped,13,42393.39999997616,,,42390.699999928474,,42393.39999997616,2021-11-03T20:03:00.203Z,42506.216,1635969724,full,ni_sequenzen,NI_Sequenzen,,,,,,,,,,,,,,
,Sequence,flow.Sequence,0_0_12,,completion,13,42390,,,42390.699999928474,,42393.59999990463,2021-11-03T20:03:00.203Z,42506.216,1635969724,full,ni_sequenzen,NI_Sequenzen,,,,,,,,,,,,,,
,Screen_1,canvas.Screen,0_0_13_0,,skipped,14,42394.699999928474,,,42394.699999928474,,42394.799999952316,2021-11-03T20:03:00.205Z,42506.216,1635969724,full,ni_sequenzen,NI_Sequenzen,,,,,,,,,,,,,,
,Screen_2,canvas.Screen,0_0_13_1,,skipped,14,42395.59999990463,,,42394.699999928474,,42395.59999990463,2021-11-03T20:03:00.205Z,42506.216,1635969724,full,ni_sequenzen,NI_Sequenzen,,,,,,,,,,,,,,
,Screen_3,canvas.Screen,0_0_13_2,,skipped,14,42396.39999997616,,,42394.699999928474,,42396.5,2021-11-03T20:03:00.206Z,42506.216,1635969724,full,ni_sequenzen,NI_Sequenzen,,,,,,,,,,,,,,
,Screen_4,canvas.Screen,0_0_13_3,,skipped,14,42397.299999952316,,,42394.699999928474,,42397.39999997616,2021-11-03T20:03:00.207Z,42506.216,1635969724,full,ni_sequenzen,NI_Sequenzen,,,,,,,,,,,,,,
,Sequence,flow.Sequence,0_0_13,,completion,14,42394,,,42394.699999928474,,42397.5,2021-11-03T20:03:00.207Z,42506.216,1635969724,full,ni_sequenzen,NI_Sequenzen,,,,,,,,,,,,,,
,Screen_1,canvas.Screen,0_0_14_0,,skipped,15,42398.5,,,42398.5,,42398.5,2021-11-03T20:03:00.208Z,42506.216,1635969724,full,ni_sequenzen,NI_Sequenzen,,,,,,,,,,,,,,
,Screen_2,canvas.Screen,0_0_14_1,,skipped,15,42399.199999928474,,,42398.5,,42399.299999952316,2021-11-03T20:03:00.209Z,42506.216,1635969724,full,ni_sequenzen,NI_Sequenzen,,,,,,,,,,,,,,
,Screen_3,canvas.Screen,0_0_14_2,,skipped,15,42400.09999990463,,,42398.5,,42400.199999928474,2021-11-03T20:03:00.210Z,42506.216,1635969724,full,ni_sequenzen,NI_Sequenzen,,,,,,,,,,,,,,
,Screen_4,canvas.Screen,0_0_14_3,,skipped,15,42401,,,42398.5,,42401.09999990463,2021-11-03T20:03:00.211Z,42506.216,1635969724,full,ni_sequenzen,NI_Sequenzen,,,,,,,,,,,,,,
,Sequence,flow.Sequence,0_0_14,,completion,15,42397.799999952316,,,42398.5,,42401.199999928474,2021-11-03T20:03:00.211Z,42506.216,1635969724,full,ni_sequenzen,NI_Sequenzen,,,,,,,,,,,,,,
,Screen_1,canvas.Screen,0_0_15_0,,skipped,16,42402.799999952316,,,42402.799999952316,,42402.799999952316,2021-11-03T20:03:00.213Z,42506.216,1635969724,full,ni_sequenzen,NI_Sequenzen,,,,,,,,,,,,,,
,Screen_2,canvas.Screen,0_0_15_1,,skipped,16,42403.59999990463,,,42402.799999952316,,42403.59999990463,2021-11-03T20:03:00.213Z,42506.216,1635969724,full,ni_sequenzen,NI_Sequenzen,,,,,,,,,,,,,,
,Screen_3,canvas.Screen,0_0_15_2,,skipped,16,42404.5,,,42402.799999952316,,42404.5,2021-11-03T20:03:00.214Z,42506.216,1635969724,full,ni_sequenzen,NI_Sequenzen,,,,,,,,,,,,,,
,Screen_4,canvas.Screen,0_0_15_3,,skipped,16,42406.59999990463,,,42402.799999952316,,42406.59999990463,2021-11-03T20:03:00.216Z,42506.216,1635969724,full,ni_sequenzen,NI_Sequenzen,,,,,,,,,,,,,,
,Sequence,flow.Sequence,0_0_15,,completion,16,42401.5,,,42402.799999952316,,42406.799999952316,2021-11-03T20:03:00.217Z,42506.216,1635969724,full,ni_sequenzen,NI_Sequenzen,,,,,,,,,,,,,,
,Screen_1,canvas.Screen,0_0_16_0,,skipped,17,42407.799999952316,,,42407.89999997616,,42408,2021-11-03T20:03:00.218Z,42506.216,1635969724,full,ni_sequenzen,NI_Sequenzen,,,,,,,,,,,,,,
,Screen_2,canvas.Screen,0_0_16_1,,skipped,17,42408.699999928474,,,42407.89999997616,,42408.799999952316,2021-11-03T20:03:00.219Z,42506.216,1635969724,full,ni_sequenzen,NI_Sequenzen,,,,,,,,,,,,,,
,Screen_3,canvas.Screen,0_0_16_2,,skipped,17,42409.799999952316,,,42407.89999997616,,42409.799999952316,2021-11-03T20:03:00.220Z,42506.216,1635969724,full,ni_sequenzen,NI_Sequenzen,,,,,,,,,,,,,,
,Screen_4,canvas.Screen,0_0_16_3,,skipped,17,42410.59999990463,,,42407.89999997616,,42410.699999928474,2021-11-03T20:03:00.220Z,42506.216,1635969724,full,ni_sequenzen,NI_Sequenzen,,,,,,,,,,,,,,
,Sequence,flow.Sequence,0_0_16,,completion,17,42407.09999990463,,,42407.89999997616,,42410.799999952316,2021-11-03T20:03:00.221Z,42506.216,1635969724,full,ni_sequenzen,NI_Sequenzen,,,,,,,,,,,,,,
,Screen_1,canvas.Screen,0_0_17_0,,skipped,18,42411.799999952316,,,42411.799999952316,,42411.799999952316,2021-11-03T20:03:00.222Z,42506.216,1635969724,full,ni_sequenzen,NI_Sequenzen,,,,,,,,,,,,,,
,Screen_2,canvas.Screen,0_0_17_1,,skipped,18,42412.5,,,42411.799999952316,,42412.699999928474,2021-11-03T20:03:00.222Z,42506.216,1635969724,full,ni_sequenzen,NI_Sequenzen,,,,,,,,,,,,,,
,Screen_3,canvas.Screen,0_0_17_2,,skipped,18,42413.39999997616,,,42411.799999952316,,42413.59999990463,2021-11-03T20:03:00.223Z,42506.216,1635969724,full,ni_sequenzen,NI_Sequenzen,,,,,,,,,,,,,,
,Screen_4,canvas.Screen,0_0_17_3,,skipped,18,42414.299999952316,,,42411.799999952316,,42414.39999997616,2021-11-03T20:03:00.224Z,42506.216,1635969724,full,ni_sequenzen,NI_Sequenzen,,,,,,,,,,,,,,
,Sequence,flow.Sequence,0_0_17,,completion,18,42411.09999990463,,,42411.799999952316,,42414.5,2021-11-03T20:03:00.224Z,42506.216,1635969724,full,ni_sequenzen,NI_Sequenzen,,,,,,,,,,,,,,
,Screen_1,canvas.Screen,0_0_18_0,,skipped,19,42415.5,,,42415.5,,42415.59999990463,2021-11-03T20:03:00.225Z,42506.216,1635969724,full,ni_sequenzen,NI_Sequenzen,,,,,,,,,,,,,,
,Screen_2,canvas.Screen,0_0_18_1,,skipped,19,42417.39999997616,,,42415.5,,42417.39999997616,2021-11-03T20:03:00.227Z,42506.216,1635969724,full,ni_sequenzen,NI_Sequenzen,,,,,,,,,,,,,,
,Screen_3,canvas.Screen,0_0_18_2,,skipped,19,42418.199999928474,,,42415.5,,42418.299999952316,2021-11-03T20:03:00.228Z,42506.216,1635969724,full,ni_sequenzen,NI_Sequenzen,,,,,,,,,,,,,,
,Screen_4,canvas.Screen,0_0_18_3,,skipped,19,42419,,,42415.5,,42419.09999990463,2021-11-03T20:03:00.229Z,42506.216,1635969724,full,ni_sequenzen,NI_Sequenzen,,,,,,,,,,,,,,
,Sequence,flow.Sequence,0_0_18,,completion,19,42414.799999952316,,,42415.5,,42419.299999952316,2021-11-03T20:03:00.229Z,42506.216,1635969724,full,ni_sequenzen,NI_Sequenzen,,,,,,,,,,,,,,
,Screen_1,canvas.Screen,0_0_19_0,,skipped,20,42420.199999928474,,,42420.199999928474,,42420.299999952316,2021-11-03T20:03:00.230Z,42506.216,1635969724,full,ni_sequenzen,NI_Sequenzen,,,,,,,,,,,,,,
,Screen_2,canvas.Screen,0_0_19_1,,skipped,20,42421.09999990463,,,42420.199999928474,,42421.09999990463,2021-11-03T20:03:00.231Z,42506.216,1635969724,full,ni_sequenzen,NI_Sequenzen,,,,,,,,,,,,,,
,Screen_3,canvas.Screen,0_0_19_2,,skipped,20,42422,,,42420.199999928474,,42422,2021-11-03T20:03:00.232Z,42506.216,1635969724,full,ni_sequenzen,NI_Sequenzen,,,,,,,,,,,,,,
,Screen_4,canvas.Screen,0_0_19_3,,skipped,20,42422.799999952316,,,42420.199999928474,,42422.799999952316,2021-11-03T20:03:00.233Z,42506.216,1635969724,full,ni_sequenzen,NI_Sequenzen,,,,,,,,,,,,,,
,Sequence,flow.Sequence,0_0_19,,completion,20,42419.699999928474,,,42420.199999928474,,42422.89999997616,2021-11-03T20:03:00.233Z,42506.216,1635969724,full,ni_sequenzen,NI_Sequenzen,,,,,,,,,,,,,,
,Instructions_I,flow.Loop,0_0,,completion,,560.1999999284744,596.501,613.167,42420.199999928474,41807.03299992847,42423.09999990463,2021-11-03T20:03:00.233Z,42506.216,1635969724,full,ni_sequenzen,NI_Sequenzen,,,,,,,,,,,,,,
,Move,canvas.Screen,0_1_0_0,left,response,,42503.09999990463,42492.873,42506.216,43627.699999928474,1121.483999928474,43628.299999952316,2021-11-03T20:03:01.438Z,43638.026,1635969724,full,ni_sequenzen,NI_Sequenzen,1,,,,,,,,,,,,,
,Move,canvas.Screen,0_1_0_1,left,response,,43631,43622.088,43638.026,44140.5,502.474000000002,44141.09999990463,2021-11-03T20:03:01.951Z,44153.916,1635969724,full,ni_sequenzen,NI_Sequenzen,2,,,,,,,,,,,,,
,Move,canvas.Screen,0_1_0_2,down,response,,44143.89999997616,44137.695,44153.916,46970.39999997616,2816.4839999761607,46970.89999997616,2021-11-03T20:03:04.781Z,46983.601,1635969724,full,ni_sequenzen,NI_Sequenzen,3,,,,,,,,,,,,,
,Move,canvas.Screen,0_1_0_3,down,response,,46973,46968.282,46983.601,47266.89999997616,283.29899997615576,47267.39999997616,2021-11-03T20:03:05.077Z,47283.235,1635969724,full,ni_sequenzen,NI_Sequenzen,4,,,,,,,,,,,,,
,Move,canvas.Screen,0_1_0_4,right,response,,47269.5,47266.617,47283.235,48814.89999997616,1531.6649999761576,48815.5,2021-11-03T20:03:06.625Z,48830.977,1635969724,full,ni_sequenzen,NI_Sequenzen,5,,,,,,,,,,,,,
,Move,canvas.Screen,0_1_0_5,right,response,,48817.39999997616,48815.228,48830.977,49033.39999997616,202.4229999761592,49033.89999997616,2021-11-03T20:03:06.844Z,49047.402,1635969724,full,ni_sequenzen,NI_Sequenzen,6,,,,,,,,,,,,,
,Move,canvas.Screen,0_1_0_6,down,response,,49036.199999928474,49030.924,49047.402,49948.89999997616,901.4979999761563,49949.5,2021-11-03T20:03:07.759Z,49962.915,1635969724,full,ni_sequenzen,NI_Sequenzen,7,,,,,,,,,,,,,
,Move,canvas.Screen,0_1_0_7,down,response,,49951.5,49946.639,49962.915,50158.39999997616,195.48499997615727,50159,2021-11-03T20:03:07.969Z,50162.411,1635969724,full,ni_sequenzen,NI_Sequenzen,8,,,,,,,,,,,,,
,Move,canvas.Screen,0_1_0_8,right,response,,50161,50146.094,50162.411,50591.59999990463,429.1889999046325,50592.199999928474,2021-11-03T20:03:08.402Z,50627.449,1635969724,full,ni_sequenzen,NI_Sequenzen,9,,,,,,,,,,,,,
,Move,canvas.Screen,0_1_0_9,right,response,,50594.5,50578.916,50627.449,50820.89999997616,193.45099997615762,50821.59999990463,2021-11-03T20:03:08.631Z,50828.232,1635969724,full,ni_sequenzen,NI_Sequenzen,10,,,,,,,,,,,,,
,Move,canvas.Screen,0_1_0_10,left,response,,50823.5,50811.823,50828.232,50902,73.76799999999639,50902.5,2021-11-03T20:03:08.712Z,50911.437,1635969724,full,ni_sequenzen,NI_Sequenzen,11,,,,,,,,,,,,,
,Move,canvas.Screen,0_1_0_11,down,response,,50904.5,50894.99,50911.437,51227.5,316.0630000000019,51228.09999990463,2021-11-03T20:03:09.038Z,51244.527,1635969724,full,ni_sequenzen,NI_Sequenzen,12,,,,,,,,,,,,,
,Move,canvas.Screen,0_1_0_12,down,response,,51230.199999928474,51227.908,51244.527,51702.299999952316,457.7729999523144,51702.89999997616,2021-11-03T20:03:09.513Z,51710.383,1635969724,full,ni_sequenzen,NI_Sequenzen,13,,,,,,,,,,,,,
,Move,canvas.Screen,0_1_0_13,down,response,,51704.699999928474,51694.105,51710.383,51996.89999997616,286.5169999761565,51997.39999997616,2021-11-03T20:03:09.807Z,52010.127,1635969724,full,ni_sequenzen,NI_Sequenzen,14,,,,,,,,,,,,,
,Move,canvas.Screen,0_1_0_14,left,response,,51999.799999952316,51993.614,52010.127,52370.09999990463,359.97299990463216,52370.5,2021-11-03T20:03:10.180Z,52376.14,1635969724,full,ni_sequenzen,NI_Sequenzen,15,,,,,,,,,,,,,
,Move,canvas.Screen,0_1_0_15,left,response,,52372.59999990463,52359.806,52376.14,52691.5,315.3600000000006,52692,2021-11-03T20:03:10.502Z,52709.109,1635969724,full,ni_sequenzen,NI_Sequenzen,16,,,,,,,,,,,,,
,Move,canvas.Screen,0_1_0_16,left,response,,52693.799999952316,52692.651,52709.109,52905.09999990463,195.99099990463583,52905.699999928474,2021-11-03T20:03:10.715Z,52940.741,1635969724,full,ni_sequenzen,NI_Sequenzen,17,,,,,,,,,,,,,
,Move,canvas.Screen,0_1_0_17,down,response,,52908,52892.223,52940.741,53191.199999928474,250.45899992847262,53191.699999928474,2021-11-03T20:03:11.001Z,53208.558,1635969724,full,ni_sequenzen,NI_Sequenzen,18,,,,,,,,,,,,,
,Move,canvas.Screen,0_1_0_18,down,response,,53193.59999990463,53191.955,53208.558,53445.59999990463,237.0419999046353,53446.09999990463,2021-11-03T20:03:11.256Z,53457.997,1635969724,full,ni_sequenzen,NI_Sequenzen,19,,,,,,,,,,,,,
,Move,canvas.Screen,0_1_0_19,down,response,,53447.799999952316,53441.558,53457.997,53645.59999990463,187.60299990462954,53646.199999928474,2021-11-03T20:03:11.456Z,53657.922,1635969724,full,ni_sequenzen,NI_Sequenzen,20,,,,,,,,,,,,,
,Move,canvas.Screen,0_1_0_20,right,response,,53648.299999952316,53641.321,53657.922,53946.799999952316,288.8779999523176,53947.299999952316,2021-11-03T20:03:11.757Z,53957.359,1635969724,full,ni_sequenzen,NI_Sequenzen,21,,,,,,,,,,,,,
,Move,canvas.Screen,0_1_0_21,right,response,,53949.39999997616,53941.024,53957.359,54160.39999997616,203.0409999761614,54160.89999997616,2021-11-03T20:03:11.971Z,54173.702,1635969724,full,ni_sequenzen,NI_Sequenzen,22,,,,,,,,,,,,,
,Move,canvas.Screen,0_1_0_22,right,response,,54162.59999990463,54157.266,54173.702,54357.59999990463,183.89799990463507,54358.199999928474,2021-11-03T20:03:12.168Z,54373.637,1635969724,full,ni_sequenzen,NI_Sequenzen,23,,,,,,,,,,,,,
,Move,canvas.Screen,0_1_0_23,left,response,,54360.89999997616,54356.976,54373.637,54650.89999997616,277.2629999761557,54651.39999997616,2021-11-03T20:03:12.461Z,54656.356,1635969724,full,ni_sequenzen,NI_Sequenzen,24,,,,,,,,,,,,,
,Move,canvas.Screen,0_1_0_24,left,response,,54653.799999952316,54640,54656.356,56072.09999990463,1415.7439999046328,56072.59999990463,2021-11-03T20:03:13.882Z,56087.778,1635969724,full,ni_sequenzen,NI_Sequenzen,25,,,,,,,,,,,,,
,Move,canvas.Screen,0_1_0_25,down,response,,56074.299999952316,56071.818,56087.778,56350.5,262.7220000000016,56351.09999990463,2021-11-03T20:03:14.161Z,56386.26,1635969724,full,ni_sequenzen,NI_Sequenzen,26,,,,,,,,,,,,,
,Move,canvas.Screen,0_1_0_26,down,response,,56353.39999997616,56337.633,56386.26,56627.199999928474,240.9399999284724,56627.59999990463,2021-11-03T20:03:14.437Z,56637.1,1635969724,full,ni_sequenzen,NI_Sequenzen,27,,,,,,,,,,,,,
,Move,canvas.Screen,0_1_0_27,down,response,,56629.5,56620.591,56637.1,56829.5,192.40000000000146,56830.09999990463,2021-11-03T20:03:14.640Z,56836.737,1635969724,full,ni_sequenzen,NI_Sequenzen,28,,,,,,,,,,,,,
,Move,canvas.Screen,0_1_0_28,left,response,,56831.699999928474,56820.402,56836.737,57044.799999952316,208.0629999523153,57045.299999952316,2021-11-03T20:03:14.855Z,57053.139,1635969724,full,ni_sequenzen,NI_Sequenzen,29,,,,,,,,,,,,,
,Move,canvas.Screen,0_1_0_29,left,response,,57047.59999990463,57036.767,57053.139,57347.5,294.36099999999715,57348,2021-11-03T20:03:15.158Z,57402.663,1635969724,full,ni_sequenzen,NI_Sequenzen,30,,,,,,,,,,,,,
,Loop,flow.Loop,0_1_0,-999,completion,,42434.59999990463,42492.873,42506.216,57347.5,14841.284,57348.299999952316,2021-11-03T20:03:15.158Z,57402.663,1635969724,full,ni_sequenzen,NI_Sequenzen,,,,,,,,,,,,,,
,Training_I,flow.Sequence,0_1,,completion,,42423.39999997616,42492.873,42506.216,57347.5,14841.284,57348.5,2021-11-03T20:03:15.158Z,57402.663,1635969724,full,ni_sequenzen,NI_Sequenzen,,,,,,,,,,,,,,
,Screen_1,canvas.Screen,0_2_0_0,cont,response,1,57393,57386.109,57402.663,69093.89999997616,11691.236999976158,69094.29999995232,2021-11-03T20:03:26.904Z,69219.861,1635969724,full,ni_sequenzen,NI_Sequenzen,,,,,,,,,,,,,,
,Screen_2,canvas.Screen,0_2_0_1,cont,response,1,69209.39999997616,69209.01,69219.861,77736.69999992847,8516.83899992847,77737.09999990463,2021-11-03T20:03:35.547Z,77741.606,1635969724,full,ni_sequenzen,NI_Sequenzen,,,,,,,,,,,,,,
,Screen_3,canvas.Screen,0_2_0_2,cont,response,1,77740.29999995232,77729.266,77741.606,87854.69999992847,10113.093999928475,87855.29999995232,2021-11-03T20:03:45.654Z,87944.441,1635969724,full,ni_sequenzen,NI_Sequenzen,,,,,,,,,,,,,,
,Screen_4,canvas.Screen,0_2_0_3,cont,response,1,87933,87932.819,87944.441,93420.29999995232,5475.85899995231,93420.79999995232,2021-11-03T20:03:51.219Z,93436.985,1635969724,full,ni_sequenzen,NI_Sequenzen,,,,,,,,,,,,,,
,Screen_5,canvas.Screen,0_2_0_4,cont,response,1,93423.79999995232,93423.072,93436.985,97353.79999995232,3916.8149999523157,97354.5,2021-11-03T20:03:55.153Z,97431.519,1635969724,full,ni_sequenzen,NI_Sequenzen,,,,,,,,,,,,,,
,Screen_6,canvas.Screen,0_2_0_5,cont,response,1,97429,97417.003,97431.519,103583.5,6151.981,103584,2021-11-03T20:04:01.382Z,103789.549,1635969724,full,ni_sequenzen,NI_Sequenzen,,,,,,,,,,,,,,
,Sequence,flow.Sequence,0_2_0,,completion,1,57391.89999997616,57386.109,57402.663,103583.5,46180.837,103585.59999990463,2021-11-03T20:04:01.384Z,103789.549,1635969724,full,ni_sequenzen,NI_Sequenzen,,,,,,,,,,,,,,
,Screen_1,canvas.Screen,0_2_1_0,,skipped,2,103588.79999995232,,,103588.79999995232,,103588.89999997616,2021-11-03T20:04:01.387Z,103789.549,1635969724,full,ni_sequenzen,NI_Sequenzen,,,,,,,,,,,,,,
,Screen_2,canvas.Screen,0_2_1_1,,skipped,2,103589.89999997616,,,103588.79999995232,,103589.89999997616,2021-11-03T20:04:01.388Z,103789.549,1635969724,full,ni_sequenzen,NI_Sequenzen,,,,,,,,,,,,,,
,Screen_3,canvas.Screen,0_2_1_2,,skipped,2,103590.79999995232,,,103588.79999995232,,103590.89999997616,2021-11-03T20:04:01.389Z,103789.549,1635969724,full,ni_sequenzen,NI_Sequenzen,,,,,,,,,,,,,,
,Screen_4,canvas.Screen,0_2_1_3,,skipped,2,103591.79999995232,,,103588.79999995232,,103591.89999997616,2021-11-03T20:04:01.390Z,103789.549,1635969724,full,ni_sequenzen,NI_Sequenzen,,,,,,,,,,,,,,
,Screen_5,canvas.Screen,0_2_1_4,,skipped,2,103592.79999995232,,,103588.79999995232,,103592.79999995232,2021-11-03T20:04:01.391Z,103789.549,1635969724,full,ni_sequenzen,NI_Sequenzen,,,,,,,,,,,,,,
,Screen_6,canvas.Screen,0_2_1_5,,skipped,2,103593.69999992847,,,103588.79999995232,,103593.79999995232,2021-11-03T20:04:01.392Z,103789.549,1635969724,full,ni_sequenzen,NI_Sequenzen,,,,,,,,,,,,,,
,Sequence,flow.Sequence,0_2_1,,completion,2,103587.59999990463,,,103588.79999995232,,103594,2021-11-03T20:04:01.392Z,103789.549,1635969724,full,ni_sequenzen,NI_Sequenzen,,,,,,,,,,,,,,
,Screen_1,canvas.Screen,0_2_2_0,,skipped,3,103595.39999997616,,,103595.39999997616,,103595.5,2021-11-03T20:04:01.394Z,103789.549,1635969724,full,ni_sequenzen,NI_Sequenzen,,,,,,,,,,,,,,
,Screen_2,canvas.Screen,0_2_2_1,,skipped,3,103596.19999992847,,,103595.39999997616,,103596.29999995232,2021-11-03T20:04:01.395Z,103789.549,1635969724,full,ni_sequenzen,NI_Sequenzen,,,,,,,,,,,,,,
,Screen_3,canvas.Screen,0_2_2_2,,skipped,3,103597.09999990463,,,103595.39999997616,,103597.09999990463,2021-11-03T20:04:01.395Z,103789.549,1635969724,full,ni_sequenzen,NI_Sequenzen,,,,,,,,,,,,,,
,Screen_4,canvas.Screen,0_2_2_3,,skipped,3,103598,,,103595.39999997616,,103598.09999990463,2021-11-03T20:04:01.396Z,103789.549,1635969724,full,ni_sequenzen,NI_Sequenzen,,,,,,,,,,,,,,
,Screen_5,canvas.Screen,0_2_2_4,,skipped,3,103598.89999997616,,,103595.39999997616,,103598.89999997616,2021-11-03T20:04:01.397Z,103789.549,1635969724,full,ni_sequenzen,NI_Sequenzen,,,,,,,,,,,,,,
,Screen_6,canvas.Screen,0_2_2_5,,skipped,3,103599.69999992847,,,103595.39999997616,,103599.69999992847,2021-11-03T20:04:01.398Z,103789.549,1635969724,full,ni_sequenzen,NI_Sequenzen,,,,,,,,,,,,,,
,Sequence,flow.Sequence,0_2_2,,completion,3,103594.29999995232,,,103595.39999997616,,103599.79999995232,2021-11-03T20:04:01.398Z,103789.549,1635969724,full,ni_sequenzen,NI_Sequenzen,,,,,,,,,,,,,,
,Screen_1,canvas.Screen,0_2_3_0,,skipped,4,103600.89999997616,,,103600.89999997616,,103600.89999997616,2021-11-03T20:04:01.399Z,103789.549,1635969724,full,ni_sequenzen,NI_Sequenzen,,,,,,,,,,,,,,
,Screen_2,canvas.Screen,0_2_3_1,,skipped,4,103601.59999990463,,,103600.89999997616,,103601.69999992847,2021-11-03T20:04:01.400Z,103789.549,1635969724,full,ni_sequenzen,NI_Sequenzen,,,,,,,,,,,,,,
,Screen_3,canvas.Screen,0_2_3_2,,skipped,4,103602.39999997616,,,103600.89999997616,,103602.5,2021-11-03T20:04:01.401Z,103789.549,1635969724,full,ni_sequenzen,NI_Sequenzen,,,,,,,,,,,,,,
,Screen_4,canvas.Screen,0_2_3_3,,skipped,4,103603.09999990463,,,103600.89999997616,,103603.19999992847,2021-11-03T20:04:01.402Z,103789.549,1635969724,full,ni_sequenzen,NI_Sequenzen,,,,,,,,,,,,,,
,Screen_5,canvas.Screen,0_2_3_4,,skipped,4,103604,,,103600.89999997616,,103604,2021-11-03T20:04:01.402Z,103789.549,1635969724,full,ni_sequenzen,NI_Sequenzen,,,,,,,,,,,,,,
,Screen_6,canvas.Screen,0_2_3_5,,skipped,4,103604.79999995232,,,103600.89999997616,,103604.89999997616,2021-11-03T20:04:01.403Z,103789.549,1635969724,full,ni_sequenzen,NI_Sequenzen,,,,,,,,,,,,,,
,Sequence,flow.Sequence,0_2_3,,completion,4,103600.19999992847,,,103600.89999997616,,103605,2021-11-03T20:04:01.403Z,103789.549,1635969724,full,ni_sequenzen,NI_Sequenzen,,,,,,,,,,,,,,
,Screen_1,canvas.Screen,0_2_4_0,,skipped,5,103605.89999997616,,,103605.89999997616,,103605.89999997616,2021-11-03T20:04:01.404Z,103789.549,1635969724,full,ni_sequenzen,NI_Sequenzen,,,,,,,,,,,,,,
,Screen_2,canvas.Screen,0_2_4_1,,skipped,5,103607.19999992847,,,103605.89999997616,,103607.29999995232,2021-11-03T20:04:01.406Z,103789.549,1635969724,full,ni_sequenzen,NI_Sequenzen,,,,,,,,,,,,,,
,Screen_3,canvas.Screen,0_2_4_2,,skipped,5,103608.09999990463,,,103605.89999997616,,103608.19999992847,2021-11-03T20:04:01.406Z,103789.549,1635969724,full,ni_sequenzen,NI_Sequenzen,,,,,,,,,,,,,,
,Screen_4,canvas.Screen,0_2_4_3,,skipped,5,103608.89999997616,,,103605.89999997616,,103608.89999997616,2021-11-03T20:04:01.407Z,103789.549,1635969724,full,ni_sequenzen,NI_Sequenzen,,,,,,,,,,,,,,
,Screen_5,canvas.Screen,0_2_4_4,,skipped,5,103609.59999990463,,,103605.89999997616,,103609.79999995232,2021-11-03T20:04:01.408Z,103789.549,1635969724,full,ni_sequenzen,NI_Sequenzen,,,,,,,,,,,,,,
,Screen_6,canvas.Screen,0_2_4_5,,skipped,5,103610.39999997616,,,103605.89999997616,,103610.5,2021-11-03T20:04:01.409Z,103789.549,1635969724,full,ni_sequenzen,NI_Sequenzen,,,,,,,,,,,,,,
,Sequence,flow.Sequence,0_2_4,,completion,5,103605.19999992847,,,103605.89999997616,,103610.69999992847,2021-11-03T20:04:01.409Z,103789.549,1635969724,full,ni_sequenzen,NI_Sequenzen,,,,,,,,,,,,,,
,Screen_1,canvas.Screen,0_2_5_0,,skipped,6,103611.59999990463,,,103611.59999990463,,103611.59999990463,2021-11-03T20:04:01.410Z,103789.549,1635969724,full,ni_sequenzen,NI_Sequenzen,,,,,,,,,,,,,,
,Screen_2,canvas.Screen,0_2_5_1,,skipped,6,103612.39999997616,,,103611.59999990463,,103612.39999997616,2021-11-03T20:04:01.411Z,103789.549,1635969724,full,ni_sequenzen,NI_Sequenzen,,,,,,,,,,,,,,
,Screen_3,canvas.Screen,0_2_5_2,,skipped,6,103613.19999992847,,,103611.59999990463,,103613.29999995232,2021-11-03T20:04:01.412Z,103789.549,1635969724,full,ni_sequenzen,NI_Sequenzen,,,,,,,,,,,,,,
,Screen_4,canvas.Screen,0_2_5_3,,skipped,6,103614,,,103611.59999990463,,103614,2021-11-03T20:04:01.412Z,103789.549,1635969724,full,ni_sequenzen,NI_Sequenzen,,,,,,,,,,,,,,
,Screen_5,canvas.Screen,0_2_5_4,,skipped,6,103614.79999995232,,,103611.59999990463,,103614.79999995232,2021-11-03T20:04:01.413Z,103789.549,1635969724,full,ni_sequenzen,NI_Sequenzen,,,,,,,,,,,,,,
,Screen_6,canvas.Screen,0_2_5_5,,skipped,6,103615.5,,,103611.59999990463,,103615.59999990463,2021-11-03T20:04:01.414Z,103789.549,1635969724,full,ni_sequenzen,NI_Sequenzen,,,,,,,,,,,,,,
,Sequence,flow.Sequence,0_2_5,,completion,6,103611,,,103611.59999990463,,103615.69999992847,2021-11-03T20:04:01.414Z,103789.549,1635969724,full,ni_sequenzen,NI_Sequenzen,,,,,,,,,,,,,,
,Screen_1,canvas.Screen,0_2_6_0,,skipped,7,103616.69999992847,,,103616.69999992847,,103616.69999992847,2021-11-03T20:04:01.415Z,103789.549,1635969724,full,ni_sequenzen,NI_Sequenzen,,,,,,,,,,,,,,
,Screen_2,canvas.Screen,0_2_6_1,,skipped,7,103617.5,,,103616.69999992847,,103617.5,2021-11-03T20:04:01.416Z,103789.549,1635969724,full,ni_sequenzen,NI_Sequenzen,,,,,,,,,,,,,,
,Screen_3,canvas.Screen,0_2_6_2,,skipped,7,103618.29999995232,,,103616.69999992847,,103618.39999997616,2021-11-03T20:04:01.417Z,103789.549,1635969724,full,ni_sequenzen,NI_Sequenzen,,,,,,,,,,,,,,
,Screen_4,canvas.Screen,0_2_6_3,,skipped,7,103619.59999990463,,,103616.69999992847,,103619.79999995232,2021-11-03T20:04:01.418Z,103789.549,1635969724,full,ni_sequenzen,NI_Sequenzen,,,,,,,,,,,,,,
,Screen_5,canvas.Screen,0_2_6_4,,skipped,7,103620.39999997616,,,103616.69999992847,,103620.5,2021-11-03T20:04:01.419Z,103789.549,1635969724,full,ni_sequenzen,NI_Sequenzen,,,,,,,,,,,,,,
,Screen_6,canvas.Screen,0_2_6_5,,skipped,7,103621.19999992847,,,103616.69999992847,,103621.29999995232,2021-11-03T20:04:01.420Z,103789.549,1635969724,full,ni_sequenzen,NI_Sequenzen,,,,,,,,,,,,,,
,Sequence,flow.Sequence,0_2_6,,completion,7,103616,,,103616.69999992847,,103621.5,2021-11-03T20:04:01.420Z,103789.549,1635969724,full,ni_sequenzen,NI_Sequenzen,,,,,,,,,,,,,,
,Screen_1,canvas.Screen,0_2_7_0,,skipped,8,103622.39999997616,,,103622.39999997616,,103622.5,2021-11-03T20:04:01.421Z,103789.549,1635969724,full,ni_sequenzen,NI_Sequenzen,,,,,,,,,,,,,,
,Screen_2,canvas.Screen,0_2_7_1,,skipped,8,103623.19999992847,,,103622.39999997616,,103623.29999995232,2021-11-03T20:04:01.422Z,103789.549,1635969724,full,ni_sequenzen,NI_Sequenzen,,,,,,,,,,,,,,
,Screen_3,canvas.Screen,0_2_7_2,,skipped,8,103624,,,103622.39999997616,,103624,2021-11-03T20:04:01.422Z,103789.549,1635969724,full,ni_sequenzen,NI_Sequenzen,,,,,,,,,,,,,,
,Screen_4,canvas.Screen,0_2_7_3,,skipped,8,103624.69999992847,,,103622.39999997616,,103624.89999997616,2021-11-03T20:04:01.423Z,103789.549,1635969724,full,ni_sequenzen,NI_Sequenzen,,,,,,,,,,,,,,
,Screen_5,canvas.Screen,0_2_7_4,,skipped,8,103625.5,,,103622.39999997616,,103625.69999992847,2021-11-03T20:04:01.424Z,103789.549,1635969724,full,ni_sequenzen,NI_Sequenzen,,,,,,,,,,,,,,
,Screen_6,canvas.Screen,0_2_7_5,,skipped,8,103626.29999995232,,,103622.39999997616,,103626.39999997616,2021-11-03T20:04:01.425Z,103789.549,1635969724,full,ni_sequenzen,NI_Sequenzen,,,,,,,,,,,,,,
,Sequence,flow.Sequence,0_2_7,,completion,8,103621.79999995232,,,103622.39999997616,,103626.59999990463,2021-11-03T20:04:01.425Z,103789.549,1635969724,full,ni_sequenzen,NI_Sequenzen,,,,,,,,,,,,,,
,Screen_1,canvas.Screen,0_2_8_0,,skipped,9,103627.39999997616,,,103627.39999997616,,103627.5,2021-11-03T20:04:01.426Z,103789.549,1635969724,full,ni_sequenzen,NI_Sequenzen,,,,,,,,,,,,,,
,Screen_2,canvas.Screen,0_2_8_1,,skipped,9,103628.19999992847,,,103627.39999997616,,103628.29999995232,2021-11-03T20:04:01.427Z,103789.549,1635969724,full,ni_sequenzen,NI_Sequenzen,,,,,,,,,,,,,,
,Screen_3,canvas.Screen,0_2_8_2,,skipped,9,103629,,,103627.39999997616,,103629.09999990463,2021-11-03T20:04:01.427Z,103789.549,1635969724,full,ni_sequenzen,NI_Sequenzen,,,,,,,,,,,,,,
,Screen_4,canvas.Screen,0_2_8_3,,skipped,9,103629.79999995232,,,103627.39999997616,,103629.79999995232,2021-11-03T20:04:01.428Z,103789.549,1635969724,full,ni_sequenzen,NI_Sequenzen,,,,,,,,,,,,,,
,Screen_5,canvas.Screen,0_2_8_4,,skipped,9,103631.09999990463,,,103627.39999997616,,103631.19999992847,2021-11-03T20:04:01.430Z,103789.549,1635969724,full,ni_sequenzen,NI_Sequenzen,,,,,,,,,,,,,,
,Screen_6,canvas.Screen,0_2_8_5,,skipped,9,103632,,,103627.39999997616,,103632.09999990463,2021-11-03T20:04:01.430Z,103789.549,1635969724,full,ni_sequenzen,NI_Sequenzen,,,,,,,,,,,,,,
,Sequence,flow.Sequence,0_2_8,,completion,9,103626.89999997616,,,103627.39999997616,,103632.19999992847,2021-11-03T20:04:01.431Z,103789.549,1635969724,full,ni_sequenzen,NI_Sequenzen,,,,,,,,,,,,,,
,Screen_1,canvas.Screen,0_2_9_0,,skipped,10,103633.29999995232,,,103633.29999995232,,103633.5,2021-11-03T20:04:01.432Z,103789.549,1635969724,full,ni_sequenzen,NI_Sequenzen,,,,,,,,,,,,,,
,Screen_2,canvas.Screen,0_2_9_1,,skipped,10,103634.19999992847,,,103633.29999995232,,103634.19999992847,2021-11-03T20:04:01.433Z,103789.549,1635969724,full,ni_sequenzen,NI_Sequenzen,,,,,,,,,,,,,,
,Screen_3,canvas.Screen,0_2_9_2,,skipped,10,103635.09999990463,,,103633.29999995232,,103635.09999990463,2021-11-03T20:04:01.433Z,103789.549,1635969724,full,ni_sequenzen,NI_Sequenzen,,,,,,,,,,,,,,
,Screen_4,canvas.Screen,0_2_9_3,,skipped,10,103635.79999995232,,,103633.29999995232,,103635.89999997616,2021-11-03T20:04:01.434Z,103789.549,1635969724,full,ni_sequenzen,NI_Sequenzen,,,,,,,,,,,,,,
,Screen_5,canvas.Screen,0_2_9_4,,skipped,10,103636.69999992847,,,103633.29999995232,,103636.69999992847,2021-11-03T20:04:01.435Z,103789.549,1635969724,full,ni_sequenzen,NI_Sequenzen,,,,,,,,,,,,,,
,Screen_6,canvas.Screen,0_2_9_5,,skipped,10,103637.59999990463,,,103633.29999995232,,103637.69999992847,2021-11-03T20:04:01.436Z,103789.549,1635969724,full,ni_sequenzen,NI_Sequenzen,,,,,,,,,,,,,,
,Sequence,flow.Sequence,0_2_9,,completion,10,103632.59999990463,,,103633.29999995232,,103637.79999995232,2021-11-03T20:04:01.436Z,103789.549,1635969724,full,ni_sequenzen,NI_Sequenzen,,,,,,,,,,,,,,
,Screen_1,canvas.Screen,0_2_10_0,,skipped,11,103638.69999992847,,,103638.69999992847,,103638.79999995232,2021-11-03T20:04:01.437Z,103789.549,1635969724,full,ni_sequenzen,NI_Sequenzen,,,,,,,,,,,,,,
,Screen_2,canvas.Screen,0_2_10_1,,skipped,11,103639.59999990463,,,103638.69999992847,,103639.59999990463,2021-11-03T20:04:01.438Z,103789.549,1635969724,full,ni_sequenzen,NI_Sequenzen,,,,,,,,,,,,,,
,Screen_3,canvas.Screen,0_2_10_2,,skipped,11,103640.29999995232,,,103638.69999992847,,103640.39999997616,2021-11-03T20:04:01.439Z,103789.549,1635969724,full,ni_sequenzen,NI_Sequenzen,,,,,,,,,,,,,,
,Screen_4,canvas.Screen,0_2_10_3,,skipped,11,103641.09999990463,,,103638.69999992847,,103641.09999990463,2021-11-03T20:04:01.440Z,103789.549,1635969724,full,ni_sequenzen,NI_Sequenzen,,,,,,,,,,,,,,
,Screen_5,canvas.Screen,0_2_10_4,,skipped,11,103641.89999997616,,,103638.69999992847,,103642,2021-11-03T20:04:01.440Z,103789.549,1635969724,full,ni_sequenzen,NI_Sequenzen,,,,,,,,,,,,,,
,Screen_6,canvas.Screen,0_2_10_5,,skipped,11,103642.79999995232,,,103638.69999992847,,103642.79999995232,2021-11-03T20:04:01.441Z,103789.549,1635969724,full,ni_sequenzen,NI_Sequenzen,,,,,,,,,,,,,,
,Sequence,flow.Sequence,0_2_10,,completion,11,103638.09999990463,,,103638.69999992847,,103642.89999997616,2021-11-03T20:04:01.441Z,103789.549,1635969724,full,ni_sequenzen,NI_Sequenzen,,,,,,,,,,,,,,
,Screen_1,canvas.Screen,0_2_11_0,,skipped,12,103644.5,,,103644.5,,103644.59999990463,2021-11-03T20:04:01.443Z,103789.549,1635969724,full,ni_sequenzen,NI_Sequenzen,,,,,,,,,,,,,,
,Screen_2,canvas.Screen,0_2_11_1,,skipped,12,103645.29999995232,,,103644.5,,103645.29999995232,2021-11-03T20:04:01.444Z,103789.549,1635969724,full,ni_sequenzen,NI_Sequenzen,,,,,,,,,,,,,,
,Screen_3,canvas.Screen,0_2_11_2,,skipped,12,103646.09999990463,,,103644.5,,103646.09999990463,2021-11-03T20:04:01.445Z,103789.549,1635969724,full,ni_sequenzen,NI_Sequenzen,,,,,,,,,,,,,,
,Screen_4,canvas.Screen,0_2_11_3,,skipped,12,103647,,,103644.5,,103647.09999990463,2021-11-03T20:04:01.445Z,103789.549,1635969724,full,ni_sequenzen,NI_Sequenzen,,,,,,,,,,,,,,
,Screen_5,canvas.Screen,0_2_11_4,,skipped,12,103647.69999992847,,,103644.5,,103647.79999995232,2021-11-03T20:04:01.446Z,103789.549,1635969724,full,ni_sequenzen,NI_Sequenzen,,,,,,,,,,,,,,
,Screen_6,canvas.Screen,0_2_11_5,,skipped,12,103648.5,,,103644.5,,103648.5,2021-11-03T20:04:01.447Z,103789.549,1635969724,full,ni_sequenzen,NI_Sequenzen,,,,,,,,,,,,,,
,Sequence,flow.Sequence,0_2_11,,completion,12,103643.29999995232,,,103644.5,,103648.69999992847,2021-11-03T20:04:01.447Z,103789.549,1635969724,full,ni_sequenzen,NI_Sequenzen,,,,,,,,,,,,,,
,Screen_1,canvas.Screen,0_2_12_0,,skipped,13,103649.59999990463,,,103649.59999990463,,103649.69999992847,2021-11-03T20:04:01.448Z,103789.549,1635969724,full,ni_sequenzen,NI_Sequenzen,,,,,,,,,,,,,,
,Screen_2,canvas.Screen,0_2_12_1,,skipped,13,103650.39999997616,,,103649.59999990463,,103650.5,2021-11-03T20:04:01.449Z,103789.549,1635969724,full,ni_sequenzen,NI_Sequenzen,,,,,,,,,,,,,,
,Screen_3,canvas.Screen,0_2_12_2,,skipped,13,103651.19999992847,,,103649.59999990463,,103651.19999992847,2021-11-03T20:04:01.450Z,103789.549,1635969724,full,ni_sequenzen,NI_Sequenzen,,,,,,,,,,,,,,
,Screen_4,canvas.Screen,0_2_12_3,,skipped,13,103651.89999997616,,,103649.59999990463,,103652.09999990463,2021-11-03T20:04:01.450Z,103789.549,1635969724,full,ni_sequenzen,NI_Sequenzen,,,,,,,,,,,,,,
,Screen_5,canvas.Screen,0_2_12_4,,skipped,13,103652.79999995232,,,103649.59999990463,,103652.79999995232,2021-11-03T20:04:01.451Z,103789.549,1635969724,full,ni_sequenzen,NI_Sequenzen,,,,,,,,,,,,,,
,Screen_6,canvas.Screen,0_2_12_5,,skipped,13,103653.5,,,103649.59999990463,,103653.59999990463,2021-11-03T20:04:01.452Z,103789.549,1635969724,full,ni_sequenzen,NI_Sequenzen,,,,,,,,,,,,,,
,Sequence,flow.Sequence,0_2_12,,completion,13,103649,,,103649.59999990463,,103653.69999992847,2021-11-03T20:04:01.452Z,103789.549,1635969724,full,ni_sequenzen,NI_Sequenzen,,,,,,,,,,,,,,
,Screen_1,canvas.Screen,0_2_13_0,,skipped,14,103654.59999990463,,,103654.59999990463,,103654.59999990463,2021-11-03T20:04:01.453Z,103789.549,1635969724,full,ni_sequenzen,NI_Sequenzen,,,,,,,,,,,,,,
,Screen_2,canvas.Screen,0_2_13_1,,skipped,14,103656,,,103654.59999990463,,103656,2021-11-03T20:04:01.454Z,103789.549,1635969724,full,ni_sequenzen,NI_Sequenzen,,,,,,,,,,,,,,
,Screen_3,canvas.Screen,0_2_13_2,,skipped,14,103656.79999995232,,,103654.59999990463,,103656.89999997616,2021-11-03T20:04:01.455Z,103789.549,1635969724,full,ni_sequenzen,NI_Sequenzen,,,,,,,,,,,,,,
,Screen_4,canvas.Screen,0_2_13_3,,skipped,14,103657.69999992847,,,103654.59999990463,,103657.69999992847,2021-11-03T20:04:01.456Z,103789.549,1635969724,full,ni_sequenzen,NI_Sequenzen,,,,,,,,,,,,,,
,Screen_5,canvas.Screen,0_2_13_4,,skipped,14,103658.39999997616,,,103654.59999990463,,103658.5,2021-11-03T20:04:01.457Z,103789.549,1635969724,full,ni_sequenzen,NI_Sequenzen,,,,,,,,,,,,,,
,Screen_6,canvas.Screen,0_2_13_5,,skipped,14,103659.19999992847,,,103654.59999990463,,103659.29999995232,2021-11-03T20:04:01.458Z,103789.549,1635969724,full,ni_sequenzen,NI_Sequenzen,,,,,,,,,,,,,,
,Sequence,flow.Sequence,0_2_13,,completion,14,103654,,,103654.59999990463,,103659.29999995232,2021-11-03T20:04:01.458Z,103789.549,1635969724,full,ni_sequenzen,NI_Sequenzen,,,,,,,,,,,,,,
,Screen_1,canvas.Screen,0_2_14_0,,skipped,15,103660.29999995232,,,103660.29999995232,,103660.29999995232,2021-11-03T20:04:01.459Z,103789.549,1635969724,full,ni_sequenzen,NI_Sequenzen,,,,,,,,,,,,,,
,Screen_2,canvas.Screen,0_2_14_1,,skipped,15,103661.09999990463,,,103660.29999995232,,103661.19999992847,2021-11-03T20:04:01.459Z,103789.549,1635969724,full,ni_sequenzen,NI_Sequenzen,,,,,,,,,,,,,,
,Screen_3,canvas.Screen,0_2_14_2,,skipped,15,103661.89999997616,,,103660.29999995232,,103661.89999997616,2021-11-03T20:04:01.460Z,103789.549,1635969724,full,ni_sequenzen,NI_Sequenzen,,,,,,,,,,,,,,
,Screen_4,canvas.Screen,0_2_14_3,,skipped,15,103662.69999992847,,,103660.29999995232,,103662.69999992847,2021-11-03T20:04:01.461Z,103789.549,1635969724,full,ni_sequenzen,NI_Sequenzen,,,,,,,,,,,,,,
,Screen_5,canvas.Screen,0_2_14_4,,skipped,15,103663.39999997616,,,103660.29999995232,,103663.5,2021-11-03T20:04:01.462Z,103789.549,1635969724,full,ni_sequenzen,NI_Sequenzen,,,,,,,,,,,,,,
,Screen_6,canvas.Screen,0_2_14_5,,skipped,15,103664.19999992847,,,103660.29999995232,,103664.19999992847,2021-11-03T20:04:01.463Z,103789.549,1635969724,full,ni_sequenzen,NI_Sequenzen,,,,,,,,,,,,,,
,Sequence,flow.Sequence,0_2_14,,completion,15,103659.69999992847,,,103660.29999995232,,103664.5,2021-11-03T20:04:01.463Z,103789.549,1635969724,full,ni_sequenzen,NI_Sequenzen,,,,,,,,,,,,,,
,Screen_1,canvas.Screen,0_2_15_0,,skipped,16,103665.5,,,103665.5,,103665.5,2021-11-03T20:04:01.464Z,103789.549,1635969724,full,ni_sequenzen,NI_Sequenzen,,,,,,,,,,,,,,
,Screen_2,canvas.Screen,0_2_15_1,,skipped,16,103666.29999995232,,,103665.5,,103666.39999997616,2021-11-03T20:04:01.465Z,103789.549,1635969724,full,ni_sequenzen,NI_Sequenzen,,,,,,,,,,,,,,
,Screen_3,canvas.Screen,0_2_15_2,,skipped,16,103667.69999992847,,,103665.5,,103667.69999992847,2021-11-03T20:04:01.466Z,103789.549,1635969724,full,ni_sequenzen,NI_Sequenzen,,,,,,,,,,,,,,
,Screen_4,canvas.Screen,0_2_15_3,,skipped,16,103668.5,,,103665.5,,103668.59999990463,2021-11-03T20:04:01.467Z,103789.549,1635969724,full,ni_sequenzen,NI_Sequenzen,,,,,,,,,,,,,,
,Screen_5,canvas.Screen,0_2_15_4,,skipped,16,103669.29999995232,,,103665.5,,103669.29999995232,2021-11-03T20:04:01.468Z,103789.549,1635969724,full,ni_sequenzen,NI_Sequenzen,,,,,,,,,,,,,,
,Screen_6,canvas.Screen,0_2_15_5,,skipped,16,103670.09999990463,,,103665.5,,103670.09999990463,2021-11-03T20:04:01.468Z,103789.549,1635969724,full,ni_sequenzen,NI_Sequenzen,,,,,,,,,,,,,,
,Sequence,flow.Sequence,0_2_15,,completion,16,103664.79999995232,,,103665.5,,103670.29999995232,2021-11-03T20:04:01.469Z,103789.549,1635969724,full,ni_sequenzen,NI_Sequenzen,,,,,,,,,,,,,,
,Screen_1,canvas.Screen,0_2_16_0,,skipped,17,103671.19999992847,,,103671.19999992847,,103671.19999992847,2021-11-03T20:04:01.470Z,103789.549,1635969724,full,ni_sequenzen,NI_Sequenzen,,,,,,,,,,,,,,
,Screen_2,canvas.Screen,0_2_16_1,,skipped,17,103672,,,103671.19999992847,,103672.09999990463,2021-11-03T20:04:01.470Z,103789.549,1635969724,full,ni_sequenzen,NI_Sequenzen,,,,,,,,,,,,,,
,Screen_3,canvas.Screen,0_2_16_2,,skipped,17,103672.79999995232,,,103671.19999992847,,103672.89999997616,2021-11-03T20:04:01.471Z,103789.549,1635969724,full,ni_sequenzen,NI_Sequenzen,,,,,,,,,,,,,,
,Screen_4,canvas.Screen,0_2_16_3,,skipped,17,103673.59999990463,,,103671.19999992847,,103673.59999990463,2021-11-03T20:04:01.472Z,103789.549,1635969724,full,ni_sequenzen,NI_Sequenzen,,,,,,,,,,,,,,
,Screen_5,canvas.Screen,0_2_16_4,,skipped,17,103674.29999995232,,,103671.19999992847,,103674.39999997616,2021-11-03T20:04:01.473Z,103789.549,1635969724,full,ni_sequenzen,NI_Sequenzen,,,,,,,,,,,,,,
,Screen_6,canvas.Screen,0_2_16_5,,skipped,17,103675.09999990463,,,103671.19999992847,,103675.09999990463,2021-11-03T20:04:01.473Z,103789.549,1635969724,full,ni_sequenzen,NI_Sequenzen,,,,,,,,,,,,,,
,Sequence,flow.Sequence,0_2_16,,completion,17,103670.59999990463,,,103671.19999992847,,103675.29999995232,2021-11-03T20:04:01.474Z,103789.549,1635969724,full,ni_sequenzen,NI_Sequenzen,,,,,,,,,,,,,,
,Screen_1,canvas.Screen,0_2_17_0,,skipped,18,103676.19999992847,,,103676.19999992847,,103676.19999992847,2021-11-03T20:04:01.475Z,103789.549,1635969724,full,ni_sequenzen,NI_Sequenzen,,,,,,,,,,,,,,
,Screen_2,canvas.Screen,0_2_17_1,,skipped,18,103676.89999997616,,,103676.19999992847,,103677,2021-11-03T20:04:01.475Z,103789.549,1635969724,full,ni_sequenzen,NI_Sequenzen,,,,,,,,,,,,,,
,Screen_3,canvas.Screen,0_2_17_2,,skipped,18,103677.79999995232,,,103676.19999992847,,103677.89999997616,2021-11-03T20:04:01.476Z,103789.549,1635969724,full,ni_sequenzen,NI_Sequenzen,,,,,,,,,,,,,,
,Screen_4,canvas.Screen,0_2_17_3,,skipped,18,103678.59999990463,,,103676.19999992847,,103678.59999990463,2021-11-03T20:04:01.477Z,103789.549,1635969724,full,ni_sequenzen,NI_Sequenzen,,,,,,,,,,,,,,
,Screen_5,canvas.Screen,0_2_17_4,,skipped,18,103679.89999997616,,,103676.19999992847,,103680,2021-11-03T20:04:01.478Z,103789.549,1635969724,full,ni_sequenzen,NI_Sequenzen,,,,,,,,,,,,,,
,Screen_6,canvas.Screen,0_2_17_5,,skipped,18,103680.69999992847,,,103676.19999992847,,103680.79999995232,2021-11-03T20:04:01.479Z,103789.549,1635969724,full,ni_sequenzen,NI_Sequenzen,,,,,,,,,,,,,,
,Sequence,flow.Sequence,0_2_17,,completion,18,103675.59999990463,,,103676.19999992847,,103680.89999997616,2021-11-03T20:04:01.479Z,103789.549,1635969724,full,ni_sequenzen,NI_Sequenzen,,,,,,,,,,,,,,
,Screen_1,canvas.Screen,0_2_18_0,,skipped,19,103681.79999995232,,,103681.79999995232,,103681.89999997616,2021-11-03T20:04:01.480Z,103789.549,1635969724,full,ni_sequenzen,NI_Sequenzen,,,,,,,,,,,,,,
,Screen_2,canvas.Screen,0_2_18_1,,skipped,19,103682.59999990463,,,103681.79999995232,,103682.69999992847,2021-11-03T20:04:01.481Z,103789.549,1635969724,full,ni_sequenzen,NI_Sequenzen,,,,,,,,,,,,,,
,Screen_3,canvas.Screen,0_2_18_2,,skipped,19,103683.29999995232,,,103681.79999995232,,103683.39999997616,2021-11-03T20:04:01.482Z,103789.549,1635969724,full,ni_sequenzen,NI_Sequenzen,,,,,,,,,,,,,,
,Screen_4,canvas.Screen,0_2_18_3,,skipped,19,103684.19999992847,,,103681.79999995232,,103684.19999992847,2021-11-03T20:04:01.483Z,103789.549,1635969724,full,ni_sequenzen,NI_Sequenzen,,,,,,,,,,,,,,
,Screen_5,canvas.Screen,0_2_18_4,,skipped,19,103685,,,103681.79999995232,,103685.09999990463,2021-11-03T20:04:01.483Z,103789.549,1635969724,full,ni_sequenzen,NI_Sequenzen,,,,,,,,,,,,,,
,Screen_6,canvas.Screen,0_2_18_5,,skipped,19,103685.79999995232,,,103681.79999995232,,103685.79999995232,2021-11-03T20:04:01.484Z,103789.549,1635969724,full,ni_sequenzen,NI_Sequenzen,,,,,,,,,,,,,,
,Sequence,flow.Sequence,0_2_18,,completion,19,103681.19999992847,,,103681.79999995232,,103685.89999997616,2021-11-03T20:04:01.484Z,103789.549,1635969724,full,ni_sequenzen,NI_Sequenzen,,,,,,,,,,,,,,
,Screen_1,canvas.Screen,0_2_19_0,,skipped,20,103686.89999997616,,,103686.89999997616,,103686.89999997616,2021-11-03T20:04:01.485Z,103789.549,1635969724,full,ni_sequenzen,NI_Sequenzen,,,,,,,,,,,,,,
,Screen_2,canvas.Screen,0_2_19_1,,skipped,20,103687.59999990463,,,103686.89999997616,,103687.69999992847,2021-11-03T20:04:01.486Z,103789.549,1635969724,full,ni_sequenzen,NI_Sequenzen,,,,,,,,,,,,,,
,Screen_3,canvas.Screen,0_2_19_2,,skipped,20,103688.39999997616,,,103686.89999997616,,103688.39999997616,2021-11-03T20:04:01.487Z,103789.549,1635969724,full,ni_sequenzen,NI_Sequenzen,,,,,,,,,,,,,,
,Screen_4,canvas.Screen,0_2_19_3,,skipped,20,103689.19999992847,,,103686.89999997616,,103689.19999992847,2021-11-03T20:04:01.488Z,103789.549,1635969724,full,ni_sequenzen,NI_Sequenzen,,,,,,,,,,,,,,
,Screen_5,canvas.Screen,0_2_19_4,,skipped,20,103690,,,103686.89999997616,,103690,2021-11-03T20:04:01.488Z,103789.549,1635969724,full,ni_sequenzen,NI_Sequenzen,,,,,,,,,,,,,,
,Screen_6,canvas.Screen,0_2_19_5,,skipped,20,103691.19999992847,,,103686.89999997616,,103691.29999995232,2021-11-03T20:04:01.490Z,103789.549,1635969724,full,ni_sequenzen,NI_Sequenzen,,,,,,,,,,,,,,
,Sequence,flow.Sequence,0_2_19,,completion,20,103686.19999992847,,,103686.89999997616,,103691.5,2021-11-03T20:04:01.490Z,103789.549,1635969724,full,ni_sequenzen,NI_Sequenzen,,,,,,,,,,,,,,
,Screen_1,canvas.Screen,0_2_20_0,,skipped,21,103692.39999997616,,,103692.39999997616,,103692.5,2021-11-03T20:04:01.491Z,103789.549,1635969724,full,ni_sequenzen,NI_Sequenzen,,,,,,,,,,,,,,
,Screen_2,canvas.Screen,0_2_20_1,,skipped,21,103693.19999992847,,,103692.39999997616,,103693.29999995232,2021-11-03T20:04:01.492Z,103789.549,1635969724,full,ni_sequenzen,NI_Sequenzen,,,,,,,,,,,,,,
,Screen_3,canvas.Screen,0_2_20_2,,skipped,21,103694,,,103692.39999997616,,103694.09999990463,2021-11-03T20:04:01.492Z,103789.549,1635969724,full,ni_sequenzen,NI_Sequenzen,,,,,,,,,,,,,,
,Screen_4,canvas.Screen,0_2_20_3,,skipped,21,103694.79999995232,,,103692.39999997616,,103694.89999997616,2021-11-03T20:04:01.493Z,103789.549,1635969724,full,ni_sequenzen,NI_Sequenzen,,,,,,,,,,,,,,
,Screen_5,canvas.Screen,0_2_20_4,,skipped,21,103695.59999990463,,,103692.39999997616,,103695.59999990463,2021-11-03T20:04:01.494Z,103789.549,1635969724,full,ni_sequenzen,NI_Sequenzen,,,,,,,,,,,,,,
,Screen_6,canvas.Screen,0_2_20_5,,skipped,21,103696.39999997616,,,103692.39999997616,,103696.39999997616,2021-11-03T20:04:01.495Z,103789.549,1635969724,full,ni_sequenzen,NI_Sequenzen,,,,,,,,,,,,,,
,Sequence,flow.Sequence,0_2_20,,completion,21,103691.79999995232,,,103692.39999997616,,103696.5,2021-11-03T20:04:01.495Z,103789.549,1635969724,full,ni_sequenzen,NI_Sequenzen,,,,,,,,,,,,,,
,Screen_1,canvas.Screen,0_2_21_0,,skipped,22,103697.39999997616,,,103697.39999997616,,103697.5,2021-11-03T20:04:01.496Z,103789.549,1635969724,full,ni_sequenzen,NI_Sequenzen,,,,,,,,,,,,,,
,Screen_2,canvas.Screen,0_2_21_1,,skipped,22,103698.19999992847,,,103697.39999997616,,103698.29999995232,2021-11-03T20:04:01.497Z,103789.549,1635969724,full,ni_sequenzen,NI_Sequenzen,,,,,,,,,,,,,,
,Screen_3,canvas.Screen,0_2_21_2,,skipped,22,103699,,,103697.39999997616,,103699,2021-11-03T20:04:01.497Z,103789.549,1635969724,full,ni_sequenzen,NI_Sequenzen,,,,,,,,,,,,,,
,Screen_4,canvas.Screen,0_2_21_3,,skipped,22,103699.79999995232,,,103697.39999997616,,103699.89999997616,2021-11-03T20:04:01.498Z,103789.549,1635969724,full,ni_sequenzen,NI_Sequenzen,,,,,,,,,,,,,,
,Screen_5,canvas.Screen,0_2_21_4,,skipped,22,103700.59999990463,,,103697.39999997616,,103700.59999990463,2021-11-03T20:04:01.499Z,103789.549,1635969724,full,ni_sequenzen,NI_Sequenzen,,,,,,,,,,,,,,
,Screen_6,canvas.Screen,0_2_21_5,,skipped,22,103701.89999997616,,,103697.39999997616,,103702,2021-11-03T20:04:01.500Z,103789.549,1635969724,full,ni_sequenzen,NI_Sequenzen,,,,,,,,,,,,,,
,Sequence,flow.Sequence,0_2_21,,completion,22,103696.79999995232,,,103697.39999997616,,103702.09999990463,2021-11-03T20:04:01.500Z,103789.549,1635969724,full,ni_sequenzen,NI_Sequenzen,,,,,,,,,,,,,,
,Screen_1,canvas.Screen,0_2_22_0,,skipped,23,103703,,,103703.09999990463,,103703.09999990463,2021-11-03T20:04:01.501Z,103789.549,1635969724,full,ni_sequenzen,NI_Sequenzen,,,,,,,,,,,,,,
,Screen_2,canvas.Screen,0_2_22_1,,skipped,23,103704.39999997616,,,103703.09999990463,,103704.5,2021-11-03T20:04:01.503Z,103789.549,1635969724,full,ni_sequenzen,NI_Sequenzen,,,,,,,,,,,,,,
,Screen_3,canvas.Screen,0_2_22_2,,skipped,23,103705.29999995232,,,103703.09999990463,,103705.39999997616,2021-11-03T20:04:01.504Z,103789.549,1635969724,full,ni_sequenzen,NI_Sequenzen,,,,,,,,,,,,,,
,Screen_4,canvas.Screen,0_2_22_3,,skipped,23,103706.09999990463,,,103703.09999990463,,103706.19999992847,2021-11-03T20:04:01.505Z,103789.549,1635969724,full,ni_sequenzen,NI_Sequenzen,,,,,,,,,,,,,,
,Screen_5,canvas.Screen,0_2_22_4,,skipped,23,103706.89999997616,,,103703.09999990463,,103706.89999997616,2021-11-03T20:04:01.505Z,103789.549,1635969724,full,ni_sequenzen,NI_Sequenzen,,,,,,,,,,,,,,
,Screen_6,canvas.Screen,0_2_22_5,,skipped,23,103707.69999992847,,,103703.09999990463,,103707.69999992847,2021-11-03T20:04:01.506Z,103789.549,1635969724,full,ni_sequenzen,NI_Sequenzen,,,,,,,,,,,,,,
,Sequence,flow.Sequence,0_2_22,,completion,23,103702.39999997616,,,103703.09999990463,,103707.89999997616,2021-11-03T20:04:01.506Z,103789.549,1635969724,full,ni_sequenzen,NI_Sequenzen,,,,,,,,,,,,,,
,Screen_1,canvas.Screen,0_2_23_0,,skipped,24,103708.89999997616,,,103708.89999997616,,103709.09999990463,2021-11-03T20:04:01.507Z,103789.549,1635969724,full,ni_sequenzen,NI_Sequenzen,,,,,,,,,,,,,,
,Screen_2,canvas.Screen,0_2_23_1,,skipped,24,103709.79999995232,,,103708.89999997616,,103709.79999995232,2021-11-03T20:04:01.508Z,103789.549,1635969724,full,ni_sequenzen,NI_Sequenzen,,,,,,,,,,,,,,
,Screen_3,canvas.Screen,0_2_23_2,,skipped,24,103710.5,,,103708.89999997616,,103710.5,2021-11-03T20:04:01.509Z,103789.549,1635969724,full,ni_sequenzen,NI_Sequenzen,,,,,,,,,,,,,,
,Screen_4,canvas.Screen,0_2_23_3,,skipped,24,103711.29999995232,,,103708.89999997616,,103711.29999995232,2021-11-03T20:04:01.510Z,103789.549,1635969724,full,ni_sequenzen,NI_Sequenzen,,,,,,,,,,,,,,
,Screen_5,canvas.Screen,0_2_23_4,,skipped,24,103712.09999990463,,,103708.89999997616,,103712.09999990463,2021-11-03T20:04:01.510Z,103789.549,1635969724,full,ni_sequenzen,NI_Sequenzen,,,,,,,,,,,,,,
,Screen_6,canvas.Screen,0_2_23_5,,skipped,24,103712.79999995232,,,103708.89999997616,,103712.89999997616,2021-11-03T20:04:01.511Z,103789.549,1635969724,full,ni_sequenzen,NI_Sequenzen,,,,,,,,,,,,,,
,Sequence,flow.Sequence,0_2_23,,completion,24,103708.29999995232,,,103708.89999997616,,103713,2021-11-03T20:04:01.511Z,103789.549,1635969724,full,ni_sequenzen,NI_Sequenzen,,,,,,,,,,,,,,
,Screen_1,canvas.Screen,0_2_24_0,,skipped,25,103713.89999997616,,,103713.89999997616,,103714,2021-11-03T20:04:01.512Z,103789.549,1635969724,full,ni_sequenzen,NI_Sequenzen,,,,,,,,,,,,,,
,Screen_2,canvas.Screen,0_2_24_1,,skipped,25,103714.69999992847,,,103713.89999997616,,103714.69999992847,2021-11-03T20:04:01.513Z,103789.549,1635969724,full,ni_sequenzen,NI_Sequenzen,,,,,,,,,,,,,,
,Screen_3,canvas.Screen,0_2_24_2,,skipped,25,103716,,,103713.89999997616,,103716.19999992847,2021-11-03T20:04:01.514Z,103789.549,1635969724,full,ni_sequenzen,NI_Sequenzen,,,,,,,,,,,,,,
,Screen_4,canvas.Screen,0_2_24_3,,skipped,25,103716.89999997616,,,103713.89999997616,,103716.89999997616,2021-11-03T20:04:01.515Z,103789.549,1635969724,full,ni_sequenzen,NI_Sequenzen,,,,,,,,,,,,,,
,Screen_5,canvas.Screen,0_2_24_4,,skipped,25,103717.69999992847,,,103713.89999997616,,103717.69999992847,2021-11-03T20:04:01.516Z,103789.549,1635969724,full,ni_sequenzen,NI_Sequenzen,,,,,,,,,,,,,,
,Screen_6,canvas.Screen,0_2_24_5,,skipped,25,103718.5,,,103713.89999997616,,103718.5,2021-11-03T20:04:01.517Z,103789.549,1635969724,full,ni_sequenzen,NI_Sequenzen,,,,,,,,,,,,,,
,Sequence,flow.Sequence,0_2_24,,completion,25,103713.29999995232,,,103713.89999997616,,103718.59999990463,2021-11-03T20:04:01.517Z,103789.549,1635969724,full,ni_sequenzen,NI_Sequenzen,,,,,,,,,,,,,,
,Screen_1,canvas.Screen,0_2_25_0,,skipped,26,103719.5,,,103719.5,,103719.59999990463,2021-11-03T20:04:01.518Z,103789.549,1635969724,full,ni_sequenzen,NI_Sequenzen,,,,,,,,,,,,,,
,Screen_2,canvas.Screen,0_2_25_1,,skipped,26,103720.29999995232,,,103719.5,,103720.39999997616,2021-11-03T20:04:01.519Z,103789.549,1635969724,full,ni_sequenzen,NI_Sequenzen,,,,,,,,,,,,,,
,Screen_3,canvas.Screen,0_2_25_2,,skipped,26,103721.09999990463,,,103719.5,,103721.19999992847,2021-11-03T20:04:01.520Z,103789.549,1635969724,full,ni_sequenzen,NI_Sequenzen,,,,,,,,,,,,,,
,Screen_4,canvas.Screen,0_2_25_3,,skipped,26,103721.89999997616,,,103719.5,,103722,2021-11-03T20:04:01.520Z,103789.549,1635969724,full,ni_sequenzen,NI_Sequenzen,,,,,,,,,,,,,,
,Screen_5,canvas.Screen,0_2_25_4,,skipped,26,103722.59999990463,,,103719.5,,103722.69999992847,2021-11-03T20:04:01.521Z,103789.549,1635969724,full,ni_sequenzen,NI_Sequenzen,,,,,,,,,,,,,,
,Screen_6,canvas.Screen,0_2_25_5,,skipped,26,103723.5,,,103719.5,,103723.5,2021-11-03T20:04:01.522Z,103789.549,1635969724,full,ni_sequenzen,NI_Sequenzen,,,,,,,,,,,,,,
,Sequence,flow.Sequence,0_2_25,,completion,26,103718.89999997616,,,103719.5,,103723.5,2021-11-03T20:04:01.522Z,103789.549,1635969724,full,ni_sequenzen,NI_Sequenzen,,,,,,,,,,,,,,
,Screen_1,canvas.Screen,0_2_26_0,,skipped,27,103724.5,,,103724.5,,103724.59999990463,2021-11-03T20:04:01.523Z,103789.549,1635969724,full,ni_sequenzen,NI_Sequenzen,,,,,,,,,,,,,,
,Screen_2,canvas.Screen,0_2_26_1,,skipped,27,103725.29999995232,,,103724.5,,103725.39999997616,2021-11-03T20:04:01.524Z,103789.549,1635969724,full,ni_sequenzen,NI_Sequenzen,,,,,,,,,,,,,,
,Screen_3,canvas.Screen,0_2_26_2,,skipped,27,103726,,,103724.5,,103726.09999990463,2021-11-03T20:04:01.524Z,103789.549,1635969724,full,ni_sequenzen,NI_Sequenzen,,,,,,,,,,,,,,
,Screen_4,canvas.Screen,0_2_26_3,,skipped,27,103727,,,103724.5,,103727.09999990463,2021-11-03T20:04:01.525Z,103789.549,1635969724,full,ni_sequenzen,NI_Sequenzen,,,,,,,,,,,,,,
,Screen_5,canvas.Screen,0_2_26_4,,skipped,27,103727.79999995232,,,103724.5,,103727.89999997616,2021-11-03T20:04:01.526Z,103789.549,1635969724,full,ni_sequenzen,NI_Sequenzen,,,,,,,,,,,,,,
,Screen_6,canvas.Screen,0_2_26_5,,skipped,27,103729,,,103724.5,,103729.09999990463,2021-11-03T20:04:01.527Z,103789.549,1635969724,full,ni_sequenzen,NI_Sequenzen,,,,,,,,,,,,,,
,Sequence,flow.Sequence,0_2_26,,completion,27,103723.89999997616,,,103724.5,,103729.19999992847,2021-11-03T20:04:01.528Z,103789.549,1635969724,full,ni_sequenzen,NI_Sequenzen,,,,,,,,,,,,,,
,Screen_1,canvas.Screen,0_2_27_0,,skipped,28,103730.19999992847,,,103730.19999992847,,103730.29999995232,2021-11-03T20:04:01.529Z,103789.549,1635969724,full,ni_sequenzen,NI_Sequenzen,,,,,,,,,,,,,,
,Screen_2,canvas.Screen,0_2_27_1,,skipped,28,103731,,,103730.19999992847,,103731.09999990463,2021-11-03T20:04:01.529Z,103789.549,1635969724,full,ni_sequenzen,NI_Sequenzen,,,,,,,,,,,,,,
,Screen_3,canvas.Screen,0_2_27_2,,skipped,28,103731.69999992847,,,103730.19999992847,,103731.79999995232,2021-11-03T20:04:01.530Z,103789.549,1635969724,full,ni_sequenzen,NI_Sequenzen,,,,,,,,,,,,,,
,Screen_4,canvas.Screen,0_2_27_3,,skipped,28,103732.5,,,103730.19999992847,,103732.59999990463,2021-11-03T20:04:01.531Z,103789.549,1635969724,full,ni_sequenzen,NI_Sequenzen,,,,,,,,,,,,,,
,Screen_5,canvas.Screen,0_2_27_4,,skipped,28,103733.29999995232,,,103730.19999992847,,103733.29999995232,2021-11-03T20:04:01.532Z,103789.549,1635969724,full,ni_sequenzen,NI_Sequenzen,,,,,,,,,,,,,,
,Screen_6,canvas.Screen,0_2_27_5,,skipped,28,103734,,,103730.19999992847,,103734.09999990463,2021-11-03T20:04:01.532Z,103789.549,1635969724,full,ni_sequenzen,NI_Sequenzen,,,,,,,,,,,,,,
,Sequence,flow.Sequence,0_2_27,,completion,28,103729.59999990463,,,103730.19999992847,,103734.19999992847,2021-11-03T20:04:01.533Z,103789.549,1635969724,full,ni_sequenzen,NI_Sequenzen,,,,,,,,,,,,,,
,Screen_1,canvas.Screen,0_2_28_0,,skipped,29,103735.19999992847,,,103735.19999992847,,103735.19999992847,2021-11-03T20:04:01.534Z,103789.549,1635969724,full,ni_sequenzen,NI_Sequenzen,,,,,,,,,,,,,,
,Screen_2,canvas.Screen,0_2_28_1,,skipped,29,103735.89999997616,,,103735.19999992847,,103736,2021-11-03T20:04:01.534Z,103789.549,1635969724,full,ni_sequenzen,NI_Sequenzen,,,,,,,,,,,,,,
,Screen_3,canvas.Screen,0_2_28_2,,skipped,29,103736.69999992847,,,103735.19999992847,,103736.79999995232,2021-11-03T20:04:01.535Z,103789.549,1635969724,full,ni_sequenzen,NI_Sequenzen,,,,,,,,,,,,,,
,Screen_4,canvas.Screen,0_2_28_3,,skipped,29,103737.5,,,103735.19999992847,,103737.5,2021-11-03T20:04:01.536Z,103789.549,1635969724,full,ni_sequenzen,NI_Sequenzen,,,,,,,,,,,,,,
,Screen_5,canvas.Screen,0_2_28_4,,skipped,29,103738.19999992847,,,103735.19999992847,,103738.29999995232,2021-11-03T20:04:01.537Z,103789.549,1635969724,full,ni_sequenzen,NI_Sequenzen,,,,,,,,,,,,,,
,Screen_6,canvas.Screen,0_2_28_5,,skipped,29,103739,,,103735.19999992847,,103739,2021-11-03T20:04:01.537Z,103789.549,1635969724,full,ni_sequenzen,NI_Sequenzen,,,,,,,,,,,,,,
,Sequence,flow.Sequence,0_2_28,,completion,29,103734.5,,,103735.19999992847,,103739.19999992847,2021-11-03T20:04:01.538Z,103789.549,1635969724,full,ni_sequenzen,NI_Sequenzen,,,,,,,,,,,,,,
,Screen_1,canvas.Screen,0_2_29_0,,skipped,30,103740.59999990463,,,103740.59999990463,,103740.59999990463,2021-11-03T20:04:01.539Z,103789.549,1635969724,full,ni_sequenzen,NI_Sequenzen,,,,,,,,,,,,,,
,Screen_2,canvas.Screen,0_2_29_1,,skipped,30,103741.19999992847,,,103740.59999990463,,103741.39999997616,2021-11-03T20:04:01.540Z,103789.549,1635969724,full,ni_sequenzen,NI_Sequenzen,,,,,,,,,,,,,,
,Screen_3,canvas.Screen,0_2_29_2,,skipped,30,103742,,,103740.59999990463,,103742,2021-11-03T20:04:01.540Z,103789.549,1635969724,full,ni_sequenzen,NI_Sequenzen,,,,,,,,,,,,,,
,Screen_4,canvas.Screen,0_2_29_3,,skipped,30,103742.79999995232,,,103740.59999990463,,103742.79999995232,2021-11-03T20:04:01.541Z,103789.549,1635969724,full,ni_sequenzen,NI_Sequenzen,,,,,,,,,,,,,,
,Screen_5,canvas.Screen,0_2_29_4,,skipped,30,103743.5,,,103740.59999990463,,103743.5,2021-11-03T20:04:01.542Z,103789.549,1635969724,full,ni_sequenzen,NI_Sequenzen,,,,,,,,,,,,,,
,Screen_6,canvas.Screen,0_2_29_5,,skipped,30,103744.19999992847,,,103740.59999990463,,103744.29999995232,2021-11-03T20:04:01.543Z,103789.549,1635969724,full,ni_sequenzen,NI_Sequenzen,,,,,,,,,,,,,,
,Sequence,flow.Sequence,0_2_29,,completion,30,103739.5,,,103740.59999990463,,103744.39999997616,2021-11-03T20:04:01.543Z,103789.549,1635969724,full,ni_sequenzen,NI_Sequenzen,,,,,,,,,,,,,,
,Instructions_II,flow.Loop,0_2,,completion,,57391.39999997616,57386.109,57402.663,103740.59999990463,46337.93699990463,103744.5,2021-11-03T20:04:01.543Z,103789.549,1635969724,full,ni_sequenzen,NI_Sequenzen,,,,,,,,,,,,,,
,Move,canvas.Screen,0_3_0_0_0_0,down,response,,103773.79999995232,103759.461,103789.549,111625.29999995232,7835.750999952317,111626,2021-11-03T20:04:09.424Z,111645.686,1635969724,full,ni_sequenzen,NI_Sequenzen,1,0,,,,,,,,,,,,
,Move,canvas.Screen,0_3_0_0_0_1,right,response,,111634.39999997616,111632.682,111645.686,115060.19999992847,3414.513999928473,115060.69999992847,2021-11-03T20:04:12.859Z,115074.379,1635969724,full,ni_sequenzen,NI_Sequenzen,2,0,,,,,,,,,,,,
,Move,canvas.Screen,0_3_0_0_0_2,right,response,,115064.5,115059.393,115074.379,117616.19999992847,2541.8209999284736,117616.79999995232,2021-11-03T20:04:15.415Z,117620.684,1635969724,full,ni_sequenzen,NI_Sequenzen,3,0,,,,,,,,,,,,
,Move,canvas.Screen,0_3_0_0_0_3,down,response,,117619.39999997616,117605.441,117620.684,121487.39999997616,3866.7159999761643,121487.89999997616,2021-11-03T20:04:19.286Z,121532.275,1635969724,full,ni_sequenzen,NI_Sequenzen,4,0,,,,,,,,,,,,
,Move,canvas.Screen,0_3_0_0_0_4,-999,skipped,,121490.89999997616,,,121487.39999997616,,121490.89999997616,2021-11-03T20:04:19.289Z,121532.275,1635969724,full,ni_sequenzen,NI_Sequenzen,5,0,,,,,,,,,,,,
,Move,canvas.Screen,0_3_0_0_0_5,-999,skipped,,121493.89999997616,,,121487.39999997616,,121494,2021-11-03T20:04:19.292Z,121532.275,1635969724,full,ni_sequenzen,NI_Sequenzen,6,0,,,,,,,,,,,,
,Move,canvas.Screen,0_3_0_0_0_6,-999,skipped,,121496.09999990463,,,121487.39999997616,,121496.19999992847,2021-11-03T20:04:19.295Z,121532.275,1635969724,full,ni_sequenzen,NI_Sequenzen,7,0,,,,,,,,,,,,
,Move,canvas.Screen,0_3_0_0_0_7,-999,skipped,,121498.29999995232,,,121487.39999997616,,121498.29999995232,2021-11-03T20:04:19.297Z,121532.275,1635969724,full,ni_sequenzen,NI_Sequenzen,8,0,,,,,,,,,,,,
,Move,canvas.Screen,0_3_0_0_0_8,-999,skipped,,121500.29999995232,,,121487.39999997616,,121500.39999997616,2021-11-03T20:04:19.299Z,121532.275,1635969724,full,ni_sequenzen,NI_Sequenzen,9,0,,,,,,,,,,,,
,Move,canvas.Screen,0_3_0_0_0_9,-999,skipped,,121502.69999992847,,,121487.39999997616,,121502.79999995232,2021-11-03T20:04:19.301Z,121532.275,1635969724,full,ni_sequenzen,NI_Sequenzen,10,0,,,,,,,,,,,,
,Move,canvas.Screen,0_3_0_0_0_10,-999,skipped,,121504.79999995232,,,121487.39999997616,,121504.79999995232,2021-11-03T20:04:19.303Z,121532.275,1635969724,full,ni_sequenzen,NI_Sequenzen,11,0,,,,,,,,,,,,
,Move,canvas.Screen,0_3_0_0_0_11,-999,skipped,,121506.79999995232,,,121487.39999997616,,121506.89999997616,2021-11-03T20:04:19.305Z,121532.275,1635969724,full,ni_sequenzen,NI_Sequenzen,12,0,,,,,,,,,,,,
,Move,canvas.Screen,0_3_0_0_0_12,-999,skipped,,121509.79999995232,,,121487.39999997616,,121509.79999995232,2021-11-03T20:04:19.308Z,121532.275,1635969724,full,ni_sequenzen,NI_Sequenzen,13,0,,,,,,,,,,,,
,Move,canvas.Screen,0_3_0_0_0_13,-999,skipped,,121512.29999995232,,,121487.39999997616,,121512.39999997616,2021-11-03T20:04:19.311Z,121532.275,1635969724,full,ni_sequenzen,NI_Sequenzen,14,0,,,,,,,,,,,,
,Move,canvas.Screen,0_3_0_0_0_14,-999,skipped,,121514.69999992847,,,121487.39999997616,,121514.89999997616,2021-11-03T20:04:19.313Z,121532.275,1635969724,full,ni_sequenzen,NI_Sequenzen,15,0,,,,,,,,,,,,
,Loop,flow.Loop,0_3_0_0_0,-999,completion,,103768.89999997616,103759.461,103789.549,121487.39999997616,17697.85099997616,121514.89999997616,2021-11-03T20:04:19.313Z,121532.275,1635969724,full,ni_sequenzen,NI_Sequenzen,,0,,,,,,,,,,,,
,Feedback,canvas.Screen,0_3_0_0_1,,timeout,,121518.19999992847,121517.293,121532.275,125510.128,3994.3970000000118,125510.89999997616,2021-11-03T20:04:23.309Z,125526.672,1635969724,full,ni_sequenzen,NI_Sequenzen,,0,,,,,,,,,,,,
,Trial,flow.Sequence,0_3_0_0,,completion,,103758.59999990463,103759.461,103789.549,125510.128,21720.578999999998,125511.09999990463,2021-11-03T20:04:23.309Z,125543.332,1635969724,full,ni_sequenzen,NI_Sequenzen,,0,,,,,,,,,,,,
,Move,canvas.Screen,0_3_0_1_0_0,down,response,,125523.29999995232,125526.672,125543.332,128595.19999992847,3051.8679999284795,128595.69999992847,2021-11-03T20:04:26.394Z,128605.836,1635969724,full,ni_sequenzen,NI_Sequenzen,1,1,,,,,,,,,,,,
,Move,canvas.Screen,0_3_0_1_0_1,left,response,,128598.69999992847,128590.748,128605.836,129201.39999997616,595.5639999761624,129202,2021-11-03T20:04:27.000Z,129221.657,1635969724,full,ni_sequenzen,NI_Sequenzen,2,1,,,,,,,,,,,,
,Move,canvas.Screen,0_3_0_1_0_2,right,response,,129205.39999997616,129205.42,129221.657,130838.89999997616,1617.2429999761516,130839.39999997616,2021-11-03T20:04:28.638Z,130852.914,1635969724,full,ni_sequenzen,NI_Sequenzen,3,1,,,,,,,,,,,,
,Move,canvas.Screen,0_3_0_1_0_3,down,response,,130842.29999995232,130837.053,130852.914,132891.89999997616,2038.9859999761538,132892.39999997616,2021-11-03T20:04:30.691Z,132899.988,1635969724,full,ni_sequenzen,NI_Sequenzen,4,1,,,,,,,,,,,,
,Move,canvas.Screen,0_3_0_1_0_4,left,response,,132894.89999997616,132884.504,132899.988,134779.19999992847,1879.2119999284623,134779.59999990463,2021-11-03T20:04:32.578Z,134813.977,1635969724,full,ni_sequenzen,NI_Sequenzen,5,1,,,,,,,,,,,,
,Move,canvas.Screen,0_3_0_1_0_5,-999,skipped,,134782.19999992847,,,134779.19999992847,,134782.29999995232,2021-11-03T20:04:32.581Z,134813.977,1635969724,full,ni_sequenzen,NI_Sequenzen,6,1,,,,,,,,,,,,
,Move,canvas.Screen,0_3_0_1_0_6,-999,skipped,,134785.09999990463,,,134779.19999992847,,134785.09999990463,2021-11-03T20:04:32.583Z,134813.977,1635969724,full,ni_sequenzen,NI_Sequenzen,7,1,,,,,,,,,,,,
,Move,canvas.Screen,0_3_0_1_0_7,-999,skipped,,134787,,,134779.19999992847,,134787,2021-11-03T20:04:32.585Z,134813.977,1635969724,full,ni_sequenzen,NI_Sequenzen,8,1,,,,,,,,,,,,
,Move,canvas.Screen,0_3_0_1_0_8,-999,skipped,,134788.89999997616,,,134779.19999992847,,134789,2021-11-03T20:04:32.587Z,134813.977,1635969724,full,ni_sequenzen,NI_Sequenzen,9,1,,,,,,,,,,,,
,Move,canvas.Screen,0_3_0_1_0_9,-999,skipped,,134791.29999995232,,,134779.19999992847,,134791.29999995232,2021-11-03T20:04:32.590Z,134813.977,1635969724,full,ni_sequenzen,NI_Sequenzen,10,1,,,,,,,,,,,,
,Move,canvas.Screen,0_3_0_1_0_10,-999,skipped,,134793.59999990463,,,134779.19999992847,,134793.79999995232,2021-11-03T20:04:32.592Z,134813.977,1635969724,full,ni_sequenzen,NI_Sequenzen,11,1,,,,,,,,,,,,
,Move,canvas.Screen,0_3_0_1_0_11,-999,skipped,,134795.59999990463,,,134779.19999992847,,134795.79999995232,2021-11-03T20:04:32.594Z,134813.977,1635969724,full,ni_sequenzen,NI_Sequenzen,12,1,,,,,,,,,,,,
,Move,canvas.Screen,0_3_0_1_0_12,-999,skipped,,134797.89999997616,,,134779.19999992847,,134798,2021-11-03T20:04:32.596Z,134813.977,1635969724,full,ni_sequenzen,NI_Sequenzen,13,1,,,,,,,,,,,,
,Move,canvas.Screen,0_3_0_1_0_13,-999,skipped,,134799.89999997616,,,134779.19999992847,,134799.89999997616,2021-11-03T20:04:32.598Z,134813.977,1635969724,full,ni_sequenzen,NI_Sequenzen,14,1,,,,,,,,,,,,
,Move,canvas.Screen,0_3_0_1_0_14,-999,skipped,,134802,,,134779.19999992847,,134802,2021-11-03T20:04:32.600Z,134813.977,1635969724,full,ni_sequenzen,NI_Sequenzen,15,1,,,,,,,,,,,,
,Loop,flow.Loop,0_3_0_1_0,-999,completion,,125521.29999995232,125526.672,125543.332,134779.19999992847,9235.86799992848,134802.19999992847,2021-11-03T20:04:32.601Z,134813.977,1635969724,full,ni_sequenzen,NI_Sequenzen,,1,,,,,,,,,,,,
,Feedback,canvas.Screen,0_3_0_1_1,,timeout,,134803.89999997616,134798.465,134813.977,138792.039,3994.594999999972,138792.59999990463,2021-11-03T20:04:36.591Z,138808.572,1635969724,full,ni_sequenzen,NI_Sequenzen,,1,,,,,,,,,,,,
,Trial,flow.Sequence,0_3_0_1,,completion,,125511.39999997616,125526.672,125543.332,138792.039,13248.706999999995,138792.79999995232,2021-11-03T20:04:36.591Z,138825.39,1635969724,full,ni_sequenzen,NI_Sequenzen,,1,,,,,,,,,,,,
,Move,canvas.Screen,0_3_0_2_0_0,right,response,,138806.29999995232,138808.572,138825.39,141312.39999997616,2487.009999976144,141313,2021-11-03T20:04:39.111Z,141321.791,1635969724,full,ni_sequenzen,NI_Sequenzen,1,2,,,,,,,,,,,,
,Move,canvas.Screen,0_3_0_2_0_1,down,response,,141316.59999990463,141306.628,141321.791,143443.79999995232,2122.008999952319,143444.29999995232,2021-11-03T20:04:41.243Z,143452.316,1635969724,full,ni_sequenzen,NI_Sequenzen,2,2,,,,,,,,,,,,
,Move,canvas.Screen,0_3_0_2_0_2,left,response,,143447.39999997616,143436.713,143452.316,145725.69999992847,2273.383999928483,145726.19999992847,2021-11-03T20:04:43.524Z,145732.465,1635969724,full,ni_sequenzen,NI_Sequenzen,3,2,,,,,,,,,,,,
,Move,canvas.Screen,0_3_0_2_0_3,down,response,,145729.5,145717.124,145732.465,150941.69999992847,5209.234999928478,150942.19999992847,2021-11-03T20:04:48.752Z,150958.867,1635969724,full,ni_sequenzen,NI_Sequenzen,4,2,,,,,,,,,,,,
,Move,canvas.Screen,0_3_0_2_0_4,left,response,,150944.89999997616,150944.686,150958.867,152157.89999997616,1199.0329999761598,152158.29999995232,2021-11-03T20:04:49.968Z,152190.556,1635969724,full,ni_sequenzen,NI_Sequenzen,5,2,,,,,,,,,,,,
,Move,canvas.Screen,0_3_0_2_0_5,-999,skipped,,152161.39999997616,,,152157.89999997616,,152161.5,2021-11-03T20:04:49.971Z,152190.556,1635969724,full,ni_sequenzen,NI_Sequenzen,6,2,,,,,,,,,,,,
,Move,canvas.Screen,0_3_0_2_0_6,-999,skipped,,152163.39999997616,,,152157.89999997616,,152163.39999997616,2021-11-03T20:04:49.973Z,152190.556,1635969724,full,ni_sequenzen,NI_Sequenzen,7,2,,,,,,,,,,,,
,Move,canvas.Screen,0_3_0_2_0_7,-999,skipped,,152165.19999992847,,,152157.89999997616,,152165.29999995232,2021-11-03T20:04:49.975Z,152190.556,1635969724,full,ni_sequenzen,NI_Sequenzen,8,2,,,,,,,,,,,,
,Move,canvas.Screen,0_3_0_2_0_8,-999,skipped,,152167.09999990463,,,152157.89999997616,,152167.19999992847,2021-11-03T20:04:49.977Z,152190.556,1635969724,full,ni_sequenzen,NI_Sequenzen,9,2,,,,,,,,,,,,
,Move,canvas.Screen,0_3_0_2_0_9,-999,skipped,,152169.39999997616,,,152157.89999997616,,152169.39999997616,2021-11-03T20:04:49.979Z,152190.556,1635969724,full,ni_sequenzen,NI_Sequenzen,10,2,,,,,,,,,,,,
,Move,canvas.Screen,0_3_0_2_0_10,-999,skipped,,152171.19999992847,,,152157.89999997616,,152171.29999995232,2021-11-03T20:04:49.981Z,152190.556,1635969724,full,ni_sequenzen,NI_Sequenzen,11,2,,,,,,,,,,,,
,Move,canvas.Screen,0_3_0_2_0_11,-999,skipped,,152173.09999990463,,,152157.89999997616,,152173.19999992847,2021-11-03T20:04:49.983Z,152190.556,1635969724,full,ni_sequenzen,NI_Sequenzen,12,2,,,,,,,,,,,,
,Move,canvas.Screen,0_3_0_2_0_12,-999,skipped,,152175.59999990463,,,152157.89999997616,,152175.69999992847,2021-11-03T20:04:49.985Z,152190.556,1635969724,full,ni_sequenzen,NI_Sequenzen,13,2,,,,,,,,,,,,
,Move,canvas.Screen,0_3_0_2_0_13,-999,skipped,,152177.39999997616,,,152157.89999997616,,152177.5,2021-11-03T20:04:49.987Z,152190.556,1635969724,full,ni_sequenzen,NI_Sequenzen,14,2,,,,,,,,,,,,
,Move,canvas.Screen,0_3_0_2_0_14,-999,skipped,,152179.29999995232,,,152157.89999997616,,152179.39999997616,2021-11-03T20:04:49.989Z,152190.556,1635969724,full,ni_sequenzen,NI_Sequenzen,15,2,,,,,,,,,,,,
,Loop,flow.Loop,0_3_0_2_0,-999,completion,,138804.09999990463,138808.572,138825.39,152157.89999997616,13332.509999976144,152179.5,2021-11-03T20:04:49.989Z,152190.556,1635969724,full,ni_sequenzen,NI_Sequenzen,,2,,,,,,,,,,,,
,Feedback,canvas.Screen,0_3_0_2_1,,timeout,,152181.09999990463,152174.397,152190.556,156168.426,3994.4320000000007,156169.09999990463,2021-11-03T20:04:53.979Z,156184.988,1635969724,full,ni_sequenzen,NI_Sequenzen,,2,,,,,,,,,,,,
,Trial,flow.Sequence,0_3_0_2,,completion,,138793.09999990463,138808.572,138825.39,156168.426,17343.035999999993,156169.29999995232,2021-11-03T20:04:53.979Z,156201.755,1635969724,full,ni_sequenzen,NI_Sequenzen,,2,,,,,,,,,,,,
,Move,canvas.Screen,0_3_0_3_0_0,down,response,,156182.29999995232,156184.988,156201.755,158352.69999992847,2150.9449999284698,158353.09999990463,2021-11-03T20:04:56.163Z,158365.473,1635969724,full,ni_sequenzen,NI_Sequenzen,1,3,,,,,,,,,,,,
,Move,canvas.Screen,0_3_0_3_0_1,left,response,,158356,158349.918,158365.473,161765.29999995232,3399.826999952318,161765.89999997616,2021-11-03T20:04:59.576Z,161777.371,1635969724,full,ni_sequenzen,NI_Sequenzen,2,3,,,,,,,,,,,,
,Move,canvas.Screen,0_3_0_3_0_2,right,response,,161768.39999997616,161762.504,161777.371,162501.79999995232,724.4289999523025,162502.29999995232,2021-11-03T20:05:00.312Z,162509.735,1635969724,full,ni_sequenzen,NI_Sequenzen,3,3,,,,,,,,,,,,
,Move,canvas.Screen,0_3_0_3_0_3,right,response,,162505.19999992847,162493.508,162509.735,169308,6798.265000000014,169308.5,2021-11-03T20:05:07.118Z,169350.549,1635969724,full,ni_sequenzen,NI_Sequenzen,4,3,,,,,,,,,,,,
,Move,canvas.Screen,0_3_0_3_0_4,-999,skipped,,169311.59999990463,,,169308,,169311.69999992847,2021-11-03T20:05:07.121Z,169350.549,1635969724,full,ni_sequenzen,NI_Sequenzen,5,3,,,,,,,,,,,,
,Move,canvas.Screen,0_3_0_3_0_5,-999,skipped,,169313.69999992847,,,169308,,169313.79999995232,2021-11-03T20:05:07.123Z,169350.549,1635969724,full,ni_sequenzen,NI_Sequenzen,6,3,,,,,,,,,,,,
,Move,canvas.Screen,0_3_0_3_0_6,-999,skipped,,169315.59999990463,,,169308,,169315.69999992847,2021-11-03T20:05:07.125Z,169350.549,1635969724,full,ni_sequenzen,NI_Sequenzen,7,3,,,,,,,,,,,,
,Move,canvas.Screen,0_3_0_3_0_7,-999,skipped,,169317.39999997616,,,169308,,169317.5,2021-11-03T20:05:07.127Z,169350.549,1635969724,full,ni_sequenzen,NI_Sequenzen,8,3,,,,,,,,,,,,
,Move,canvas.Screen,0_3_0_3_0_8,-999,skipped,,169319.69999992847,,,169308,,169319.79999995232,2021-11-03T20:05:07.129Z,169350.549,1635969724,full,ni_sequenzen,NI_Sequenzen,9,3,,,,,,,,,,,,
,Move,canvas.Screen,0_3_0_3_0_9,-999,skipped,,169321.59999990463,,,169308,,169321.59999990463,2021-11-03T20:05:07.131Z,169350.549,1635969724,full,ni_sequenzen,NI_Sequenzen,10,3,,,,,,,,,,,,
,Move,canvas.Screen,0_3_0_3_0_10,-999,skipped,,169323.39999997616,,,169308,,169323.5,2021-11-03T20:05:07.133Z,169350.549,1635969724,full,ni_sequenzen,NI_Sequenzen,11,3,,,,,,,,,,,,
,Move,canvas.Screen,0_3_0_3_0_11,-999,skipped,,169325.79999995232,,,169308,,169325.89999997616,2021-11-03T20:05:07.136Z,169350.549,1635969724,full,ni_sequenzen,NI_Sequenzen,12,3,,,,,,,,,,,,
,Move,canvas.Screen,0_3_0_3_0_12,-999,skipped,,169327.69999992847,,,169308,,169327.69999992847,2021-11-03T20:05:07.137Z,169350.549,1635969724,full,ni_sequenzen,NI_Sequenzen,13,3,,,,,,,,,,,,
,Move,canvas.Screen,0_3_0_3_0_13,-999,skipped,,169329.5,,,169308,,169329.59999990463,2021-11-03T20:05:07.139Z,169350.549,1635969724,full,ni_sequenzen,NI_Sequenzen,14,3,,,,,,,,,,,,
,Move,canvas.Screen,0_3_0_3_0_14,-999,skipped,,169331.79999995232,,,169308,,169331.79999995232,2021-11-03T20:05:07.141Z,169350.549,1635969724,full,ni_sequenzen,NI_Sequenzen,15,3,,,,,,,,,,,,
,Loop,flow.Loop,0_3_0_3_0,-999,completion,,156179.5,156184.988,156201.755,169308,13106.244999999995,169332,2021-11-03T20:05:07.142Z,169350.549,1635969724,full,ni_sequenzen,NI_Sequenzen,,3,,,,,,,,,,,,
,Feedback,canvas.Screen,0_3_0_3_1,,timeout,,169333.5,169320.5,169350.549,173328.386,3994.369000000006,173329.89999997616,2021-11-03T20:05:11.139Z,173344.918,1635969724,full,ni_sequenzen,NI_Sequenzen,,3,,,,,,,,,,,,
,Trial,flow.Sequence,0_3_0_3,,completion,,156169.59999990463,156184.988,156201.755,173328.386,17126.630999999994,173330,2021-11-03T20:05:11.140Z,173361.638,1635969724,full,ni_sequenzen,NI_Sequenzen,,3,,,,,,,,,,,,
,Move,canvas.Screen,0_3_0_4_0_0,right,response,,173344,173344.918,173361.638,175292,1930.3619999999937,175292.39999997616,2021-11-03T20:05:13.102Z,175309.368,1635969724,full,ni_sequenzen,NI_Sequenzen,1,4,,,,,,,,,,,,
,Move,canvas.Screen,0_3_0_4_0_1,down,response,,175295.29999995232,175293.334,175309.368,177339.09999990463,2029.731999904645,177339.69999992847,2021-11-03T20:05:15.149Z,177356.335,1635969724,full,ni_sequenzen,NI_Sequenzen,2,4,,,,,,,,,,,,
,Move,canvas.Screen,0_3_0_4_0_2,down,response,,177342.29999995232,177340.568,177356.335,179652.89999997616,2296.5649999761663,179653.39999997616,2021-11-03T20:05:17.463Z,179669.735,1635969724,full,ni_sequenzen,NI_Sequenzen,3,4,,,,,,,,,,,,
,Move,canvas.Screen,0_3_0_4_0_3,right,response,,179655.69999992847,179654.268,179669.735,181096.09999990463,1426.3649999046465,181096.59999990463,2021-11-03T20:05:18.906Z,181134.566,1635969724,full,ni_sequenzen,NI_Sequenzen,4,4,,,,,,,,,,,,
,Move,canvas.Screen,0_3_0_4_0_4,-999,skipped,,181099.5,,,181096.09999990463,,181099.59999990463,2021-11-03T20:05:18.909Z,181134.566,1635969724,full,ni_sequenzen,NI_Sequenzen,5,4,,,,,,,,,,,,
,Move,canvas.Screen,0_3_0_4_0_5,-999,skipped,,181101.79999995232,,,181096.09999990463,,181101.89999997616,2021-11-03T20:05:18.912Z,181134.566,1635969724,full,ni_sequenzen,NI_Sequenzen,6,4,,,,,,,,,,,,
,Move,canvas.Screen,0_3_0_4_0_6,-999,skipped,,181103.89999997616,,,181096.09999990463,,181104,2021-11-03T20:05:18.914Z,181134.566,1635969724,full,ni_sequenzen,NI_Sequenzen,7,4,,,,,,,,,,,,
,Move,canvas.Screen,0_3_0_4_0_7,-999,skipped,,181106.39999997616,,,181096.09999990463,,181106.5,2021-11-03T20:05:18.916Z,181134.566,1635969724,full,ni_sequenzen,NI_Sequenzen,8,4,,,,,,,,,,,,
,Move,canvas.Screen,0_3_0_4_0_8,-999,skipped,,181108.29999995232,,,181096.09999990463,,181108.29999995232,2021-11-03T20:05:18.918Z,181134.566,1635969724,full,ni_sequenzen,NI_Sequenzen,9,4,,,,,,,,,,,,
,Move,canvas.Screen,0_3_0_4_0_9,-999,skipped,,181110.39999997616,,,181096.09999990463,,181110.5,2021-11-03T20:05:18.920Z,181134.566,1635969724,full,ni_sequenzen,NI_Sequenzen,10,4,,,,,,,,,,,,
,Move,canvas.Screen,0_3_0_4_0_10,-999,skipped,,181112.79999995232,,,181096.09999990463,,181113,2021-11-03T20:05:18.923Z,181134.566,1635969724,full,ni_sequenzen,NI_Sequenzen,11,4,,,,,,,,,,,,
,Move,canvas.Screen,0_3_0_4_0_11,-999,skipped,,181114.69999992847,,,181096.09999990463,,181114.79999995232,2021-11-03T20:05:18.924Z,181134.566,1635969724,full,ni_sequenzen,NI_Sequenzen,12,4,,,,,,,,,,,,
,Move,canvas.Screen,0_3_0_4_0_12,-999,skipped,,181116.89999997616,,,181096.09999990463,,181116.89999997616,2021-11-03T20:05:18.927Z,181134.566,1635969724,full,ni_sequenzen,NI_Sequenzen,13,4,,,,,,,,,,,,
,Move,canvas.Screen,0_3_0_4_0_13,-999,skipped,,181118.69999992847,,,181096.09999990463,,181118.69999992847,2021-11-03T20:05:18.928Z,181134.566,1635969724,full,ni_sequenzen,NI_Sequenzen,14,4,,,,,,,,,,,,
,Move,canvas.Screen,0_3_0_4_0_14,-999,skipped,,181120.89999997616,,,181096.09999990463,,181121,2021-11-03T20:05:18.931Z,181134.566,1635969724,full,ni_sequenzen,NI_Sequenzen,15,4,,,,,,,,,,,,
,Loop,flow.Loop,0_3_0_4_0,-999,completion,,173341.29999995232,173344.918,173361.638,181096.09999990463,7734.461999904626,181121.19999992847,2021-11-03T20:05:18.931Z,181134.566,1635969724,full,ni_sequenzen,NI_Sequenzen,,4,,,,,,,,,,,,
,Feedback,canvas.Screen,0_3_0_4_1,,timeout,,181122.59999990463,181118.5,181134.566,185112.407,3994.491000000009,185113,2021-11-03T20:05:22.923Z,185129.057,1635969724,full,ni_sequenzen,NI_Sequenzen,,4,,,,,,,,,,,,
,Trial,flow.Sequence,0_3_0_4,,completion,,173330.19999992847,173344.918,173361.638,185112.407,11750.769,185113.19999992847,2021-11-03T20:05:22.923Z,185145.625,1635969724,full,ni_sequenzen,NI_Sequenzen,,4,,,,,,,,,,,,
,Move,canvas.Screen,0_3_0_5_0_0,down,response,,185125.5,185129.057,185145.625,189114.5,3968.875,189115,2021-11-03T20:05:26.925Z,189123.555,1635969724,full,ni_sequenzen,NI_Sequenzen,1,5,,,,,,,,,,,,
,Move,canvas.Screen,0_3_0_5_0_1,left,response,,189117.89999997616,189108.871,189123.555,193183.29999995232,4059.7449999523233,193183.69999992847,2021-11-03T20:05:30.993Z,193201.651,1635969724,full,ni_sequenzen,NI_Sequenzen,2,5,,,,,,,,,,,,
,Move,canvas.Screen,0_3_0_5_0_2,down,response,,193186.09999990463,193170.103,193201.651,195142,1940.3489999999874,195142.59999990463,2021-11-03T20:05:32.952Z,195148.6,1635969724,full,ni_sequenzen,NI_Sequenzen,3,5,,,,,,,,,,,,
,Move,canvas.Screen,0_3_0_5_0_3,left,response,,195145,195133.045,195148.6,195520.29999995232,371.69999995231046,195520.89999997616,2021-11-03T20:05:33.331Z,195548.107,1635969724,full,ni_sequenzen,NI_Sequenzen,4,5,,,,,,,,,,,,
,Move,canvas.Screen,0_3_0_5_0_4,-999,skipped,,195524.19999992847,,,195520.29999995232,,195524.29999995232,2021-11-03T20:05:33.334Z,195548.107,1635969724,full,ni_sequenzen,NI_Sequenzen,5,5,,,,,,,,,,,,
,Move,canvas.Screen,0_3_0_5_0_5,-999,skipped,,195526.29999995232,,,195520.29999995232,,195526.39999997616,2021-11-03T20:05:33.336Z,195548.107,1635969724,full,ni_sequenzen,NI_Sequenzen,6,5,,,,,,,,,,,,
,Move,canvas.Screen,0_3_0_5_0_6,-999,skipped,,195528.19999992847,,,195520.29999995232,,195528.29999995232,2021-11-03T20:05:33.338Z,195548.107,1635969724,full,ni_sequenzen,NI_Sequenzen,7,5,,,,,,,,,,,,
,Move,canvas.Screen,0_3_0_5_0_7,-999,skipped,,195530.59999990463,,,195520.29999995232,,195530.69999992847,2021-11-03T20:05:33.340Z,195548.107,1635969724,full,ni_sequenzen,NI_Sequenzen,8,5,,,,,,,,,,,,
,Move,canvas.Screen,0_3_0_5_0_8,-999,skipped,,195532.5,,,195520.29999995232,,195532.59999990463,2021-11-03T20:05:33.342Z,195548.107,1635969724,full,ni_sequenzen,NI_Sequenzen,9,5,,,,,,,,,,,,
,Move,canvas.Screen,0_3_0_5_0_9,-999,skipped,,195534.29999995232,,,195520.29999995232,,195534.5,2021-11-03T20:05:33.344Z,195548.107,1635969724,full,ni_sequenzen,NI_Sequenzen,10,5,,,,,,,,,,,,
,Move,canvas.Screen,0_3_0_5_0_10,-999,skipped,,195536.69999992847,,,195520.29999995232,,195536.69999992847,2021-11-03T20:05:33.346Z,195548.107,1635969724,full,ni_sequenzen,NI_Sequenzen,11,5,,,,,,,,,,,,
,Move,canvas.Screen,0_3_0_5_0_11,-999,skipped,,195538.5,,,195520.29999995232,,195538.59999990463,2021-11-03T20:05:33.348Z,195548.107,1635969724,full,ni_sequenzen,NI_Sequenzen,12,5,,,,,,,,,,,,
,Move,canvas.Screen,0_3_0_5_0_12,-999,skipped,,195540.29999995232,,,195520.29999995232,,195540.39999997616,2021-11-03T20:05:33.350Z,195548.107,1635969724,full,ni_sequenzen,NI_Sequenzen,13,5,,,,,,,,,,,,
,Move,canvas.Screen,0_3_0_5_0_13,-999,skipped,,195542.29999995232,,,195520.29999995232,,195542.39999997616,2021-11-03T20:05:33.352Z,195548.107,1635969724,full,ni_sequenzen,NI_Sequenzen,14,5,,,,,,,,,,,,
,Move,canvas.Screen,0_3_0_5_0_14,-999,skipped,,195544.5,,,195520.29999995232,,195544.59999990463,2021-11-03T20:05:33.354Z,195548.107,1635969724,full,ni_sequenzen,NI_Sequenzen,15,5,,,,,,,,,,,,
,Loop,flow.Loop,0_3_0_5_0,-999,completion,,185123.59999990463,185129.057,185145.625,195520.29999995232,10374.674999952316,195544.69999992847,2021-11-03T20:05:33.354Z,195548.107,1635969724,full,ni_sequenzen,NI_Sequenzen,,5,,,,,,,,,,,,
,Feedback,canvas.Screen,0_3_0_5_1,,timeout,,195546.29999995232,195531.811,195548.107,199526.145,3994.558000000019,199526.69999992847,2021-11-03T20:05:37.336Z,199542.665,1635969724,full,ni_sequenzen,NI_Sequenzen,,5,,,,,,,,,,,,
,Trial,flow.Sequence,0_3_0_5,,completion,,185113.39999997616,185129.057,185145.625,199526.145,14380.51999999999,199526.79999995232,2021-11-03T20:05:37.337Z,199559.459,1635969724,full,ni_sequenzen,NI_Sequenzen,,5,,,,,,,,,,,,
,Move,canvas.Screen,0_3_0_6_0_0,down,response,,199539.79999995232,199542.665,199559.459,200971.79999995232,1412.3409999523137,200972.19999992847,2021-11-03T20:05:38.782Z,200990.744,1635969724,full,ni_sequenzen,NI_Sequenzen,1,6,,,,,,,,,,,,
,Move,canvas.Screen,0_3_0_6_0_1,left,response,,200974.69999992847,200974.794,200990.744,202177.39999997616,1186.655999976152,202177.89999997616,2021-11-03T20:05:39.988Z,202189.236,1635969724,full,ni_sequenzen,NI_Sequenzen,2,6,,,,,,,,,,,,
,Move,canvas.Screen,0_3_0_6_0_2,down,response,,202180.79999995232,202173.115,202189.236,202537.89999997616,348.6639999761537,202538.5,2021-11-03T20:05:40.348Z,202555.487,1635969724,full,ni_sequenzen,NI_Sequenzen,3,6,,,,,,,,,,,,
,Move,canvas.Screen,0_3_0_6_0_3,left,response,,202541.5,202538.933,202555.487,203084.29999995232,528.8129999523226,203084.69999992847,2021-11-03T20:05:40.894Z,203137.891,1635969724,full,ni_sequenzen,NI_Sequenzen,4,6,,,,,,,,,,,,
,Move,canvas.Screen,0_3_0_6_0_4,-999,skipped,,203087.19999992847,,,203084.29999995232,,203087.39999997616,2021-11-03T20:05:40.897Z,203137.891,1635969724,full,ni_sequenzen,NI_Sequenzen,5,6,,,,,,,,,,,,
,Move,canvas.Screen,0_3_0_6_0_5,-999,skipped,,203090.29999995232,,,203084.29999995232,,203090.5,2021-11-03T20:05:40.900Z,203137.891,1635969724,full,ni_sequenzen,NI_Sequenzen,6,6,,,,,,,,,,,,
,Move,canvas.Screen,0_3_0_6_0_6,-999,skipped,,203092.39999997616,,,203084.29999995232,,203092.39999997616,2021-11-03T20:05:40.902Z,203137.891,1635969724,full,ni_sequenzen,NI_Sequenzen,7,6,,,,,,,,,,,,
,Move,canvas.Screen,0_3_0_6_0_7,-999,skipped,,203094.29999995232,,,203084.29999995232,,203094.29999995232,2021-11-03T20:05:40.904Z,203137.891,1635969724,full,ni_sequenzen,NI_Sequenzen,8,6,,,,,,,,,,,,
,Move,canvas.Screen,0_3_0_6_0_8,-999,skipped,,203096.59999990463,,,203084.29999995232,,203096.69999992847,2021-11-03T20:05:40.906Z,203137.891,1635969724,full,ni_sequenzen,NI_Sequenzen,9,6,,,,,,,,,,,,
,Move,canvas.Screen,0_3_0_6_0_9,-999,skipped,,203098.5,,,203084.29999995232,,203098.5,2021-11-03T20:05:40.908Z,203137.891,1635969724,full,ni_sequenzen,NI_Sequenzen,10,6,,,,,,,,,,,,
,Move,canvas.Screen,0_3_0_6_0_10,-999,skipped,,203100.39999997616,,,203084.29999995232,,203100.39999997616,2021-11-03T20:05:40.910Z,203137.891,1635969724,full,ni_sequenzen,NI_Sequenzen,11,6,,,,,,,,,,,,
,Move,canvas.Screen,0_3_0_6_0_11,-999,skipped,,203112.29999995232,,,203084.29999995232,,203112.5,2021-11-03T20:05:40.922Z,203137.891,1635969724,full,ni_sequenzen,NI_Sequenzen,12,6,,,,,,,,,,,,
,Move,canvas.Screen,0_3_0_6_0_12,-999,skipped,,203114.69999992847,,,203084.29999995232,,203114.69999992847,2021-11-03T20:05:40.924Z,203137.891,1635969724,full,ni_sequenzen,NI_Sequenzen,13,6,,,,,,,,,,,,
,Move,canvas.Screen,0_3_0_6_0_13,-999,skipped,,203117.19999992847,,,203084.29999995232,,203117.29999995232,2021-11-03T20:05:40.927Z,203137.891,1635969724,full,ni_sequenzen,NI_Sequenzen,14,6,,,,,,,,,,,,
,Move,canvas.Screen,0_3_0_6_0_14,-999,skipped,,203119.19999992847,,,203084.29999995232,,203119.29999995232,2021-11-03T20:05:40.929Z,203137.891,1635969724,full,ni_sequenzen,NI_Sequenzen,15,6,,,,,,,,,,,,
,Loop,flow.Loop,0_3_0_6_0,-999,completion,,199537.79999995232,199542.665,199559.459,203084.29999995232,3524.8409999523137,203119.39999997616,2021-11-03T20:05:40.929Z,203137.891,1635969724,full,ni_sequenzen,NI_Sequenzen,,6,,,,,,,,,,,,
,Feedback,canvas.Screen,0_3_0_6_1,,timeout,,203121.29999995232,203105.151,203137.891,207115.711,3994.5080000000016,207116.29999995232,2021-11-03T20:05:44.926Z,207132.399,1635969724,full,ni_sequenzen,NI_Sequenzen,,6,,,,,,,,,,,,
,Trial,flow.Sequence,0_3_0_6,,completion,,199527.19999992847,199542.665,199559.459,207115.711,7556.252000000008,207116.39999997616,2021-11-03T20:05:44.926Z,207149.03,1635969724,full,ni_sequenzen,NI_Sequenzen,,6,,,,,,,,,,,,
,Move,canvas.Screen,0_3_0_7_0_0,down,response,,207128.5,207132.399,207149.03,208460.5,1311.4700000000012,208461,2021-11-03T20:05:46.258Z,208480.602,1635969724,full,ni_sequenzen,NI_Sequenzen,1,7,,,,,,,,,,,,
,Move,canvas.Screen,0_3_0_7_0_1,right,response,,208463.89999997616,208447.971,208480.602,209445.79999995232,965.1979999523028,209446.19999992847,2021-11-03T20:05:47.243Z,209462.631,1635969724,full,ni_sequenzen,NI_Sequenzen,2,7,,,,,,,,,,,,
,Move,canvas.Screen,0_3_0_7_0_2,down,response,,209448.79999995232,209446.453,209462.631,210872.69999992847,1410.0689999284805,210873.19999992847,2021-11-03T20:05:48.670Z,210877.217,1635969724,full,ni_sequenzen,NI_Sequenzen,3,7,,,,,,,,,,,,
,Move,canvas.Screen,0_3_0_7_0_3,right,response,,210875.69999992847,210861.309,210877.217,211206.39999997616,329.18299997615395,211206.89999997616,2021-11-03T20:05:49.004Z,211243.482,1635969724,full,ni_sequenzen,NI_Sequenzen,4,7,,,,,,,,,,,,
,Move,canvas.Screen,0_3_0_7_0_4,-999,skipped,,211209.59999990463,,,211206.39999997616,,211209.59999990463,2021-11-03T20:05:49.007Z,211243.482,1635969724,full,ni_sequenzen,NI_Sequenzen,5,7,,,,,,,,,,,,
,Move,canvas.Screen,0_3_0_7_0_5,-999,skipped,,211211.59999990463,,,211206.39999997616,,211211.69999992847,2021-11-03T20:05:49.009Z,211243.482,1635969724,full,ni_sequenzen,NI_Sequenzen,6,7,,,,,,,,,,,,
,Move,canvas.Screen,0_3_0_7_0_6,-999,skipped,,211213.39999997616,,,211206.39999997616,,211213.5,2021-11-03T20:05:49.011Z,211243.482,1635969724,full,ni_sequenzen,NI_Sequenzen,7,7,,,,,,,,,,,,
,Move,canvas.Screen,0_3_0_7_0_7,-999,skipped,,211215.69999992847,,,211206.39999997616,,211215.79999995232,2021-11-03T20:05:49.013Z,211243.482,1635969724,full,ni_sequenzen,NI_Sequenzen,8,7,,,,,,,,,,,,
,Move,canvas.Screen,0_3_0_7_0_8,-999,skipped,,211217.59999990463,,,211206.39999997616,,211217.69999992847,2021-11-03T20:05:49.015Z,211243.482,1635969724,full,ni_sequenzen,NI_Sequenzen,9,7,,,,,,,,,,,,
,Move,canvas.Screen,0_3_0_7_0_9,-999,skipped,,211219.5,,,211206.39999997616,,211219.59999990463,2021-11-03T20:05:49.017Z,211243.482,1635969724,full,ni_sequenzen,NI_Sequenzen,10,7,,,,,,,,,,,,
,Move,canvas.Screen,0_3_0_7_0_10,-999,skipped,,211222.29999995232,,,211206.39999997616,,211222.39999997616,2021-11-03T20:05:49.020Z,211243.482,1635969724,full,ni_sequenzen,NI_Sequenzen,11,7,,,,,,,,,,,,
,Move,canvas.Screen,0_3_0_7_0_11,-999,skipped,,211224.29999995232,,,211206.39999997616,,211224.29999995232,2021-11-03T20:05:49.021Z,211243.482,1635969724,full,ni_sequenzen,NI_Sequenzen,12,7,,,,,,,,,,,,
,Move,canvas.Screen,0_3_0_7_0_12,-999,skipped,,211226.19999992847,,,211206.39999997616,,211226.29999995232,2021-11-03T20:05:49.023Z,211243.482,1635969724,full,ni_sequenzen,NI_Sequenzen,13,7,,,,,,,,,,,,
,Move,canvas.Screen,0_3_0_7_0_13,-999,skipped,,211228.19999992847,,,211206.39999997616,,211228.19999992847,2021-11-03T20:05:49.025Z,211243.482,1635969724,full,ni_sequenzen,NI_Sequenzen,14,7,,,,,,,,,,,,
,Move,canvas.Screen,0_3_0_7_0_14,-999,skipped,,211230.39999997616,,,211206.39999997616,,211230.39999997616,2021-11-03T20:05:49.028Z,211243.482,1635969724,full,ni_sequenzen,NI_Sequenzen,15,7,,,,,,,,,,,,
,Loop,flow.Loop,0_3_0_7_0,-999,completion,,207126.59999990463,207132.399,207149.03,211206.39999997616,4057.3699999761593,211230.59999990463,2021-11-03T20:05:49.028Z,211243.482,1635969724,full,ni_sequenzen,NI_Sequenzen,,7,,,,,,,,,,,,
,Feedback,canvas.Screen,0_3_0_7_1,,timeout,,211232.09999990463,211227.002,211243.482,215221.448,3994.686000000016,215222.79999995232,2021-11-03T20:05:53.020Z,215238.168,1635969724,full,ni_sequenzen,NI_Sequenzen,,7,,,,,,,,,,,,
,Trial,flow.Sequence,0_3_0_7,,completion,,207116.69999992847,207132.399,207149.03,215221.448,8072.418000000005,215222.89999997616,2021-11-03T20:05:53.020Z,215254.714,1635969724,full,ni_sequenzen,NI_Sequenzen,,7,,,,,,,,,,,,
,Move,canvas.Screen,0_3_0_8_0_0,down,response,,215235,215238.168,215254.714,216575.89999997616,1321.185999976151,216576.39999997616,2021-11-03T20:05:54.374Z,216586.181,1635969724,full,ni_sequenzen,NI_Sequenzen,1,8,,,,,,,,,,,,
,Move,canvas.Screen,0_3_0_8_0_1,left,response,,216578.89999997616,216570.178,216586.181,217561.29999995232,975.1189999523049,217561.79999995232,2021-11-03T20:05:55.359Z,217568.15,1635969724,full,ni_sequenzen,NI_Sequenzen,2,8,,,,,,,,,,,,
,Move,canvas.Screen,0_3_0_8_0_2,down,response,,217564.59999990463,217552.04,217568.15,217951.09999990463,382.9499999046384,217951.5,2021-11-03T20:05:55.749Z,217967.667,1635969724,full,ni_sequenzen,NI_Sequenzen,3,8,,,,,,,,,,,,
,Move,canvas.Screen,0_3_0_8_0_3,left,response,,217954.09999990463,217951.297,217967.667,218237.59999990463,269.93299990464584,218238.09999990463,2021-11-03T20:05:56.035Z,218267.162,1635969724,full,ni_sequenzen,NI_Sequenzen,4,8,,,,,,,,,,,,
,Move,canvas.Screen,0_3_0_8_0_4,-999,skipped,,218241.09999990463,,,218237.59999990463,,218241.29999995232,2021-11-03T20:05:56.038Z,218267.162,1635969724,full,ni_sequenzen,NI_Sequenzen,5,8,,,,,,,,,,,,
,Move,canvas.Screen,0_3_0_8_0_5,-999,skipped,,218243.39999997616,,,218237.59999990463,,218243.5,2021-11-03T20:05:56.041Z,218267.162,1635969724,full,ni_sequenzen,NI_Sequenzen,6,8,,,,,,,,,,,,
,Move,canvas.Screen,0_3_0_8_0_6,-999,skipped,,218245.29999995232,,,218237.59999990463,,218245.29999995232,2021-11-03T20:05:56.043Z,218267.162,1635969724,full,ni_sequenzen,NI_Sequenzen,7,8,,,,,,,,,,,,
,Move,canvas.Screen,0_3_0_8_0_7,-999,skipped,,218247.39999997616,,,218237.59999990463,,218247.5,2021-11-03T20:05:56.045Z,218267.162,1635969724,full,ni_sequenzen,NI_Sequenzen,8,8,,,,,,,,,,,,
,Move,canvas.Screen,0_3_0_8_0_8,-999,skipped,,218249.79999995232,,,218237.59999990463,,218249.89999997616,2021-11-03T20:05:56.047Z,218267.162,1635969724,full,ni_sequenzen,NI_Sequenzen,9,8,,,,,,,,,,,,
,Move,canvas.Screen,0_3_0_8_0_9,-999,skipped,,218251.69999992847,,,218237.59999990463,,218251.69999992847,2021-11-03T20:05:56.049Z,218267.162,1635969724,full,ni_sequenzen,NI_Sequenzen,10,8,,,,,,,,,,,,
,Move,canvas.Screen,0_3_0_8_0_10,-999,skipped,,218253.59999990463,,,218237.59999990463,,218253.69999992847,2021-11-03T20:05:56.051Z,218267.162,1635969724,full,ni_sequenzen,NI_Sequenzen,11,8,,,,,,,,,,,,
