meta,sender,sender_type,sender_id,response,ended_on,instrCount,time_run,time_render,time_show,time_end,duration,time_commit,timestamp,time_switch,openLabId,type,task,project,move,trialN,blockN_Train,blockN,moveCount,currPP,points,movesTrial,visitedFields,diff,reward,Strategie,Zweck,Probleme
[object Object],Screen_1,canvas.Screen,0_0_0_0,cont,response,1,650,679.28,695.94,84842,84146.06,84864,2021-11-01T18:55:00.978Z,85049.96,1635792813,incremental,ni_sequenzen,NI_Sequenzen,,,,,,,,,,,,,,
,Screen_2,canvas.Screen,0_0_0_1,cont,response,1,85046,85045.8,85049.96,95577,10527.039999999994,95586,2021-11-01T18:55:11.700Z,95656.7,1635792813,incremental,ni_sequenzen,NI_Sequenzen,,,,,,,,,,,,,,
,Screen_3,canvas.Screen,0_0_0_2,cont,response,1,95654,95654.04,95656.7,106733,11076.300000000003,106751,2021-11-01T18:55:22.864Z,106757.14,1635792813,incremental,ni_sequenzen,NI_Sequenzen,,,,,,,,,,,,,,
,Screen_4,canvas.Screen,0_0_0_3,cont,response,1,106756,106756.9,106757.14,108842,2084.8600000000006,108858,2021-11-01T18:55:24.973Z,109077.38,1635792813,incremental,ni_sequenzen,NI_Sequenzen,,,,,,,,,,,,,,
,Sequence,flow.Sequence,0_0_0,,completion,1,561,679.28,695.94,108842,108146.06,108859,2021-11-01T18:55:24.974Z,109077.38,1635792813,incremental,ni_sequenzen,NI_Sequenzen,,,,,,,,,,,,,,
,Screen_1,canvas.Screen,0_0_1_0,,skipped,2,108865,,,108866,,108866,2021-11-01T18:55:24.981Z,109077.38,1635792813,incremental,ni_sequenzen,NI_Sequenzen,,,,,,,,,,,,,,
,Screen_2,canvas.Screen,0_0_1_1,,skipped,2,108871,,,108866,,108871,2021-11-01T18:55:24.986Z,109077.38,1635792813,incremental,ni_sequenzen,NI_Sequenzen,,,,,,,,,,,,,,
,Screen_3,canvas.Screen,0_0_1_2,,skipped,2,108875,,,108866,,108876,2021-11-01T18:55:24.990Z,109077.38,1635792813,incremental,ni_sequenzen,NI_Sequenzen,,,,,,,,,,,,,,
,Screen_4,canvas.Screen,0_0_1_3,,skipped,2,108879,,,108866,,108879,2021-11-01T18:55:24.993Z,109077.38,1635792813,incremental,ni_sequenzen,NI_Sequenzen,,,,,,,,,,,,,,
,Sequence,flow.Sequence,0_0_1,,completion,2,108861,,,108866,,108879,2021-11-01T18:55:24.994Z,109077.38,1635792813,incremental,ni_sequenzen,NI_Sequenzen,,,,,,,,,,,,,,
,Screen_1,canvas.Screen,0_0_2_0,,skipped,3,108882,,,108882,,108882,2021-11-01T18:55:24.996Z,109077.38,1635792813,incremental,ni_sequenzen,NI_Sequenzen,,,,,,,,,,,,,,
,Screen_2,canvas.Screen,0_0_2_1,,skipped,3,108886,,,108882,,108886,2021-11-01T18:55:25.000Z,109077.38,1635792813,incremental,ni_sequenzen,NI_Sequenzen,,,,,,,,,,,,,,
,Screen_3,canvas.Screen,0_0_2_2,,skipped,3,108888,,,108882,,108888,2021-11-01T18:55:25.002Z,109077.38,1635792813,incremental,ni_sequenzen,NI_Sequenzen,,,,,,,,,,,,,,
,Screen_4,canvas.Screen,0_0_2_3,,skipped,3,108889,,,108882,,108889,2021-11-01T18:55:25.004Z,109077.38,1635792813,incremental,ni_sequenzen,NI_Sequenzen,,,,,,,,,,,,,,
,Sequence,flow.Sequence,0_0_2,,completion,3,108880,,,108882,,108890,2021-11-01T18:55:25.004Z,109077.38,1635792813,incremental,ni_sequenzen,NI_Sequenzen,,,,,,,,,,,,,,
,Screen_1,canvas.Screen,0_0_3_0,,skipped,4,108892,,,108892,,108892,2021-11-01T18:55:25.007Z,109077.38,1635792813,incremental,ni_sequenzen,NI_Sequenzen,,,,,,,,,,,,,,
,Screen_2,canvas.Screen,0_0_3_1,,skipped,4,108893,,,108892,,108893,2021-11-01T18:55:25.008Z,109077.38,1635792813,incremental,ni_sequenzen,NI_Sequenzen,,,,,,,,,,,,,,
,Screen_3,canvas.Screen,0_0_3_2,,skipped,4,108895,,,108892,,108895,2021-11-01T18:55:25.009Z,109077.38,1635792813,incremental,ni_sequenzen,NI_Sequenzen,,,,,,,,,,,,,,
,Screen_4,canvas.Screen,0_0_3_3,,skipped,4,108896,,,108892,,108896,2021-11-01T18:55:25.011Z,109077.38,1635792813,incremental,ni_sequenzen,NI_Sequenzen,,,,,,,,,,,,,,
,Sequence,flow.Sequence,0_0_3,,completion,4,108891,,,108892,,108897,2021-11-01T18:55:25.011Z,109077.38,1635792813,incremental,ni_sequenzen,NI_Sequenzen,,,,,,,,,,,,,,
,Screen_1,canvas.Screen,0_0_4_0,,skipped,5,108898,,,108898,,108899,2021-11-01T18:55:25.013Z,109077.38,1635792813,incremental,ni_sequenzen,NI_Sequenzen,,,,,,,,,,,,,,
,Screen_2,canvas.Screen,0_0_4_1,,skipped,5,108900,,,108898,,108900,2021-11-01T18:55:25.015Z,109077.38,1635792813,incremental,ni_sequenzen,NI_Sequenzen,,,,,,,,,,,,,,
,Screen_3,canvas.Screen,0_0_4_2,,skipped,5,108902,,,108898,,108902,2021-11-01T18:55:25.016Z,109077.38,1635792813,incremental,ni_sequenzen,NI_Sequenzen,,,,,,,,,,,,,,
,Screen_4,canvas.Screen,0_0_4_3,,skipped,5,108903,,,108898,,108903,2021-11-01T18:55:25.017Z,109077.38,1635792813,incremental,ni_sequenzen,NI_Sequenzen,,,,,,,,,,,,,,
,Sequence,flow.Sequence,0_0_4,,completion,5,108897,,,108898,,108903,2021-11-01T18:55:25.018Z,109077.38,1635792813,incremental,ni_sequenzen,NI_Sequenzen,,,,,,,,,,,,,,
,Screen_1,canvas.Screen,0_0_5_0,,skipped,6,108905,,,108905,,108905,2021-11-01T18:55:25.019Z,109077.38,1635792813,incremental,ni_sequenzen,NI_Sequenzen,,,,,,,,,,,,,,
,Screen_2,canvas.Screen,0_0_5_1,,skipped,6,108906,,,108905,,108906,2021-11-01T18:55:25.020Z,109077.38,1635792813,incremental,ni_sequenzen,NI_Sequenzen,,,,,,,,,,,,,,
,Screen_3,canvas.Screen,0_0_5_2,,skipped,6,108907,,,108905,,108907,2021-11-01T18:55:25.021Z,109077.38,1635792813,incremental,ni_sequenzen,NI_Sequenzen,,,,,,,,,,,,,,
,Screen_4,canvas.Screen,0_0_5_3,,skipped,6,108908,,,108905,,108908,2021-11-01T18:55:25.023Z,109077.38,1635792813,incremental,ni_sequenzen,NI_Sequenzen,,,,,,,,,,,,,,
,Sequence,flow.Sequence,0_0_5,,completion,6,108904,,,108905,,108908,2021-11-01T18:55:25.023Z,109077.38,1635792813,incremental,ni_sequenzen,NI_Sequenzen,,,,,,,,,,,,,,
,Screen_1,canvas.Screen,0_0_6_0,,skipped,7,108911,,,108911,,108911,2021-11-01T18:55:25.025Z,109077.38,1635792813,incremental,ni_sequenzen,NI_Sequenzen,,,,,,,,,,,,,,
,Screen_2,canvas.Screen,0_0_6_1,,skipped,7,108912,,,108911,,108912,2021-11-01T18:55:25.026Z,109077.38,1635792813,incremental,ni_sequenzen,NI_Sequenzen,,,,,,,,,,,,,,
,Screen_3,canvas.Screen,0_0_6_2,,skipped,7,108913,,,108911,,108913,2021-11-01T18:55:25.027Z,109077.38,1635792813,incremental,ni_sequenzen,NI_Sequenzen,,,,,,,,,,,,,,
,Screen_4,canvas.Screen,0_0_6_3,,skipped,7,108914,,,108911,,108914,2021-11-01T18:55:25.028Z,109077.38,1635792813,incremental,ni_sequenzen,NI_Sequenzen,,,,,,,,,,,,,,
,Sequence,flow.Sequence,0_0_6,,completion,7,108909,,,108911,,108914,2021-11-01T18:55:25.028Z,109077.38,1635792813,incremental,ni_sequenzen,NI_Sequenzen,,,,,,,,,,,,,,
,Screen_1,canvas.Screen,0_0_7_0,,skipped,8,108915,,,108915,,108915,2021-11-01T18:55:25.030Z,109077.38,1635792813,incremental,ni_sequenzen,NI_Sequenzen,,,,,,,,,,,,,,
,Screen_2,canvas.Screen,0_0_7_1,,skipped,8,108917,,,108915,,108917,2021-11-01T18:55:25.031Z,109077.38,1635792813,incremental,ni_sequenzen,NI_Sequenzen,,,,,,,,,,,,,,
,Screen_3,canvas.Screen,0_0_7_2,,skipped,8,108918,,,108915,,108918,2021-11-01T18:55:25.032Z,109077.38,1635792813,incremental,ni_sequenzen,NI_Sequenzen,,,,,,,,,,,,,,
,Screen_4,canvas.Screen,0_0_7_3,,skipped,8,108919,,,108915,,108919,2021-11-01T18:55:25.034Z,109077.38,1635792813,incremental,ni_sequenzen,NI_Sequenzen,,,,,,,,,,,,,,
,Sequence,flow.Sequence,0_0_7,,completion,8,108914,,,108915,,108919,2021-11-01T18:55:25.034Z,109077.38,1635792813,incremental,ni_sequenzen,NI_Sequenzen,,,,,,,,,,,,,,
,Screen_1,canvas.Screen,0_0_8_0,,skipped,9,108921,,,108921,,108921,2021-11-01T18:55:25.036Z,109077.38,1635792813,incremental,ni_sequenzen,NI_Sequenzen,,,,,,,,,,,,,,
,Screen_2,canvas.Screen,0_0_8_1,,skipped,9,108922,,,108921,,108922,2021-11-01T18:55:25.037Z,109077.38,1635792813,incremental,ni_sequenzen,NI_Sequenzen,,,,,,,,,,,,,,
,Screen_3,canvas.Screen,0_0_8_2,,skipped,9,108923,,,108921,,108923,2021-11-01T18:55:25.037Z,109077.38,1635792813,incremental,ni_sequenzen,NI_Sequenzen,,,,,,,,,,,,,,
,Screen_4,canvas.Screen,0_0_8_3,,skipped,9,108924,,,108921,,108925,2021-11-01T18:55:25.039Z,109077.38,1635792813,incremental,ni_sequenzen,NI_Sequenzen,,,,,,,,,,,,,,
,Sequence,flow.Sequence,0_0_8,,completion,9,108920,,,108921,,108925,2021-11-01T18:55:25.039Z,109077.38,1635792813,incremental,ni_sequenzen,NI_Sequenzen,,,,,,,,,,,,,,
,Screen_1,canvas.Screen,0_0_9_0,,skipped,10,108927,,,108927,,108927,2021-11-01T18:55:25.041Z,109077.38,1635792813,incremental,ni_sequenzen,NI_Sequenzen,,,,,,,,,,,,,,
,Screen_2,canvas.Screen,0_0_9_1,,skipped,10,108928,,,108927,,108928,2021-11-01T18:55:25.042Z,109077.38,1635792813,incremental,ni_sequenzen,NI_Sequenzen,,,,,,,,,,,,,,
,Screen_3,canvas.Screen,0_0_9_2,,skipped,10,108929,,,108927,,108929,2021-11-01T18:55:25.044Z,109077.38,1635792813,incremental,ni_sequenzen,NI_Sequenzen,,,,,,,,,,,,,,
,Screen_4,canvas.Screen,0_0_9_3,,skipped,10,108930,,,108927,,108930,2021-11-01T18:55:25.045Z,109077.38,1635792813,incremental,ni_sequenzen,NI_Sequenzen,,,,,,,,,,,,,,
,Sequence,flow.Sequence,0_0_9,,completion,10,108925,,,108927,,108930,2021-11-01T18:55:25.045Z,109077.38,1635792813,incremental,ni_sequenzen,NI_Sequenzen,,,,,,,,,,,,,,
,Screen_1,canvas.Screen,0_0_10_0,,skipped,11,108932,,,108932,,108932,2021-11-01T18:55:25.046Z,109077.38,1635792813,incremental,ni_sequenzen,NI_Sequenzen,,,,,,,,,,,,,,
,Screen_2,canvas.Screen,0_0_10_1,,skipped,11,108933,,,108932,,108933,2021-11-01T18:55:25.048Z,109077.38,1635792813,incremental,ni_sequenzen,NI_Sequenzen,,,,,,,,,,,,,,
,Screen_3,canvas.Screen,0_0_10_2,,skipped,11,108935,,,108932,,108935,2021-11-01T18:55:25.049Z,109077.38,1635792813,incremental,ni_sequenzen,NI_Sequenzen,,,,,,,,,,,,,,
,Screen_4,canvas.Screen,0_0_10_3,,skipped,11,108936,,,108932,,108936,2021-11-01T18:55:25.051Z,109077.38,1635792813,incremental,ni_sequenzen,NI_Sequenzen,,,,,,,,,,,,,,
,Sequence,flow.Sequence,0_0_10,,completion,11,108931,,,108932,,108936,2021-11-01T18:55:25.051Z,109077.38,1635792813,incremental,ni_sequenzen,NI_Sequenzen,,,,,,,,,,,,,,
,Screen_1,canvas.Screen,0_0_11_0,,skipped,12,108938,,,108938,,108938,2021-11-01T18:55:25.052Z,109077.38,1635792813,incremental,ni_sequenzen,NI_Sequenzen,,,,,,,,,,,,,,
,Screen_2,canvas.Screen,0_0_11_1,,skipped,12,108939,,,108938,,108939,2021-11-01T18:55:25.053Z,109077.38,1635792813,incremental,ni_sequenzen,NI_Sequenzen,,,,,,,,,,,,,,
,Screen_3,canvas.Screen,0_0_11_2,,skipped,12,108940,,,108938,,108940,2021-11-01T18:55:25.054Z,109077.38,1635792813,incremental,ni_sequenzen,NI_Sequenzen,,,,,,,,,,,,,,
,Screen_4,canvas.Screen,0_0_11_3,,skipped,12,108941,,,108938,,108941,2021-11-01T18:55:25.055Z,109077.38,1635792813,incremental,ni_sequenzen,NI_Sequenzen,,,,,,,,,,,,,,
,Sequence,flow.Sequence,0_0_11,,completion,12,108937,,,108938,,108941,2021-11-01T18:55:25.055Z,109077.38,1635792813,incremental,ni_sequenzen,NI_Sequenzen,,,,,,,,,,,,,,
,Screen_1,canvas.Screen,0_0_12_0,,skipped,13,108943,,,108943,,108943,2021-11-01T18:55:25.058Z,109077.38,1635792813,incremental,ni_sequenzen,NI_Sequenzen,,,,,,,,,,,,,,
,Screen_2,canvas.Screen,0_0_12_1,,skipped,13,108944,,,108943,,108944,2021-11-01T18:55:25.058Z,109077.38,1635792813,incremental,ni_sequenzen,NI_Sequenzen,,,,,,,,,,,,,,
,Screen_3,canvas.Screen,0_0_12_2,,skipped,13,108945,,,108943,,108945,2021-11-01T18:55:25.060Z,109077.38,1635792813,incremental,ni_sequenzen,NI_Sequenzen,,,,,,,,,,,,,,
,Screen_4,canvas.Screen,0_0_12_3,,skipped,13,108946,,,108943,,108946,2021-11-01T18:55:25.061Z,109077.38,1635792813,incremental,ni_sequenzen,NI_Sequenzen,,,,,,,,,,,,,,
,Sequence,flow.Sequence,0_0_12,,completion,13,108942,,,108943,,108946,2021-11-01T18:55:25.061Z,109077.38,1635792813,incremental,ni_sequenzen,NI_Sequenzen,,,,,,,,,,,,,,
,Screen_1,canvas.Screen,0_0_13_0,,skipped,14,108948,,,108948,,108948,2021-11-01T18:55:25.062Z,109077.38,1635792813,incremental,ni_sequenzen,NI_Sequenzen,,,,,,,,,,,,,,
,Screen_2,canvas.Screen,0_0_13_1,,skipped,14,108949,,,108948,,108949,2021-11-01T18:55:25.063Z,109077.38,1635792813,incremental,ni_sequenzen,NI_Sequenzen,,,,,,,,,,,,,,
,Screen_3,canvas.Screen,0_0_13_2,,skipped,14,108950,,,108948,,108950,2021-11-01T18:55:25.065Z,109077.38,1635792813,incremental,ni_sequenzen,NI_Sequenzen,,,,,,,,,,,,,,
,Screen_4,canvas.Screen,0_0_13_3,,skipped,14,108952,,,108948,,108952,2021-11-01T18:55:25.066Z,109077.38,1635792813,incremental,ni_sequenzen,NI_Sequenzen,,,,,,,,,,,,,,
,Sequence,flow.Sequence,0_0_13,,completion,14,108946,,,108948,,108952,2021-11-01T18:55:25.066Z,109077.38,1635792813,incremental,ni_sequenzen,NI_Sequenzen,,,,,,,,,,,,,,
,Screen_1,canvas.Screen,0_0_14_0,,skipped,15,108953,,,108953,,108953,2021-11-01T18:55:25.067Z,109077.38,1635792813,incremental,ni_sequenzen,NI_Sequenzen,,,,,,,,,,,,,,
,Screen_2,canvas.Screen,0_0_14_1,,skipped,15,108954,,,108953,,108954,2021-11-01T18:55:25.068Z,109077.38,1635792813,incremental,ni_sequenzen,NI_Sequenzen,,,,,,,,,,,,,,
,Screen_3,canvas.Screen,0_0_14_2,,skipped,15,108955,,,108953,,108955,2021-11-01T18:55:25.069Z,109077.38,1635792813,incremental,ni_sequenzen,NI_Sequenzen,,,,,,,,,,,,,,
,Screen_4,canvas.Screen,0_0_14_3,,skipped,15,108956,,,108953,,108956,2021-11-01T18:55:25.071Z,109077.38,1635792813,incremental,ni_sequenzen,NI_Sequenzen,,,,,,,,,,,,,,
,Sequence,flow.Sequence,0_0_14,,completion,15,108952,,,108953,,108956,2021-11-01T18:55:25.071Z,109077.38,1635792813,incremental,ni_sequenzen,NI_Sequenzen,,,,,,,,,,,,,,
,Screen_1,canvas.Screen,0_0_15_0,,skipped,16,108957,,,108957,,108957,2021-11-01T18:55:25.072Z,109077.38,1635792813,incremental,ni_sequenzen,NI_Sequenzen,,,,,,,,,,,,,,
,Screen_2,canvas.Screen,0_0_15_1,,skipped,16,108959,,,108957,,108959,2021-11-01T18:55:25.073Z,109077.38,1635792813,incremental,ni_sequenzen,NI_Sequenzen,,,,,,,,,,,,,,
,Screen_3,canvas.Screen,0_0_15_2,,skipped,16,108960,,,108957,,108960,2021-11-01T18:55:25.074Z,109077.38,1635792813,incremental,ni_sequenzen,NI_Sequenzen,,,,,,,,,,,,,,
,Screen_4,canvas.Screen,0_0_15_3,,skipped,16,108961,,,108957,,108961,2021-11-01T18:55:25.075Z,109077.38,1635792813,incremental,ni_sequenzen,NI_Sequenzen,,,,,,,,,,,,,,
,Sequence,flow.Sequence,0_0_15,,completion,16,108956,,,108957,,108961,2021-11-01T18:55:25.076Z,109077.38,1635792813,incremental,ni_sequenzen,NI_Sequenzen,,,,,,,,,,,,,,
,Screen_1,canvas.Screen,0_0_16_0,,skipped,17,108962,,,108962,,108962,2021-11-01T18:55:25.077Z,109077.38,1635792813,incremental,ni_sequenzen,NI_Sequenzen,,,,,,,,,,,,,,
,Screen_2,canvas.Screen,0_0_16_1,,skipped,17,108963,,,108962,,108963,2021-11-01T18:55:25.078Z,109077.38,1635792813,incremental,ni_sequenzen,NI_Sequenzen,,,,,,,,,,,,,,
,Screen_3,canvas.Screen,0_0_16_2,,skipped,17,108964,,,108962,,108964,2021-11-01T18:55:25.079Z,109077.38,1635792813,incremental,ni_sequenzen,NI_Sequenzen,,,,,,,,,,,,,,
,Screen_4,canvas.Screen,0_0_16_3,,skipped,17,108965,,,108962,,108965,2021-11-01T18:55:25.080Z,109077.38,1635792813,incremental,ni_sequenzen,NI_Sequenzen,,,,,,,,,,,,,,
,Sequence,flow.Sequence,0_0_16,,completion,17,108962,,,108962,,108966,2021-11-01T18:55:25.080Z,109077.38,1635792813,incremental,ni_sequenzen,NI_Sequenzen,,,,,,,,,,,,,,
,Screen_1,canvas.Screen,0_0_17_0,,skipped,18,108967,,,108967,,108967,2021-11-01T18:55:25.082Z,109077.38,1635792813,incremental,ni_sequenzen,NI_Sequenzen,,,,,,,,,,,,,,
,Screen_2,canvas.Screen,0_0_17_1,,skipped,18,108968,,,108967,,108968,2021-11-01T18:55:25.082Z,109077.38,1635792813,incremental,ni_sequenzen,NI_Sequenzen,,,,,,,,,,,,,,
,Screen_3,canvas.Screen,0_0_17_2,,skipped,18,108969,,,108967,,108969,2021-11-01T18:55:25.084Z,109077.38,1635792813,incremental,ni_sequenzen,NI_Sequenzen,,,,,,,,,,,,,,
,Screen_4,canvas.Screen,0_0_17_3,,skipped,18,108970,,,108967,,108970,2021-11-01T18:55:25.085Z,109077.38,1635792813,incremental,ni_sequenzen,NI_Sequenzen,,,,,,,,,,,,,,
,Sequence,flow.Sequence,0_0_17,,completion,18,108966,,,108967,,108970,2021-11-01T18:55:25.085Z,109077.38,1635792813,incremental,ni_sequenzen,NI_Sequenzen,,,,,,,,,,,,,,
,Screen_1,canvas.Screen,0_0_18_0,,skipped,19,108972,,,108972,,108972,2021-11-01T18:55:25.087Z,109077.38,1635792813,incremental,ni_sequenzen,NI_Sequenzen,,,,,,,,,,,,,,
,Screen_2,canvas.Screen,0_0_18_1,,skipped,19,108974,,,108972,,108974,2021-11-01T18:55:25.088Z,109077.38,1635792813,incremental,ni_sequenzen,NI_Sequenzen,,,,,,,,,,,,,,
,Screen_3,canvas.Screen,0_0_18_2,,skipped,19,108975,,,108972,,108975,2021-11-01T18:55:25.090Z,109077.38,1635792813,incremental,ni_sequenzen,NI_Sequenzen,,,,,,,,,,,,,,
,Screen_4,canvas.Screen,0_0_18_3,,skipped,19,108976,,,108972,,108976,2021-11-01T18:55:25.091Z,109077.38,1635792813,incremental,ni_sequenzen,NI_Sequenzen,,,,,,,,,,,,,,
,Sequence,flow.Sequence,0_0_18,,completion,19,108971,,,108972,,108976,2021-11-01T18:55:25.091Z,109077.38,1635792813,incremental,ni_sequenzen,NI_Sequenzen,,,,,,,,,,,,,,
,Screen_1,canvas.Screen,0_0_19_0,,skipped,20,108978,,,108978,,108978,2021-11-01T18:55:25.092Z,109077.38,1635792813,incremental,ni_sequenzen,NI_Sequenzen,,,,,,,,,,,,,,
,Screen_2,canvas.Screen,0_0_19_1,,skipped,20,108979,,,108978,,108979,2021-11-01T18:55:25.093Z,109077.38,1635792813,incremental,ni_sequenzen,NI_Sequenzen,,,,,,,,,,,,,,
,Screen_3,canvas.Screen,0_0_19_2,,skipped,20,108980,,,108978,,108980,2021-11-01T18:55:25.094Z,109077.38,1635792813,incremental,ni_sequenzen,NI_Sequenzen,,,,,,,,,,,,,,
,Screen_4,canvas.Screen,0_0_19_3,,skipped,20,108981,,,108978,,108981,2021-11-01T18:55:25.095Z,109077.38,1635792813,incremental,ni_sequenzen,NI_Sequenzen,,,,,,,,,,,,,,
,Sequence,flow.Sequence,0_0_19,,completion,20,108977,,,108978,,108981,2021-11-01T18:55:25.095Z,109077.38,1635792813,incremental,ni_sequenzen,NI_Sequenzen,,,,,,,,,,,,,,
,Instructions_I,flow.Loop,0_0,,completion,,559,679.28,695.94,108978,108282.06,108981,2021-11-01T18:55:25.095Z,109077.38,1635792813,incremental,ni_sequenzen,NI_Sequenzen,,,,,,,,,,,,,,
,Move,canvas.Screen,0_1_0_0,down,response,,109063,109063.34,109077.38,110952,1874.6199999999953,110964,2021-11-01T18:55:27.078Z,110970.84,1635792813,incremental,ni_sequenzen,NI_Sequenzen,1,,,,,,,,,,,,,
,Move,canvas.Screen,0_1_0_1,down,response,,110970,110970.34,110970.84,111780,809.1600000000035,111787,2021-11-01T18:55:27.902Z,111796.7,1635792813,incremental,ni_sequenzen,NI_Sequenzen,2,,,,,,,,,,,,,
,Move,canvas.Screen,0_1_0_2,down,response,,111797,111796.5,111796.7,113686,1889.300000000003,113699,2021-11-01T18:55:29.813Z,113714.28,1635792813,incremental,ni_sequenzen,NI_Sequenzen,3,,,,,,,,,,,,,
,Move,canvas.Screen,0_1_0_3,right,response,,113714,113713.76,113714.28,115172,1457.7200000000012,115182,2021-11-01T18:55:31.297Z,115197.54,1635792813,incremental,ni_sequenzen,NI_Sequenzen,4,,,,,,,,,,,,,
,Move,canvas.Screen,0_1_0_4,right,response,,115197,115197.12,115197.54,115655,457.4600000000064,115671,2021-11-01T18:55:31.785Z,115679.34,1635792813,incremental,ni_sequenzen,NI_Sequenzen,5,,,,,,,,,,,,,
,Move,canvas.Screen,0_1_0_5,left,response,,115679,115679.02,115679.34,116155,475.6600000000035,116174,2021-11-01T18:55:32.288Z,116187.54,1635792813,incremental,ni_sequenzen,NI_Sequenzen,6,,,,,,,,,,,,,
,Move,canvas.Screen,0_1_0_6,left,response,,116179,116179.02,116187.54,116452,264.4600000000064,116470,2021-11-01T18:55:32.585Z,116484.34,1635792813,incremental,ni_sequenzen,NI_Sequenzen,7,,,,,,,,,,,,,
,Move,canvas.Screen,0_1_0_7,down,response,,116484,116483.74,116484.34,116921,436.6600000000035,116936,2021-11-01T18:55:33.050Z,116942.98,1635792813,incremental,ni_sequenzen,NI_Sequenzen,8,,,,,,,,,,,,,
,Move,canvas.Screen,0_1_0_8,down,response,,116942,116942.28,116942.98,117202,259.0200000000041,117234,2021-11-01T18:55:33.348Z,117237.66,1635792813,incremental,ni_sequenzen,NI_Sequenzen,9,,,,,,,,,,,,,
,Move,canvas.Screen,0_1_0_9,left,response,,117237,117237.48,117237.66,117639,401.3399999999965,117647,2021-11-01T18:55:33.761Z,117656.24,1635792813,incremental,ni_sequenzen,NI_Sequenzen,10,,,,,,,,,,,,,
,Move,canvas.Screen,0_1_0_10,left,response,,117656,117656.02,117656.24,118014,357.75999999999476,118025,2021-11-01T18:55:34.139Z,118033.26,1635792813,incremental,ni_sequenzen,NI_Sequenzen,11,,,,,,,,,,,,,
,Move,canvas.Screen,0_1_0_11,down,response,,118033,118032.88,118033.26,118358,324.74000000000524,118363,2021-11-01T18:55:34.478Z,118371.52,1635792813,incremental,ni_sequenzen,NI_Sequenzen,12,,,,,,,,,,,,,
,Move,canvas.Screen,0_1_0_12,right,response,,118371,118370.62,118371.52,118750,378.4799999999959,118762,2021-11-01T18:55:34.876Z,118767.98,1635792813,incremental,ni_sequenzen,NI_Sequenzen,13,,,,,,,,,,,,,
,Move,canvas.Screen,0_1_0_13,down,response,,118768,118767.62,118767.98,119092,324.0200000000041,119112,2021-11-01T18:55:35.227Z,119124.04,1635792813,incremental,ni_sequenzen,NI_Sequenzen,14,,,,,,,,,,,,,
,Move,canvas.Screen,0_1_0_14,down,response,,119124,119123.5,119124.04,119374,249.9600000000064,119386,2021-11-01T18:55:35.500Z,119392.94,1635792813,incremental,ni_sequenzen,NI_Sequenzen,15,,,,,,,,,,,,,
,Move,canvas.Screen,0_1_0_15,down,response,,119393,119392.74,119392.94,119561,168.05999999999767,119573,2021-11-01T18:55:35.687Z,119584.24,1635792813,incremental,ni_sequenzen,NI_Sequenzen,16,,,,,,,,,,,,,
,Move,canvas.Screen,0_1_0_16,right,response,,119583,119582.88,119584.24,119858,273.75999999999476,119873,2021-11-01T18:55:35.988Z,119880.56,1635792813,incremental,ni_sequenzen,NI_Sequenzen,17,,,,,,,,,,,,,
,Move,canvas.Screen,0_1_0_17,right,response,,119880,119880.28,119880.56,120061,180.44000000000233,120069,2021-11-01T18:55:36.184Z,120083.72,1635792813,incremental,ni_sequenzen,NI_Sequenzen,18,,,,,,,,,,,,,
,Move,canvas.Screen,0_1_0_18,down,response,,120081,120081.24,120083.72,120327,243.27999999999884,120346,2021-11-01T18:55:36.460Z,120352.6,1635792813,incremental,ni_sequenzen,NI_Sequenzen,19,,,,,,,,,,,,,
,Move,canvas.Screen,0_1_0_19,down,response,,120352,120352.34,120352.6,120530,177.39999999999418,120546,2021-11-01T18:55:36.660Z,120566.6,1635792813,incremental,ni_sequenzen,NI_Sequenzen,20,,,,,,,,,,,,,
,Move,canvas.Screen,0_1_0_20,down,response,,120557,120556.96,120566.6,120796,229.39999999999418,120805,2021-11-01T18:55:36.919Z,120809.06,1635792813,incremental,ni_sequenzen,NI_Sequenzen,21,,,,,,,,,,,,,
,Move,canvas.Screen,0_1_0_21,right,response,,120808,120807.8,120809.06,121077,267.9400000000023,121092,2021-11-01T18:55:37.207Z,121099.46,1635792813,incremental,ni_sequenzen,NI_Sequenzen,22,,,,,,,,,,,,,
,Move,canvas.Screen,0_1_0_22,right,response,,121099,121099.2,121099.46,121327,227.5399999999936,121344,2021-11-01T18:55:37.459Z,121353.46,1635792813,incremental,ni_sequenzen,NI_Sequenzen,23,,,,,,,,,,,,,
,Move,canvas.Screen,0_1_0_23,right,response,,121353,121353.14,121353.46,121561,207.5399999999936,121573,2021-11-01T18:55:37.688Z,121582.16,1635792813,incremental,ni_sequenzen,NI_Sequenzen,24,,,,,,,,,,,,,
,Move,canvas.Screen,0_1_0_24,left,response,,121582,121581.98,121582.16,121967,384.8399999999965,121983,2021-11-01T18:55:38.098Z,121991.26,1635792813,incremental,ni_sequenzen,NI_Sequenzen,25,,,,,,,,,,,,,
,Move,canvas.Screen,0_1_0_25,left,response,,121991,121990.92,121991.26,122217,225.74000000000524,122227,2021-11-01T18:55:38.341Z,122236.02,1635792813,incremental,ni_sequenzen,NI_Sequenzen,26,,,,,,,,,,,,,
,Move,canvas.Screen,0_1_0_26,left,response,,122236,122235.8,122236.02,122499,262.9799999999959,122513,2021-11-01T18:55:38.627Z,122523.54,1635792813,incremental,ni_sequenzen,NI_Sequenzen,27,,,,,,,,,,,,,
,Move,canvas.Screen,0_1_0_27,down,response,,122523,122523.1,122523.54,122842,318.4600000000064,122856,2021-11-01T18:55:38.970Z,122859.56,1635792813,incremental,ni_sequenzen,NI_Sequenzen,28,,,,,,,,,,,,,
,Move,canvas.Screen,0_1_0_28,down,response,,122859,122859.4,122859.56,123077,217.44000000000233,123087,2021-11-01T18:55:39.201Z,123089.38,1635792813,incremental,ni_sequenzen,NI_Sequenzen,29,,,,,,,,,,,,,
,Move,canvas.Screen,0_1_0_29,down,response,,123089,123089.12,123089.38,123311,221.61999999999534,123319,2021-11-01T18:55:39.434Z,123374.14,1635792813,incremental,ni_sequenzen,NI_Sequenzen,30,,,,,,,,,,,,,
,Loop,flow.Loop,0_1_0,-999,completion,,108992,109063.34,109077.38,123311,14233.619999999995,123320,2021-11-01T18:55:39.434Z,123374.14,1635792813,incremental,ni_sequenzen,NI_Sequenzen,,,,,,,,,,,,,,
,Training_I,flow.Sequence,0_1,,completion,,108981,109063.34,109077.38,123311,14233.619999999995,123321,2021-11-01T18:55:39.435Z,123374.14,1635792813,incremental,ni_sequenzen,NI_Sequenzen,,,,,,,,,,,,,,
,Screen_1,canvas.Screen,0_2_0_0,cont,response,1,123374,123373.84,123374.14,146733,23358.86,146752,2021-11-01T18:56:02.866Z,146859.36,1635792813,incremental,ni_sequenzen,NI_Sequenzen,,,,,,,,,,,,,,
,Screen_2,canvas.Screen,0_2_0_1,cont,response,1,146859,146858.88,146859.36,149702,2842.640000000014,149714,2021-11-01T18:56:05.828Z,149720.08,1635792813,incremental,ni_sequenzen,NI_Sequenzen,,,,,,,,,,,,,,
,Screen_3,canvas.Screen,0_2_0_2,cont,response,1,149719,149719.8,149720.08,150858,1137.9200000000128,150864,2021-11-01T18:56:06.979Z,150954.7,1635792813,incremental,ni_sequenzen,NI_Sequenzen,,,,,,,,,,,,,,
,Screen_4,canvas.Screen,0_2_0_3,cont,response,1,150949,150948.88,150954.7,155249,4294.299999999988,155270,2021-11-01T18:56:11.384Z,155275.18,1635792813,incremental,ni_sequenzen,NI_Sequenzen,,,,,,,,,,,,,,
,Screen_5,canvas.Screen,0_2_0_4,cont,response,1,155275,155274.94,155275.18,158358,3082.820000000007,158380,2021-11-01T18:56:14.494Z,158530.88,1635792813,incremental,ni_sequenzen,NI_Sequenzen,,,,,,,,,,,,,,
,Screen_6,canvas.Screen,0_2_0_5,cont,response,1,158522,158521.72,158530.88,162077,3546.1199999999953,162097,2021-11-01T18:56:18.212Z,162335.8,1635792813,incremental,ni_sequenzen,NI_Sequenzen,,,,,,,,,,,,,,
,Sequence,flow.Sequence,0_2_0,,completion,1,123372,123373.84,123374.14,162077,38702.86,162098,2021-11-01T18:56:18.213Z,162335.8,1635792813,incremental,ni_sequenzen,NI_Sequenzen,,,,,,,,,,,,,,
,Screen_1,canvas.Screen,0_2_1_0,,skipped,2,162107,,,162107,,162107,2021-11-01T18:56:18.222Z,162335.8,1635792813,incremental,ni_sequenzen,NI_Sequenzen,,,,,,,,,,,,,,
,Screen_2,canvas.Screen,0_2_1_1,,skipped,2,162111,,,162107,,162111,2021-11-01T18:56:18.225Z,162335.8,1635792813,incremental,ni_sequenzen,NI_Sequenzen,,,,,,,,,,,,,,
,Screen_3,canvas.Screen,0_2_1_2,,skipped,2,162113,,,162107,,162113,2021-11-01T18:56:18.228Z,162335.8,1635792813,incremental,ni_sequenzen,NI_Sequenzen,,,,,,,,,,,,,,
,Screen_4,canvas.Screen,0_2_1_3,,skipped,2,162116,,,162107,,162116,2021-11-01T18:56:18.231Z,162335.8,1635792813,incremental,ni_sequenzen,NI_Sequenzen,,,,,,,,,,,,,,
,Screen_5,canvas.Screen,0_2_1_4,,skipped,2,162119,,,162107,,162119,2021-11-01T18:56:18.234Z,162335.8,1635792813,incremental,ni_sequenzen,NI_Sequenzen,,,,,,,,,,,,,,
,Screen_6,canvas.Screen,0_2_1_5,,skipped,2,162122,,,162107,,162122,2021-11-01T18:56:18.236Z,162335.8,1635792813,incremental,ni_sequenzen,NI_Sequenzen,,,,,,,,,,,,,,
,Sequence,flow.Sequence,0_2_1,,completion,2,162101,,,162107,,162122,2021-11-01T18:56:18.237Z,162335.8,1635792813,incremental,ni_sequenzen,NI_Sequenzen,,,,,,,,,,,,,,
,Screen_1,canvas.Screen,0_2_2_0,,skipped,3,162125,,,162125,,162125,2021-11-01T18:56:18.239Z,162335.8,1635792813,incremental,ni_sequenzen,NI_Sequenzen,,,,,,,,,,,,,,
,Screen_2,canvas.Screen,0_2_2_1,,skipped,3,162126,,,162125,,162126,2021-11-01T18:56:18.240Z,162335.8,1635792813,incremental,ni_sequenzen,NI_Sequenzen,,,,,,,,,,,,,,
,Screen_3,canvas.Screen,0_2_2_2,,skipped,3,162128,,,162125,,162128,2021-11-01T18:56:18.242Z,162335.8,1635792813,incremental,ni_sequenzen,NI_Sequenzen,,,,,,,,,,,,,,
,Screen_4,canvas.Screen,0_2_2_3,,skipped,3,162129,,,162125,,162129,2021-11-01T18:56:18.243Z,162335.8,1635792813,incremental,ni_sequenzen,NI_Sequenzen,,,,,,,,,,,,,,
,Screen_5,canvas.Screen,0_2_2_4,,skipped,3,162130,,,162125,,162130,2021-11-01T18:56:18.245Z,162335.8,1635792813,incremental,ni_sequenzen,NI_Sequenzen,,,,,,,,,,,,,,
,Screen_6,canvas.Screen,0_2_2_5,,skipped,3,162132,,,162125,,162132,2021-11-01T18:56:18.246Z,162335.8,1635792813,incremental,ni_sequenzen,NI_Sequenzen,,,,,,,,,,,,,,
,Sequence,flow.Sequence,0_2_2,,completion,3,162123,,,162125,,162132,2021-11-01T18:56:18.246Z,162335.8,1635792813,incremental,ni_sequenzen,NI_Sequenzen,,,,,,,,,,,,,,
,Screen_1,canvas.Screen,0_2_3_0,,skipped,4,162134,,,162134,,162134,2021-11-01T18:56:18.248Z,162335.8,1635792813,incremental,ni_sequenzen,NI_Sequenzen,,,,,,,,,,,,,,
,Screen_2,canvas.Screen,0_2_3_1,,skipped,4,162135,,,162134,,162135,2021-11-01T18:56:18.249Z,162335.8,1635792813,incremental,ni_sequenzen,NI_Sequenzen,,,,,,,,,,,,,,
,Screen_3,canvas.Screen,0_2_3_2,,skipped,4,162136,,,162134,,162136,2021-11-01T18:56:18.251Z,162335.8,1635792813,incremental,ni_sequenzen,NI_Sequenzen,,,,,,,,,,,,,,
,Screen_4,canvas.Screen,0_2_3_3,,skipped,4,162137,,,162134,,162137,2021-11-01T18:56:18.252Z,162335.8,1635792813,incremental,ni_sequenzen,NI_Sequenzen,,,,,,,,,,,,,,
,Screen_5,canvas.Screen,0_2_3_4,,skipped,4,162138,,,162134,,162138,2021-11-01T18:56:18.253Z,162335.8,1635792813,incremental,ni_sequenzen,NI_Sequenzen,,,,,,,,,,,,,,
,Screen_6,canvas.Screen,0_2_3_5,,skipped,4,162139,,,162134,,162139,2021-11-01T18:56:18.254Z,162335.8,1635792813,incremental,ni_sequenzen,NI_Sequenzen,,,,,,,,,,,,,,
,Sequence,flow.Sequence,0_2_3,,completion,4,162133,,,162134,,162139,2021-11-01T18:56:18.255Z,162335.8,1635792813,incremental,ni_sequenzen,NI_Sequenzen,,,,,,,,,,,,,,
,Screen_1,canvas.Screen,0_2_4_0,,skipped,5,162141,,,162141,,162141,2021-11-01T18:56:18.256Z,162335.8,1635792813,incremental,ni_sequenzen,NI_Sequenzen,,,,,,,,,,,,,,
,Screen_2,canvas.Screen,0_2_4_1,,skipped,5,162142,,,162141,,162142,2021-11-01T18:56:18.257Z,162335.8,1635792813,incremental,ni_sequenzen,NI_Sequenzen,,,,,,,,,,,,,,
,Screen_3,canvas.Screen,0_2_4_2,,skipped,5,162143,,,162141,,162144,2021-11-01T18:56:18.258Z,162335.8,1635792813,incremental,ni_sequenzen,NI_Sequenzen,,,,,,,,,,,,,,
,Screen_4,canvas.Screen,0_2_4_3,,skipped,5,162145,,,162141,,162145,2021-11-01T18:56:18.259Z,162335.8,1635792813,incremental,ni_sequenzen,NI_Sequenzen,,,,,,,,,,,,,,
,Screen_5,canvas.Screen,0_2_4_4,,skipped,5,162145,,,162141,,162145,2021-11-01T18:56:18.261Z,162335.8,1635792813,incremental,ni_sequenzen,NI_Sequenzen,,,,,,,,,,,,,,
,Screen_6,canvas.Screen,0_2_4_5,,skipped,5,162146,,,162141,,162146,2021-11-01T18:56:18.262Z,162335.8,1635792813,incremental,ni_sequenzen,NI_Sequenzen,,,,,,,,,,,,,,
,Sequence,flow.Sequence,0_2_4,,completion,5,162140,,,162141,,162147,2021-11-01T18:56:18.262Z,162335.8,1635792813,incremental,ni_sequenzen,NI_Sequenzen,,,,,,,,,,,,,,
,Screen_1,canvas.Screen,0_2_5_0,,skipped,6,162148,,,162148,,162148,2021-11-01T18:56:18.263Z,162335.8,1635792813,incremental,ni_sequenzen,NI_Sequenzen,,,,,,,,,,,,,,
,Screen_2,canvas.Screen,0_2_5_1,,skipped,6,162149,,,162148,,162149,2021-11-01T18:56:18.264Z,162335.8,1635792813,incremental,ni_sequenzen,NI_Sequenzen,,,,,,,,,,,,,,
,Screen_3,canvas.Screen,0_2_5_2,,skipped,6,162150,,,162148,,162150,2021-11-01T18:56:18.265Z,162335.8,1635792813,incremental,ni_sequenzen,NI_Sequenzen,,,,,,,,,,,,,,
,Screen_4,canvas.Screen,0_2_5_3,,skipped,6,162151,,,162148,,162151,2021-11-01T18:56:18.266Z,162335.8,1635792813,incremental,ni_sequenzen,NI_Sequenzen,,,,,,,,,,,,,,
,Screen_5,canvas.Screen,0_2_5_4,,skipped,6,162153,,,162148,,162153,2021-11-01T18:56:18.267Z,162335.8,1635792813,incremental,ni_sequenzen,NI_Sequenzen,,,,,,,,,,,,,,
,Screen_6,canvas.Screen,0_2_5_5,,skipped,6,162154,,,162148,,162154,2021-11-01T18:56:18.269Z,162335.8,1635792813,incremental,ni_sequenzen,NI_Sequenzen,,,,,,,,,,,,,,
,Sequence,flow.Sequence,0_2_5,,completion,6,162147,,,162148,,162154,2021-11-01T18:56:18.269Z,162335.8,1635792813,incremental,ni_sequenzen,NI_Sequenzen,,,,,,,,,,,,,,
,Screen_1,canvas.Screen,0_2_6_0,,skipped,7,162156,,,162156,,162156,2021-11-01T18:56:18.271Z,162335.8,1635792813,incremental,ni_sequenzen,NI_Sequenzen,,,,,,,,,,,,,,
,Screen_2,canvas.Screen,0_2_6_1,,skipped,7,162157,,,162156,,162157,2021-11-01T18:56:18.272Z,162335.8,1635792813,incremental,ni_sequenzen,NI_Sequenzen,,,,,,,,,,,,,,
,Screen_3,canvas.Screen,0_2_6_2,,skipped,7,162159,,,162156,,162159,2021-11-01T18:56:18.273Z,162335.8,1635792813,incremental,ni_sequenzen,NI_Sequenzen,,,,,,,,,,,,,,
,Screen_4,canvas.Screen,0_2_6_3,,skipped,7,162159,,,162156,,162159,2021-11-01T18:56:18.274Z,162335.8,1635792813,incremental,ni_sequenzen,NI_Sequenzen,,,,,,,,,,,,,,
,Screen_5,canvas.Screen,0_2_6_4,,skipped,7,162160,,,162156,,162160,2021-11-01T18:56:18.275Z,162335.8,1635792813,incremental,ni_sequenzen,NI_Sequenzen,,,,,,,,,,,,,,
,Screen_6,canvas.Screen,0_2_6_5,,skipped,7,162161,,,162156,,162161,2021-11-01T18:56:18.276Z,162335.8,1635792813,incremental,ni_sequenzen,NI_Sequenzen,,,,,,,,,,,,,,
,Sequence,flow.Sequence,0_2_6,,completion,7,162155,,,162156,,162162,2021-11-01T18:56:18.276Z,162335.8,1635792813,incremental,ni_sequenzen,NI_Sequenzen,,,,,,,,,,,,,,
,Screen_1,canvas.Screen,0_2_7_0,,skipped,8,162163,,,162163,,162163,2021-11-01T18:56:18.278Z,162335.8,1635792813,incremental,ni_sequenzen,NI_Sequenzen,,,,,,,,,,,,,,
,Screen_2,canvas.Screen,0_2_7_1,,skipped,8,162164,,,162163,,162164,2021-11-01T18:56:18.279Z,162335.8,1635792813,incremental,ni_sequenzen,NI_Sequenzen,,,,,,,,,,,,,,
,Screen_3,canvas.Screen,0_2_7_2,,skipped,8,162165,,,162163,,162165,2021-11-01T18:56:18.280Z,162335.8,1635792813,incremental,ni_sequenzen,NI_Sequenzen,,,,,,,,,,,,,,
,Screen_4,canvas.Screen,0_2_7_3,,skipped,8,162166,,,162163,,162166,2021-11-01T18:56:18.281Z,162335.8,1635792813,incremental,ni_sequenzen,NI_Sequenzen,,,,,,,,,,,,,,
,Screen_5,canvas.Screen,0_2_7_4,,skipped,8,162167,,,162163,,162167,2021-11-01T18:56:18.282Z,162335.8,1635792813,incremental,ni_sequenzen,NI_Sequenzen,,,,,,,,,,,,,,
,Screen_6,canvas.Screen,0_2_7_5,,skipped,8,162168,,,162163,,162169,2021-11-01T18:56:18.283Z,162335.8,1635792813,incremental,ni_sequenzen,NI_Sequenzen,,,,,,,,,,,,,,
,Sequence,flow.Sequence,0_2_7,,completion,8,162162,,,162163,,162169,2021-11-01T18:56:18.283Z,162335.8,1635792813,incremental,ni_sequenzen,NI_Sequenzen,,,,,,,,,,,,,,
,Screen_1,canvas.Screen,0_2_8_0,,skipped,9,162170,,,162170,,162170,2021-11-01T18:56:18.284Z,162335.8,1635792813,incremental,ni_sequenzen,NI_Sequenzen,,,,,,,,,,,,,,
,Screen_2,canvas.Screen,0_2_8_1,,skipped,9,162171,,,162170,,162171,2021-11-01T18:56:18.285Z,162335.8,1635792813,incremental,ni_sequenzen,NI_Sequenzen,,,,,,,,,,,,,,
,Screen_3,canvas.Screen,0_2_8_2,,skipped,9,162172,,,162170,,162172,2021-11-01T18:56:18.287Z,162335.8,1635792813,incremental,ni_sequenzen,NI_Sequenzen,,,,,,,,,,,,,,
,Screen_4,canvas.Screen,0_2_8_3,,skipped,9,162173,,,162170,,162173,2021-11-01T18:56:18.287Z,162335.8,1635792813,incremental,ni_sequenzen,NI_Sequenzen,,,,,,,,,,,,,,
,Screen_5,canvas.Screen,0_2_8_4,,skipped,9,162174,,,162170,,162174,2021-11-01T18:56:18.288Z,162335.8,1635792813,incremental,ni_sequenzen,NI_Sequenzen,,,,,,,,,,,,,,
,Screen_6,canvas.Screen,0_2_8_5,,skipped,9,162175,,,162170,,162175,2021-11-01T18:56:18.289Z,162335.8,1635792813,incremental,ni_sequenzen,NI_Sequenzen,,,,,,,,,,,,,,
,Sequence,flow.Sequence,0_2_8,,completion,9,162169,,,162170,,162175,2021-11-01T18:56:18.289Z,162335.8,1635792813,incremental,ni_sequenzen,NI_Sequenzen,,,,,,,,,,,,,,
,Screen_1,canvas.Screen,0_2_9_0,,skipped,10,162177,,,162177,,162177,2021-11-01T18:56:18.291Z,162335.8,1635792813,incremental,ni_sequenzen,NI_Sequenzen,,,,,,,,,,,,,,
,Screen_2,canvas.Screen,0_2_9_1,,skipped,10,162178,,,162177,,162178,2021-11-01T18:56:18.293Z,162335.8,1635792813,incremental,ni_sequenzen,NI_Sequenzen,,,,,,,,,,,,,,
,Screen_3,canvas.Screen,0_2_9_2,,skipped,10,162179,,,162177,,162179,2021-11-01T18:56:18.294Z,162335.8,1635792813,incremental,ni_sequenzen,NI_Sequenzen,,,,,,,,,,,,,,
,Screen_4,canvas.Screen,0_2_9_3,,skipped,10,162180,,,162177,,162180,2021-11-01T18:56:18.295Z,162335.8,1635792813,incremental,ni_sequenzen,NI_Sequenzen,,,,,,,,,,,,,,
,Screen_5,canvas.Screen,0_2_9_4,,skipped,10,162181,,,162177,,162181,2021-11-01T18:56:18.296Z,162335.8,1635792813,incremental,ni_sequenzen,NI_Sequenzen,,,,,,,,,,,,,,
,Screen_6,canvas.Screen,0_2_9_5,,skipped,10,162182,,,162177,,162182,2021-11-01T18:56:18.297Z,162335.8,1635792813,incremental,ni_sequenzen,NI_Sequenzen,,,,,,,,,,,,,,
,Sequence,flow.Sequence,0_2_9,,completion,10,162175,,,162177,,162182,2021-11-01T18:56:18.297Z,162335.8,1635792813,incremental,ni_sequenzen,NI_Sequenzen,,,,,,,,,,,,,,
,Screen_1,canvas.Screen,0_2_10_0,,skipped,11,162184,,,162184,,162184,2021-11-01T18:56:18.298Z,162335.8,1635792813,incremental,ni_sequenzen,NI_Sequenzen,,,,,,,,,,,,,,
,Screen_2,canvas.Screen,0_2_10_1,,skipped,11,162185,,,162184,,162185,2021-11-01T18:56:18.299Z,162335.8,1635792813,incremental,ni_sequenzen,NI_Sequenzen,,,,,,,,,,,,,,
,Screen_3,canvas.Screen,0_2_10_2,,skipped,11,162186,,,162184,,162186,2021-11-01T18:56:18.300Z,162335.8,1635792813,incremental,ni_sequenzen,NI_Sequenzen,,,,,,,,,,,,,,
,Screen_4,canvas.Screen,0_2_10_3,,skipped,11,162187,,,162184,,162187,2021-11-01T18:56:18.301Z,162335.8,1635792813,incremental,ni_sequenzen,NI_Sequenzen,,,,,,,,,,,,,,
,Screen_5,canvas.Screen,0_2_10_4,,skipped,11,162188,,,162184,,162188,2021-11-01T18:56:18.302Z,162335.8,1635792813,incremental,ni_sequenzen,NI_Sequenzen,,,,,,,,,,,,,,
,Screen_6,canvas.Screen,0_2_10_5,,skipped,11,162189,,,162184,,162189,2021-11-01T18:56:18.303Z,162335.8,1635792813,incremental,ni_sequenzen,NI_Sequenzen,,,,,,,,,,,,,,
,Sequence,flow.Sequence,0_2_10,,completion,11,162183,,,162184,,162189,2021-11-01T18:56:18.303Z,162335.8,1635792813,incremental,ni_sequenzen,NI_Sequenzen,,,,,,,,,,,,,,
,Screen_1,canvas.Screen,0_2_11_0,,skipped,12,162191,,,162191,,162191,2021-11-01T18:56:18.305Z,162335.8,1635792813,incremental,ni_sequenzen,NI_Sequenzen,,,,,,,,,,,,,,
,Screen_2,canvas.Screen,0_2_11_1,,skipped,12,162192,,,162191,,162192,2021-11-01T18:56:18.306Z,162335.8,1635792813,incremental,ni_sequenzen,NI_Sequenzen,,,,,,,,,,,,,,
,Screen_3,canvas.Screen,0_2_11_2,,skipped,12,162192,,,162191,,162193,2021-11-01T18:56:18.307Z,162335.8,1635792813,incremental,ni_sequenzen,NI_Sequenzen,,,,,,,,,,,,,,
,Screen_4,canvas.Screen,0_2_11_3,,skipped,12,162194,,,162191,,162194,2021-11-01T18:56:18.308Z,162335.8,1635792813,incremental,ni_sequenzen,NI_Sequenzen,,,,,,,,,,,,,,
,Screen_5,canvas.Screen,0_2_11_4,,skipped,12,162194,,,162191,,162194,2021-11-01T18:56:18.309Z,162335.8,1635792813,incremental,ni_sequenzen,NI_Sequenzen,,,,,,,,,,,,,,
,Screen_6,canvas.Screen,0_2_11_5,,skipped,12,162195,,,162191,,162196,2021-11-01T18:56:18.310Z,162335.8,1635792813,incremental,ni_sequenzen,NI_Sequenzen,,,,,,,,,,,,,,
,Sequence,flow.Sequence,0_2_11,,completion,12,162189,,,162191,,162196,2021-11-01T18:56:18.310Z,162335.8,1635792813,incremental,ni_sequenzen,NI_Sequenzen,,,,,,,,,,,,,,
,Screen_1,canvas.Screen,0_2_12_0,,skipped,13,162197,,,162197,,162198,2021-11-01T18:56:18.312Z,162335.8,1635792813,incremental,ni_sequenzen,NI_Sequenzen,,,,,,,,,,,,,,
,Screen_2,canvas.Screen,0_2_12_1,,skipped,13,162199,,,162197,,162199,2021-11-01T18:56:18.313Z,162335.8,1635792813,incremental,ni_sequenzen,NI_Sequenzen,,,,,,,,,,,,,,
,Screen_3,canvas.Screen,0_2_12_2,,skipped,13,162200,,,162197,,162200,2021-11-01T18:56:18.315Z,162335.8,1635792813,incremental,ni_sequenzen,NI_Sequenzen,,,,,,,,,,,,,,
,Screen_4,canvas.Screen,0_2_12_3,,skipped,13,162201,,,162197,,162201,2021-11-01T18:56:18.316Z,162335.8,1635792813,incremental,ni_sequenzen,NI_Sequenzen,,,,,,,,,,,,,,
,Screen_5,canvas.Screen,0_2_12_4,,skipped,13,162202,,,162197,,162202,2021-11-01T18:56:18.316Z,162335.8,1635792813,incremental,ni_sequenzen,NI_Sequenzen,,,,,,,,,,,,,,
,Screen_6,canvas.Screen,0_2_12_5,,skipped,13,162202,,,162197,,162202,2021-11-01T18:56:18.317Z,162335.8,1635792813,incremental,ni_sequenzen,NI_Sequenzen,,,,,,,,,,,,,,
,Sequence,flow.Sequence,0_2_12,,completion,13,162196,,,162197,,162203,2021-11-01T18:56:18.317Z,162335.8,1635792813,incremental,ni_sequenzen,NI_Sequenzen,,,,,,,,,,,,,,
,Screen_1,canvas.Screen,0_2_13_0,,skipped,14,162204,,,162204,,162204,2021-11-01T18:56:18.319Z,162335.8,1635792813,incremental,ni_sequenzen,NI_Sequenzen,,,,,,,,,,,,,,
,Screen_2,canvas.Screen,0_2_13_1,,skipped,14,162205,,,162204,,162205,2021-11-01T18:56:18.320Z,162335.8,1635792813,incremental,ni_sequenzen,NI_Sequenzen,,,,,,,,,,,,,,
,Screen_3,canvas.Screen,0_2_13_2,,skipped,14,162205,,,162204,,162205,2021-11-01T18:56:18.321Z,162335.8,1635792813,incremental,ni_sequenzen,NI_Sequenzen,,,,,,,,,,,,,,
,Screen_4,canvas.Screen,0_2_13_3,,skipped,14,162207,,,162204,,162207,2021-11-01T18:56:18.322Z,162335.8,1635792813,incremental,ni_sequenzen,NI_Sequenzen,,,,,,,,,,,,,,
,Screen_5,canvas.Screen,0_2_13_4,,skipped,14,162208,,,162204,,162208,2021-11-01T18:56:18.322Z,162335.8,1635792813,incremental,ni_sequenzen,NI_Sequenzen,,,,,,,,,,,,,,
,Screen_6,canvas.Screen,0_2_13_5,,skipped,14,162208,,,162204,,162208,2021-11-01T18:56:18.323Z,162335.8,1635792813,incremental,ni_sequenzen,NI_Sequenzen,,,,,,,,,,,,,,
,Sequence,flow.Sequence,0_2_13,,completion,14,162203,,,162204,,162209,2021-11-01T18:56:18.323Z,162335.8,1635792813,incremental,ni_sequenzen,NI_Sequenzen,,,,,,,,,,,,,,
,Screen_1,canvas.Screen,0_2_14_0,,skipped,15,162210,,,162210,,162210,2021-11-01T18:56:18.324Z,162335.8,1635792813,incremental,ni_sequenzen,NI_Sequenzen,,,,,,,,,,,,,,
,Screen_2,canvas.Screen,0_2_14_1,,skipped,15,162210,,,162210,,162211,2021-11-01T18:56:18.326Z,162335.8,1635792813,incremental,ni_sequenzen,NI_Sequenzen,,,,,,,,,,,,,,
,Screen_3,canvas.Screen,0_2_14_2,,skipped,15,162212,,,162210,,162212,2021-11-01T18:56:18.327Z,162335.8,1635792813,incremental,ni_sequenzen,NI_Sequenzen,,,,,,,,,,,,,,
,Screen_4,canvas.Screen,0_2_14_3,,skipped,15,162213,,,162210,,162213,2021-11-01T18:56:18.328Z,162335.8,1635792813,incremental,ni_sequenzen,NI_Sequenzen,,,,,,,,,,,,,,
,Screen_5,canvas.Screen,0_2_14_4,,skipped,15,162214,,,162210,,162214,2021-11-01T18:56:18.329Z,162335.8,1635792813,incremental,ni_sequenzen,NI_Sequenzen,,,,,,,,,,,,,,
,Screen_6,canvas.Screen,0_2_14_5,,skipped,15,162215,,,162210,,162215,2021-11-01T18:56:18.330Z,162335.8,1635792813,incremental,ni_sequenzen,NI_Sequenzen,,,,,,,,,,,,,,
,Sequence,flow.Sequence,0_2_14,,completion,15,162209,,,162210,,162215,2021-11-01T18:56:18.330Z,162335.8,1635792813,incremental,ni_sequenzen,NI_Sequenzen,,,,,,,,,,,,,,
,Screen_1,canvas.Screen,0_2_15_0,,skipped,16,162216,,,162216,,162216,2021-11-01T18:56:18.331Z,162335.8,1635792813,incremental,ni_sequenzen,NI_Sequenzen,,,,,,,,,,,,,,
,Screen_2,canvas.Screen,0_2_15_1,,skipped,16,162217,,,162216,,162217,2021-11-01T18:56:18.332Z,162335.8,1635792813,incremental,ni_sequenzen,NI_Sequenzen,,,,,,,,,,,,,,
,Screen_3,canvas.Screen,0_2_15_2,,skipped,16,162218,,,162216,,162218,2021-11-01T18:56:18.333Z,162335.8,1635792813,incremental,ni_sequenzen,NI_Sequenzen,,,,,,,,,,,,,,
,Screen_4,canvas.Screen,0_2_15_3,,skipped,16,162219,,,162216,,162219,2021-11-01T18:56:18.334Z,162335.8,1635792813,incremental,ni_sequenzen,NI_Sequenzen,,,,,,,,,,,,,,
,Screen_5,canvas.Screen,0_2_15_4,,skipped,16,162220,,,162216,,162220,2021-11-01T18:56:18.335Z,162335.8,1635792813,incremental,ni_sequenzen,NI_Sequenzen,,,,,,,,,,,,,,
,Screen_6,canvas.Screen,0_2_15_5,,skipped,16,162221,,,162216,,162221,2021-11-01T18:56:18.336Z,162335.8,1635792813,incremental,ni_sequenzen,NI_Sequenzen,,,,,,,,,,,,,,
,Sequence,flow.Sequence,0_2_15,,completion,16,162216,,,162216,,162221,2021-11-01T18:56:18.336Z,162335.8,1635792813,incremental,ni_sequenzen,NI_Sequenzen,,,,,,,,,,,,,,
,Screen_1,canvas.Screen,0_2_16_0,,skipped,17,162222,,,162222,,162222,2021-11-01T18:56:18.337Z,162335.8,1635792813,incremental,ni_sequenzen,NI_Sequenzen,,,,,,,,,,,,,,
,Screen_2,canvas.Screen,0_2_16_1,,skipped,17,162223,,,162222,,162223,2021-11-01T18:56:18.338Z,162335.8,1635792813,incremental,ni_sequenzen,NI_Sequenzen,,,,,,,,,,,,,,
,Screen_3,canvas.Screen,0_2_16_2,,skipped,17,162224,,,162222,,162224,2021-11-01T18:56:18.339Z,162335.8,1635792813,incremental,ni_sequenzen,NI_Sequenzen,,,,,,,,,,,,,,
,Screen_4,canvas.Screen,0_2_16_3,,skipped,17,162225,,,162222,,162225,2021-11-01T18:56:18.340Z,162335.8,1635792813,incremental,ni_sequenzen,NI_Sequenzen,,,,,,,,,,,,,,
,Screen_5,canvas.Screen,0_2_16_4,,skipped,17,162226,,,162222,,162226,2021-11-01T18:56:18.341Z,162335.8,1635792813,incremental,ni_sequenzen,NI_Sequenzen,,,,,,,,,,,,,,
,Screen_6,canvas.Screen,0_2_16_5,,skipped,17,162227,,,162222,,162227,2021-11-01T18:56:18.342Z,162335.8,1635792813,incremental,ni_sequenzen,NI_Sequenzen,,,,,,,,,,,,,,
,Sequence,flow.Sequence,0_2_16,,completion,17,162221,,,162222,,162228,2021-11-01T18:56:18.342Z,162335.8,1635792813,incremental,ni_sequenzen,NI_Sequenzen,,,,,,,,,,,,,,
,Screen_1,canvas.Screen,0_2_17_0,,skipped,18,162229,,,162229,,162229,2021-11-01T18:56:18.344Z,162335.8,1635792813,incremental,ni_sequenzen,NI_Sequenzen,,,,,,,,,,,,,,
,Screen_2,canvas.Screen,0_2_17_1,,skipped,18,162230,,,162229,,162230,2021-11-01T18:56:18.345Z,162335.8,1635792813,incremental,ni_sequenzen,NI_Sequenzen,,,,,,,,,,,,,,
,Screen_3,canvas.Screen,0_2_17_2,,skipped,18,162231,,,162229,,162231,2021-11-01T18:56:18.346Z,162335.8,1635792813,incremental,ni_sequenzen,NI_Sequenzen,,,,,,,,,,,,,,
,Screen_4,canvas.Screen,0_2_17_3,,skipped,18,162231,,,162229,,162232,2021-11-01T18:56:18.346Z,162335.8,1635792813,incremental,ni_sequenzen,NI_Sequenzen,,,,,,,,,,,,,,
,Screen_5,canvas.Screen,0_2_17_4,,skipped,18,162232,,,162229,,162232,2021-11-01T18:56:18.347Z,162335.8,1635792813,incremental,ni_sequenzen,NI_Sequenzen,,,,,,,,,,,,,,
,Screen_6,canvas.Screen,0_2_17_5,,skipped,18,162233,,,162229,,162233,2021-11-01T18:56:18.348Z,162335.8,1635792813,incremental,ni_sequenzen,NI_Sequenzen,,,,,,,,,,,,,,
,Sequence,flow.Sequence,0_2_17,,completion,18,162228,,,162229,,162234,2021-11-01T18:56:18.348Z,162335.8,1635792813,incremental,ni_sequenzen,NI_Sequenzen,,,,,,,,,,,,,,
,Screen_1,canvas.Screen,0_2_18_0,,skipped,19,162235,,,162235,,162235,2021-11-01T18:56:18.349Z,162335.8,1635792813,incremental,ni_sequenzen,NI_Sequenzen,,,,,,,,,,,,,,
,Screen_2,canvas.Screen,0_2_18_1,,skipped,19,162235,,,162235,,162235,2021-11-01T18:56:18.350Z,162335.8,1635792813,incremental,ni_sequenzen,NI_Sequenzen,,,,,,,,,,,,,,
,Screen_3,canvas.Screen,0_2_18_2,,skipped,19,162236,,,162235,,162236,2021-11-01T18:56:18.351Z,162335.8,1635792813,incremental,ni_sequenzen,NI_Sequenzen,,,,,,,,,,,,,,
,Screen_4,canvas.Screen,0_2_18_3,,skipped,19,162237,,,162235,,162237,2021-11-01T18:56:18.352Z,162335.8,1635792813,incremental,ni_sequenzen,NI_Sequenzen,,,,,,,,,,,,,,
,Screen_5,canvas.Screen,0_2_18_4,,skipped,19,162238,,,162235,,162238,2021-11-01T18:56:18.353Z,162335.8,1635792813,incremental,ni_sequenzen,NI_Sequenzen,,,,,,,,,,,,,,
,Screen_6,canvas.Screen,0_2_18_5,,skipped,19,162239,,,162235,,162239,2021-11-01T18:56:18.354Z,162335.8,1635792813,incremental,ni_sequenzen,NI_Sequenzen,,,,,,,,,,,,,,
,Sequence,flow.Sequence,0_2_18,,completion,19,162234,,,162235,,162239,2021-11-01T18:56:18.354Z,162335.8,1635792813,incremental,ni_sequenzen,NI_Sequenzen,,,,,,,,,,,,,,
,Screen_1,canvas.Screen,0_2_19_0,,skipped,20,162241,,,162241,,162241,2021-11-01T18:56:18.355Z,162335.8,1635792813,incremental,ni_sequenzen,NI_Sequenzen,,,,,,,,,,,,,,
,Screen_2,canvas.Screen,0_2_19_1,,skipped,20,162241,,,162241,,162242,2021-11-01T18:56:18.356Z,162335.8,1635792813,incremental,ni_sequenzen,NI_Sequenzen,,,,,,,,,,,,,,
,Screen_3,canvas.Screen,0_2_19_2,,skipped,20,162243,,,162241,,162243,2021-11-01T18:56:18.357Z,162335.8,1635792813,incremental,ni_sequenzen,NI_Sequenzen,,,,,,,,,,,,,,
,Screen_4,canvas.Screen,0_2_19_3,,skipped,20,162243,,,162241,,162244,2021-11-01T18:56:18.358Z,162335.8,1635792813,incremental,ni_sequenzen,NI_Sequenzen,,,,,,,,,,,,,,
,Screen_5,canvas.Screen,0_2_19_4,,skipped,20,162245,,,162241,,162245,2021-11-01T18:56:18.359Z,162335.8,1635792813,incremental,ni_sequenzen,NI_Sequenzen,,,,,,,,,,,,,,
,Screen_6,canvas.Screen,0_2_19_5,,skipped,20,162245,,,162241,,162245,2021-11-01T18:56:18.360Z,162335.8,1635792813,incremental,ni_sequenzen,NI_Sequenzen,,,,,,,,,,,,,,
,Sequence,flow.Sequence,0_2_19,,completion,20,162240,,,162241,,162246,2021-11-01T18:56:18.360Z,162335.8,1635792813,incremental,ni_sequenzen,NI_Sequenzen,,,,,,,,,,,,,,
,Screen_1,canvas.Screen,0_2_20_0,,skipped,21,162247,,,162247,,162247,2021-11-01T18:56:18.361Z,162335.8,1635792813,incremental,ni_sequenzen,NI_Sequenzen,,,,,,,,,,,,,,
,Screen_2,canvas.Screen,0_2_20_1,,skipped,21,162248,,,162247,,162248,2021-11-01T18:56:18.362Z,162335.8,1635792813,incremental,ni_sequenzen,NI_Sequenzen,,,,,,,,,,,,,,
,Screen_3,canvas.Screen,0_2_20_2,,skipped,21,162249,,,162247,,162249,2021-11-01T18:56:18.363Z,162335.8,1635792813,incremental,ni_sequenzen,NI_Sequenzen,,,,,,,,,,,,,,
,Screen_4,canvas.Screen,0_2_20_3,,skipped,21,162250,,,162247,,162250,2021-11-01T18:56:18.364Z,162335.8,1635792813,incremental,ni_sequenzen,NI_Sequenzen,,,,,,,,,,,,,,
,Screen_5,canvas.Screen,0_2_20_4,,skipped,21,162251,,,162247,,162251,2021-11-01T18:56:18.365Z,162335.8,1635792813,incremental,ni_sequenzen,NI_Sequenzen,,,,,,,,,,,,,,
,Screen_6,canvas.Screen,0_2_20_5,,skipped,21,162252,,,162247,,162252,2021-11-01T18:56:18.366Z,162335.8,1635792813,incremental,ni_sequenzen,NI_Sequenzen,,,,,,,,,,,,,,
,Sequence,flow.Sequence,0_2_20,,completion,21,162246,,,162247,,162252,2021-11-01T18:56:18.366Z,162335.8,1635792813,incremental,ni_sequenzen,NI_Sequenzen,,,,,,,,,,,,,,
,Screen_1,canvas.Screen,0_2_21_0,,skipped,22,162253,,,162253,,162253,2021-11-01T18:56:18.368Z,162335.8,1635792813,incremental,ni_sequenzen,NI_Sequenzen,,,,,,,,,,,,,,
,Screen_2,canvas.Screen,0_2_21_1,,skipped,22,162254,,,162253,,162254,2021-11-01T18:56:18.369Z,162335.8,1635792813,incremental,ni_sequenzen,NI_Sequenzen,,,,,,,,,,,,,,
,Screen_3,canvas.Screen,0_2_21_2,,skipped,22,162255,,,162253,,162255,2021-11-01T18:56:18.370Z,162335.8,1635792813,incremental,ni_sequenzen,NI_Sequenzen,,,,,,,,,,,,,,
,Screen_4,canvas.Screen,0_2_21_3,,skipped,22,162256,,,162253,,162256,2021-11-01T18:56:18.370Z,162335.8,1635792813,incremental,ni_sequenzen,NI_Sequenzen,,,,,,,,,,,,,,
,Screen_5,canvas.Screen,0_2_21_4,,skipped,22,162257,,,162253,,162257,2021-11-01T18:56:18.371Z,162335.8,1635792813,incremental,ni_sequenzen,NI_Sequenzen,,,,,,,,,,,,,,
,Screen_6,canvas.Screen,0_2_21_5,,skipped,22,162258,,,162253,,162258,2021-11-01T18:56:18.372Z,162335.8,1635792813,incremental,ni_sequenzen,NI_Sequenzen,,,,,,,,,,,,,,
,Sequence,flow.Sequence,0_2_21,,completion,22,162252,,,162253,,162258,2021-11-01T18:56:18.372Z,162335.8,1635792813,incremental,ni_sequenzen,NI_Sequenzen,,,,,,,,,,,,,,
,Screen_1,canvas.Screen,0_2_22_0,,skipped,23,162259,,,162259,,162259,2021-11-01T18:56:18.374Z,162335.8,1635792813,incremental,ni_sequenzen,NI_Sequenzen,,,,,,,,,,,,,,
,Screen_2,canvas.Screen,0_2_22_1,,skipped,23,162260,,,162259,,162260,2021-11-01T18:56:18.375Z,162335.8,1635792813,incremental,ni_sequenzen,NI_Sequenzen,,,,,,,,,,,,,,
,Screen_3,canvas.Screen,0_2_22_2,,skipped,23,162261,,,162259,,162261,2021-11-01T18:56:18.376Z,162335.8,1635792813,incremental,ni_sequenzen,NI_Sequenzen,,,,,,,,,,,,,,
,Screen_4,canvas.Screen,0_2_22_3,,skipped,23,162262,,,162259,,162262,2021-11-01T18:56:18.377Z,162335.8,1635792813,incremental,ni_sequenzen,NI_Sequenzen,,,,,,,,,,,,,,
,Screen_5,canvas.Screen,0_2_22_4,,skipped,23,162263,,,162259,,162263,2021-11-01T18:56:18.378Z,162335.8,1635792813,incremental,ni_sequenzen,NI_Sequenzen,,,,,,,,,,,,,,
,Screen_6,canvas.Screen,0_2_22_5,,skipped,23,162264,,,162259,,162264,2021-11-01T18:56:18.379Z,162335.8,1635792813,incremental,ni_sequenzen,NI_Sequenzen,,,,,,,,,,,,,,
,Sequence,flow.Sequence,0_2_22,,completion,23,162259,,,162259,,162264,2021-11-01T18:56:18.379Z,162335.8,1635792813,incremental,ni_sequenzen,NI_Sequenzen,,,,,,,,,,,,,,
,Screen_1,canvas.Screen,0_2_23_0,,skipped,24,162266,,,162266,,162266,2021-11-01T18:56:18.380Z,162335.8,1635792813,incremental,ni_sequenzen,NI_Sequenzen,,,,,,,,,,,,,,
,Screen_2,canvas.Screen,0_2_23_1,,skipped,24,162267,,,162266,,162267,2021-11-01T18:56:18.381Z,162335.8,1635792813,incremental,ni_sequenzen,NI_Sequenzen,,,,,,,,,,,,,,
,Screen_3,canvas.Screen,0_2_23_2,,skipped,24,162268,,,162266,,162268,2021-11-01T18:56:18.382Z,162335.8,1635792813,incremental,ni_sequenzen,NI_Sequenzen,,,,,,,,,,,,,,
,Screen_4,canvas.Screen,0_2_23_3,,skipped,24,162268,,,162266,,162268,2021-11-01T18:56:18.383Z,162335.8,1635792813,incremental,ni_sequenzen,NI_Sequenzen,,,,,,,,,,,,,,
,Screen_5,canvas.Screen,0_2_23_4,,skipped,24,162269,,,162266,,162269,2021-11-01T18:56:18.384Z,162335.8,1635792813,incremental,ni_sequenzen,NI_Sequenzen,,,,,,,,,,,,,,
,Screen_6,canvas.Screen,0_2_23_5,,skipped,24,162270,,,162266,,162270,2021-11-01T18:56:18.385Z,162335.8,1635792813,incremental,ni_sequenzen,NI_Sequenzen,,,,,,,,,,,,,,
,Sequence,flow.Sequence,0_2_23,,completion,24,162265,,,162266,,162270,2021-11-01T18:56:18.385Z,162335.8,1635792813,incremental,ni_sequenzen,NI_Sequenzen,,,,,,,,,,,,,,
,Screen_1,canvas.Screen,0_2_24_0,,skipped,25,162272,,,162272,,162272,2021-11-01T18:56:18.387Z,162335.8,1635792813,incremental,ni_sequenzen,NI_Sequenzen,,,,,,,,,,,,,,
,Screen_2,canvas.Screen,0_2_24_1,,skipped,25,162274,,,162272,,162274,2021-11-01T18:56:18.389Z,162335.8,1635792813,incremental,ni_sequenzen,NI_Sequenzen,,,,,,,,,,,,,,
,Screen_3,canvas.Screen,0_2_24_2,,skipped,25,162275,,,162272,,162275,2021-11-01T18:56:18.390Z,162335.8,1635792813,incremental,ni_sequenzen,NI_Sequenzen,,,,,,,,,,,,,,
,Screen_4,canvas.Screen,0_2_24_3,,skipped,25,162276,,,162272,,162276,2021-11-01T18:56:18.391Z,162335.8,1635792813,incremental,ni_sequenzen,NI_Sequenzen,,,,,,,,,,,,,,
,Screen_5,canvas.Screen,0_2_24_4,,skipped,25,162277,,,162272,,162277,2021-11-01T18:56:18.392Z,162335.8,1635792813,incremental,ni_sequenzen,NI_Sequenzen,,,,,,,,,,,,,,
,Screen_6,canvas.Screen,0_2_24_5,,skipped,25,162278,,,162272,,162278,2021-11-01T18:56:18.393Z,162335.8,1635792813,incremental,ni_sequenzen,NI_Sequenzen,,,,,,,,,,,,,,
,Sequence,flow.Sequence,0_2_24,,completion,25,162271,,,162272,,162278,2021-11-01T18:56:18.393Z,162335.8,1635792813,incremental,ni_sequenzen,NI_Sequenzen,,,,,,,,,,,,,,
,Screen_1,canvas.Screen,0_2_25_0,,skipped,26,162279,,,162279,,162279,2021-11-01T18:56:18.394Z,162335.8,1635792813,incremental,ni_sequenzen,NI_Sequenzen,,,,,,,,,,,,,,
,Screen_2,canvas.Screen,0_2_25_1,,skipped,26,162280,,,162279,,162280,2021-11-01T18:56:18.395Z,162335.8,1635792813,incremental,ni_sequenzen,NI_Sequenzen,,,,,,,,,,,,,,
,Screen_3,canvas.Screen,0_2_25_2,,skipped,26,162281,,,162279,,162281,2021-11-01T18:56:18.396Z,162335.8,1635792813,incremental,ni_sequenzen,NI_Sequenzen,,,,,,,,,,,,,,
,Screen_4,canvas.Screen,0_2_25_3,,skipped,26,162282,,,162279,,162282,2021-11-01T18:56:18.397Z,162335.8,1635792813,incremental,ni_sequenzen,NI_Sequenzen,,,,,,,,,,,,,,
,Screen_5,canvas.Screen,0_2_25_4,,skipped,26,162283,,,162279,,162283,2021-11-01T18:56:18.398Z,162335.8,1635792813,incremental,ni_sequenzen,NI_Sequenzen,,,,,,,,,,,,,,
,Screen_6,canvas.Screen,0_2_25_5,,skipped,26,162284,,,162279,,162284,2021-11-01T18:56:18.398Z,162335.8,1635792813,incremental,ni_sequenzen,NI_Sequenzen,,,,,,,,,,,,,,
,Sequence,flow.Sequence,0_2_25,,completion,26,162278,,,162279,,162284,2021-11-01T18:56:18.399Z,162335.8,1635792813,incremental,ni_sequenzen,NI_Sequenzen,,,,,,,,,,,,,,
,Screen_1,canvas.Screen,0_2_26_0,,skipped,27,162285,,,162285,,162285,2021-11-01T18:56:18.400Z,162335.8,1635792813,incremental,ni_sequenzen,NI_Sequenzen,,,,,,,,,,,,,,
,Screen_2,canvas.Screen,0_2_26_1,,skipped,27,162286,,,162285,,162286,2021-11-01T18:56:18.401Z,162335.8,1635792813,incremental,ni_sequenzen,NI_Sequenzen,,,,,,,,,,,,,,
,Screen_3,canvas.Screen,0_2_26_2,,skipped,27,162287,,,162285,,162287,2021-11-01T18:56:18.402Z,162335.8,1635792813,incremental,ni_sequenzen,NI_Sequenzen,,,,,,,,,,,,,,
,Screen_4,canvas.Screen,0_2_26_3,,skipped,27,162288,,,162285,,162288,2021-11-01T18:56:18.403Z,162335.8,1635792813,incremental,ni_sequenzen,NI_Sequenzen,,,,,,,,,,,,,,
,Screen_5,canvas.Screen,0_2_26_4,,skipped,27,162289,,,162285,,162289,2021-11-01T18:56:18.404Z,162335.8,1635792813,incremental,ni_sequenzen,NI_Sequenzen,,,,,,,,,,,,,,
,Screen_6,canvas.Screen,0_2_26_5,,skipped,27,162290,,,162285,,162290,2021-11-01T18:56:18.405Z,162335.8,1635792813,incremental,ni_sequenzen,NI_Sequenzen,,,,,,,,,,,,,,
,Sequence,flow.Sequence,0_2_26,,completion,27,162284,,,162285,,162290,2021-11-01T18:56:18.405Z,162335.8,1635792813,incremental,ni_sequenzen,NI_Sequenzen,,,,,,,,,,,,,,
,Screen_1,canvas.Screen,0_2_27_0,,skipped,28,162291,,,162291,,162292,2021-11-01T18:56:18.406Z,162335.8,1635792813,incremental,ni_sequenzen,NI_Sequenzen,,,,,,,,,,,,,,
,Screen_2,canvas.Screen,0_2_27_1,,skipped,28,162292,,,162291,,162292,2021-11-01T18:56:18.407Z,162335.8,1635792813,incremental,ni_sequenzen,NI_Sequenzen,,,,,,,,,,,,,,
,Screen_3,canvas.Screen,0_2_27_2,,skipped,28,162293,,,162291,,162294,2021-11-01T18:56:18.408Z,162335.8,1635792813,incremental,ni_sequenzen,NI_Sequenzen,,,,,,,,,,,,,,
,Screen_4,canvas.Screen,0_2_27_3,,skipped,28,162295,,,162291,,162295,2021-11-01T18:56:18.410Z,162335.8,1635792813,incremental,ni_sequenzen,NI_Sequenzen,,,,,,,,,,,,,,
,Screen_5,canvas.Screen,0_2_27_4,,skipped,28,162296,,,162291,,162296,2021-11-01T18:56:18.411Z,162335.8,1635792813,incremental,ni_sequenzen,NI_Sequenzen,,,,,,,,,,,,,,
,Screen_6,canvas.Screen,0_2_27_5,,skipped,28,162297,,,162291,,162297,2021-11-01T18:56:18.412Z,162335.8,1635792813,incremental,ni_sequenzen,NI_Sequenzen,,,,,,,,,,,,,,
,Sequence,flow.Sequence,0_2_27,,completion,28,162291,,,162291,,162297,2021-11-01T18:56:18.412Z,162335.8,1635792813,incremental,ni_sequenzen,NI_Sequenzen,,,,,,,,,,,,,,
,Screen_1,canvas.Screen,0_2_28_0,,skipped,29,162298,,,162298,,162298,2021-11-01T18:56:18.412Z,162335.8,1635792813,incremental,ni_sequenzen,NI_Sequenzen,,,,,,,,,,,,,,
,Screen_2,canvas.Screen,0_2_28_1,,skipped,29,162299,,,162298,,162299,2021-11-01T18:56:18.413Z,162335.8,1635792813,incremental,ni_sequenzen,NI_Sequenzen,,,,,,,,,,,,,,
,Screen_3,canvas.Screen,0_2_28_2,,skipped,29,162300,,,162298,,162300,2021-11-01T18:56:18.414Z,162335.8,1635792813,incremental,ni_sequenzen,NI_Sequenzen,,,,,,,,,,,,,,
,Screen_4,canvas.Screen,0_2_28_3,,skipped,29,162300,,,162298,,162300,2021-11-01T18:56:18.415Z,162335.8,1635792813,incremental,ni_sequenzen,NI_Sequenzen,,,,,,,,,,,,,,
,Screen_5,canvas.Screen,0_2_28_4,,skipped,29,162301,,,162298,,162301,2021-11-01T18:56:18.416Z,162335.8,1635792813,incremental,ni_sequenzen,NI_Sequenzen,,,,,,,,,,,,,,
,Screen_6,canvas.Screen,0_2_28_5,,skipped,29,162302,,,162298,,162302,2021-11-01T18:56:18.417Z,162335.8,1635792813,incremental,ni_sequenzen,NI_Sequenzen,,,,,,,,,,,,,,
,Sequence,flow.Sequence,0_2_28,,completion,29,162298,,,162298,,162302,2021-11-01T18:56:18.417Z,162335.8,1635792813,incremental,ni_sequenzen,NI_Sequenzen,,,,,,,,,,,,,,
,Screen_1,canvas.Screen,0_2_29_0,,skipped,30,162303,,,162303,,162303,2021-11-01T18:56:18.418Z,162335.8,1635792813,incremental,ni_sequenzen,NI_Sequenzen,,,,,,,,,,,,,,
,Screen_2,canvas.Screen,0_2_29_1,,skipped,30,162304,,,162303,,162304,2021-11-01T18:56:18.419Z,162335.8,1635792813,incremental,ni_sequenzen,NI_Sequenzen,,,,,,,,,,,,,,
,Screen_3,canvas.Screen,0_2_29_2,,skipped,30,162305,,,162303,,162305,2021-11-01T18:56:18.420Z,162335.8,1635792813,incremental,ni_sequenzen,NI_Sequenzen,,,,,,,,,,,,,,
,Screen_4,canvas.Screen,0_2_29_3,,skipped,30,162306,,,162303,,162306,2021-11-01T18:56:18.420Z,162335.8,1635792813,incremental,ni_sequenzen,NI_Sequenzen,,,,,,,,,,,,,,
,Screen_5,canvas.Screen,0_2_29_4,,skipped,30,162307,,,162303,,162307,2021-11-01T18:56:18.421Z,162335.8,1635792813,incremental,ni_sequenzen,NI_Sequenzen,,,,,,,,,,,,,,
,Screen_6,canvas.Screen,0_2_29_5,,skipped,30,162308,,,162303,,162308,2021-11-01T18:56:18.422Z,162335.8,1635792813,incremental,ni_sequenzen,NI_Sequenzen,,,,,,,,,,,,,,
,Sequence,flow.Sequence,0_2_29,,completion,30,162303,,,162303,,162308,2021-11-01T18:56:18.422Z,162335.8,1635792813,incremental,ni_sequenzen,NI_Sequenzen,,,,,,,,,,,,,,
,Instructions_II,flow.Loop,0_2,,completion,,123371,123373.84,123374.14,162303,38928.86,162308,2021-11-01T18:56:18.422Z,162335.8,1635792813,incremental,ni_sequenzen,NI_Sequenzen,,,,,,,,,,,,,,
,Move,canvas.Screen,0_3_0_0_0_0,left,response,,162335,162335.44,162335.8,172531,10195.200000000012,172545,2021-11-01T18:56:28.660Z,172558.66,1635792813,incremental,ni_sequenzen,NI_Sequenzen,1,0,,,,,,,,,,,,
,Move,canvas.Screen,0_3_0_0_0_1,down,response,,172559,172558.36,172558.66,173202,643.3399999999965,173211,2021-11-01T18:56:29.326Z,173223.5,1635792813,incremental,ni_sequenzen,NI_Sequenzen,2,0,,,,,,,,,,,,
,Move,canvas.Screen,0_3_0_0_0_2,right,response,,173223,173223.08,173223.5,173686,462.5,173699,2021-11-01T18:56:29.814Z,173711.04,1635792813,incremental,ni_sequenzen,NI_Sequenzen,3,0,,,,,,,,,,,,
,Move,canvas.Screen,0_3_0_0_0_3,down,response,,173710,173710.86,173711.04,175436,1724.9599999999919,175457,2021-11-01T18:56:31.572Z,175472.34,1635792813,incremental,ni_sequenzen,NI_Sequenzen,4,0,,,,,,,,,,,,
,Move,canvas.Screen,0_3_0_0_0_4,left,response,,175472,175472.06,175472.34,177467,1994.6600000000035,177500,2021-11-01T18:56:33.614Z,177558.8,1635792813,incremental,ni_sequenzen,NI_Sequenzen,5,0,,,,,,,,,,,,
,Move,canvas.Screen,0_3_0_0_0_5,-999,skipped,,177508,,,177467,,177508,2021-11-01T18:56:33.622Z,177558.8,1635792813,incremental,ni_sequenzen,NI_Sequenzen,6,0,,,,,,,,,,,,
,Move,canvas.Screen,0_3_0_0_0_6,-999,skipped,,177514,,,177467,,177515,2021-11-01T18:56:33.629Z,177558.8,1635792813,incremental,ni_sequenzen,NI_Sequenzen,7,0,,,,,,,,,,,,
,Move,canvas.Screen,0_3_0_0_0_7,-999,skipped,,177521,,,177467,,177521,2021-11-01T18:56:33.635Z,177558.8,1635792813,incremental,ni_sequenzen,NI_Sequenzen,8,0,,,,,,,,,,,,
,Move,canvas.Screen,0_3_0_0_0_8,-999,skipped,,177525,,,177467,,177525,2021-11-01T18:56:33.641Z,177558.8,1635792813,incremental,ni_sequenzen,NI_Sequenzen,9,0,,,,,,,,,,,,
,Move,canvas.Screen,0_3_0_0_0_9,-999,skipped,,177531,,,177467,,177531,2021-11-01T18:56:33.646Z,177558.8,1635792813,incremental,ni_sequenzen,NI_Sequenzen,10,0,,,,,,,,,,,,
,Move,canvas.Screen,0_3_0_0_0_10,-999,skipped,,177535,,,177467,,177535,2021-11-01T18:56:33.650Z,177558.8,1635792813,incremental,ni_sequenzen,NI_Sequenzen,11,0,,,,,,,,,,,,
,Move,canvas.Screen,0_3_0_0_0_11,-999,skipped,,177541,,,177467,,177541,2021-11-01T18:56:33.656Z,177558.8,1635792813,incremental,ni_sequenzen,NI_Sequenzen,12,0,,,,,,,,,,,,
,Move,canvas.Screen,0_3_0_0_0_12,-999,skipped,,177546,,,177467,,177546,2021-11-01T18:56:33.660Z,177558.8,1635792813,incremental,ni_sequenzen,NI_Sequenzen,13,0,,,,,,,,,,,,
,Move,canvas.Screen,0_3_0_0_0_13,-999,skipped,,177550,,,177467,,177550,2021-11-01T18:56:33.664Z,177558.8,1635792813,incremental,ni_sequenzen,NI_Sequenzen,14,0,,,,,,,,,,,,
,Move,canvas.Screen,0_3_0_0_0_14,-999,skipped,,177554,,,177467,,177554,2021-11-01T18:56:33.668Z,177558.8,1635792813,incremental,ni_sequenzen,NI_Sequenzen,15,0,,,,,,,,,,,,
,Loop,flow.Loop,0_3_0_0_0,-999,completion,,162331,162335.44,162335.8,177467,15131.200000000012,177555,2021-11-01T18:56:33.669Z,177558.8,1635792813,incremental,ni_sequenzen,NI_Sequenzen,,0,,,,,,,,,,,,
,Feedback,canvas.Screen,0_3_0_0_1,,timeout,,177558,177558.14,177558.8,181542.66,4008.7000000000116,181545,2021-11-01T18:56:37.659Z,181567.5,1635792813,incremental,ni_sequenzen,NI_Sequenzen,,0,,,,,,,,,,,,
,Trial,flow.Sequence,0_3_0_0,,completion,,162324,162335.44,162335.8,181542.66,19206.860000000015,181545,2021-11-01T18:56:37.660Z,181575.88,1635792813,incremental,ni_sequenzen,NI_Sequenzen,,0,,,,,,,,,,,,
,Move,canvas.Screen,0_3_0_1_0_0,down,response,,181567,181567.5,181575.88,184296,2720.1199999999953,184320,2021-11-01T18:56:40.434Z,184328.4,1635792813,incremental,ni_sequenzen,NI_Sequenzen,1,1,,,,,,,,,,,,
,Move,canvas.Screen,0_3_0_1_0_1,right,response,,184328,184327.98,184328.4,184671,342.6000000000058,184687,2021-11-01T18:56:40.801Z,184692.28,1635792813,incremental,ni_sequenzen,NI_Sequenzen,2,1,,,,,,,,,,,,
,Move,canvas.Screen,0_3_0_1_0_2,right,response,,184693,184692.1,184692.28,185390,697.7200000000012,185399,2021-11-01T18:56:41.513Z,185408.18,1635792813,incremental,ni_sequenzen,NI_Sequenzen,3,1,,,,,,,,,,,,
,Move,canvas.Screen,0_3_0_1_0_3,down,response,,185408,185407.96,185408.18,186389,980.820000000007,186401,2021-11-01T18:56:42.515Z,186454.14,1635792813,incremental,ni_sequenzen,NI_Sequenzen,4,1,,,,,,,,,,,,
,Move,canvas.Screen,0_3_0_1_0_4,-999,skipped,,186407,,,186389,,186407,2021-11-01T18:56:42.522Z,186454.14,1635792813,incremental,ni_sequenzen,NI_Sequenzen,5,1,,,,,,,,,,,,
,Move,canvas.Screen,0_3_0_1_0_5,-999,skipped,,186412,,,186389,,186412,2021-11-01T18:56:42.527Z,186454.14,1635792813,incremental,ni_sequenzen,NI_Sequenzen,6,1,,,,,,,,,,,,
,Move,canvas.Screen,0_3_0_1_0_6,-999,skipped,,186417,,,186389,,186417,2021-11-01T18:56:42.532Z,186454.14,1635792813,incremental,ni_sequenzen,NI_Sequenzen,7,1,,,,,,,,,,,,
,Move,canvas.Screen,0_3_0_1_0_7,-999,skipped,,186422,,,186389,,186422,2021-11-01T18:56:42.536Z,186454.14,1635792813,incremental,ni_sequenzen,NI_Sequenzen,8,1,,,,,,,,,,,,
,Move,canvas.Screen,0_3_0_1_0_8,-999,skipped,,186425,,,186389,,186425,2021-11-01T18:56:42.540Z,186454.14,1635792813,incremental,ni_sequenzen,NI_Sequenzen,9,1,,,,,,,,,,,,
,Move,canvas.Screen,0_3_0_1_0_9,-999,skipped,,186430,,,186389,,186430,2021-11-01T18:56:42.545Z,186454.14,1635792813,incremental,ni_sequenzen,NI_Sequenzen,10,1,,,,,,,,,,,,
,Move,canvas.Screen,0_3_0_1_0_10,-999,skipped,,186435,,,186389,,186435,2021-11-01T18:56:42.549Z,186454.14,1635792813,incremental,ni_sequenzen,NI_Sequenzen,11,1,,,,,,,,,,,,
,Move,canvas.Screen,0_3_0_1_0_11,-999,skipped,,186438,,,186389,,186438,2021-11-01T18:56:42.553Z,186454.14,1635792813,incremental,ni_sequenzen,NI_Sequenzen,12,1,,,,,,,,,,,,
,Move,canvas.Screen,0_3_0_1_0_12,-999,skipped,,186442,,,186389,,186442,2021-11-01T18:56:42.557Z,186454.14,1635792813,incremental,ni_sequenzen,NI_Sequenzen,13,1,,,,,,,,,,,,
,Move,canvas.Screen,0_3_0_1_0_13,-999,skipped,,186446,,,186389,,186446,2021-11-01T18:56:42.561Z,186454.14,1635792813,incremental,ni_sequenzen,NI_Sequenzen,14,1,,,,,,,,,,,,
,Move,canvas.Screen,0_3_0_1_0_14,-999,skipped,,186450,,,186389,,186451,2021-11-01T18:56:42.565Z,186454.14,1635792813,incremental,ni_sequenzen,NI_Sequenzen,15,1,,,,,,,,,,,,
,Loop,flow.Loop,0_3_0_1_0,-999,completion,,181563,181567.5,181575.88,186389,4813.119999999995,186451,2021-11-01T18:56:42.565Z,186454.14,1635792813,incremental,ni_sequenzen,NI_Sequenzen,,1,,,,,,,,,,,,
,Feedback,canvas.Screen,0_3_0_1_1,,timeout,,186454,186453.8,186454.14,190434.3,3996.779999999999,190435,2021-11-01T18:56:46.550Z,190450.92,1635792813,incremental,ni_sequenzen,NI_Sequenzen,,1,,,,,,,,,,,,
,Trial,flow.Sequence,0_3_0_1,,completion,,181548,181567.5,181575.88,190434.3,8858.419999999984,190436,2021-11-01T18:56:46.551Z,190467.58,1635792813,incremental,ni_sequenzen,NI_Sequenzen,,1,,,,,,,,,,,,
,Move,canvas.Screen,0_3_0_2_0_0,down,response,,190451,190450.92,190467.58,193656,3188.420000000013,193664,2021-11-01T18:56:49.778Z,193672.18,1635792813,incremental,ni_sequenzen,NI_Sequenzen,1,2,,,,,,,,,,,,
,Move,canvas.Screen,0_3_0_2_0_1,left,response,,193672,193671.98,193672.18,194764,1091.820000000007,194779,2021-11-01T18:56:50.893Z,194783.88,1635792813,incremental,ni_sequenzen,NI_Sequenzen,2,2,,,,,,,,,,,,
,Move,canvas.Screen,0_3_0_2_0_2,right,response,,194784,194783.66,194783.88,195171,387.11999999999534,195189,2021-11-01T18:56:51.303Z,195194.96,1635792813,incremental,ni_sequenzen,NI_Sequenzen,3,2,,,,,,,,,,,,
,Move,canvas.Screen,0_3_0_2_0_3,down,response,,195195,195194.72,195194.96,196171,976.0400000000081,196187,2021-11-01T18:56:52.301Z,196194.76,1635792813,incremental,ni_sequenzen,NI_Sequenzen,4,2,,,,,,,,,,,,
,Move,canvas.Screen,0_3_0_2_0_4,right,response,,196194,196194.54,196194.76,196702,507.2399999999907,196713,2021-11-01T18:56:52.827Z,196770.3,1635792813,incremental,ni_sequenzen,NI_Sequenzen,5,2,,,,,,,,,,,,
,Move,canvas.Screen,0_3_0_2_0_5,-999,skipped,,196723,,,196702,,196723,2021-11-01T18:56:52.837Z,196770.3,1635792813,incremental,ni_sequenzen,NI_Sequenzen,6,2,,,,,,,,,,,,
,Move,canvas.Screen,0_3_0_2_0_6,-999,skipped,,196731,,,196702,,196731,2021-11-01T18:56:52.845Z,196770.3,1635792813,incremental,ni_sequenzen,NI_Sequenzen,7,2,,,,,,,,,,,,
,Move,canvas.Screen,0_3_0_2_0_7,-999,skipped,,196737,,,196702,,196737,2021-11-01T18:56:52.852Z,196770.3,1635792813,incremental,ni_sequenzen,NI_Sequenzen,8,2,,,,,,,,,,,,
,Move,canvas.Screen,0_3_0_2_0_8,-999,skipped,,196742,,,196702,,196742,2021-11-01T18:56:52.857Z,196770.3,1635792813,incremental,ni_sequenzen,NI_Sequenzen,9,2,,,,,,,,,,,,
,Move,canvas.Screen,0_3_0_2_0_9,-999,skipped,,196747,,,196702,,196747,2021-11-01T18:56:52.862Z,196770.3,1635792813,incremental,ni_sequenzen,NI_Sequenzen,10,2,,,,,,,,,,,,
,Move,canvas.Screen,0_3_0_2_0_10,-999,skipped,,196751,,,196702,,196751,2021-11-01T18:56:52.866Z,196770.3,1635792813,incremental,ni_sequenzen,NI_Sequenzen,11,2,,,,,,,,,,,,
,Move,canvas.Screen,0_3_0_2_0_11,-999,skipped,,196756,,,196702,,196756,2021-11-01T18:56:52.870Z,196770.3,1635792813,incremental,ni_sequenzen,NI_Sequenzen,12,2,,,,,,,,,,,,
,Move,canvas.Screen,0_3_0_2_0_12,-999,skipped,,196759,,,196702,,196759,2021-11-01T18:56:52.874Z,196770.3,1635792813,incremental,ni_sequenzen,NI_Sequenzen,13,2,,,,,,,,,,,,
,Move,canvas.Screen,0_3_0_2_0_13,-999,skipped,,196763,,,196702,,196763,2021-11-01T18:56:52.877Z,196770.3,1635792813,incremental,ni_sequenzen,NI_Sequenzen,14,2,,,,,,,,,,,,
,Move,canvas.Screen,0_3_0_2_0_14,-999,skipped,,196767,,,196702,,196767,2021-11-01T18:56:52.881Z,196770.3,1635792813,incremental,ni_sequenzen,NI_Sequenzen,15,2,,,,,,,,,,,,
,Loop,flow.Loop,0_3_0_2_0,-999,completion,,190447,190450.92,190467.58,196702,6234.420000000013,196767,2021-11-01T18:56:52.882Z,196770.3,1635792813,incremental,ni_sequenzen,NI_Sequenzen,,2,,,,,,,,,,,,
,Feedback,canvas.Screen,0_3_0_2_1,,timeout,,196770,196769.92,196770.3,200757.94,4004.2000000000116,200760,2021-11-01T18:56:56.874Z,200774.5,1635792813,incremental,ni_sequenzen,NI_Sequenzen,,2,,,,,,,,,,,,
,Trial,flow.Sequence,0_3_0_2,,completion,,190437,190450.92,190467.58,200757.94,10290.360000000015,200760,2021-11-01T18:56:56.874Z,200791.16,1635792813,incremental,ni_sequenzen,NI_Sequenzen,,2,,,,,,,,,,,,
,Move,canvas.Screen,0_3_0_3_0_0,down,response,,200774,200774.5,200791.16,206655,5863.8399999999965,206660,2021-11-01T18:57:02.774Z,206668.06,1635792813,incremental,ni_sequenzen,NI_Sequenzen,1,3,,,,,,,,,,,,
,Move,canvas.Screen,0_3_0_3_0_1,right,response,,206668,206667.78,206668.06,207671,1002.9400000000023,207686,2021-11-01T18:57:03.800Z,207691.72,1635792813,incremental,ni_sequenzen,NI_Sequenzen,2,3,,,,,,,,,,,,
,Move,canvas.Screen,0_3_0_3_0_2,right,response,,207692,207691.34,207691.72,207967,275.27999999999884,207986,2021-11-01T18:57:04.101Z,207991.68,1635792813,incremental,ni_sequenzen,NI_Sequenzen,3,3,,,,,,,,,,,,
,Move,canvas.Screen,0_3_0_3_0_3,down,response,,207992,207991.36,207991.68,209515,1523.320000000007,209526,2021-11-01T18:57:05.641Z,209578.14,1635792813,incremental,ni_sequenzen,NI_Sequenzen,4,3,,,,,,,,,,,,
,Move,canvas.Screen,0_3_0_3_0_4,-999,skipped,,209532,,,209515,,209532,2021-11-01T18:57:05.646Z,209578.14,1635792813,incremental,ni_sequenzen,NI_Sequenzen,5,3,,,,,,,,,,,,
,Move,canvas.Screen,0_3_0_3_0_5,-999,skipped,,209536,,,209515,,209536,2021-11-01T18:57:05.650Z,209578.14,1635792813,incremental,ni_sequenzen,NI_Sequenzen,6,3,,,,,,,,,,,,
,Move,canvas.Screen,0_3_0_3_0_6,-999,skipped,,209539,,,209515,,209539,2021-11-01T18:57:05.654Z,209578.14,1635792813,incremental,ni_sequenzen,NI_Sequenzen,7,3,,,,,,,,,,,,
,Move,canvas.Screen,0_3_0_3_0_7,-999,skipped,,209545,,,209515,,209545,2021-11-01T18:57:05.659Z,209578.14,1635792813,incremental,ni_sequenzen,NI_Sequenzen,8,3,,,,,,,,,,,,
,Move,canvas.Screen,0_3_0_3_0_8,-999,skipped,,209549,,,209515,,209549,2021-11-01T18:57:05.664Z,209578.14,1635792813,incremental,ni_sequenzen,NI_Sequenzen,9,3,,,,,,,,,,,,
,Move,canvas.Screen,0_3_0_3_0_9,-999,skipped,,209554,,,209515,,209554,2021-11-01T18:57:05.668Z,209578.14,1635792813,incremental,ni_sequenzen,NI_Sequenzen,10,3,,,,,,,,,,,,
,Move,canvas.Screen,0_3_0_3_0_10,-999,skipped,,209558,,,209515,,209558,2021-11-01T18:57:05.672Z,209578.14,1635792813,incremental,ni_sequenzen,NI_Sequenzen,11,3,,,,,,,,,,,,
,Move,canvas.Screen,0_3_0_3_0_11,-999,skipped,,209562,,,209515,,209562,2021-11-01T18:57:05.676Z,209578.14,1635792813,incremental,ni_sequenzen,NI_Sequenzen,12,3,,,,,,,,,,,,
,Move,canvas.Screen,0_3_0_3_0_12,-999,skipped,,209566,,,209515,,209566,2021-11-01T18:57:05.680Z,209578.14,1635792813,incremental,ni_sequenzen,NI_Sequenzen,13,3,,,,,,,,,,,,
,Move,canvas.Screen,0_3_0_3_0_13,-999,skipped,,209571,,,209515,,209571,2021-11-01T18:57:05.685Z,209578.14,1635792813,incremental,ni_sequenzen,NI_Sequenzen,14,3,,,,,,,,,,,,
,Move,canvas.Screen,0_3_0_3_0_14,-999,skipped,,209574,,,209515,,209574,2021-11-01T18:57:05.689Z,209578.14,1635792813,incremental,ni_sequenzen,NI_Sequenzen,15,3,,,,,,,,,,,,
,Loop,flow.Loop,0_3_0_3_0,-999,completion,,200770,200774.5,200791.16,209515,8723.839999999997,209574,2021-11-01T18:57:05.689Z,209578.14,1635792813,incremental,ni_sequenzen,NI_Sequenzen,,3,,,,,,,,,,,,
,Feedback,canvas.Screen,0_3_0_3_1,,timeout,,209577,209577.88,209578.14,213562.56,4000.9799999999814,213564,2021-11-01T18:57:09.679Z,213579.12,1635792813,incremental,ni_sequenzen,NI_Sequenzen,,3,,,,,,,,,,,,
,Trial,flow.Sequence,0_3_0_3,,completion,,200762,200774.5,200791.16,213562.56,12771.399999999994,213564,2021-11-01T18:57:09.679Z,213595.78,1635792813,incremental,ni_sequenzen,NI_Sequenzen,,3,,,,,,,,,,,,
,Move,canvas.Screen,0_3_0_4_0_0,down,response,,213578,213579.12,213595.78,215687,2091.220000000001,215705,2021-11-01T18:57:11.820Z,215718.94,1635792813,incremental,ni_sequenzen,NI_Sequenzen,1,4,,,,,,,,,,,,
,Move,canvas.Screen,0_3_0_4_0_1,right,response,,215719,215718.26,215718.94,216014,295.0599999999977,216034,2021-11-01T18:57:12.148Z,216042.24,1635792813,incremental,ni_sequenzen,NI_Sequenzen,2,4,,,,,,,,,,,,
,Move,canvas.Screen,0_3_0_4_0_2,right,response,,216042,216041.86,216042.24,216311,268.7600000000093,216329,2021-11-01T18:57:12.443Z,216339.36,1635792813,incremental,ni_sequenzen,NI_Sequenzen,3,4,,,,,,,,,,,,
,Move,canvas.Screen,0_3_0_4_0_3,down,response,,216339,216339,216339.36,217765,1425.640000000014,217784,2021-11-01T18:57:13.898Z,217834.32,1635792813,incremental,ni_sequenzen,NI_Sequenzen,4,4,,,,,,,,,,,,
,Move,canvas.Screen,0_3_0_4_0_4,-999,skipped,,217790,,,217765,,217790,2021-11-01T18:57:13.904Z,217834.32,1635792813,incremental,ni_sequenzen,NI_Sequenzen,5,4,,,,,,,,,,,,
,Move,canvas.Screen,0_3_0_4_0_5,-999,skipped,,217794,,,217765,,217794,2021-11-01T18:57:13.909Z,217834.32,1635792813,incremental,ni_sequenzen,NI_Sequenzen,6,4,,,,,,,,,,,,
,Move,canvas.Screen,0_3_0_4_0_6,-999,skipped,,217798,,,217765,,217798,2021-11-01T18:57:13.913Z,217834.32,1635792813,incremental,ni_sequenzen,NI_Sequenzen,7,4,,,,,,,,,,,,
,Move,canvas.Screen,0_3_0_4_0_7,-999,skipped,,217802,,,217765,,217802,2021-11-01T18:57:13.917Z,217834.32,1635792813,incremental,ni_sequenzen,NI_Sequenzen,8,4,,,,,,,,,,,,
,Move,canvas.Screen,0_3_0_4_0_8,-999,skipped,,217806,,,217765,,217806,2021-11-01T18:57:13.921Z,217834.32,1635792813,incremental,ni_sequenzen,NI_Sequenzen,9,4,,,,,,,,,,,,
,Move,canvas.Screen,0_3_0_4_0_9,-999,skipped,,217810,,,217765,,217810,2021-11-01T18:57:13.924Z,217834.32,1635792813,incremental,ni_sequenzen,NI_Sequenzen,10,4,,,,,,,,,,,,
,Move,canvas.Screen,0_3_0_4_0_10,-999,skipped,,217815,,,217765,,217815,2021-11-01T18:57:13.929Z,217834.32,1635792813,incremental,ni_sequenzen,NI_Sequenzen,11,4,,,,,,,,,,,,
,Move,canvas.Screen,0_3_0_4_0_11,-999,skipped,,217820,,,217765,,217820,2021-11-01T18:57:13.934Z,217834.32,1635792813,incremental,ni_sequenzen,NI_Sequenzen,12,4,,,,,,,,,,,,
,Move,canvas.Screen,0_3_0_4_0_12,-999,skipped,,217824,,,217765,,217824,2021-11-01T18:57:13.938Z,217834.32,1635792813,incremental,ni_sequenzen,NI_Sequenzen,13,4,,,,,,,,,,,,
,Move,canvas.Screen,0_3_0_4_0_13,-999,skipped,,217828,,,217765,,217828,2021-11-01T18:57:13.942Z,217834.32,1635792813,incremental,ni_sequenzen,NI_Sequenzen,14,4,,,,,,,,,,,,
,Move,canvas.Screen,0_3_0_4_0_14,-999,skipped,,217831,,,217765,,217831,2021-11-01T18:57:13.945Z,217834.32,1635792813,incremental,ni_sequenzen,NI_Sequenzen,15,4,,,,,,,,,,,,
,Loop,flow.Loop,0_3_0_4_0,-999,completion,,213574,213579.12,213595.78,217765,4169.220000000001,217831,2021-11-01T18:57:13.945Z,217834.32,1635792813,incremental,ni_sequenzen,NI_Sequenzen,,4,,,,,,,,,,,,
,Feedback,canvas.Screen,0_3_0_4_1,,timeout,,217834,217833.94,217834.32,221821.46,4012.399999999994,221822,2021-11-01T18:57:17.937Z,221846.72,1635792813,incremental,ni_sequenzen,NI_Sequenzen,,4,,,,,,,,,,,,
,Trial,flow.Sequence,0_3_0_4,,completion,,213565,213579.12,213595.78,221821.46,8225.679999999993,221822,2021-11-01T18:57:17.937Z,221854.74,1635792813,incremental,ni_sequenzen,NI_Sequenzen,,4,,,,,,,,,,,,
,Move,canvas.Screen,0_3_0_5_0_0,down,response,,221847,221846.72,221854.74,222624,769.2600000000093,222639,2021-11-01T18:57:18.754Z,222647.5,1635792813,incremental,ni_sequenzen,NI_Sequenzen,1,5,,,,,,,,,,,,
,Move,canvas.Screen,0_3_0_5_0_1,right,response,,222647,222647.18,222647.5,222967,319.5,222987,2021-11-01T18:57:19.101Z,222996.62,1635792813,incremental,ni_sequenzen,NI_Sequenzen,2,5,,,,,,,,,,,,
,Move,canvas.Screen,0_3_0_5_0_2,right,response,,222996,222995.98,222996.62,223187,190.38000000000466,223204,2021-11-01T18:57:19.318Z,223211.6,1635792813,incremental,ni_sequenzen,NI_Sequenzen,3,5,,,,,,,,,,,,
,Move,canvas.Screen,0_3_0_5_0_3,down,response,,223211,223211.32,223211.6,223577,365.3999999999942,223589,2021-11-01T18:57:19.704Z,223637.36,1635792813,incremental,ni_sequenzen,NI_Sequenzen,4,5,,,,,,,,,,,,
,Move,canvas.Screen,0_3_0_5_0_4,-999,skipped,,223595,,,223577,,223595,2021-11-01T18:57:19.710Z,223637.36,1635792813,incremental,ni_sequenzen,NI_Sequenzen,5,5,,,,,,,,,,,,
,Move,canvas.Screen,0_3_0_5_0_5,-999,skipped,,223599,,,223577,,223599,2021-11-01T18:57:19.714Z,223637.36,1635792813,incremental,ni_sequenzen,NI_Sequenzen,6,5,,,,,,,,,,,,
,Move,canvas.Screen,0_3_0_5_0_6,-999,skipped,,223603,,,223577,,223603,2021-11-01T18:57:19.718Z,223637.36,1635792813,incremental,ni_sequenzen,NI_Sequenzen,7,5,,,,,,,,,,,,
,Move,canvas.Screen,0_3_0_5_0_7,-999,skipped,,223607,,,223577,,223607,2021-11-01T18:57:19.721Z,223637.36,1635792813,incremental,ni_sequenzen,NI_Sequenzen,8,5,,,,,,,,,,,,
,Move,canvas.Screen,0_3_0_5_0_8,-999,skipped,,223610,,,223577,,223610,2021-11-01T18:57:19.725Z,223637.36,1635792813,incremental,ni_sequenzen,NI_Sequenzen,9,5,,,,,,,,,,,,
,Move,canvas.Screen,0_3_0_5_0_9,-999,skipped,,223614,,,223577,,223614,2021-11-01T18:57:19.729Z,223637.36,1635792813,incremental,ni_sequenzen,NI_Sequenzen,10,5,,,,,,,,,,,,
,Move,canvas.Screen,0_3_0_5_0_10,-999,skipped,,223619,,,223577,,223619,2021-11-01T18:57:19.732Z,223637.36,1635792813,incremental,ni_sequenzen,NI_Sequenzen,11,5,,,,,,,,,,,,
,Move,canvas.Screen,0_3_0_5_0_11,-999,skipped,,223622,,,223577,,223622,2021-11-01T18:57:19.736Z,223637.36,1635792813,incremental,ni_sequenzen,NI_Sequenzen,12,5,,,,,,,,,,,,
,Move,canvas.Screen,0_3_0_5_0_12,-999,skipped,,223626,,,223577,,223626,2021-11-01T18:57:19.740Z,223637.36,1635792813,incremental,ni_sequenzen,NI_Sequenzen,13,5,,,,,,,,,,,,
,Move,canvas.Screen,0_3_0_5_0_13,-999,skipped,,223629,,,223577,,223629,2021-11-01T18:57:19.744Z,223637.36,1635792813,incremental,ni_sequenzen,NI_Sequenzen,14,5,,,,,,,,,,,,
,Move,canvas.Screen,0_3_0_5_0_14,-999,skipped,,223633,,,223577,,223633,2021-11-01T18:57:19.748Z,223637.36,1635792813,incremental,ni_sequenzen,NI_Sequenzen,15,5,,,,,,,,,,,,
,Loop,flow.Loop,0_3_0_5_0,-999,completion,,221838,221846.72,221854.74,223577,1722.2600000000093,223634,2021-11-01T18:57:19.748Z,223637.36,1635792813,incremental,ni_sequenzen,NI_Sequenzen,,5,,,,,,,,,,,,
,Feedback,canvas.Screen,0_3_0_5_1,,timeout,,223637,223637,223637.36,227616.06,3995.24000000002,227618,2021-11-01T18:57:23.733Z,227632.6,1635792813,incremental,ni_sequenzen,NI_Sequenzen,,5,,,,,,,,,,,,
,Trial,flow.Sequence,0_3_0_5,,completion,,221824,221846.72,221854.74,227616.06,5761.320000000007,227618,2021-11-01T18:57:23.733Z,227649.24,1635792813,incremental,ni_sequenzen,NI_Sequenzen,,5,,,,,,,,,,,,
,Move,canvas.Screen,0_3_0_6_0_0,down,response,,227629,227632.6,227649.24,228608,958.7600000000093,228614,2021-11-01T18:57:24.729Z,228622.7,1635792813,incremental,ni_sequenzen,NI_Sequenzen,1,6,,,,,,,,,,,,
,Move,canvas.Screen,0_3_0_6_0_1,right,response,,228622,228622.38,228622.7,228858,235.29999999998836,228876,2021-11-01T18:57:24.991Z,228892.52,1635792813,incremental,ni_sequenzen,NI_Sequenzen,2,6,,,,,,,,,,,,
,Move,canvas.Screen,0_3_0_6_0_2,right,response,,228892,228892.08,228892.52,229092,199.48000000001048,229112,2021-11-01T18:57:25.226Z,229118.34,1635792813,incremental,ni_sequenzen,NI_Sequenzen,3,6,,,,,,,,,,,,
,Move,canvas.Screen,0_3_0_6_0_3,down,response,,229118,229118.16,229118.34,229375,256.6600000000035,229394,2021-11-01T18:57:25.508Z,229443.22,1635792813,incremental,ni_sequenzen,NI_Sequenzen,4,6,,,,,,,,,,,,
,Move,canvas.Screen,0_3_0_6_0_4,-999,skipped,,229402,,,229375,,229402,2021-11-01T18:57:25.517Z,229443.22,1635792813,incremental,ni_sequenzen,NI_Sequenzen,5,6,,,,,,,,,,,,
,Move,canvas.Screen,0_3_0_6_0_5,-999,skipped,,229406,,,229375,,229406,2021-11-01T18:57:25.521Z,229443.22,1635792813,incremental,ni_sequenzen,NI_Sequenzen,6,6,,,,,,,,,,,,
,Move,canvas.Screen,0_3_0_6_0_6,-999,skipped,,229410,,,229375,,229410,2021-11-01T18:57:25.524Z,229443.22,1635792813,incremental,ni_sequenzen,NI_Sequenzen,7,6,,,,,,,,,,,,
,Move,canvas.Screen,0_3_0_6_0_7,-999,skipped,,229414,,,229375,,229414,2021-11-01T18:57:25.529Z,229443.22,1635792813,incremental,ni_sequenzen,NI_Sequenzen,8,6,,,,,,,,,,,,
,Move,canvas.Screen,0_3_0_6_0_8,-999,skipped,,229418,,,229375,,229418,2021-11-01T18:57:25.532Z,229443.22,1635792813,incremental,ni_sequenzen,NI_Sequenzen,9,6,,,,,,,,,,,,
,Move,canvas.Screen,0_3_0_6_0_9,-999,skipped,,229421,,,229375,,229421,2021-11-01T18:57:25.536Z,229443.22,1635792813,incremental,ni_sequenzen,NI_Sequenzen,10,6,,,,,,,,,,,,
,Move,canvas.Screen,0_3_0_6_0_10,-999,skipped,,229425,,,229375,,229425,2021-11-01T18:57:25.539Z,229443.22,1635792813,incremental,ni_sequenzen,NI_Sequenzen,11,6,,,,,,,,,,,,
,Move,canvas.Screen,0_3_0_6_0_11,-999,skipped,,229429,,,229375,,229429,2021-11-01T18:57:25.543Z,229443.22,1635792813,incremental,ni_sequenzen,NI_Sequenzen,12,6,,,,,,,,,,,,
,Move,canvas.Screen,0_3_0_6_0_12,-999,skipped,,229433,,,229375,,229433,2021-11-01T18:57:25.547Z,229443.22,1635792813,incremental,ni_sequenzen,NI_Sequenzen,13,6,,,,,,,,,,,,
,Move,canvas.Screen,0_3_0_6_0_13,-999,skipped,,229436,,,229375,,229436,2021-11-01T18:57:25.551Z,229443.22,1635792813,incremental,ni_sequenzen,NI_Sequenzen,14,6,,,,,,,,,,,,
,Move,canvas.Screen,0_3_0_6_0_14,-999,skipped,,229440,,,229375,,229440,2021-11-01T18:57:25.555Z,229443.22,1635792813,incremental,ni_sequenzen,NI_Sequenzen,15,6,,,,,,,,,,,,
,Loop,flow.Loop,0_3_0_6_0,-999,completion,,227626,227632.6,227649.24,229375,1725.7600000000093,229440,2021-11-01T18:57:25.555Z,229443.22,1635792813,incremental,ni_sequenzen,NI_Sequenzen,,6,,,,,,,,,,,,
,Feedback,canvas.Screen,0_3_0_6_1,,timeout,,229443,229442.84,229443.22,233427.32,4000.600000000006,233429,2021-11-01T18:57:29.543Z,233443.82,1635792813,incremental,ni_sequenzen,NI_Sequenzen,,6,,,,,,,,,,,,
,Trial,flow.Sequence,0_3_0_6,,completion,,227619,227632.6,227649.24,233427.32,5778.080000000016,233429,2021-11-01T18:57:29.543Z,233460.48,1635792813,incremental,ni_sequenzen,NI_Sequenzen,,6,,,,,,,,,,,,
,Move,canvas.Screen,0_3_0_7_0_0,down,response,,233442,233443.82,233460.48,233811,350.5199999999895,233832,2021-11-01T18:57:29.946Z,233840.04,1635792813,incremental,ni_sequenzen,NI_Sequenzen,1,7,,,,,,,,,,,,
,Move,canvas.Screen,0_3_0_7_0_1,right,response,,233840,233839.74,233840.04,234186,345.95999999999185,234201,2021-11-01T18:57:30.316Z,234214.72,1635792813,incremental,ni_sequenzen,NI_Sequenzen,2,7,,,,,,,,,,,,
,Move,canvas.Screen,0_3_0_7_0_2,right,response,,234214,234214.14,234214.72,234453,238.27999999999884,234464,2021-11-01T18:57:30.579Z,234473.94,1635792813,incremental,ni_sequenzen,NI_Sequenzen,3,7,,,,,,,,,,,,
,Move,canvas.Screen,0_3_0_7_0_3,right,response,,234474,234473.62,234473.94,234655,181.05999999999767,234677,2021-11-01T18:57:30.791Z,234684.38,1635792813,incremental,ni_sequenzen,NI_Sequenzen,4,7,,,,,,,,,,,,
,Move,canvas.Screen,0_3_0_7_0_4,down,response,,234684,234684.12,234684.38,235124,439.61999999999534,235144,2021-11-01T18:57:31.258Z,235190.28,1635792813,incremental,ni_sequenzen,NI_Sequenzen,5,7,,,,,,,,,,,,
,Move,canvas.Screen,0_3_0_7_0_5,-999,skipped,,235153,,,235124,,235153,2021-11-01T18:57:31.268Z,235190.28,1635792813,incremental,ni_sequenzen,NI_Sequenzen,6,7,,,,,,,,,,,,
,Move,canvas.Screen,0_3_0_7_0_6,-999,skipped,,235158,,,235124,,235158,2021-11-01T18:57:31.272Z,235190.28,1635792813,incremental,ni_sequenzen,NI_Sequenzen,7,7,,,,,,,,,,,,
,Move,canvas.Screen,0_3_0_7_0_7,-999,skipped,,235161,,,235124,,235161,2021-11-01T18:57:31.275Z,235190.28,1635792813,incremental,ni_sequenzen,NI_Sequenzen,8,7,,,,,,,,,,,,
,Move,canvas.Screen,0_3_0_7_0_8,-999,skipped,,235165,,,235124,,235165,2021-11-01T18:57:31.279Z,235190.28,1635792813,incremental,ni_sequenzen,NI_Sequenzen,9,7,,,,,,,,,,,,
,Move,canvas.Screen,0_3_0_7_0_9,-999,skipped,,235169,,,235124,,235169,2021-11-01T18:57:31.283Z,235190.28,1635792813,incremental,ni_sequenzen,NI_Sequenzen,10,7,,,,,,,,,,,,
,Move,canvas.Screen,0_3_0_7_0_10,-999,skipped,,235172,,,235124,,235173,2021-11-01T18:57:31.287Z,235190.28,1635792813,incremental,ni_sequenzen,NI_Sequenzen,11,7,,,,,,,,,,,,
,Move,canvas.Screen,0_3_0_7_0_11,-999,skipped,,235177,,,235124,,235177,2021-11-01T18:57:31.291Z,235190.28,1635792813,incremental,ni_sequenzen,NI_Sequenzen,12,7,,,,,,,,,,,,
,Move,canvas.Screen,0_3_0_7_0_12,-999,skipped,,235179,,,235124,,235179,2021-11-01T18:57:31.295Z,235190.28,1635792813,incremental,ni_sequenzen,NI_Sequenzen,13,7,,,,,,,,,,,,
,Move,canvas.Screen,0_3_0_7_0_13,-999,skipped,,235183,,,235124,,235183,2021-11-01T18:57:31.298Z,235190.28,1635792813,incremental,ni_sequenzen,NI_Sequenzen,14,7,,,,,,,,,,,,
,Move,canvas.Screen,0_3_0_7_0_14,-999,skipped,,235186,,,235124,,235187,2021-11-01T18:57:31.302Z,235190.28,1635792813,incremental,ni_sequenzen,NI_Sequenzen,15,7,,,,,,,,,,,,
,Loop,flow.Loop,0_3_0_7_0,-999,completion,,233439,233443.82,233460.48,235124,1663.5199999999895,235187,2021-11-01T18:57:31.302Z,235190.28,1635792813,incremental,ni_sequenzen,NI_Sequenzen,,7,,,,,,,,,,,,
,Feedback,canvas.Screen,0_3_0_7_1,,timeout,,235190,235189.96,235190.28,239171.74,4004.3800000000047,239173,2021-11-01T18:57:35.287Z,239194.66,1635792813,incremental,ni_sequenzen,NI_Sequenzen,,7,,,,,,,,,,,,
,Trial,flow.Sequence,0_3_0_7,,completion,,233430,233443.82,233460.48,239171.74,5711.25999999998,239174,2021-11-01T18:57:35.288Z,239205.04,1635792813,incremental,ni_sequenzen,NI_Sequenzen,,7,,,,,,,,,,,,
,Move,canvas.Screen,0_3_0_8_0_0,down,response,,239195,239194.66,239205.04,239561,355.95999999999185,239565,2021-11-01T18:57:35.679Z,239574.24,1635792813,incremental,ni_sequenzen,NI_Sequenzen,1,8,,,,,,,,,,,,
,Move,canvas.Screen,0_3_0_8_0_1,right,response,,239574,239574.1,239574.24,240030,455.7600000000093,240036,2021-11-01T18:57:36.151Z,240044.16,1635792813,incremental,ni_sequenzen,NI_Sequenzen,2,8,,,,,,,,,,,,
,Move,canvas.Screen,0_3_0_8_0_2,right,response,,240044,240043.76,240044.16,240297,252.8399999999965,240310,2021-11-01T18:57:36.424Z,240317.64,1635792813,incremental,ni_sequenzen,NI_Sequenzen,3,8,,,,,,,,,,,,
,Move,canvas.Screen,0_3_0_8_0_3,down,response,,240317,240317.48,240317.64,240953,635.359999999986,240966,2021-11-01T18:57:37.081Z,241040.62,1635792813,incremental,ni_sequenzen,NI_Sequenzen,4,8,,,,,,,,,,,,
,Move,canvas.Screen,0_3_0_8_0_4,-999,skipped,,240984,,,240953,,240984,2021-11-01T18:57:37.099Z,241040.62,1635792813,incremental,ni_sequenzen,NI_Sequenzen,5,8,,,,,,,,,,,,
,Move,canvas.Screen,0_3_0_8_0_5,-999,skipped,,240993,,,240953,,240993,2021-11-01T18:57:37.109Z,241040.62,1635792813,incremental,ni_sequenzen,NI_Sequenzen,6,8,,,,,,,,,,,,
,Move,canvas.Screen,0_3_0_8_0_6,-999,skipped,,240999,,,240953,,240999,2021-11-01T18:57:37.114Z,241040.62,1635792813,incremental,ni_sequenzen,NI_Sequenzen,7,8,,,,,,,,,,,,
,Move,canvas.Screen,0_3_0_8_0_7,-999,skipped,,241004,,,240953,,241004,2021-11-01T18:57:37.119Z,241040.62,1635792813,incremental,ni_sequenzen,NI_Sequenzen,8,8,,,,,,,,,,,,
,Move,canvas.Screen,0_3_0_8_0_8,-999,skipped,,241009,,,240953,,241009,2021-11-01T18:57:37.123Z,241040.62,1635792813,incremental,ni_sequenzen,NI_Sequenzen,9,8,,,,,,,,,,,,
,Move,canvas.Screen,0_3_0_8_0_9,-999,skipped,,241013,,,240953,,241013,2021-11-01T18:57:37.128Z,241040.62,1635792813,incremental,ni_sequenzen,NI_Sequenzen,10,8,,,,,,,,,,,,
,Move,canvas.Screen,0_3_0_8_0_10,-999,skipped,,241018,,,240953,,241018,2021-11-01T18:57:37.132Z,241040.62,1635792813,incremental,ni_sequenzen,NI_Sequenzen,11,8,,,,,,,,,,,,
,Move,canvas.Screen,0_3_0_8_0_11,-999,skipped,,241023,,,240953,,241023,2021-11-01T18:57:37.137Z,241040.62,1635792813,incremental,ni_sequenzen,NI_Sequenzen,12,8,,,,,,,,,,,,
,Move,canvas.Screen,0_3_0_8_0_12,-999,skipped,,241027,,,240953,,241027,2021-11-01T18:57:37.142Z,241040.62,1635792813,incremental,ni_sequenzen,NI_Sequenzen,13,8,,,,,,,,,,,,
,Move,canvas.Screen,0_3_0_8_0_13,-999,skipped,,241032,,,240953,,241032,2021-11-01T18:57:37.146Z,241040.62,1635792813,incremental,ni_sequenzen,NI_Sequenzen,14,8,,,,,,,,,,,,
,Move,canvas.Screen,0_3_0_8_0_14,-999,skipped,,241036,,,240953,,241036,2021-11-01T18:57:37.151Z,241040.62,1635792813,incremental,ni_sequenzen,NI_Sequenzen,15,8,,,,,,,,,,,,
,Loop,flow.Loop,0_3_0_8_0,-999,completion,,239187,239194.66,239205.04,240953,1747.9599999999919,241036,2021-11-01T18:57:37.151Z,241040.62,1635792813,incremental,ni_sequenzen,NI_Sequenzen,,8,,,,,,,,,,,,
,Feedback,canvas.Screen,0_3_0_8_1,,timeout,,241040,241040.2,241040.62,245016.34,3995.179999999993,245018,2021-11-01T18:57:41.132Z,245035.8,1635792813,incremental,ni_sequenzen,NI_Sequenzen,,8,,,,,,,,,,,,
,Trial,flow.Sequence,0_3_0_8,,completion,,239174,239194.66,239205.04,245016.34,5811.299999999988,245019,2021-11-01T18:57:41.133Z,245049.56,1635792813,incremental,ni_sequenzen,NI_Sequenzen,,8,,,,,,,,,,,,
,Move,canvas.Screen,0_3_0_9_0_0,down,response,,245035,245035.8,245049.56,245342,292.4400000000023,245355,2021-11-01T18:57:41.469Z,245366.88,1635792813,incremental,ni_sequenzen,NI_Sequenzen,1,9,,,,,,,,,,,,
,Move,canvas.Screen,0_3_0_9_0_1,right,response,,245366,245366.54,245366.88,245624,257.11999999999534,245634,2021-11-01T18:57:41.748Z,245640.1,1635792813,incremental,ni_sequenzen,NI_Sequenzen,2,9,,,,,,,,,,,,
,Move,canvas.Screen,0_3_0_9_0_2,right,response,,245639,245639.08,245640.1,245936,295.8999999999942,245955,2021-11-01T18:57:42.070Z,245961.16,1635792813,incremental,ni_sequenzen,NI_Sequenzen,3,9,,,,,,,,,,,,
,Move,canvas.Screen,0_3_0_9_0_3,down,response,,245961,245960.96,245961.16,246186,224.8399999999965,246206,2021-11-01T18:57:42.321Z,246258.66,1635792813,incremental,ni_sequenzen,NI_Sequenzen,4,9,,,,,,,,,,,,
,Move,canvas.Screen,0_3_0_9_0_4,-999,skipped,,246212,,,246186,,246212,2021-11-01T18:57:42.326Z,246258.66,1635792813,incremental,ni_sequenzen,NI_Sequenzen,5,9,,,,,,,,,,,,
,Move,canvas.Screen,0_3_0_9_0_5,-999,skipped,,246217,,,246186,,246217,2021-11-01T18:57:42.331Z,246258.66,1635792813,incremental,ni_sequenzen,NI_Sequenzen,6,9,,,,,,,,,,,,
,Move,canvas.Screen,0_3_0_9_0_6,-999,skipped,,246220,,,246186,,246220,2021-11-01T18:57:42.335Z,246258.66,1635792813,incremental,ni_sequenzen,NI_Sequenzen,7,9,,,,,,,,,,,,
,Move,canvas.Screen,0_3_0_9_0_7,-999,skipped,,246225,,,246186,,246225,2021-11-01T18:57:42.339Z,246258.66,1635792813,incremental,ni_sequenzen,NI_Sequenzen,8,9,,,,,,,,,,,,
,Move,canvas.Screen,0_3_0_9_0_8,-999,skipped,,246229,,,246186,,246229,2021-11-01T18:57:42.343Z,246258.66,1635792813,incremental,ni_sequenzen,NI_Sequenzen,9,9,,,,,,,,,,,,
,Move,canvas.Screen,0_3_0_9_0_9,-999,skipped,,246233,,,246186,,246233,2021-11-01T18:57:42.347Z,246258.66,1635792813,incremental,ni_sequenzen,NI_Sequenzen,10,9,,,,,,,,,,,,
,Move,canvas.Screen,0_3_0_9_0_10,-999,skipped,,246237,,,246186,,246238,2021-11-01T18:57:42.352Z,246258.66,1635792813,incremental,ni_sequenzen,NI_Sequenzen,11,9,,,,,,,,,,,,
,Move,canvas.Screen,0_3_0_9_0_11,-999,skipped,,246241,,,246186,,246241,2021-11-01T18:57:42.356Z,246258.66,1635792813,incremental,ni_sequenzen,NI_Sequenzen,12,9,,,,,,,,,,,,
,Move,canvas.Screen,0_3_0_9_0_12,-999,skipped,,246246,,,246186,,246246,2021-11-01T18:57:42.360Z,246258.66,1635792813,incremental,ni_sequenzen,NI_Sequenzen,13,9,,,,,,,,,,,,
,Move,canvas.Screen,0_3_0_9_0_13,-999,skipped,,246249,,,246186,,246249,2021-11-01T18:57:42.364Z,246258.66,1635792813,incremental,ni_sequenzen,NI_Sequenzen,14,9,,,,,,,,,,,,
,Move,canvas.Screen,0_3_0_9_0_14,-999,skipped,,246254,,,246186,,246254,2021-11-01T18:57:42.368Z,246258.66,1635792813,incremental,ni_sequenzen,NI_Sequenzen,15,9,,,,,,,,,,,,
,Loop,flow.Loop,0_3_0_9_0,-999,completion,,245031,245035.8,245049.56,246186,1136.4400000000023,246254,2021-11-01T18:57:42.368Z,246258.66,1635792813,incremental,ni_sequenzen,NI_Sequenzen,,9,,,,,,,,,,,,
,Feedback,canvas.Screen,0_3_0_9_1,,timeout,,246258,246258.3,246258.66,250244.76,4117.559999999998,250246,2021-11-01T18:57:46.360Z,250376.22,1635792813,incremental,ni_sequenzen,NI_Sequenzen,,9,,,,,,,,,,,,
,Trial,flow.Sequence,0_3_0_9,,completion,,245019,245035.8,245049.56,250244.76,5195.200000000012,250246,2021-11-01T18:57:46.361Z,250394.52,1635792813,incremental,ni_sequenzen,NI_Sequenzen,,9,,,,,,,,,,,,
,Block,flow.Loop,0_3_0,,completion,,162324,162335.44,162335.8,250244.76,87908.96000000002,250247,2021-11-01T18:57:46.361Z,250394.52,1635792813,incremental,ni_sequenzen,NI_Sequenzen,,,,,,,,,,,,,,
,Training_II,flow.Sequence,0_3,,completion,,162308,162335.44,162335.8,250244.76,87908.96000000002,250247,2021-11-01T18:57:46.361Z,250394.52,1635792813,incremental,ni_sequenzen,NI_Sequenzen,,,,,,,,,,,,,,
,Screen_1,canvas.Screen,0_4_0_0,cont,response,1,250376,250376.22,250394.52,257280,6885.4800000000105,257283,2021-11-01T18:57:53.398Z,257288.06,1635792813,incremental,ni_sequenzen,NI_Sequenzen,,,,,,,,,,,,,,
,Screen_2,canvas.Screen,0_4_0_1,cont,response,1,257285,257284.68,257288.06,264406,7117.940000000002,264423,2021-11-01T18:58:00.538Z,264497.98,1635792813,incremental,ni_sequenzen,NI_Sequenzen,,,,,,,,,,,,,,
,Screen_3,canvas.Screen,0_4_0_2,cont,response,1,264490,264490.16,264497.98,268530,4032.0200000000186,268537,2021-11-01T18:58:04.652Z,268655.84,1635792813,incremental,ni_sequenzen,NI_Sequenzen,,,,,,,,,,,,,,
,Sequence,flow.Sequence,0_4_0,,completion,1,250273,250376.22,250394.52,268530,18135.48000000001,268538,2021-11-01T18:58:04.653Z,268655.84,1635792813,incremental,ni_sequenzen,NI_Sequenzen,,,,,,,,,,,,,,
,Screen_1,canvas.Screen,0_4_1_0,,skipped,2,268542,,,268542,,268542,2021-11-01T18:58:04.657Z,268655.84,1635792813,incremental,ni_sequenzen,NI_Sequenzen,,,,,,,,,,,,,,
,Screen_2,canvas.Screen,0_4_1_1,,skipped,2,268544,,,268542,,268544,2021-11-01T18:58:04.659Z,268655.84,1635792813,incremental,ni_sequenzen,NI_Sequenzen,,,,,,,,,,,,,,
,Screen_3,canvas.Screen,0_4_1_2,,skipped,2,268545,,,268542,,268546,2021-11-01T18:58:04.661Z,268655.84,1635792813,incremental,ni_sequenzen,NI_Sequenzen,,,,,,,,,,,,,,
,Sequence,flow.Sequence,0_4_1,,completion,2,268540,,,268542,,268546,2021-11-01T18:58:04.661Z,268655.84,1635792813,incremental,ni_sequenzen,NI_Sequenzen,,,,,,,,,,,,,,
,Screen_1,canvas.Screen,0_4_2_0,,skipped,3,268547,,,268547,,268547,2021-11-01T18:58:04.662Z,268655.84,1635792813,incremental,ni_sequenzen,NI_Sequenzen,,,,,,,,,,,,,,
,Screen_2,canvas.Screen,0_4_2_1,,skipped,3,268548,,,268547,,268548,2021-11-01T18:58:04.663Z,268655.84,1635792813,incremental,ni_sequenzen,NI_Sequenzen,,,,,,,,,,,,,,
,Screen_3,canvas.Screen,0_4_2_2,,skipped,3,268550,,,268547,,268550,2021-11-01T18:58:04.664Z,268655.84,1635792813,incremental,ni_sequenzen,NI_Sequenzen,,,,,,,,,,,,,,
,Sequence,flow.Sequence,0_4_2,,completion,3,268546,,,268547,,268550,2021-11-01T18:58:04.664Z,268655.84,1635792813,incremental,ni_sequenzen,NI_Sequenzen,,,,,,,,,,,,,,
,Screen_1,canvas.Screen,0_4_3_0,,skipped,4,268551,,,268551,,268551,2021-11-01T18:58:04.666Z,268655.84,1635792813,incremental,ni_sequenzen,NI_Sequenzen,,,,,,,,,,,,,,
,Screen_2,canvas.Screen,0_4_3_1,,skipped,4,268552,,,268551,,268552,2021-11-01T18:58:04.667Z,268655.84,1635792813,incremental,ni_sequenzen,NI_Sequenzen,,,,,,,,,,,,,,
,Screen_3,canvas.Screen,0_4_3_2,,skipped,4,268553,,,268551,,268553,2021-11-01T18:58:04.668Z,268655.84,1635792813,incremental,ni_sequenzen,NI_Sequenzen,,,,,,,,,,,,,,
,Sequence,flow.Sequence,0_4_3,,completion,4,268550,,,268551,,268553,2021-11-01T18:58:04.668Z,268655.84,1635792813,incremental,ni_sequenzen,NI_Sequenzen,,,,,,,,,,,,,,
,Screen_1,canvas.Screen,0_4_4_0,,skipped,5,268554,,,268554,,268554,2021-11-01T18:58:04.669Z,268655.84,1635792813,incremental,ni_sequenzen,NI_Sequenzen,,,,,,,,,,,,,,
,Screen_2,canvas.Screen,0_4_4_1,,skipped,5,268555,,,268554,,268555,2021-11-01T18:58:04.670Z,268655.84,1635792813,incremental,ni_sequenzen,NI_Sequenzen,,,,,,,,,,,,,,
,Screen_3,canvas.Screen,0_4_4_2,,skipped,5,268556,,,268554,,268556,2021-11-01T18:58:04.671Z,268655.84,1635792813,incremental,ni_sequenzen,NI_Sequenzen,,,,,,,,,,,,,,
,Sequence,flow.Sequence,0_4_4,,completion,5,268553,,,268554,,268556,2021-11-01T18:58:04.671Z,268655.84,1635792813,incremental,ni_sequenzen,NI_Sequenzen,,,,,,,,,,,,,,
,Screen_1,canvas.Screen,0_4_5_0,,skipped,6,268557,,,268557,,268557,2021-11-01T18:58:04.672Z,268655.84,1635792813,incremental,ni_sequenzen,NI_Sequenzen,,,,,,,,,,,,,,
,Screen_2,canvas.Screen,0_4_5_1,,skipped,6,268558,,,268557,,268558,2021-11-01T18:58:04.673Z,268655.84,1635792813,incremental,ni_sequenzen,NI_Sequenzen,,,,,,,,,,,,,,
,Screen_3,canvas.Screen,0_4_5_2,,skipped,6,268559,,,268557,,268559,2021-11-01T18:58:04.673Z,268655.84,1635792813,incremental,ni_sequenzen,NI_Sequenzen,,,,,,,,,,,,,,
,Sequence,flow.Sequence,0_4_5,,completion,6,268557,,,268557,,268559,2021-11-01T18:58:04.674Z,268655.84,1635792813,incremental,ni_sequenzen,NI_Sequenzen,,,,,,,,,,,,,,
,Screen_1,canvas.Screen,0_4_6_0,,skipped,7,268560,,,268560,,268560,2021-11-01T18:58:04.675Z,268655.84,1635792813,incremental,ni_sequenzen,NI_Sequenzen,,,,,,,,,,,,,,
,Screen_2,canvas.Screen,0_4_6_1,,skipped,7,268561,,,268560,,268561,2021-11-01T18:58:04.676Z,268655.84,1635792813,incremental,ni_sequenzen,NI_Sequenzen,,,,,,,,,,,,,,
,Screen_3,canvas.Screen,0_4_6_2,,skipped,7,268562,,,268560,,268562,2021-11-01T18:58:04.677Z,268655.84,1635792813,incremental,ni_sequenzen,NI_Sequenzen,,,,,,,,,,,,,,
,Sequence,flow.Sequence,0_4_6,,completion,7,268559,,,268560,,268562,2021-11-01T18:58:04.677Z,268655.84,1635792813,incremental,ni_sequenzen,NI_Sequenzen,,,,,,,,,,,,,,
,Screen_1,canvas.Screen,0_4_7_0,,skipped,8,268564,,,268564,,268564,2021-11-01T18:58:04.678Z,268655.84,1635792813,incremental,ni_sequenzen,NI_Sequenzen,,,,,,,,,,,,,,
,Screen_2,canvas.Screen,0_4_7_1,,skipped,8,268565,,,268564,,268565,2021-11-01T18:58:04.679Z,268655.84,1635792813,incremental,ni_sequenzen,NI_Sequenzen,,,,,,,,,,,,,,
,Screen_3,canvas.Screen,0_4_7_2,,skipped,8,268565,,,268564,,268565,2021-11-01T18:58:04.680Z,268655.84,1635792813,incremental,ni_sequenzen,NI_Sequenzen,,,,,,,,,,,,,,
,Sequence,flow.Sequence,0_4_7,,completion,8,268563,,,268564,,268566,2021-11-01T18:58:04.680Z,268655.84,1635792813,incremental,ni_sequenzen,NI_Sequenzen,,,,,,,,,,,,,,
,Screen_1,canvas.Screen,0_4_8_0,,skipped,9,268567,,,268567,,268567,2021-11-01T18:58:04.681Z,268655.84,1635792813,incremental,ni_sequenzen,NI_Sequenzen,,,,,,,,,,,,,,
,Screen_2,canvas.Screen,0_4_8_1,,skipped,9,268567,,,268567,,268567,2021-11-01T18:58:04.682Z,268655.84,1635792813,incremental,ni_sequenzen,NI_Sequenzen,,,,,,,,,,,,,,
,Screen_3,canvas.Screen,0_4_8_2,,skipped,9,268568,,,268567,,268568,2021-11-01T18:58:04.683Z,268655.84,1635792813,incremental,ni_sequenzen,NI_Sequenzen,,,,,,,,,,,,,,
,Sequence,flow.Sequence,0_4_8,,completion,9,268566,,,268567,,268568,2021-11-01T18:58:04.683Z,268655.84,1635792813,incremental,ni_sequenzen,NI_Sequenzen,,,,,,,,,,,,,,
,Screen_1,canvas.Screen,0_4_9_0,,skipped,10,268570,,,268570,,268570,2021-11-01T18:58:04.684Z,268655.84,1635792813,incremental,ni_sequenzen,NI_Sequenzen,,,,,,,,,,,,,,
,Screen_2,canvas.Screen,0_4_9_1,,skipped,10,268571,,,268570,,268571,2021-11-01T18:58:04.685Z,268655.84,1635792813,incremental,ni_sequenzen,NI_Sequenzen,,,,,,,,,,,,,,
,Screen_3,canvas.Screen,0_4_9_2,,skipped,10,268572,,,268570,,268572,2021-11-01T18:58:04.686Z,268655.84,1635792813,incremental,ni_sequenzen,NI_Sequenzen,,,,,,,,,,,,,,
,Sequence,flow.Sequence,0_4_9,,completion,10,268569,,,268570,,268572,2021-11-01T18:58:04.686Z,268655.84,1635792813,incremental,ni_sequenzen,NI_Sequenzen,,,,,,,,,,,,,,
