meta,sender,sender_type,sender_id,response,ended_on,instrCount,time_run,time_render,time_show,time_end,duration,time_commit,timestamp,time_switch,openLabId,type,task,project,move,trialN,blockN_Train,blockN,moveCount,currPP,points,movesTrial,visitedFields,diff,reward,Strategie,Zweck,Probleme
[object Object],Screen_1,canvas.Screen,0_0_0_0,cont,response,1,2239,2245.74,2279.06,22731,20451.94,22757,2021-10-25T14:09:02.521Z,23157.44,1635170782,full,ni_sequenzen,NI_Sequenzen,,,,,,,,,,,,,,
,Screen_2,canvas.Screen,0_0_0_1,cont,response,1,23138,23139.3,23157.44,32216,9058.560000000001,32223,2021-10-25T14:09:11.987Z,32538.54,1635170782,full,ni_sequenzen,NI_Sequenzen,,,,,,,,,,,,,,
,Screen_3,canvas.Screen,0_0_0_2,cont,response,1,32515,32515.22,32538.54,55278,22739.46,55287,2021-10-25T14:09:35.050Z,55299.86,1635170782,full,ni_sequenzen,NI_Sequenzen,,,,,,,,,,,,,,
,Screen_4,canvas.Screen,0_0_0_3,back,response,1,55296,55296.2,55299.86,62121,6821.139999999999,62132,2021-10-25T14:09:41.897Z,62154.76,1635170782,full,ni_sequenzen,NI_Sequenzen,,,,,,,,,,,,,,
,Sequence,flow.Sequence,0_0_0,,completion,1,2189,2245.74,2279.06,62121,59841.94,62134,2021-10-25T14:09:41.898Z,62154.76,1635170782,full,ni_sequenzen,NI_Sequenzen,,,,,,,,,,,,,,
,Screen_1,canvas.Screen,0_0_1_0,,skipped,2,62142,,,62142,,62142,2021-10-25T14:09:41.908Z,62154.76,1635170782,full,ni_sequenzen,NI_Sequenzen,,,,,,,,,,,,,,
,Screen_2,canvas.Screen,0_0_1_1,,skipped,2,62148,,,62142,,62149,2021-10-25T14:09:41.913Z,62154.76,1635170782,full,ni_sequenzen,NI_Sequenzen,,,,,,,,,,,,,,
,Screen_3,canvas.Screen,0_0_1_2,cont,response,2,62154,62154.28,62154.76,63716,1561.239999999998,63730,2021-10-25T14:09:43.494Z,63739.54,1635170782,full,ni_sequenzen,NI_Sequenzen,,,,,,,,,,,,,,
,Screen_4,canvas.Screen,0_0_1_3,cont,response,2,63739,63738.92,63739.54,64966,1226.4599999999991,64987,2021-10-25T14:09:44.752Z,65297.34,1635170782,full,ni_sequenzen,NI_Sequenzen,,,,,,,,,,,,,,
,Sequence,flow.Sequence,0_0_1,,completion,2,62138,62154.28,62154.76,64966,2811.239999999998,64988,2021-10-25T14:09:44.753Z,65297.34,1635170782,full,ni_sequenzen,NI_Sequenzen,,,,,,,,,,,,,,
,Screen_1,canvas.Screen,0_0_2_0,,skipped,3,64996,,,64996,,64996,2021-10-25T14:09:44.761Z,65297.34,1635170782,full,ni_sequenzen,NI_Sequenzen,,,,,,,,,,,,,,
,Screen_2,canvas.Screen,0_0_2_1,,skipped,3,65003,,,64996,,65003,2021-10-25T14:09:44.767Z,65297.34,1635170782,full,ni_sequenzen,NI_Sequenzen,,,,,,,,,,,,,,
,Screen_3,canvas.Screen,0_0_2_2,,skipped,3,65008,,,64996,,65008,2021-10-25T14:09:44.773Z,65297.34,1635170782,full,ni_sequenzen,NI_Sequenzen,,,,,,,,,,,,,,
,Screen_4,canvas.Screen,0_0_2_3,,skipped,3,65013,,,64996,,65013,2021-10-25T14:09:44.778Z,65297.34,1635170782,full,ni_sequenzen,NI_Sequenzen,,,,,,,,,,,,,,
,Sequence,flow.Sequence,0_0_2,,completion,3,64990,,,64996,,65013,2021-10-25T14:09:44.778Z,65297.34,1635170782,full,ni_sequenzen,NI_Sequenzen,,,,,,,,,,,,,,
,Screen_1,canvas.Screen,0_0_3_0,,skipped,4,65020,,,65020,,65020,2021-10-25T14:09:44.784Z,65297.34,1635170782,full,ni_sequenzen,NI_Sequenzen,,,,,,,,,,,,,,
,Screen_2,canvas.Screen,0_0_3_1,,skipped,4,65024,,,65020,,65025,2021-10-25T14:09:44.789Z,65297.34,1635170782,full,ni_sequenzen,NI_Sequenzen,,,,,,,,,,,,,,
,Screen_3,canvas.Screen,0_0_3_2,,skipped,4,65028,,,65020,,65028,2021-10-25T14:09:44.793Z,65297.34,1635170782,full,ni_sequenzen,NI_Sequenzen,,,,,,,,,,,,,,
,Screen_4,canvas.Screen,0_0_3_3,,skipped,4,65036,,,65020,,65036,2021-10-25T14:09:44.800Z,65297.34,1635170782,full,ni_sequenzen,NI_Sequenzen,,,,,,,,,,,,,,
,Sequence,flow.Sequence,0_0_3,,completion,4,65015,,,65020,,65036,2021-10-25T14:09:44.801Z,65297.34,1635170782,full,ni_sequenzen,NI_Sequenzen,,,,,,,,,,,,,,
,Screen_1,canvas.Screen,0_0_4_0,,skipped,5,65041,,,65041,,65042,2021-10-25T14:09:44.805Z,65297.34,1635170782,full,ni_sequenzen,NI_Sequenzen,,,,,,,,,,,,,,
,Screen_2,canvas.Screen,0_0_4_1,,skipped,5,65045,,,65041,,65045,2021-10-25T14:09:44.809Z,65297.34,1635170782,full,ni_sequenzen,NI_Sequenzen,,,,,,,,,,,,,,
,Screen_3,canvas.Screen,0_0_4_2,,skipped,5,65048,,,65041,,65049,2021-10-25T14:09:44.814Z,65297.34,1635170782,full,ni_sequenzen,NI_Sequenzen,,,,,,,,,,,,,,
,Screen_4,canvas.Screen,0_0_4_3,,skipped,5,65054,,,65041,,65054,2021-10-25T14:09:44.819Z,65297.34,1635170782,full,ni_sequenzen,NI_Sequenzen,,,,,,,,,,,,,,
,Sequence,flow.Sequence,0_0_4,,completion,5,65038,,,65041,,65055,2021-10-25T14:09:44.819Z,65297.34,1635170782,full,ni_sequenzen,NI_Sequenzen,,,,,,,,,,,,,,
,Screen_1,canvas.Screen,0_0_5_0,,skipped,6,65060,,,65060,,65060,2021-10-25T14:09:44.824Z,65297.34,1635170782,full,ni_sequenzen,NI_Sequenzen,,,,,,,,,,,,,,
,Screen_2,canvas.Screen,0_0_5_1,,skipped,6,65064,,,65060,,65064,2021-10-25T14:09:44.828Z,65297.34,1635170782,full,ni_sequenzen,NI_Sequenzen,,,,,,,,,,,,,,
,Screen_3,canvas.Screen,0_0_5_2,,skipped,6,65067,,,65060,,65067,2021-10-25T14:09:44.832Z,65297.34,1635170782,full,ni_sequenzen,NI_Sequenzen,,,,,,,,,,,,,,
,Screen_4,canvas.Screen,0_0_5_3,,skipped,6,65072,,,65060,,65073,2021-10-25T14:09:44.838Z,65297.34,1635170782,full,ni_sequenzen,NI_Sequenzen,,,,,,,,,,,,,,
,Sequence,flow.Sequence,0_0_5,,completion,6,65057,,,65060,,65073,2021-10-25T14:09:44.838Z,65297.34,1635170782,full,ni_sequenzen,NI_Sequenzen,,,,,,,,,,,,,,
,Screen_1,canvas.Screen,0_0_6_0,,skipped,7,65078,,,65078,,65078,2021-10-25T14:09:44.843Z,65297.34,1635170782,full,ni_sequenzen,NI_Sequenzen,,,,,,,,,,,,,,
,Screen_2,canvas.Screen,0_0_6_1,,skipped,7,65081,,,65078,,65081,2021-10-25T14:09:44.846Z,65297.34,1635170782,full,ni_sequenzen,NI_Sequenzen,,,,,,,,,,,,,,
,Screen_3,canvas.Screen,0_0_6_2,,skipped,7,65085,,,65078,,65085,2021-10-25T14:09:44.849Z,65297.34,1635170782,full,ni_sequenzen,NI_Sequenzen,,,,,,,,,,,,,,
,Screen_4,canvas.Screen,0_0_6_3,,skipped,7,65089,,,65078,,65089,2021-10-25T14:09:44.853Z,65297.34,1635170782,full,ni_sequenzen,NI_Sequenzen,,,,,,,,,,,,,,
,Sequence,flow.Sequence,0_0_6,,completion,7,65075,,,65078,,65090,2021-10-25T14:09:44.854Z,65297.34,1635170782,full,ni_sequenzen,NI_Sequenzen,,,,,,,,,,,,,,
,Screen_1,canvas.Screen,0_0_7_0,,skipped,8,65093,,,65093,,65093,2021-10-25T14:09:44.858Z,65297.34,1635170782,full,ni_sequenzen,NI_Sequenzen,,,,,,,,,,,,,,
,Screen_2,canvas.Screen,0_0_7_1,,skipped,8,65096,,,65093,,65096,2021-10-25T14:09:44.861Z,65297.34,1635170782,full,ni_sequenzen,NI_Sequenzen,,,,,,,,,,,,,,
,Screen_3,canvas.Screen,0_0_7_2,,skipped,8,65101,,,65093,,65101,2021-10-25T14:09:44.865Z,65297.34,1635170782,full,ni_sequenzen,NI_Sequenzen,,,,,,,,,,,,,,
,Screen_4,canvas.Screen,0_0_7_3,,skipped,8,65104,,,65093,,65104,2021-10-25T14:09:44.869Z,65297.34,1635170782,full,ni_sequenzen,NI_Sequenzen,,,,,,,,,,,,,,
,Sequence,flow.Sequence,0_0_7,,completion,8,65090,,,65093,,65105,2021-10-25T14:09:44.869Z,65297.34,1635170782,full,ni_sequenzen,NI_Sequenzen,,,,,,,,,,,,,,
,Screen_1,canvas.Screen,0_0_8_0,,skipped,9,65110,,,65110,,65110,2021-10-25T14:09:44.874Z,65297.34,1635170782,full,ni_sequenzen,NI_Sequenzen,,,,,,,,,,,,,,
,Screen_2,canvas.Screen,0_0_8_1,,skipped,9,65113,,,65110,,65113,2021-10-25T14:09:44.877Z,65297.34,1635170782,full,ni_sequenzen,NI_Sequenzen,,,,,,,,,,,,,,
,Screen_3,canvas.Screen,0_0_8_2,,skipped,9,65118,,,65110,,65118,2021-10-25T14:09:44.883Z,65297.34,1635170782,full,ni_sequenzen,NI_Sequenzen,,,,,,,,,,,,,,
,Screen_4,canvas.Screen,0_0_8_3,,skipped,9,65123,,,65110,,65123,2021-10-25T14:09:44.887Z,65297.34,1635170782,full,ni_sequenzen,NI_Sequenzen,,,,,,,,,,,,,,
,Sequence,flow.Sequence,0_0_8,,completion,9,65107,,,65110,,65123,2021-10-25T14:09:44.888Z,65297.34,1635170782,full,ni_sequenzen,NI_Sequenzen,,,,,,,,,,,,,,
,Screen_1,canvas.Screen,0_0_9_0,,skipped,10,65128,,,65128,,65129,2021-10-25T14:09:44.893Z,65297.34,1635170782,full,ni_sequenzen,NI_Sequenzen,,,,,,,,,,,,,,
,Screen_2,canvas.Screen,0_0_9_1,,skipped,10,65131,,,65128,,65131,2021-10-25T14:09:44.897Z,65297.34,1635170782,full,ni_sequenzen,NI_Sequenzen,,,,,,,,,,,,,,
,Screen_3,canvas.Screen,0_0_9_2,,skipped,10,65135,,,65128,,65136,2021-10-25T14:09:44.900Z,65297.34,1635170782,full,ni_sequenzen,NI_Sequenzen,,,,,,,,,,,,,,
,Screen_4,canvas.Screen,0_0_9_3,,skipped,10,65138,,,65128,,65139,2021-10-25T14:09:44.903Z,65297.34,1635170782,full,ni_sequenzen,NI_Sequenzen,,,,,,,,,,,,,,
,Sequence,flow.Sequence,0_0_9,,completion,10,65126,,,65128,,65139,2021-10-25T14:09:44.904Z,65297.34,1635170782,full,ni_sequenzen,NI_Sequenzen,,,,,,,,,,,,,,
,Screen_1,canvas.Screen,0_0_10_0,,skipped,11,65144,,,65144,,65144,2021-10-25T14:09:44.909Z,65297.34,1635170782,full,ni_sequenzen,NI_Sequenzen,,,,,,,,,,,,,,
,Screen_2,canvas.Screen,0_0_10_1,,skipped,11,65148,,,65144,,65148,2021-10-25T14:09:44.912Z,65297.34,1635170782,full,ni_sequenzen,NI_Sequenzen,,,,,,,,,,,,,,
,Screen_3,canvas.Screen,0_0_10_2,,skipped,11,65149,,,65144,,65149,2021-10-25T14:09:44.914Z,65297.34,1635170782,full,ni_sequenzen,NI_Sequenzen,,,,,,,,,,,,,,
,Screen_4,canvas.Screen,0_0_10_3,,skipped,11,65152,,,65144,,65153,2021-10-25T14:09:44.917Z,65297.34,1635170782,full,ni_sequenzen,NI_Sequenzen,,,,,,,,,,,,,,
,Sequence,flow.Sequence,0_0_10,,completion,11,65140,,,65144,,65153,2021-10-25T14:09:44.917Z,65297.34,1635170782,full,ni_sequenzen,NI_Sequenzen,,,,,,,,,,,,,,
,Screen_1,canvas.Screen,0_0_11_0,,skipped,12,65156,,,65156,,65156,2021-10-25T14:09:44.920Z,65297.34,1635170782,full,ni_sequenzen,NI_Sequenzen,,,,,,,,,,,,,,
,Screen_2,canvas.Screen,0_0_11_1,,skipped,12,65157,,,65156,,65157,2021-10-25T14:09:44.922Z,65297.34,1635170782,full,ni_sequenzen,NI_Sequenzen,,,,,,,,,,,,,,
,Screen_3,canvas.Screen,0_0_11_2,,skipped,12,65160,,,65156,,65160,2021-10-25T14:09:44.925Z,65297.34,1635170782,full,ni_sequenzen,NI_Sequenzen,,,,,,,,,,,,,,
,Screen_4,canvas.Screen,0_0_11_3,,skipped,12,65162,,,65156,,65163,2021-10-25T14:09:44.927Z,65297.34,1635170782,full,ni_sequenzen,NI_Sequenzen,,,,,,,,,,,,,,
,Sequence,flow.Sequence,0_0_11,,completion,12,65154,,,65156,,65163,2021-10-25T14:09:44.927Z,65297.34,1635170782,full,ni_sequenzen,NI_Sequenzen,,,,,,,,,,,,,,
,Screen_1,canvas.Screen,0_0_12_0,,skipped,13,65166,,,65166,,65166,2021-10-25T14:09:44.930Z,65297.34,1635170782,full,ni_sequenzen,NI_Sequenzen,,,,,,,,,,,,,,
,Screen_2,canvas.Screen,0_0_12_1,,skipped,13,65168,,,65166,,65168,2021-10-25T14:09:44.932Z,65297.34,1635170782,full,ni_sequenzen,NI_Sequenzen,,,,,,,,,,,,,,
,Screen_3,canvas.Screen,0_0_12_2,,skipped,13,65170,,,65166,,65171,2021-10-25T14:09:44.934Z,65297.34,1635170782,full,ni_sequenzen,NI_Sequenzen,,,,,,,,,,,,,,
,Screen_4,canvas.Screen,0_0_12_3,,skipped,13,65173,,,65166,,65173,2021-10-25T14:09:44.938Z,65297.34,1635170782,full,ni_sequenzen,NI_Sequenzen,,,,,,,,,,,,,,
,Sequence,flow.Sequence,0_0_12,,completion,13,65164,,,65166,,65173,2021-10-25T14:09:44.938Z,65297.34,1635170782,full,ni_sequenzen,NI_Sequenzen,,,,,,,,,,,,,,
,Screen_1,canvas.Screen,0_0_13_0,,skipped,14,65176,,,65176,,65176,2021-10-25T14:09:44.941Z,65297.34,1635170782,full,ni_sequenzen,NI_Sequenzen,,,,,,,,,,,,,,
,Screen_2,canvas.Screen,0_0_13_1,,skipped,14,65178,,,65176,,65178,2021-10-25T14:09:44.943Z,65297.34,1635170782,full,ni_sequenzen,NI_Sequenzen,,,,,,,,,,,,,,
,Screen_3,canvas.Screen,0_0_13_2,,skipped,14,65180,,,65176,,65180,2021-10-25T14:09:44.945Z,65297.34,1635170782,full,ni_sequenzen,NI_Sequenzen,,,,,,,,,,,,,,
,Screen_4,canvas.Screen,0_0_13_3,,skipped,14,65182,,,65176,,65182,2021-10-25T14:09:44.947Z,65297.34,1635170782,full,ni_sequenzen,NI_Sequenzen,,,,,,,,,,,,,,
,Sequence,flow.Sequence,0_0_13,,completion,14,65174,,,65176,,65182,2021-10-25T14:09:44.947Z,65297.34,1635170782,full,ni_sequenzen,NI_Sequenzen,,,,,,,,,,,,,,
,Screen_1,canvas.Screen,0_0_14_0,,skipped,15,65184,,,65184,,65184,2021-10-25T14:09:44.949Z,65297.34,1635170782,full,ni_sequenzen,NI_Sequenzen,,,,,,,,,,,,,,
,Screen_2,canvas.Screen,0_0_14_1,,skipped,15,65187,,,65184,,65187,2021-10-25T14:09:44.951Z,65297.34,1635170782,full,ni_sequenzen,NI_Sequenzen,,,,,,,,,,,,,,
,Screen_3,canvas.Screen,0_0_14_2,,skipped,15,65189,,,65184,,65189,2021-10-25T14:09:44.954Z,65297.34,1635170782,full,ni_sequenzen,NI_Sequenzen,,,,,,,,,,,,,,
,Screen_4,canvas.Screen,0_0_14_3,,skipped,15,65192,,,65184,,65192,2021-10-25T14:09:44.957Z,65297.34,1635170782,full,ni_sequenzen,NI_Sequenzen,,,,,,,,,,,,,,
,Sequence,flow.Sequence,0_0_14,,completion,15,65183,,,65184,,65193,2021-10-25T14:09:44.957Z,65297.34,1635170782,full,ni_sequenzen,NI_Sequenzen,,,,,,,,,,,,,,
,Screen_1,canvas.Screen,0_0_15_0,,skipped,16,65195,,,65195,,65195,2021-10-25T14:09:44.960Z,65297.34,1635170782,full,ni_sequenzen,NI_Sequenzen,,,,,,,,,,,,,,
,Screen_2,canvas.Screen,0_0_15_1,,skipped,16,65197,,,65195,,65197,2021-10-25T14:09:44.961Z,65297.34,1635170782,full,ni_sequenzen,NI_Sequenzen,,,,,,,,,,,,,,
,Screen_3,canvas.Screen,0_0_15_2,,skipped,16,65198,,,65195,,65199,2021-10-25T14:09:44.963Z,65297.34,1635170782,full,ni_sequenzen,NI_Sequenzen,,,,,,,,,,,,,,
,Screen_4,canvas.Screen,0_0_15_3,,skipped,16,65200,,,65195,,65201,2021-10-25T14:09:44.965Z,65297.34,1635170782,full,ni_sequenzen,NI_Sequenzen,,,,,,,,,,,,,,
,Sequence,flow.Sequence,0_0_15,,completion,16,65194,,,65195,,65201,2021-10-25T14:09:44.965Z,65297.34,1635170782,full,ni_sequenzen,NI_Sequenzen,,,,,,,,,,,,,,
,Screen_1,canvas.Screen,0_0_16_0,,skipped,17,65203,,,65203,,65203,2021-10-25T14:09:44.968Z,65297.34,1635170782,full,ni_sequenzen,NI_Sequenzen,,,,,,,,,,,,,,
,Screen_2,canvas.Screen,0_0_16_1,,skipped,17,65204,,,65203,,65204,2021-10-25T14:09:44.969Z,65297.34,1635170782,full,ni_sequenzen,NI_Sequenzen,,,,,,,,,,,,,,
,Screen_3,canvas.Screen,0_0_16_2,,skipped,17,65207,,,65203,,65207,2021-10-25T14:09:44.971Z,65297.34,1635170782,full,ni_sequenzen,NI_Sequenzen,,,,,,,,,,,,,,
,Screen_4,canvas.Screen,0_0_16_3,,skipped,17,65209,,,65203,,65209,2021-10-25T14:09:44.973Z,65297.34,1635170782,full,ni_sequenzen,NI_Sequenzen,,,,,,,,,,,,,,
,Sequence,flow.Sequence,0_0_16,,completion,17,65201,,,65203,,65209,2021-10-25T14:09:44.973Z,65297.34,1635170782,full,ni_sequenzen,NI_Sequenzen,,,,,,,,,,,,,,
,Screen_1,canvas.Screen,0_0_17_0,,skipped,18,65211,,,65211,,65211,2021-10-25T14:09:44.975Z,65297.34,1635170782,full,ni_sequenzen,NI_Sequenzen,,,,,,,,,,,,,,
,Screen_2,canvas.Screen,0_0_17_1,,skipped,18,65213,,,65211,,65213,2021-10-25T14:09:44.977Z,65297.34,1635170782,full,ni_sequenzen,NI_Sequenzen,,,,,,,,,,,,,,
,Screen_3,canvas.Screen,0_0_17_2,,skipped,18,65214,,,65211,,65214,2021-10-25T14:09:44.979Z,65297.34,1635170782,full,ni_sequenzen,NI_Sequenzen,,,,,,,,,,,,,,
,Screen_4,canvas.Screen,0_0_17_3,,skipped,18,65216,,,65211,,65216,2021-10-25T14:09:44.981Z,65297.34,1635170782,full,ni_sequenzen,NI_Sequenzen,,,,,,,,,,,,,,
,Sequence,flow.Sequence,0_0_17,,completion,18,65209,,,65211,,65216,2021-10-25T14:09:44.981Z,65297.34,1635170782,full,ni_sequenzen,NI_Sequenzen,,,,,,,,,,,,,,
,Screen_1,canvas.Screen,0_0_18_0,,skipped,19,65218,,,65218,,65219,2021-10-25T14:09:44.983Z,65297.34,1635170782,full,ni_sequenzen,NI_Sequenzen,,,,,,,,,,,,,,
,Screen_2,canvas.Screen,0_0_18_1,,skipped,19,65220,,,65218,,65220,2021-10-25T14:09:44.984Z,65297.34,1635170782,full,ni_sequenzen,NI_Sequenzen,,,,,,,,,,,,,,
,Screen_3,canvas.Screen,0_0_18_2,,skipped,19,65221,,,65218,,65221,2021-10-25T14:09:44.986Z,65297.34,1635170782,full,ni_sequenzen,NI_Sequenzen,,,,,,,,,,,,,,
,Screen_4,canvas.Screen,0_0_18_3,,skipped,19,65223,,,65218,,65223,2021-10-25T14:09:44.988Z,65297.34,1635170782,full,ni_sequenzen,NI_Sequenzen,,,,,,,,,,,,,,
,Sequence,flow.Sequence,0_0_18,,completion,19,65217,,,65218,,65224,2021-10-25T14:09:44.988Z,65297.34,1635170782,full,ni_sequenzen,NI_Sequenzen,,,,,,,,,,,,,,
,Screen_1,canvas.Screen,0_0_19_0,,skipped,20,65225,,,65225,,65225,2021-10-25T14:09:44.990Z,65297.34,1635170782,full,ni_sequenzen,NI_Sequenzen,,,,,,,,,,,,,,
,Screen_2,canvas.Screen,0_0_19_1,,skipped,20,65226,,,65225,,65226,2021-10-25T14:09:44.991Z,65297.34,1635170782,full,ni_sequenzen,NI_Sequenzen,,,,,,,,,,,,,,
,Screen_3,canvas.Screen,0_0_19_2,,skipped,20,65228,,,65225,,65228,2021-10-25T14:09:44.993Z,65297.34,1635170782,full,ni_sequenzen,NI_Sequenzen,,,,,,,,,,,,,,
,Screen_4,canvas.Screen,0_0_19_3,,skipped,20,65230,,,65225,,65230,2021-10-25T14:09:44.995Z,65297.34,1635170782,full,ni_sequenzen,NI_Sequenzen,,,,,,,,,,,,,,
,Sequence,flow.Sequence,0_0_19,,completion,20,65224,,,65225,,65230,2021-10-25T14:09:44.995Z,65297.34,1635170782,full,ni_sequenzen,NI_Sequenzen,,,,,,,,,,,,,,
,Instructions_I,flow.Loop,0_0,,completion,,2187,2245.74,2279.06,65225,62945.94,65231,2021-10-25T14:09:44.995Z,65297.34,1635170782,full,ni_sequenzen,NI_Sequenzen,,,,,,,,,,,,,,
,Move,canvas.Screen,0_1_0_0,left,response,,65267,65267.56,65297.34,69475,4177.6600000000035,69501,2021-10-25T14:09:49.265Z,69529.62,1635170782,full,ni_sequenzen,NI_Sequenzen,1,,,,,,,,,,,,,
,Move,canvas.Screen,0_1_0_1,left,response,,69526,69525.76,69529.62,70100,570.3800000000047,70105,2021-10-25T14:09:49.871Z,70120.42,1635170782,full,ni_sequenzen,NI_Sequenzen,2,,,,,,,,,,,,,
,Move,canvas.Screen,0_1_0_2,right,response,,70120,70119.94,70120.42,70813,692.5800000000017,70821,2021-10-25T14:09:50.585Z,70837.22,1635170782,full,ni_sequenzen,NI_Sequenzen,3,,,,,,,,,,,,,
,Move,canvas.Screen,0_1_0_3,down,response,,70837,70836.72,70837.22,73388,2550.779999999999,73392,2021-10-25T14:09:53.157Z,73406.58,1635170782,full,ni_sequenzen,NI_Sequenzen,4,,,,,,,,,,,,,
,Move,canvas.Screen,0_1_0_4,down,response,,73406,73406.06,73406.58,74530,1123.4199999999983,74548,2021-10-25T14:09:54.313Z,74562.74,1635170782,full,ni_sequenzen,NI_Sequenzen,5,,,,,,,,,,,,,
,Move,canvas.Screen,0_1_0_5,down,response,,74562,74562.3,74562.74,75185,622.2599999999948,75203,2021-10-25T14:09:54.967Z,75218.26,1635170782,full,ni_sequenzen,NI_Sequenzen,6,,,,,,,,,,,,,
,Move,canvas.Screen,0_1_0_6,down,response,,75218,75217.82,75218.26,75655,436.74000000000524,75677,2021-10-25T14:09:55.442Z,75689.28,1635170782,full,ni_sequenzen,NI_Sequenzen,7,,,,,,,,,,,,,
,Move,canvas.Screen,0_1_0_7,down,response,,75689,75688.84,75689.28,76124,434.72000000000116,76134,2021-10-25T14:09:55.899Z,76147.36,1635170782,full,ni_sequenzen,NI_Sequenzen,8,,,,,,,,,,,,,
,Move,canvas.Screen,0_1_0_8,left,response,,76147,76146.96,76147.36,78185,2037.6399999999994,78199,2021-10-25T14:09:57.963Z,78214.28,1635170782,full,ni_sequenzen,NI_Sequenzen,9,,,,,,,,,,,,,
,Move,canvas.Screen,0_1_0_9,right,response,,78214,78213.76,78214.28,78561,346.72000000000116,78584,2021-10-25T14:09:58.349Z,78600.2,1635170782,full,ni_sequenzen,NI_Sequenzen,10,,,,,,,,,,,,,
,Move,canvas.Screen,0_1_0_10,right,response,,78600,78599.74,78600.2,79061,460.8000000000029,79078,2021-10-25T14:09:58.842Z,79093.52,1635170782,full,ni_sequenzen,NI_Sequenzen,11,,,,,,,,,,,,,
,Move,canvas.Screen,0_1_0_11,right,response,,79093,79093,79093.52,79513,419.4799999999959,79528,2021-10-25T14:09:59.293Z,79540.16,1635170782,full,ni_sequenzen,NI_Sequenzen,12,,,,,,,,,,,,,
,Move,canvas.Screen,0_1_0_12,left,response,,79540,79539.76,79540.16,80171,630.8399999999965,80186,2021-10-25T14:09:59.951Z,80198.34,1635170782,full,ni_sequenzen,NI_Sequenzen,13,,,,,,,,,,,,,
,Move,canvas.Screen,0_1_0_13,right,response,,80198,80197.86,80198.34,81280,1081.6600000000035,81291,2021-10-25T14:10:01.055Z,81303.26,1635170782,full,ni_sequenzen,NI_Sequenzen,14,,,,,,,,,,,,,
,Move,canvas.Screen,0_1_0_14,down,response,,81303,81302.8,81303.26,82874,1570.7400000000052,82885,2021-10-25T14:10:02.650Z,82897.44,1635170782,full,ni_sequenzen,NI_Sequenzen,15,,,,,,,,,,,,,
,Move,canvas.Screen,0_1_0_15,left,response,,82897,82896.96,82897.44,84468,1570.5599999999977,84478,2021-10-25T14:10:04.242Z,84489.44,1635170782,full,ni_sequenzen,NI_Sequenzen,16,,,,,,,,,,,,,
,Move,canvas.Screen,0_1_0_16,down,response,,84489,84488.96,84489.44,85982,1492.5599999999977,85997,2021-10-25T14:10:05.761Z,86011.12,1635170782,full,ni_sequenzen,NI_Sequenzen,17,,,,,,,,,,,,,
,Move,canvas.Screen,0_1_0_17,right,response,,86010,86010.62,86011.12,86669,657.8800000000047,86671,2021-10-25T14:10:06.435Z,86681.62,1635170782,full,ni_sequenzen,NI_Sequenzen,18,,,,,,,,,,,,,
,Move,canvas.Screen,0_1_0_18,down,response,,86681,86681.12,86681.62,87356,674.3800000000047,87378,2021-10-25T14:10:07.143Z,87392.04,1635170782,full,ni_sequenzen,NI_Sequenzen,19,,,,,,,,,,,,,
,Move,canvas.Screen,0_1_0_19,right,response,,87390,87389.92,87392.04,87934,541.9600000000064,87951,2021-10-25T14:10:07.716Z,87962.5,1635170782,full,ni_sequenzen,NI_Sequenzen,20,,,,,,,,,,,,,
,Move,canvas.Screen,0_1_0_20,down,response,,87962,87961.86,87962.5,88497,534.5,88511,2021-10-25T14:10:08.276Z,88525.14,1635170782,full,ni_sequenzen,NI_Sequenzen,21,,,,,,,,,,,,,
,Move,canvas.Screen,0_1_0_21,left,response,,88522,88522.92,88525.14,89325,799.8600000000006,89342,2021-10-25T14:10:09.106Z,89353.18,1635170782,full,ni_sequenzen,NI_Sequenzen,22,,,,,,,,,,,,,
,Move,canvas.Screen,0_1_0_22,down,response,,89352,89352.7,89353.18,90045,691.820000000007,90060,2021-10-25T14:10:09.824Z,90074.76,1635170782,full,ni_sequenzen,NI_Sequenzen,23,,,,,,,,,,,,,
,Move,canvas.Screen,0_1_0_23,right,response,,90071,90070.56,90074.76,90559,484.24000000000524,90570,2021-10-25T14:10:10.335Z,90581.24,1635170782,full,ni_sequenzen,NI_Sequenzen,24,,,,,,,,,,,,,
,Move,canvas.Screen,0_1_0_24,down,response,,90581,90580.84,90581.24,91247,665.7599999999948,91261,2021-10-25T14:10:11.025Z,91275.04,1635170782,full,ni_sequenzen,NI_Sequenzen,25,,,,,,,,,,,,,
,Move,canvas.Screen,0_1_0_25,down,response,,91275,91274.54,91275.04,91809,533.9600000000064,91823,2021-10-25T14:10:11.586Z,91832.38,1635170782,full,ni_sequenzen,NI_Sequenzen,26,,,,,,,,,,,,,
,Move,canvas.Screen,0_1_0_26,down,response,,91832,91831.88,91832.38,92075,242.61999999999534,92085,2021-10-25T14:10:11.849Z,92094.9,1635170782,full,ni_sequenzen,NI_Sequenzen,27,,,,,,,,,,,,,
,Move,canvas.Screen,0_1_0_27,left,response,,92094,92094.4,92094.9,92544,449.1000000000058,92552,2021-10-25T14:10:12.317Z,92564.64,1635170782,full,ni_sequenzen,NI_Sequenzen,28,,,,,,,,,,,,,
,Move,canvas.Screen,0_1_0_28,down,response,,92564,92564.2,92564.64,93450,885.3600000000006,93454,2021-10-25T14:10:13.218Z,93465.4,1635170782,full,ni_sequenzen,NI_Sequenzen,29,,,,,,,,,,,,,
,Move,canvas.Screen,0_1_0_29,right,response,,93465,93464.94,93465.4,94716,1250.6000000000058,94733,2021-10-25T14:10:14.497Z,94819.26,1635170782,full,ni_sequenzen,NI_Sequenzen,30,,,,,,,,,,,,,
,Loop,flow.Loop,0_1_0,-999,completion,,65260,65267.56,65297.34,94716,29418.660000000003,94733,2021-10-25T14:10:14.498Z,94819.26,1635170782,full,ni_sequenzen,NI_Sequenzen,,,,,,,,,,,,,,
,Training_I,flow.Sequence,0_1,,completion,,65232,65267.56,65297.34,94716,29418.660000000003,94735,2021-10-25T14:10:14.498Z,94819.26,1635170782,full,ni_sequenzen,NI_Sequenzen,,,,,,,,,,,,,,
,Screen_1,canvas.Screen,0_2_0_0,cont,response,1,94819,94818.88,94819.26,105951,11131.740000000005,105961,2021-10-25T14:10:25.725Z,106737.42,1635170782,full,ni_sequenzen,NI_Sequenzen,,,,,,,,,,,,,,
,Screen_2,canvas.Screen,0_2_0_1,cont,response,1,106715,106715.62,106737.42,126122,19384.58,126132,2021-10-25T14:10:45.897Z,126138.36,1635170782,full,ni_sequenzen,NI_Sequenzen,,,,,,,,,,,,,,
,Screen_3,canvas.Screen,0_2_0_2,cont,response,1,126138,126138,126138.36,140450,14311.64,140457,2021-10-25T14:11:00.222Z,140645.96,1635170782,full,ni_sequenzen,NI_Sequenzen,,,,,,,,,,,,,,
,Screen_4,canvas.Screen,0_2_0_3,cont,response,1,140625,140626.22,140645.96,146325,5679.040000000008,146332,2021-10-25T14:11:06.097Z,146344.58,1635170782,full,ni_sequenzen,NI_Sequenzen,,,,,,,,,,,,,,
,Screen_5,canvas.Screen,0_2_0_4,cont,response,1,146343,146342.78,146344.58,151356,5011.420000000013,151369,2021-10-25T14:11:11.133Z,151809.94,1635170782,full,ni_sequenzen,NI_Sequenzen,,,,,,,,,,,,,,
,Screen_6,canvas.Screen,0_2_0_5,cont,response,1,151787,151786.7,151809.94,158669,6859.059999999998,158674,2021-10-25T14:11:18.438Z,159108.16,1635170782,full,ni_sequenzen,NI_Sequenzen,,,,,,,,,,,,,,
,Sequence,flow.Sequence,0_2_0,,completion,1,94817,94818.88,94819.26,158669,63849.740000000005,158675,2021-10-25T14:11:18.439Z,159108.16,1635170782,full,ni_sequenzen,NI_Sequenzen,,,,,,,,,,,,,,
,Screen_1,canvas.Screen,0_2_1_0,,skipped,2,158684,,,158684,,158685,2021-10-25T14:11:18.449Z,159108.16,1635170782,full,ni_sequenzen,NI_Sequenzen,,,,,,,,,,,,,,
,Screen_2,canvas.Screen,0_2_1_1,,skipped,2,158690,,,158684,,158691,2021-10-25T14:11:18.455Z,159108.16,1635170782,full,ni_sequenzen,NI_Sequenzen,,,,,,,,,,,,,,
,Screen_3,canvas.Screen,0_2_1_2,,skipped,2,158695,,,158684,,158695,2021-10-25T14:11:18.460Z,159108.16,1635170782,full,ni_sequenzen,NI_Sequenzen,,,,,,,,,,,,,,
,Screen_4,canvas.Screen,0_2_1_3,,skipped,2,158699,,,158684,,158699,2021-10-25T14:11:18.464Z,159108.16,1635170782,full,ni_sequenzen,NI_Sequenzen,,,,,,,,,,,,,,
,Screen_5,canvas.Screen,0_2_1_4,,skipped,2,158704,,,158684,,158704,2021-10-25T14:11:18.469Z,159108.16,1635170782,full,ni_sequenzen,NI_Sequenzen,,,,,,,,,,,,,,
,Screen_6,canvas.Screen,0_2_1_5,,skipped,2,158708,,,158684,,158709,2021-10-25T14:11:18.474Z,159108.16,1635170782,full,ni_sequenzen,NI_Sequenzen,,,,,,,,,,,,,,
,Sequence,flow.Sequence,0_2_1,,completion,2,158677,,,158684,,158711,2021-10-25T14:11:18.474Z,159108.16,1635170782,full,ni_sequenzen,NI_Sequenzen,,,,,,,,,,,,,,
,Screen_1,canvas.Screen,0_2_2_0,,skipped,3,158716,,,158716,,158716,2021-10-25T14:11:18.481Z,159108.16,1635170782,full,ni_sequenzen,NI_Sequenzen,,,,,,,,,,,,,,
,Screen_2,canvas.Screen,0_2_2_1,,skipped,3,158719,,,158716,,158719,2021-10-25T14:11:18.484Z,159108.16,1635170782,full,ni_sequenzen,NI_Sequenzen,,,,,,,,,,,,,,
,Screen_3,canvas.Screen,0_2_2_2,,skipped,3,158722,,,158716,,158722,2021-10-25T14:11:18.486Z,159108.16,1635170782,full,ni_sequenzen,NI_Sequenzen,,,,,,,,,,,,,,
,Screen_4,canvas.Screen,0_2_2_3,,skipped,3,158724,,,158716,,158724,2021-10-25T14:11:18.489Z,159108.16,1635170782,full,ni_sequenzen,NI_Sequenzen,,,,,,,,,,,,,,
,Screen_5,canvas.Screen,0_2_2_4,,skipped,3,158727,,,158716,,158727,2021-10-25T14:11:18.491Z,159108.16,1635170782,full,ni_sequenzen,NI_Sequenzen,,,,,,,,,,,,,,
,Screen_6,canvas.Screen,0_2_2_5,,skipped,3,158729,,,158716,,158729,2021-10-25T14:11:18.494Z,159108.16,1635170782,full,ni_sequenzen,NI_Sequenzen,,,,,,,,,,,,,,
,Sequence,flow.Sequence,0_2_2,,completion,3,158713,,,158716,,158730,2021-10-25T14:11:18.494Z,159108.16,1635170782,full,ni_sequenzen,NI_Sequenzen,,,,,,,,,,,,,,
,Screen_1,canvas.Screen,0_2_3_0,,skipped,4,158735,,,158735,,158735,2021-10-25T14:11:18.500Z,159108.16,1635170782,full,ni_sequenzen,NI_Sequenzen,,,,,,,,,,,,,,
,Screen_2,canvas.Screen,0_2_3_1,,skipped,4,158738,,,158735,,158738,2021-10-25T14:11:18.503Z,159108.16,1635170782,full,ni_sequenzen,NI_Sequenzen,,,,,,,,,,,,,,
,Screen_3,canvas.Screen,0_2_3_2,,skipped,4,158741,,,158735,,158741,2021-10-25T14:11:18.505Z,159108.16,1635170782,full,ni_sequenzen,NI_Sequenzen,,,,,,,,,,,,,,
,Screen_4,canvas.Screen,0_2_3_3,,skipped,4,158743,,,158735,,158743,2021-10-25T14:11:18.507Z,159108.16,1635170782,full,ni_sequenzen,NI_Sequenzen,,,,,,,,,,,,,,
,Screen_5,canvas.Screen,0_2_3_4,,skipped,4,158745,,,158735,,158745,2021-10-25T14:11:18.509Z,159108.16,1635170782,full,ni_sequenzen,NI_Sequenzen,,,,,,,,,,,,,,
,Screen_6,canvas.Screen,0_2_3_5,,skipped,4,158747,,,158735,,158747,2021-10-25T14:11:18.512Z,159108.16,1635170782,full,ni_sequenzen,NI_Sequenzen,,,,,,,,,,,,,,
,Sequence,flow.Sequence,0_2_3,,completion,4,158732,,,158735,,158748,2021-10-25T14:11:18.512Z,159108.16,1635170782,full,ni_sequenzen,NI_Sequenzen,,,,,,,,,,,,,,
,Screen_1,canvas.Screen,0_2_4_0,,skipped,5,158751,,,158751,,158751,2021-10-25T14:11:18.515Z,159108.16,1635170782,full,ni_sequenzen,NI_Sequenzen,,,,,,,,,,,,,,
,Screen_2,canvas.Screen,0_2_4_1,,skipped,5,158753,,,158751,,158753,2021-10-25T14:11:18.517Z,159108.16,1635170782,full,ni_sequenzen,NI_Sequenzen,,,,,,,,,,,,,,
,Screen_3,canvas.Screen,0_2_4_2,,skipped,5,158754,,,158751,,158754,2021-10-25T14:11:18.519Z,159108.16,1635170782,full,ni_sequenzen,NI_Sequenzen,,,,,,,,,,,,,,
,Screen_4,canvas.Screen,0_2_4_3,,skipped,5,158756,,,158751,,158756,2021-10-25T14:11:18.520Z,159108.16,1635170782,full,ni_sequenzen,NI_Sequenzen,,,,,,,,,,,,,,
,Screen_5,canvas.Screen,0_2_4_4,,skipped,5,158758,,,158751,,158758,2021-10-25T14:11:18.522Z,159108.16,1635170782,full,ni_sequenzen,NI_Sequenzen,,,,,,,,,,,,,,
,Screen_6,canvas.Screen,0_2_4_5,,skipped,5,158759,,,158751,,158759,2021-10-25T14:11:18.524Z,159108.16,1635170782,full,ni_sequenzen,NI_Sequenzen,,,,,,,,,,,,,,
,Sequence,flow.Sequence,0_2_4,,completion,5,158749,,,158751,,158760,2021-10-25T14:11:18.524Z,159108.16,1635170782,full,ni_sequenzen,NI_Sequenzen,,,,,,,,,,,,,,
,Screen_1,canvas.Screen,0_2_5_0,,skipped,6,158762,,,158762,,158763,2021-10-25T14:11:18.527Z,159108.16,1635170782,full,ni_sequenzen,NI_Sequenzen,,,,,,,,,,,,,,
,Screen_2,canvas.Screen,0_2_5_1,,skipped,6,158763,,,158762,,158764,2021-10-25T14:11:18.529Z,159108.16,1635170782,full,ni_sequenzen,NI_Sequenzen,,,,,,,,,,,,,,
,Screen_3,canvas.Screen,0_2_5_2,,skipped,6,158766,,,158762,,158766,2021-10-25T14:11:18.531Z,159108.16,1635170782,full,ni_sequenzen,NI_Sequenzen,,,,,,,,,,,,,,
,Screen_4,canvas.Screen,0_2_5_3,,skipped,6,158768,,,158762,,158768,2021-10-25T14:11:18.532Z,159108.16,1635170782,full,ni_sequenzen,NI_Sequenzen,,,,,,,,,,,,,,
,Screen_5,canvas.Screen,0_2_5_4,,skipped,6,158770,,,158762,,158770,2021-10-25T14:11:18.534Z,159108.16,1635170782,full,ni_sequenzen,NI_Sequenzen,,,,,,,,,,,,,,
,Screen_6,canvas.Screen,0_2_5_5,,skipped,6,158771,,,158762,,158771,2021-10-25T14:11:18.536Z,159108.16,1635170782,full,ni_sequenzen,NI_Sequenzen,,,,,,,,,,,,,,
,Sequence,flow.Sequence,0_2_5,,completion,6,158760,,,158762,,158771,2021-10-25T14:11:18.536Z,159108.16,1635170782,full,ni_sequenzen,NI_Sequenzen,,,,,,,,,,,,,,
,Screen_1,canvas.Screen,0_2_6_0,,skipped,7,158775,,,158775,,158775,2021-10-25T14:11:18.539Z,159108.16,1635170782,full,ni_sequenzen,NI_Sequenzen,,,,,,,,,,,,,,
,Screen_2,canvas.Screen,0_2_6_1,,skipped,7,158776,,,158775,,158776,2021-10-25T14:11:18.541Z,159108.16,1635170782,full,ni_sequenzen,NI_Sequenzen,,,,,,,,,,,,,,
,Screen_3,canvas.Screen,0_2_6_2,,skipped,7,158778,,,158775,,158779,2021-10-25T14:11:18.543Z,159108.16,1635170782,full,ni_sequenzen,NI_Sequenzen,,,,,,,,,,,,,,
,Screen_4,canvas.Screen,0_2_6_3,,skipped,7,158780,,,158775,,158780,2021-10-25T14:11:18.545Z,159108.16,1635170782,full,ni_sequenzen,NI_Sequenzen,,,,,,,,,,,,,,
,Screen_5,canvas.Screen,0_2_6_4,,skipped,7,158781,,,158775,,158781,2021-10-25T14:11:18.546Z,159108.16,1635170782,full,ni_sequenzen,NI_Sequenzen,,,,,,,,,,,,,,
,Screen_6,canvas.Screen,0_2_6_5,,skipped,7,158782,,,158775,,158782,2021-10-25T14:11:18.547Z,159108.16,1635170782,full,ni_sequenzen,NI_Sequenzen,,,,,,,,,,,,,,
,Sequence,flow.Sequence,0_2_6,,completion,7,158772,,,158775,,158783,2021-10-25T14:11:18.548Z,159108.16,1635170782,full,ni_sequenzen,NI_Sequenzen,,,,,,,,,,,,,,
,Screen_1,canvas.Screen,0_2_7_0,,skipped,8,158785,,,158785,,158785,2021-10-25T14:11:18.550Z,159108.16,1635170782,full,ni_sequenzen,NI_Sequenzen,,,,,,,,,,,,,,
,Screen_2,canvas.Screen,0_2_7_1,,skipped,8,158787,,,158785,,158788,2021-10-25T14:11:18.551Z,159108.16,1635170782,full,ni_sequenzen,NI_Sequenzen,,,,,,,,,,,,,,
,Screen_3,canvas.Screen,0_2_7_2,,skipped,8,158788,,,158785,,158789,2021-10-25T14:11:18.553Z,159108.16,1635170782,full,ni_sequenzen,NI_Sequenzen,,,,,,,,,,,,,,
,Screen_4,canvas.Screen,0_2_7_3,,skipped,8,158791,,,158785,,158791,2021-10-25T14:11:18.555Z,159108.16,1635170782,full,ni_sequenzen,NI_Sequenzen,,,,,,,,,,,,,,
,Screen_5,canvas.Screen,0_2_7_4,,skipped,8,158792,,,158785,,158792,2021-10-25T14:11:18.556Z,159108.16,1635170782,full,ni_sequenzen,NI_Sequenzen,,,,,,,,,,,,,,
,Screen_6,canvas.Screen,0_2_7_5,,skipped,8,158793,,,158785,,158793,2021-10-25T14:11:18.558Z,159108.16,1635170782,full,ni_sequenzen,NI_Sequenzen,,,,,,,,,,,,,,
,Sequence,flow.Sequence,0_2_7,,completion,8,158783,,,158785,,158794,2021-10-25T14:11:18.558Z,159108.16,1635170782,full,ni_sequenzen,NI_Sequenzen,,,,,,,,,,,,,,
,Screen_1,canvas.Screen,0_2_8_0,,skipped,9,158796,,,158796,,158796,2021-10-25T14:11:18.561Z,159108.16,1635170782,full,ni_sequenzen,NI_Sequenzen,,,,,,,,,,,,,,
,Screen_2,canvas.Screen,0_2_8_1,,skipped,9,158798,,,158796,,158798,2021-10-25T14:11:18.562Z,159108.16,1635170782,full,ni_sequenzen,NI_Sequenzen,,,,,,,,,,,,,,
,Screen_3,canvas.Screen,0_2_8_2,,skipped,9,158799,,,158796,,158799,2021-10-25T14:11:18.564Z,159108.16,1635170782,full,ni_sequenzen,NI_Sequenzen,,,,,,,,,,,,,,
,Screen_4,canvas.Screen,0_2_8_3,,skipped,9,158801,,,158796,,158801,2021-10-25T14:11:18.565Z,159108.16,1635170782,full,ni_sequenzen,NI_Sequenzen,,,,,,,,,,,,,,
,Screen_5,canvas.Screen,0_2_8_4,,skipped,9,158803,,,158796,,158803,2021-10-25T14:11:18.567Z,159108.16,1635170782,full,ni_sequenzen,NI_Sequenzen,,,,,,,,,,,,,,
,Screen_6,canvas.Screen,0_2_8_5,,skipped,9,158804,,,158796,,158804,2021-10-25T14:11:18.569Z,159108.16,1635170782,full,ni_sequenzen,NI_Sequenzen,,,,,,,,,,,,,,
,Sequence,flow.Sequence,0_2_8,,completion,9,158794,,,158796,,158804,2021-10-25T14:11:18.569Z,159108.16,1635170782,full,ni_sequenzen,NI_Sequenzen,,,,,,,,,,,,,,
,Screen_1,canvas.Screen,0_2_9_0,,skipped,10,158806,,,158806,,158806,2021-10-25T14:11:18.571Z,159108.16,1635170782,full,ni_sequenzen,NI_Sequenzen,,,,,,,,,,,,,,
,Screen_2,canvas.Screen,0_2_9_1,,skipped,10,158808,,,158806,,158808,2021-10-25T14:11:18.573Z,159108.16,1635170782,full,ni_sequenzen,NI_Sequenzen,,,,,,,,,,,,,,
,Screen_3,canvas.Screen,0_2_9_2,,skipped,10,158809,,,158806,,158809,2021-10-25T14:11:18.575Z,159108.16,1635170782,full,ni_sequenzen,NI_Sequenzen,,,,,,,,,,,,,,
,Screen_4,canvas.Screen,0_2_9_3,,skipped,10,158813,,,158806,,158813,2021-10-25T14:11:18.577Z,159108.16,1635170782,full,ni_sequenzen,NI_Sequenzen,,,,,,,,,,,,,,
,Screen_5,canvas.Screen,0_2_9_4,,skipped,10,158815,,,158806,,158815,2021-10-25T14:11:18.580Z,159108.16,1635170782,full,ni_sequenzen,NI_Sequenzen,,,,,,,,,,,,,,
,Screen_6,canvas.Screen,0_2_9_5,,skipped,10,158817,,,158806,,158817,2021-10-25T14:11:18.581Z,159108.16,1635170782,full,ni_sequenzen,NI_Sequenzen,,,,,,,,,,,,,,
,Sequence,flow.Sequence,0_2_9,,completion,10,158805,,,158806,,158817,2021-10-25T14:11:18.581Z,159108.16,1635170782,full,ni_sequenzen,NI_Sequenzen,,,,,,,,,,,,,,
,Screen_1,canvas.Screen,0_2_10_0,,skipped,11,158819,,,158819,,158819,2021-10-25T14:11:18.584Z,159108.16,1635170782,full,ni_sequenzen,NI_Sequenzen,,,,,,,,,,,,,,
,Screen_2,canvas.Screen,0_2_10_1,,skipped,11,158821,,,158819,,158821,2021-10-25T14:11:18.586Z,159108.16,1635170782,full,ni_sequenzen,NI_Sequenzen,,,,,,,,,,,,,,
,Screen_3,canvas.Screen,0_2_10_2,,skipped,11,158823,,,158819,,158823,2021-10-25T14:11:18.587Z,159108.16,1635170782,full,ni_sequenzen,NI_Sequenzen,,,,,,,,,,,,,,
,Screen_4,canvas.Screen,0_2_10_3,,skipped,11,158824,,,158819,,158824,2021-10-25T14:11:18.589Z,159108.16,1635170782,full,ni_sequenzen,NI_Sequenzen,,,,,,,,,,,,,,
,Screen_5,canvas.Screen,0_2_10_4,,skipped,11,158826,,,158819,,158826,2021-10-25T14:11:18.590Z,159108.16,1635170782,full,ni_sequenzen,NI_Sequenzen,,,,,,,,,,,,,,
,Screen_6,canvas.Screen,0_2_10_5,,skipped,11,158826,,,158819,,158827,2021-10-25T14:11:18.592Z,159108.16,1635170782,full,ni_sequenzen,NI_Sequenzen,,,,,,,,,,,,,,
,Sequence,flow.Sequence,0_2_10,,completion,11,158818,,,158819,,158827,2021-10-25T14:11:18.592Z,159108.16,1635170782,full,ni_sequenzen,NI_Sequenzen,,,,,,,,,,,,,,
,Screen_1,canvas.Screen,0_2_11_0,,skipped,12,158829,,,158829,,158829,2021-10-25T14:11:18.594Z,159108.16,1635170782,full,ni_sequenzen,NI_Sequenzen,,,,,,,,,,,,,,
,Screen_2,canvas.Screen,0_2_11_1,,skipped,12,158830,,,158829,,158830,2021-10-25T14:11:18.595Z,159108.16,1635170782,full,ni_sequenzen,NI_Sequenzen,,,,,,,,,,,,,,
,Screen_3,canvas.Screen,0_2_11_2,,skipped,12,158832,,,158829,,158832,2021-10-25T14:11:18.596Z,159108.16,1635170782,full,ni_sequenzen,NI_Sequenzen,,,,,,,,,,,,,,
,Screen_4,canvas.Screen,0_2_11_3,,skipped,12,158834,,,158829,,158834,2021-10-25T14:11:18.598Z,159108.16,1635170782,full,ni_sequenzen,NI_Sequenzen,,,,,,,,,,,,,,
,Screen_5,canvas.Screen,0_2_11_4,,skipped,12,158835,,,158829,,158835,2021-10-25T14:11:18.600Z,159108.16,1635170782,full,ni_sequenzen,NI_Sequenzen,,,,,,,,,,,,,,
,Screen_6,canvas.Screen,0_2_11_5,,skipped,12,158837,,,158829,,158837,2021-10-25T14:11:18.602Z,159108.16,1635170782,full,ni_sequenzen,NI_Sequenzen,,,,,,,,,,,,,,
,Sequence,flow.Sequence,0_2_11,,completion,12,158827,,,158829,,158838,2021-10-25T14:11:18.602Z,159108.16,1635170782,full,ni_sequenzen,NI_Sequenzen,,,,,,,,,,,,,,
,Screen_1,canvas.Screen,0_2_12_0,,skipped,13,158841,,,158841,,158841,2021-10-25T14:11:18.605Z,159108.16,1635170782,full,ni_sequenzen,NI_Sequenzen,,,,,,,,,,,,,,
,Screen_2,canvas.Screen,0_2_12_1,,skipped,13,158842,,,158841,,158842,2021-10-25T14:11:18.607Z,159108.16,1635170782,full,ni_sequenzen,NI_Sequenzen,,,,,,,,,,,,,,
,Screen_3,canvas.Screen,0_2_12_2,,skipped,13,158844,,,158841,,158844,2021-10-25T14:11:18.608Z,159108.16,1635170782,full,ni_sequenzen,NI_Sequenzen,,,,,,,,,,,,,,
,Screen_4,canvas.Screen,0_2_12_3,,skipped,13,158845,,,158841,,158845,2021-10-25T14:11:18.609Z,159108.16,1635170782,full,ni_sequenzen,NI_Sequenzen,,,,,,,,,,,,,,
,Screen_5,canvas.Screen,0_2_12_4,,skipped,13,158846,,,158841,,158846,2021-10-25T14:11:18.611Z,159108.16,1635170782,full,ni_sequenzen,NI_Sequenzen,,,,,,,,,,,,,,
,Screen_6,canvas.Screen,0_2_12_5,,skipped,13,158848,,,158841,,158848,2021-10-25T14:11:18.612Z,159108.16,1635170782,full,ni_sequenzen,NI_Sequenzen,,,,,,,,,,,,,,
,Sequence,flow.Sequence,0_2_12,,completion,13,158840,,,158841,,158848,2021-10-25T14:11:18.612Z,159108.16,1635170782,full,ni_sequenzen,NI_Sequenzen,,,,,,,,,,,,,,
,Screen_1,canvas.Screen,0_2_13_0,,skipped,14,158849,,,158849,,158849,2021-10-25T14:11:18.614Z,159108.16,1635170782,full,ni_sequenzen,NI_Sequenzen,,,,,,,,,,,,,,
,Screen_2,canvas.Screen,0_2_13_1,,skipped,14,158851,,,158849,,158851,2021-10-25T14:11:18.616Z,159108.16,1635170782,full,ni_sequenzen,NI_Sequenzen,,,,,,,,,,,,,,
,Screen_3,canvas.Screen,0_2_13_2,,skipped,14,158853,,,158849,,158853,2021-10-25T14:11:18.617Z,159108.16,1635170782,full,ni_sequenzen,NI_Sequenzen,,,,,,,,,,,,,,
,Screen_4,canvas.Screen,0_2_13_3,,skipped,14,158854,,,158849,,158854,2021-10-25T14:11:18.618Z,159108.16,1635170782,full,ni_sequenzen,NI_Sequenzen,,,,,,,,,,,,,,
,Screen_5,canvas.Screen,0_2_13_4,,skipped,14,158855,,,158849,,158855,2021-10-25T14:11:18.619Z,159108.16,1635170782,full,ni_sequenzen,NI_Sequenzen,,,,,,,,,,,,,,
,Screen_6,canvas.Screen,0_2_13_5,,skipped,14,158857,,,158849,,158857,2021-10-25T14:11:18.621Z,159108.16,1635170782,full,ni_sequenzen,NI_Sequenzen,,,,,,,,,,,,,,
,Sequence,flow.Sequence,0_2_13,,completion,14,158849,,,158849,,158857,2021-10-25T14:11:18.621Z,159108.16,1635170782,full,ni_sequenzen,NI_Sequenzen,,,,,,,,,,,,,,
,Screen_1,canvas.Screen,0_2_14_0,,skipped,15,158859,,,158859,,158859,2021-10-25T14:11:18.623Z,159108.16,1635170782,full,ni_sequenzen,NI_Sequenzen,,,,,,,,,,,,,,
,Screen_2,canvas.Screen,0_2_14_1,,skipped,15,158860,,,158859,,158860,2021-10-25T14:11:18.624Z,159108.16,1635170782,full,ni_sequenzen,NI_Sequenzen,,,,,,,,,,,,,,
,Screen_3,canvas.Screen,0_2_14_2,,skipped,15,158861,,,158859,,158861,2021-10-25T14:11:18.626Z,159108.16,1635170782,full,ni_sequenzen,NI_Sequenzen,,,,,,,,,,,,,,
,Screen_4,canvas.Screen,0_2_14_3,,skipped,15,158863,,,158859,,158863,2021-10-25T14:11:18.628Z,159108.16,1635170782,full,ni_sequenzen,NI_Sequenzen,,,,,,,,,,,,,,
,Screen_5,canvas.Screen,0_2_14_4,,skipped,15,158865,,,158859,,158865,2021-10-25T14:11:18.629Z,159108.16,1635170782,full,ni_sequenzen,NI_Sequenzen,,,,,,,,,,,,,,
,Screen_6,canvas.Screen,0_2_14_5,,skipped,15,158866,,,158859,,158866,2021-10-25T14:11:18.631Z,159108.16,1635170782,full,ni_sequenzen,NI_Sequenzen,,,,,,,,,,,,,,
,Sequence,flow.Sequence,0_2_14,,completion,15,158857,,,158859,,158866,2021-10-25T14:11:18.631Z,159108.16,1635170782,full,ni_sequenzen,NI_Sequenzen,,,,,,,,,,,,,,
,Screen_1,canvas.Screen,0_2_15_0,,skipped,16,158868,,,158868,,158869,2021-10-25T14:11:18.633Z,159108.16,1635170782,full,ni_sequenzen,NI_Sequenzen,,,,,,,,,,,,,,
,Screen_2,canvas.Screen,0_2_15_1,,skipped,16,158870,,,158868,,158870,2021-10-25T14:11:18.635Z,159108.16,1635170782,full,ni_sequenzen,NI_Sequenzen,,,,,,,,,,,,,,
,Screen_3,canvas.Screen,0_2_15_2,,skipped,16,158871,,,158868,,158871,2021-10-25T14:11:18.636Z,159108.16,1635170782,full,ni_sequenzen,NI_Sequenzen,,,,,,,,,,,,,,
,Screen_4,canvas.Screen,0_2_15_3,,skipped,16,158872,,,158868,,158872,2021-10-25T14:11:18.637Z,159108.16,1635170782,full,ni_sequenzen,NI_Sequenzen,,,,,,,,,,,,,,
,Screen_5,canvas.Screen,0_2_15_4,,skipped,16,158874,,,158868,,158874,2021-10-25T14:11:18.638Z,159108.16,1635170782,full,ni_sequenzen,NI_Sequenzen,,,,,,,,,,,,,,
,Screen_6,canvas.Screen,0_2_15_5,,skipped,16,158875,,,158868,,158876,2021-10-25T14:11:18.640Z,159108.16,1635170782,full,ni_sequenzen,NI_Sequenzen,,,,,,,,,,,,,,
,Sequence,flow.Sequence,0_2_15,,completion,16,158868,,,158868,,158876,2021-10-25T14:11:18.640Z,159108.16,1635170782,full,ni_sequenzen,NI_Sequenzen,,,,,,,,,,,,,,
,Screen_1,canvas.Screen,0_2_16_0,,skipped,17,158877,,,158877,,158877,2021-10-25T14:11:18.641Z,159108.16,1635170782,full,ni_sequenzen,NI_Sequenzen,,,,,,,,,,,,,,
,Screen_2,canvas.Screen,0_2_16_1,,skipped,17,158879,,,158877,,158879,2021-10-25T14:11:18.643Z,159108.16,1635170782,full,ni_sequenzen,NI_Sequenzen,,,,,,,,,,,,,,
,Screen_3,canvas.Screen,0_2_16_2,,skipped,17,158880,,,158877,,158880,2021-10-25T14:11:18.645Z,159108.16,1635170782,full,ni_sequenzen,NI_Sequenzen,,,,,,,,,,,,,,
,Screen_4,canvas.Screen,0_2_16_3,,skipped,17,158882,,,158877,,158882,2021-10-25T14:11:18.646Z,159108.16,1635170782,full,ni_sequenzen,NI_Sequenzen,,,,,,,,,,,,,,
,Screen_5,canvas.Screen,0_2_16_4,,skipped,17,158883,,,158877,,158883,2021-10-25T14:11:18.647Z,159108.16,1635170782,full,ni_sequenzen,NI_Sequenzen,,,,,,,,,,,,,,
,Screen_6,canvas.Screen,0_2_16_5,,skipped,17,158884,,,158877,,158884,2021-10-25T14:11:18.649Z,159108.16,1635170782,full,ni_sequenzen,NI_Sequenzen,,,,,,,,,,,,,,
,Sequence,flow.Sequence,0_2_16,,completion,17,158876,,,158877,,158884,2021-10-25T14:11:18.649Z,159108.16,1635170782,full,ni_sequenzen,NI_Sequenzen,,,,,,,,,,,,,,
,Screen_1,canvas.Screen,0_2_17_0,,skipped,18,158887,,,158887,,158887,2021-10-25T14:11:18.651Z,159108.16,1635170782,full,ni_sequenzen,NI_Sequenzen,,,,,,,,,,,,,,
,Screen_2,canvas.Screen,0_2_17_1,,skipped,18,158888,,,158887,,158888,2021-10-25T14:11:18.653Z,159108.16,1635170782,full,ni_sequenzen,NI_Sequenzen,,,,,,,,,,,,,,
,Screen_3,canvas.Screen,0_2_17_2,,skipped,18,158889,,,158887,,158890,2021-10-25T14:11:18.654Z,159108.16,1635170782,full,ni_sequenzen,NI_Sequenzen,,,,,,,,,,,,,,
,Screen_4,canvas.Screen,0_2_17_3,,skipped,18,158890,,,158887,,158890,2021-10-25T14:11:18.655Z,159108.16,1635170782,full,ni_sequenzen,NI_Sequenzen,,,,,,,,,,,,,,
,Screen_5,canvas.Screen,0_2_17_4,,skipped,18,158892,,,158887,,158892,2021-10-25T14:11:18.657Z,159108.16,1635170782,full,ni_sequenzen,NI_Sequenzen,,,,,,,,,,,,,,
,Screen_6,canvas.Screen,0_2_17_5,,skipped,18,158893,,,158887,,158893,2021-10-25T14:11:18.658Z,159108.16,1635170782,full,ni_sequenzen,NI_Sequenzen,,,,,,,,,,,,,,
,Sequence,flow.Sequence,0_2_17,,completion,18,158885,,,158887,,158893,2021-10-25T14:11:18.658Z,159108.16,1635170782,full,ni_sequenzen,NI_Sequenzen,,,,,,,,,,,,,,
,Screen_1,canvas.Screen,0_2_18_0,,skipped,19,158895,,,158895,,158895,2021-10-25T14:11:18.660Z,159108.16,1635170782,full,ni_sequenzen,NI_Sequenzen,,,,,,,,,,,,,,
,Screen_2,canvas.Screen,0_2_18_1,,skipped,19,158896,,,158895,,158896,2021-10-25T14:11:18.661Z,159108.16,1635170782,full,ni_sequenzen,NI_Sequenzen,,,,,,,,,,,,,,
,Screen_3,canvas.Screen,0_2_18_2,,skipped,19,158898,,,158895,,158898,2021-10-25T14:11:18.663Z,159108.16,1635170782,full,ni_sequenzen,NI_Sequenzen,,,,,,,,,,,,,,
,Screen_4,canvas.Screen,0_2_18_3,,skipped,19,158900,,,158895,,158900,2021-10-25T14:11:18.664Z,159108.16,1635170782,full,ni_sequenzen,NI_Sequenzen,,,,,,,,,,,,,,
,Screen_5,canvas.Screen,0_2_18_4,,skipped,19,158901,,,158895,,158901,2021-10-25T14:11:18.666Z,159108.16,1635170782,full,ni_sequenzen,NI_Sequenzen,,,,,,,,,,,,,,
,Screen_6,canvas.Screen,0_2_18_5,,skipped,19,158903,,,158895,,158903,2021-10-25T14:11:18.668Z,159108.16,1635170782,full,ni_sequenzen,NI_Sequenzen,,,,,,,,,,,,,,
,Sequence,flow.Sequence,0_2_18,,completion,19,158895,,,158895,,158903,2021-10-25T14:11:18.668Z,159108.16,1635170782,full,ni_sequenzen,NI_Sequenzen,,,,,,,,,,,,,,
,Screen_1,canvas.Screen,0_2_19_0,,skipped,20,158905,,,158905,,158905,2021-10-25T14:11:18.669Z,159108.16,1635170782,full,ni_sequenzen,NI_Sequenzen,,,,,,,,,,,,,,
,Screen_2,canvas.Screen,0_2_19_1,,skipped,20,158907,,,158905,,158907,2021-10-25T14:11:18.671Z,159108.16,1635170782,full,ni_sequenzen,NI_Sequenzen,,,,,,,,,,,,,,
,Screen_3,canvas.Screen,0_2_19_2,,skipped,20,158907,,,158905,,158908,2021-10-25T14:11:18.672Z,159108.16,1635170782,full,ni_sequenzen,NI_Sequenzen,,,,,,,,,,,,,,
,Screen_4,canvas.Screen,0_2_19_3,,skipped,20,158910,,,158905,,158910,2021-10-25T14:11:18.674Z,159108.16,1635170782,full,ni_sequenzen,NI_Sequenzen,,,,,,,,,,,,,,
,Screen_5,canvas.Screen,0_2_19_4,,skipped,20,158911,,,158905,,158911,2021-10-25T14:11:18.676Z,159108.16,1635170782,full,ni_sequenzen,NI_Sequenzen,,,,,,,,,,,,,,
,Screen_6,canvas.Screen,0_2_19_5,,skipped,20,158913,,,158905,,158913,2021-10-25T14:11:18.677Z,159108.16,1635170782,full,ni_sequenzen,NI_Sequenzen,,,,,,,,,,,,,,
,Sequence,flow.Sequence,0_2_19,,completion,20,158904,,,158905,,158913,2021-10-25T14:11:18.677Z,159108.16,1635170782,full,ni_sequenzen,NI_Sequenzen,,,,,,,,,,,,,,
,Screen_1,canvas.Screen,0_2_20_0,,skipped,21,158914,,,158914,,158914,2021-10-25T14:11:18.679Z,159108.16,1635170782,full,ni_sequenzen,NI_Sequenzen,,,,,,,,,,,,,,
,Screen_2,canvas.Screen,0_2_20_1,,skipped,21,158915,,,158914,,158916,2021-10-25T14:11:18.681Z,159108.16,1635170782,full,ni_sequenzen,NI_Sequenzen,,,,,,,,,,,,,,
,Screen_3,canvas.Screen,0_2_20_2,,skipped,21,158918,,,158914,,158918,2021-10-25T14:11:18.681Z,159108.16,1635170782,full,ni_sequenzen,NI_Sequenzen,,,,,,,,,,,,,,
,Screen_4,canvas.Screen,0_2_20_3,,skipped,21,158918,,,158914,,158918,2021-10-25T14:11:18.683Z,159108.16,1635170782,full,ni_sequenzen,NI_Sequenzen,,,,,,,,,,,,,,
,Screen_5,canvas.Screen,0_2_20_4,,skipped,21,158920,,,158914,,158920,2021-10-25T14:11:18.684Z,159108.16,1635170782,full,ni_sequenzen,NI_Sequenzen,,,,,,,,,,,,,,
,Screen_6,canvas.Screen,0_2_20_5,,skipped,21,158922,,,158914,,158923,2021-10-25T14:11:18.687Z,159108.16,1635170782,full,ni_sequenzen,NI_Sequenzen,,,,,,,,,,,,,,
,Sequence,flow.Sequence,0_2_20,,completion,21,158913,,,158914,,158923,2021-10-25T14:11:18.687Z,159108.16,1635170782,full,ni_sequenzen,NI_Sequenzen,,,,,,,,,,,,,,
,Screen_1,canvas.Screen,0_2_21_0,,skipped,22,158925,,,158925,,158925,2021-10-25T14:11:18.690Z,159108.16,1635170782,full,ni_sequenzen,NI_Sequenzen,,,,,,,,,,,,,,
,Screen_2,canvas.Screen,0_2_21_1,,skipped,22,158926,,,158925,,158926,2021-10-25T14:11:18.691Z,159108.16,1635170782,full,ni_sequenzen,NI_Sequenzen,,,,,,,,,,,,,,
,Screen_3,canvas.Screen,0_2_21_2,,skipped,22,158928,,,158925,,158928,2021-10-25T14:11:18.693Z,159108.16,1635170782,full,ni_sequenzen,NI_Sequenzen,,,,,,,,,,,,,,
,Screen_4,canvas.Screen,0_2_21_3,,skipped,22,158929,,,158925,,158930,2021-10-25T14:11:18.694Z,159108.16,1635170782,full,ni_sequenzen,NI_Sequenzen,,,,,,,,,,,,,,
,Screen_5,canvas.Screen,0_2_21_4,,skipped,22,158931,,,158925,,158931,2021-10-25T14:11:18.695Z,159108.16,1635170782,full,ni_sequenzen,NI_Sequenzen,,,,,,,,,,,,,,
,Screen_6,canvas.Screen,0_2_21_5,,skipped,22,158932,,,158925,,158932,2021-10-25T14:11:18.697Z,159108.16,1635170782,full,ni_sequenzen,NI_Sequenzen,,,,,,,,,,,,,,
,Sequence,flow.Sequence,0_2_21,,completion,22,158924,,,158925,,158932,2021-10-25T14:11:18.697Z,159108.16,1635170782,full,ni_sequenzen,NI_Sequenzen,,,,,,,,,,,,,,
,Screen_1,canvas.Screen,0_2_22_0,,skipped,23,158935,,,158935,,158935,2021-10-25T14:11:18.699Z,159108.16,1635170782,full,ni_sequenzen,NI_Sequenzen,,,,,,,,,,,,,,
,Screen_2,canvas.Screen,0_2_22_1,,skipped,23,158935,,,158935,,158935,2021-10-25T14:11:18.700Z,159108.16,1635170782,full,ni_sequenzen,NI_Sequenzen,,,,,,,,,,,,,,
,Screen_3,canvas.Screen,0_2_22_2,,skipped,23,158937,,,158935,,158937,2021-10-25T14:11:18.701Z,159108.16,1635170782,full,ni_sequenzen,NI_Sequenzen,,,,,,,,,,,,,,
,Screen_4,canvas.Screen,0_2_22_3,,skipped,23,158938,,,158935,,158938,2021-10-25T14:11:18.703Z,159108.16,1635170782,full,ni_sequenzen,NI_Sequenzen,,,,,,,,,,,,,,
,Screen_5,canvas.Screen,0_2_22_4,,skipped,23,158940,,,158935,,158940,2021-10-25T14:11:18.704Z,159108.16,1635170782,full,ni_sequenzen,NI_Sequenzen,,,,,,,,,,,,,,
,Screen_6,canvas.Screen,0_2_22_5,,skipped,23,158942,,,158935,,158942,2021-10-25T14:11:18.706Z,159108.16,1635170782,full,ni_sequenzen,NI_Sequenzen,,,,,,,,,,,,,,
,Sequence,flow.Sequence,0_2_22,,completion,23,158933,,,158935,,158942,2021-10-25T14:11:18.706Z,159108.16,1635170782,full,ni_sequenzen,NI_Sequenzen,,,,,,,,,,,,,,
,Screen_1,canvas.Screen,0_2_23_0,,skipped,24,158943,,,158943,,158943,2021-10-25T14:11:18.708Z,159108.16,1635170782,full,ni_sequenzen,NI_Sequenzen,,,,,,,,,,,,,,
,Screen_2,canvas.Screen,0_2_23_1,,skipped,24,158945,,,158943,,158945,2021-10-25T14:11:18.709Z,159108.16,1635170782,full,ni_sequenzen,NI_Sequenzen,,,,,,,,,,,,,,
,Screen_3,canvas.Screen,0_2_23_2,,skipped,24,158947,,,158943,,158947,2021-10-25T14:11:18.711Z,159108.16,1635170782,full,ni_sequenzen,NI_Sequenzen,,,,,,,,,,,,,,
,Screen_4,canvas.Screen,0_2_23_3,,skipped,24,158948,,,158943,,158948,2021-10-25T14:11:18.713Z,159108.16,1635170782,full,ni_sequenzen,NI_Sequenzen,,,,,,,,,,,,,,
,Screen_5,canvas.Screen,0_2_23_4,,skipped,24,158950,,,158943,,158950,2021-10-25T14:11:18.714Z,159108.16,1635170782,full,ni_sequenzen,NI_Sequenzen,,,,,,,,,,,,,,
,Screen_6,canvas.Screen,0_2_23_5,,skipped,24,158951,,,158943,,158952,2021-10-25T14:11:18.716Z,159108.16,1635170782,full,ni_sequenzen,NI_Sequenzen,,,,,,,,,,,,,,
,Sequence,flow.Sequence,0_2_23,,completion,24,158942,,,158943,,158952,2021-10-25T14:11:18.716Z,159108.16,1635170782,full,ni_sequenzen,NI_Sequenzen,,,,,,,,,,,,,,
,Screen_1,canvas.Screen,0_2_24_0,,skipped,25,158955,,,158955,,158955,2021-10-25T14:11:18.720Z,159108.16,1635170782,full,ni_sequenzen,NI_Sequenzen,,,,,,,,,,,,,,
,Screen_2,canvas.Screen,0_2_24_1,,skipped,25,158959,,,158955,,158959,2021-10-25T14:11:18.723Z,159108.16,1635170782,full,ni_sequenzen,NI_Sequenzen,,,,,,,,,,,,,,
,Screen_3,canvas.Screen,0_2_24_2,,skipped,25,158960,,,158955,,158960,2021-10-25T14:11:18.724Z,159108.16,1635170782,full,ni_sequenzen,NI_Sequenzen,,,,,,,,,,,,,,
,Screen_4,canvas.Screen,0_2_24_3,,skipped,25,158961,,,158955,,158961,2021-10-25T14:11:18.726Z,159108.16,1635170782,full,ni_sequenzen,NI_Sequenzen,,,,,,,,,,,,,,
,Screen_5,canvas.Screen,0_2_24_4,,skipped,25,158962,,,158955,,158963,2021-10-25T14:11:18.727Z,159108.16,1635170782,full,ni_sequenzen,NI_Sequenzen,,,,,,,,,,,,,,
,Screen_6,canvas.Screen,0_2_24_5,,skipped,25,158964,,,158955,,158964,2021-10-25T14:11:18.728Z,159108.16,1635170782,full,ni_sequenzen,NI_Sequenzen,,,,,,,,,,,,,,
,Sequence,flow.Sequence,0_2_24,,completion,25,158952,,,158955,,158964,2021-10-25T14:11:18.728Z,159108.16,1635170782,full,ni_sequenzen,NI_Sequenzen,,,,,,,,,,,,,,
,Screen_1,canvas.Screen,0_2_25_0,,skipped,26,158966,,,158966,,158966,2021-10-25T14:11:18.730Z,159108.16,1635170782,full,ni_sequenzen,NI_Sequenzen,,,,,,,,,,,,,,
,Screen_2,canvas.Screen,0_2_25_1,,skipped,26,158967,,,158966,,158967,2021-10-25T14:11:18.732Z,159108.16,1635170782,full,ni_sequenzen,NI_Sequenzen,,,,,,,,,,,,,,
,Screen_3,canvas.Screen,0_2_25_2,,skipped,26,158968,,,158966,,158968,2021-10-25T14:11:18.733Z,159108.16,1635170782,full,ni_sequenzen,NI_Sequenzen,,,,,,,,,,,,,,
,Screen_4,canvas.Screen,0_2_25_3,,skipped,26,158970,,,158966,,158970,2021-10-25T14:11:18.735Z,159108.16,1635170782,full,ni_sequenzen,NI_Sequenzen,,,,,,,,,,,,,,
,Screen_5,canvas.Screen,0_2_25_4,,skipped,26,158972,,,158966,,158972,2021-10-25T14:11:18.736Z,159108.16,1635170782,full,ni_sequenzen,NI_Sequenzen,,,,,,,,,,,,,,
,Screen_6,canvas.Screen,0_2_25_5,,skipped,26,158973,,,158966,,158973,2021-10-25T14:11:18.737Z,159108.16,1635170782,full,ni_sequenzen,NI_Sequenzen,,,,,,,,,,,,,,
,Sequence,flow.Sequence,0_2_25,,completion,26,158964,,,158966,,158973,2021-10-25T14:11:18.737Z,159108.16,1635170782,full,ni_sequenzen,NI_Sequenzen,,,,,,,,,,,,,,
,Screen_1,canvas.Screen,0_2_26_0,,skipped,27,158975,,,158975,,158975,2021-10-25T14:11:18.739Z,159108.16,1635170782,full,ni_sequenzen,NI_Sequenzen,,,,,,,,,,,,,,
,Screen_2,canvas.Screen,0_2_26_1,,skipped,27,158976,,,158975,,158977,2021-10-25T14:11:18.741Z,159108.16,1635170782,full,ni_sequenzen,NI_Sequenzen,,,,,,,,,,,,,,
,Screen_3,canvas.Screen,0_2_26_2,,skipped,27,158977,,,158975,,158977,2021-10-25T14:11:18.742Z,159108.16,1635170782,full,ni_sequenzen,NI_Sequenzen,,,,,,,,,,,,,,
,Screen_4,canvas.Screen,0_2_26_3,,skipped,27,158979,,,158975,,158979,2021-10-25T14:11:18.744Z,159108.16,1635170782,full,ni_sequenzen,NI_Sequenzen,,,,,,,,,,,,,,
,Screen_5,canvas.Screen,0_2_26_4,,skipped,27,158981,,,158975,,158981,2021-10-25T14:11:18.745Z,159108.16,1635170782,full,ni_sequenzen,NI_Sequenzen,,,,,,,,,,,,,,
,Screen_6,canvas.Screen,0_2_26_5,,skipped,27,158981,,,158975,,158981,2021-10-25T14:11:18.747Z,159108.16,1635170782,full,ni_sequenzen,NI_Sequenzen,,,,,,,,,,,,,,
,Sequence,flow.Sequence,0_2_26,,completion,27,158974,,,158975,,158982,2021-10-25T14:11:18.747Z,159108.16,1635170782,full,ni_sequenzen,NI_Sequenzen,,,,,,,,,,,,,,
,Screen_1,canvas.Screen,0_2_27_0,,skipped,28,158984,,,158984,,158984,2021-10-25T14:11:18.748Z,159108.16,1635170782,full,ni_sequenzen,NI_Sequenzen,,,,,,,,,,,,,,
,Screen_2,canvas.Screen,0_2_27_1,,skipped,28,158985,,,158984,,158985,2021-10-25T14:11:18.749Z,159108.16,1635170782,full,ni_sequenzen,NI_Sequenzen,,,,,,,,,,,,,,
,Screen_3,canvas.Screen,0_2_27_2,,skipped,28,158986,,,158984,,158986,2021-10-25T14:11:18.751Z,159108.16,1635170782,full,ni_sequenzen,NI_Sequenzen,,,,,,,,,,,,,,
,Screen_4,canvas.Screen,0_2_27_3,,skipped,28,158988,,,158984,,158988,2021-10-25T14:11:18.752Z,159108.16,1635170782,full,ni_sequenzen,NI_Sequenzen,,,,,,,,,,,,,,
,Screen_5,canvas.Screen,0_2_27_4,,skipped,28,158990,,,158984,,158991,2021-10-25T14:11:18.755Z,159108.16,1635170782,full,ni_sequenzen,NI_Sequenzen,,,,,,,,,,,,,,
,Screen_6,canvas.Screen,0_2_27_5,,skipped,28,158993,,,158984,,158993,2021-10-25T14:11:18.758Z,159108.16,1635170782,full,ni_sequenzen,NI_Sequenzen,,,,,,,,,,,,,,
,Sequence,flow.Sequence,0_2_27,,completion,28,158983,,,158984,,158993,2021-10-25T14:11:18.758Z,159108.16,1635170782,full,ni_sequenzen,NI_Sequenzen,,,,,,,,,,,,,,
,Screen_1,canvas.Screen,0_2_28_0,,skipped,29,158995,,,158995,,158995,2021-10-25T14:11:18.760Z,159108.16,1635170782,full,ni_sequenzen,NI_Sequenzen,,,,,,,,,,,,,,
,Screen_2,canvas.Screen,0_2_28_1,,skipped,29,158997,,,158995,,158997,2021-10-25T14:11:18.761Z,159108.16,1635170782,full,ni_sequenzen,NI_Sequenzen,,,,,,,,,,,,,,
,Screen_3,canvas.Screen,0_2_28_2,,skipped,29,158998,,,158995,,158998,2021-10-25T14:11:18.762Z,159108.16,1635170782,full,ni_sequenzen,NI_Sequenzen,,,,,,,,,,,,,,
,Screen_4,canvas.Screen,0_2_28_3,,skipped,29,158999,,,158995,,158999,2021-10-25T14:11:18.763Z,159108.16,1635170782,full,ni_sequenzen,NI_Sequenzen,,,,,,,,,,,,,,
,Screen_5,canvas.Screen,0_2_28_4,,skipped,29,159000,,,158995,,159000,2021-10-25T14:11:18.764Z,159108.16,1635170782,full,ni_sequenzen,NI_Sequenzen,,,,,,,,,,,,,,
,Screen_6,canvas.Screen,0_2_28_5,,skipped,29,159002,,,158995,,159002,2021-10-25T14:11:18.766Z,159108.16,1635170782,full,ni_sequenzen,NI_Sequenzen,,,,,,,,,,,,,,
,Sequence,flow.Sequence,0_2_28,,completion,29,158994,,,158995,,159002,2021-10-25T14:11:18.766Z,159108.16,1635170782,full,ni_sequenzen,NI_Sequenzen,,,,,,,,,,,,,,
,Screen_1,canvas.Screen,0_2_29_0,,skipped,30,159003,,,159003,,159003,2021-10-25T14:11:18.768Z,159108.16,1635170782,full,ni_sequenzen,NI_Sequenzen,,,,,,,,,,,,,,
,Screen_2,canvas.Screen,0_2_29_1,,skipped,30,159004,,,159003,,159004,2021-10-25T14:11:18.769Z,159108.16,1635170782,full,ni_sequenzen,NI_Sequenzen,,,,,,,,,,,,,,
,Screen_3,canvas.Screen,0_2_29_2,,skipped,30,159006,,,159003,,159006,2021-10-25T14:11:18.770Z,159108.16,1635170782,full,ni_sequenzen,NI_Sequenzen,,,,,,,,,,,,,,
,Screen_4,canvas.Screen,0_2_29_3,,skipped,30,159007,,,159003,,159007,2021-10-25T14:11:18.772Z,159108.16,1635170782,full,ni_sequenzen,NI_Sequenzen,,,,,,,,,,,,,,
,Screen_5,canvas.Screen,0_2_29_4,,skipped,30,159008,,,159003,,159008,2021-10-25T14:11:18.773Z,159108.16,1635170782,full,ni_sequenzen,NI_Sequenzen,,,,,,,,,,,,,,
,Screen_6,canvas.Screen,0_2_29_5,,skipped,30,159010,,,159003,,159010,2021-10-25T14:11:18.774Z,159108.16,1635170782,full,ni_sequenzen,NI_Sequenzen,,,,,,,,,,,,,,
,Sequence,flow.Sequence,0_2_29,,completion,30,159002,,,159003,,159010,2021-10-25T14:11:18.774Z,159108.16,1635170782,full,ni_sequenzen,NI_Sequenzen,,,,,,,,,,,,,,
,Instructions_II,flow.Loop,0_2,,completion,,94816,94818.88,94819.26,159003,64183.740000000005,159010,2021-10-25T14:11:18.774Z,159108.16,1635170782,full,ni_sequenzen,NI_Sequenzen,,,,,,,,,,,,,,
,Move,canvas.Screen,0_3_0_0_0_0,right,response,,159092,159091.92,159108.16,174153,15044.839999999997,174173,2021-10-25T14:11:33.937Z,174194.2,1635170782,full,ni_sequenzen,NI_Sequenzen,1,0,,,,,,,,,,,,
,Move,canvas.Screen,0_3_0_0_0_1,down,response,,174194,174193.74,174194.2,175466,1271.7999999999884,175482,2021-10-25T14:11:35.247Z,175504.26,1635170782,full,ni_sequenzen,NI_Sequenzen,2,0,,,,,,,,,,,,
,Move,canvas.Screen,0_3_0_0_0_2,left,response,,175503,175502.78,175504.26,177107,1602.7399999999907,177116,2021-10-25T14:11:36.880Z,177137.32,1635170782,full,ni_sequenzen,NI_Sequenzen,3,0,,,,,,,,,,,,
,Move,canvas.Screen,0_3_0_0_0_3,down,response,,177133,177133.7,177137.32,186341,9203.679999999993,186372,2021-10-25T14:11:46.137Z,186390.2,1635170782,full,ni_sequenzen,NI_Sequenzen,4,0,,,,,,,,,,,,
,Move,canvas.Screen,0_3_0_0_0_4,right,response,,186390,186389.64,186390.2,188372,1981.7999999999884,188392,2021-10-25T14:11:48.156Z,188522.36,1635170782,full,ni_sequenzen,NI_Sequenzen,5,0,,,,,,,,,,,,
,Move,canvas.Screen,0_3_0_0_0_5,-999,skipped,,188408,,,188372,,188410,2021-10-25T14:11:48.174Z,188522.36,1635170782,full,ni_sequenzen,NI_Sequenzen,6,0,,,,,,,,,,,,
,Move,canvas.Screen,0_3_0_0_0_6,-999,skipped,,188469,,,188372,,188469,2021-10-25T14:11:48.234Z,188522.36,1635170782,full,ni_sequenzen,NI_Sequenzen,7,0,,,,,,,,,,,,
,Move,canvas.Screen,0_3_0_0_0_7,-999,skipped,,188476,,,188372,,188476,2021-10-25T14:11:48.241Z,188522.36,1635170782,full,ni_sequenzen,NI_Sequenzen,8,0,,,,,,,,,,,,
,Move,canvas.Screen,0_3_0_0_0_8,-999,skipped,,188482,,,188372,,188482,2021-10-25T14:11:48.246Z,188522.36,1635170782,full,ni_sequenzen,NI_Sequenzen,9,0,,,,,,,,,,,,
,Move,canvas.Screen,0_3_0_0_0_9,-999,skipped,,188488,,,188372,,188488,2021-10-25T14:11:48.253Z,188522.36,1635170782,full,ni_sequenzen,NI_Sequenzen,10,0,,,,,,,,,,,,
,Move,canvas.Screen,0_3_0_0_0_10,-999,skipped,,188494,,,188372,,188494,2021-10-25T14:11:48.258Z,188522.36,1635170782,full,ni_sequenzen,NI_Sequenzen,11,0,,,,,,,,,,,,
,Move,canvas.Screen,0_3_0_0_0_11,-999,skipped,,188500,,,188372,,188500,2021-10-25T14:11:48.264Z,188522.36,1635170782,full,ni_sequenzen,NI_Sequenzen,12,0,,,,,,,,,,,,
,Move,canvas.Screen,0_3_0_0_0_12,-999,skipped,,188505,,,188372,,188505,2021-10-25T14:11:48.270Z,188522.36,1635170782,full,ni_sequenzen,NI_Sequenzen,13,0,,,,,,,,,,,,
,Move,canvas.Screen,0_3_0_0_0_13,-999,skipped,,188511,,,188372,,188511,2021-10-25T14:11:48.276Z,188522.36,1635170782,full,ni_sequenzen,NI_Sequenzen,14,0,,,,,,,,,,,,
,Move,canvas.Screen,0_3_0_0_0_14,-999,skipped,,188517,,,188372,,188517,2021-10-25T14:11:48.282Z,188522.36,1635170782,full,ni_sequenzen,NI_Sequenzen,15,0,,,,,,,,,,,,
,Loop,flow.Loop,0_3_0_0_0,-999,completion,,159077,159091.92,159108.16,188372,29263.839999999997,188517,2021-10-25T14:11:48.282Z,188522.36,1635170782,full,ni_sequenzen,NI_Sequenzen,,0,,,,,,,,,,,,
,Feedback,canvas.Screen,0_3_0_0_1,,timeout,,188522,188522.02,188522.36,192500.4,4015.0200000000186,192501,2021-10-25T14:11:52.266Z,192537.38,1635170782,full,ni_sequenzen,NI_Sequenzen,,0,,,,,,,,,,,,
,Trial,flow.Sequence,0_3_0_0,,completion,,159060,159091.92,159108.16,192500.4,33392.23999999999,192502,2021-10-25T14:11:52.266Z,192550.18,1635170782,full,ni_sequenzen,NI_Sequenzen,,0,,,,,,,,,,,,
,Move,canvas.Screen,0_3_0_1_0_0,right,response,,192537,192537.38,192550.18,227934,35383.82000000001,227948,2021-10-25T14:12:27.712Z,227965.94,1635170782,full,ni_sequenzen,NI_Sequenzen,1,1,,,,,,,,,,,,
,Move,canvas.Screen,0_3_0_1_0_1,down,response,,227965,227965.62,227965.94,228747,781.0599999999977,228753,2021-10-25T14:12:28.518Z,228775.06,1635170782,full,ni_sequenzen,NI_Sequenzen,2,1,,,,,,,,,,,,
,Move,canvas.Screen,0_3_0_1_0_2,right,response,,228770,228770.84,228775.06,229434,658.9400000000023,229448,2021-10-25T14:12:29.213Z,229468.78,1635170782,full,ni_sequenzen,NI_Sequenzen,3,1,,,,,,,,,,,,
,Move,canvas.Screen,0_3_0_1_0_3,down,response,,229469,229468.32,229468.78,230091,622.2200000000012,230107,2021-10-25T14:12:29.872Z,230231.68,1635170782,full,ni_sequenzen,NI_Sequenzen,4,1,,,,,,,,,,,,
,Move,canvas.Screen,0_3_0_1_0_4,-999,skipped,,230123,,,230091,,230123,2021-10-25T14:12:29.887Z,230231.68,1635170782,full,ni_sequenzen,NI_Sequenzen,5,1,,,,,,,,,,,,
,Move,canvas.Screen,0_3_0_1_0_5,-999,skipped,,230135,,,230091,,230135,2021-10-25T14:12:29.899Z,230231.68,1635170782,full,ni_sequenzen,NI_Sequenzen,6,1,,,,,,,,,,,,
,Move,canvas.Screen,0_3_0_1_0_6,-999,skipped,,230147,,,230091,,230147,2021-10-25T14:12:29.911Z,230231.68,1635170782,full,ni_sequenzen,NI_Sequenzen,7,1,,,,,,,,,,,,
,Move,canvas.Screen,0_3_0_1_0_7,-999,skipped,,230158,,,230091,,230159,2021-10-25T14:12:29.923Z,230231.68,1635170782,full,ni_sequenzen,NI_Sequenzen,8,1,,,,,,,,,,,,
,Move,canvas.Screen,0_3_0_1_0_8,-999,skipped,,230169,,,230091,,230169,2021-10-25T14:12:29.933Z,230231.68,1635170782,full,ni_sequenzen,NI_Sequenzen,9,1,,,,,,,,,,,,
,Move,canvas.Screen,0_3_0_1_0_9,-999,skipped,,230180,,,230091,,230181,2021-10-25T14:12:29.945Z,230231.68,1635170782,full,ni_sequenzen,NI_Sequenzen,10,1,,,,,,,,,,,,
,Move,canvas.Screen,0_3_0_1_0_10,-999,skipped,,230191,,,230091,,230191,2021-10-25T14:12:29.956Z,230231.68,1635170782,full,ni_sequenzen,NI_Sequenzen,11,1,,,,,,,,,,,,
,Move,canvas.Screen,0_3_0_1_0_11,-999,skipped,,230203,,,230091,,230203,2021-10-25T14:12:29.967Z,230231.68,1635170782,full,ni_sequenzen,NI_Sequenzen,12,1,,,,,,,,,,,,
,Move,canvas.Screen,0_3_0_1_0_12,-999,skipped,,230213,,,230091,,230213,2021-10-25T14:12:29.976Z,230231.68,1635170782,full,ni_sequenzen,NI_Sequenzen,13,1,,,,,,,,,,,,
,Move,canvas.Screen,0_3_0_1_0_13,-999,skipped,,230219,,,230091,,230220,2021-10-25T14:12:29.984Z,230231.68,1635170782,full,ni_sequenzen,NI_Sequenzen,14,1,,,,,,,,,,,,
,Move,canvas.Screen,0_3_0_1_0_14,-999,skipped,,230226,,,230091,,230226,2021-10-25T14:12:29.990Z,230231.68,1635170782,full,ni_sequenzen,NI_Sequenzen,15,1,,,,,,,,,,,,
,Loop,flow.Loop,0_3_0_1_0,-999,completion,,192523,192537.38,192550.18,230091,37540.82000000001,230226,2021-10-25T14:12:29.990Z,230231.68,1635170782,full,ni_sequenzen,NI_Sequenzen,,1,,,,,,,,,,,,
,Feedback,canvas.Screen,0_3_0_1_1,,timeout,,230231,230231.42,230231.68,234207.06,4044.920000000013,234208,2021-10-25T14:12:33.973Z,234276.6,1635170782,full,ni_sequenzen,NI_Sequenzen,,1,,,,,,,,,,,,
,Trial,flow.Sequence,0_3_0_1,,completion,,192504,192537.38,192550.18,234207.06,41656.880000000005,234210,2021-10-25T14:12:33.975Z,234290.16,1635170782,full,ni_sequenzen,NI_Sequenzen,,1,,,,,,,,,,,,
,Move,canvas.Screen,0_3_0_2_0_0,left,response,,234277,234276.6,234290.16,248294,14003.839999999997,248314,2021-10-25T14:12:48.078Z,248339.92,1635170782,full,ni_sequenzen,NI_Sequenzen,1,2,,,,,,,,,,,,
,Move,canvas.Screen,0_3_0_2_0_1,down,response,,248340,248339.62,248339.92,249294,954.0799999999872,249309,2021-10-25T14:12:49.073Z,249336.9,1635170782,full,ni_sequenzen,NI_Sequenzen,2,2,,,,,,,,,,,,
,Move,canvas.Screen,0_3_0_2_0_2,down,response,,249333,249333.1,249336.9,249997,660.1000000000058,250005,2021-10-25T14:12:49.770Z,250029.7,1635170782,full,ni_sequenzen,NI_Sequenzen,3,2,,,,,,,,,,,,
,Move,canvas.Screen,0_3_0_2_0_3,left,response,,250029,250029.24,250029.7,250653,623.2999999999884,250663,2021-10-25T14:12:50.427Z,250782.98,1635170782,full,ni_sequenzen,NI_Sequenzen,4,2,,,,,,,,,,,,
,Move,canvas.Screen,0_3_0_2_0_4,-999,skipped,,250684,,,250653,,250685,2021-10-25T14:12:50.450Z,250782.98,1635170782,full,ni_sequenzen,NI_Sequenzen,5,2,,,,,,,,,,,,
,Move,canvas.Screen,0_3_0_2_0_5,-999,skipped,,250699,,,250653,,250699,2021-10-25T14:12:50.464Z,250782.98,1635170782,full,ni_sequenzen,NI_Sequenzen,6,2,,,,,,,,,,,,
,Move,canvas.Screen,0_3_0_2_0_6,-999,skipped,,250715,,,250653,,250715,2021-10-25T14:12:50.479Z,250782.98,1635170782,full,ni_sequenzen,NI_Sequenzen,7,2,,,,,,,,,,,,
,Move,canvas.Screen,0_3_0_2_0_7,-999,skipped,,250727,,,250653,,250727,2021-10-25T14:12:50.492Z,250782.98,1635170782,full,ni_sequenzen,NI_Sequenzen,8,2,,,,,,,,,,,,
,Move,canvas.Screen,0_3_0_2_0_8,-999,skipped,,250735,,,250653,,250735,2021-10-25T14:12:50.499Z,250782.98,1635170782,full,ni_sequenzen,NI_Sequenzen,9,2,,,,,,,,,,,,
,Move,canvas.Screen,0_3_0_2_0_9,-999,skipped,,250742,,,250653,,250742,2021-10-25T14:12:50.507Z,250782.98,1635170782,full,ni_sequenzen,NI_Sequenzen,10,2,,,,,,,,,,,,
,Move,canvas.Screen,0_3_0_2_0_10,-999,skipped,,250750,,,250653,,250750,2021-10-25T14:12:50.515Z,250782.98,1635170782,full,ni_sequenzen,NI_Sequenzen,11,2,,,,,,,,,,,,
,Move,canvas.Screen,0_3_0_2_0_11,-999,skipped,,250758,,,250653,,250758,2021-10-25T14:12:50.523Z,250782.98,1635170782,full,ni_sequenzen,NI_Sequenzen,12,2,,,,,,,,,,,,
,Move,canvas.Screen,0_3_0_2_0_12,-999,skipped,,250764,,,250653,,250765,2021-10-25T14:12:50.529Z,250782.98,1635170782,full,ni_sequenzen,NI_Sequenzen,13,2,,,,,,,,,,,,
,Move,canvas.Screen,0_3_0_2_0_13,-999,skipped,,250771,,,250653,,250771,2021-10-25T14:12:50.535Z,250782.98,1635170782,full,ni_sequenzen,NI_Sequenzen,14,2,,,,,,,,,,,,
,Move,canvas.Screen,0_3_0_2_0_14,-999,skipped,,250777,,,250653,,250777,2021-10-25T14:12:50.542Z,250782.98,1635170782,full,ni_sequenzen,NI_Sequenzen,15,2,,,,,,,,,,,,
,Loop,flow.Loop,0_3_0_2_0,-999,completion,,234253,234276.6,234290.16,250653,16362.839999999997,250778,2021-10-25T14:12:50.542Z,250782.98,1635170782,full,ni_sequenzen,NI_Sequenzen,,2,,,,,,,,,,,,
,Feedback,canvas.Screen,0_3_0_2_1,,timeout,,250783,250782.7,250782.98,254768.72,4021.75999999998,254770,2021-10-25T14:12:54.535Z,254804.74,1635170782,full,ni_sequenzen,NI_Sequenzen,,2,,,,,,,,,,,,
,Trial,flow.Sequence,0_3_0_2,,completion,,234213,234276.6,234290.16,254768.72,20478.559999999998,254770,2021-10-25T14:12:54.535Z,254818.56,1635170782,full,ni_sequenzen,NI_Sequenzen,,2,,,,,,,,,,,,
,Move,canvas.Screen,0_3_0_3_0_0,right,response,,254805,254804.74,254818.56,266059,11240.440000000002,266066,2021-10-25T14:13:05.831Z,266084.62,1635170782,full,ni_sequenzen,NI_Sequenzen,1,3,,,,,,,,,,,,
,Move,canvas.Screen,0_3_0_3_0_1,down,response,,266084,266084.16,266084.62,266669,584.3800000000047,266680,2021-10-25T14:13:06.445Z,266698.1,1635170782,full,ni_sequenzen,NI_Sequenzen,2,3,,,,,,,,,,,,
,Move,canvas.Screen,0_3_0_3_0_2,right,response,,266698,266697.64,266698.1,267450,751.9000000000233,267461,2021-10-25T14:13:07.225Z,267482.16,1635170782,full,ni_sequenzen,NI_Sequenzen,3,3,,,,,,,,,,,,
,Move,canvas.Screen,0_3_0_3_0_3,down,response,,267480,267480.02,267482.16,268059,576.8400000000256,268082,2021-10-25T14:13:07.848Z,268217.1,1635170782,full,ni_sequenzen,NI_Sequenzen,4,3,,,,,,,,,,,,
,Move,canvas.Screen,0_3_0_3_0_4,-999,skipped,,268147,,,268059,,268147,2021-10-25T14:13:07.912Z,268217.1,1635170782,full,ni_sequenzen,NI_Sequenzen,5,3,,,,,,,,,,,,
,Move,canvas.Screen,0_3_0_3_0_5,-999,skipped,,268155,,,268059,,268155,2021-10-25T14:13:07.919Z,268217.1,1635170782,full,ni_sequenzen,NI_Sequenzen,6,3,,,,,,,,,,,,
,Move,canvas.Screen,0_3_0_3_0_6,-999,skipped,,268161,,,268059,,268161,2021-10-25T14:13:07.926Z,268217.1,1635170782,full,ni_sequenzen,NI_Sequenzen,7,3,,,,,,,,,,,,
,Move,canvas.Screen,0_3_0_3_0_7,-999,skipped,,268168,,,268059,,268169,2021-10-25T14:13:07.933Z,268217.1,1635170782,full,ni_sequenzen,NI_Sequenzen,8,3,,,,,,,,,,,,
,Move,canvas.Screen,0_3_0_3_0_8,-999,skipped,,268175,,,268059,,268176,2021-10-25T14:13:07.940Z,268217.1,1635170782,full,ni_sequenzen,NI_Sequenzen,9,3,,,,,,,,,,,,
,Move,canvas.Screen,0_3_0_3_0_9,-999,skipped,,268182,,,268059,,268182,2021-10-25T14:13:07.947Z,268217.1,1635170782,full,ni_sequenzen,NI_Sequenzen,10,3,,,,,,,,,,,,
,Move,canvas.Screen,0_3_0_3_0_10,-999,skipped,,268189,,,268059,,268189,2021-10-25T14:13:07.954Z,268217.1,1635170782,full,ni_sequenzen,NI_Sequenzen,11,3,,,,,,,,,,,,
,Move,canvas.Screen,0_3_0_3_0_11,-999,skipped,,268196,,,268059,,268196,2021-10-25T14:13:07.960Z,268217.1,1635170782,full,ni_sequenzen,NI_Sequenzen,12,3,,,,,,,,,,,,
,Move,canvas.Screen,0_3_0_3_0_12,-999,skipped,,268202,,,268059,,268202,2021-10-25T14:13:07.966Z,268217.1,1635170782,full,ni_sequenzen,NI_Sequenzen,13,3,,,,,,,,,,,,
,Move,canvas.Screen,0_3_0_3_0_13,-999,skipped,,268207,,,268059,,268207,2021-10-25T14:13:07.971Z,268217.1,1635170782,full,ni_sequenzen,NI_Sequenzen,14,3,,,,,,,,,,,,
,Move,canvas.Screen,0_3_0_3_0_14,-999,skipped,,268212,,,268059,,268212,2021-10-25T14:13:07.977Z,268217.1,1635170782,full,ni_sequenzen,NI_Sequenzen,15,3,,,,,,,,,,,,
,Loop,flow.Loop,0_3_0_3_0,-999,completion,,254795,254804.74,254818.56,268059,13240.440000000002,268212,2021-10-25T14:13:07.977Z,268217.1,1635170782,full,ni_sequenzen,NI_Sequenzen,,3,,,,,,,,,,,,
,Feedback,canvas.Screen,0_3_0_3_1,,timeout,,268217,268216.82,268217.1,272197.86,4018.3600000000442,272199,2021-10-25T14:13:11.964Z,272235.46,1635170782,full,ni_sequenzen,NI_Sequenzen,,3,,,,,,,,,,,,
,Trial,flow.Sequence,0_3_0_3,,completion,,254773,254804.74,254818.56,272197.86,17379.29999999999,272199,2021-10-25T14:13:11.964Z,272247.72,1635170782,full,ni_sequenzen,NI_Sequenzen,,3,,,,,,,,,,,,
,Move,canvas.Screen,0_3_0_4_0_0,down,response,,272235,272235.46,272247.72,285231,12983.280000000028,285244,2021-10-25T14:13:25.009Z,285262.4,1635170782,full,ni_sequenzen,NI_Sequenzen,1,4,,,,,,,,,,,,
,Move,canvas.Screen,0_3_0_4_0_1,left,response,,285262,285261.76,285262.4,286575,1312.5999999999767,286587,2021-10-25T14:13:26.351Z,286613.14,1635170782,full,ni_sequenzen,NI_Sequenzen,2,4,,,,,,,,,,,,
,Move,canvas.Screen,0_3_0_4_0_2,down,response,,286613,286612.86,286613.14,287325,711.859999999986,287334,2021-10-25T14:13:27.099Z,287346.5,1635170782,full,ni_sequenzen,NI_Sequenzen,3,4,,,,,,,,,,,,
,Move,canvas.Screen,0_3_0_4_0_3,left,response,,287346,287346.22,287346.5,287763,416.5,287776,2021-10-25T14:13:27.541Z,287849.9,1635170782,full,ni_sequenzen,NI_Sequenzen,4,4,,,,,,,,,,,,
,Move,canvas.Screen,0_3_0_4_0_4,-999,skipped,,287787,,,287763,,287787,2021-10-25T14:13:27.551Z,287849.9,1635170782,full,ni_sequenzen,NI_Sequenzen,5,4,,,,,,,,,,,,
,Move,canvas.Screen,0_3_0_4_0_5,-999,skipped,,287794,,,287763,,287794,2021-10-25T14:13:27.559Z,287849.9,1635170782,full,ni_sequenzen,NI_Sequenzen,6,4,,,,,,,,,,,,
,Move,canvas.Screen,0_3_0_4_0_6,-999,skipped,,287801,,,287763,,287801,2021-10-25T14:13:27.565Z,287849.9,1635170782,full,ni_sequenzen,NI_Sequenzen,7,4,,,,,,,,,,,,
,Move,canvas.Screen,0_3_0_4_0_7,-999,skipped,,287806,,,287763,,287806,2021-10-25T14:13:27.570Z,287849.9,1635170782,full,ni_sequenzen,NI_Sequenzen,8,4,,,,,,,,,,,,
,Move,canvas.Screen,0_3_0_4_0_8,-999,skipped,,287812,,,287763,,287812,2021-10-25T14:13:27.576Z,287849.9,1635170782,full,ni_sequenzen,NI_Sequenzen,9,4,,,,,,,,,,,,
,Move,canvas.Screen,0_3_0_4_0_9,-999,skipped,,287817,,,287763,,287817,2021-10-25T14:13:27.582Z,287849.9,1635170782,full,ni_sequenzen,NI_Sequenzen,10,4,,,,,,,,,,,,
,Move,canvas.Screen,0_3_0_4_0_10,-999,skipped,,287823,,,287763,,287823,2021-10-25T14:13:27.588Z,287849.9,1635170782,full,ni_sequenzen,NI_Sequenzen,11,4,,,,,,,,,,,,
,Move,canvas.Screen,0_3_0_4_0_11,-999,skipped,,287829,,,287763,,287829,2021-10-25T14:13:27.593Z,287849.9,1635170782,full,ni_sequenzen,NI_Sequenzen,12,4,,,,,,,,,,,,
,Move,canvas.Screen,0_3_0_4_0_12,-999,skipped,,287834,,,287763,,287834,2021-10-25T14:13:27.599Z,287849.9,1635170782,full,ni_sequenzen,NI_Sequenzen,13,4,,,,,,,,,,,,
,Move,canvas.Screen,0_3_0_4_0_13,-999,skipped,,287839,,,287763,,287840,2021-10-25T14:13:27.604Z,287849.9,1635170782,full,ni_sequenzen,NI_Sequenzen,14,4,,,,,,,,,,,,
,Move,canvas.Screen,0_3_0_4_0_14,-999,skipped,,287845,,,287763,,287845,2021-10-25T14:13:27.609Z,287849.9,1635170782,full,ni_sequenzen,NI_Sequenzen,15,4,,,,,,,,,,,,
,Loop,flow.Loop,0_3_0_4_0,-999,completion,,272222,272235.46,272247.72,287763,15515.280000000028,287845,2021-10-25T14:13:27.610Z,287849.9,1635170782,full,ni_sequenzen,NI_Sequenzen,,4,,,,,,,,,,,,
,Feedback,canvas.Screen,0_3_0_4_1,,timeout,,287850,287849.58,287849.9,291826.58,4032.0599999999977,291830,2021-10-25T14:13:31.594Z,291881.96,1635170782,full,ni_sequenzen,NI_Sequenzen,,4,,,,,,,,,,,,
,Trial,flow.Sequence,0_3_0_4,,completion,,272201,272235.46,272247.72,291826.58,19578.860000000044,291835,2021-10-25T14:13:31.599Z,291893,1635170782,full,ni_sequenzen,NI_Sequenzen,,4,,,,,,,,,,,,
,Move,canvas.Screen,0_3_0_5_0_0,right,response,,291881,291881.96,291893,295231,3338,295248,2021-10-25T14:13:35.012Z,295277.94,1635170782,full,ni_sequenzen,NI_Sequenzen,1,5,,,,,,,,,,,,
,Move,canvas.Screen,0_3_0_5_0_1,down,response,,295277,295277.4,295277.94,295934,656.0599999999977,295940,2021-10-25T14:13:35.705Z,295966.18,1635170782,full,ni_sequenzen,NI_Sequenzen,2,5,,,,,,,,,,,,
,Move,canvas.Screen,0_3_0_5_0_2,right,response,,295966,295965.74,295966.18,298200,2233.820000000007,298212,2021-10-25T14:13:37.976Z,298241.5,1635170782,full,ni_sequenzen,NI_Sequenzen,3,5,,,,,,,,,,,,
,Move,canvas.Screen,0_3_0_5_0_3,down,response,,298236,298236.1,298241.5,298997,755.5,299006,2021-10-25T14:13:38.770Z,299120.98,1635170782,full,ni_sequenzen,NI_Sequenzen,4,5,,,,,,,,,,,,
,Move,canvas.Screen,0_3_0_5_0_4,-999,skipped,,299029,,,298997,,299030,2021-10-25T14:13:38.794Z,299120.98,1635170782,full,ni_sequenzen,NI_Sequenzen,5,5,,,,,,,,,,,,
,Move,canvas.Screen,0_3_0_5_0_5,-999,skipped,,299045,,,298997,,299045,2021-10-25T14:13:38.810Z,299120.98,1635170782,full,ni_sequenzen,NI_Sequenzen,6,5,,,,,,,,,,,,
,Move,canvas.Screen,0_3_0_5_0_6,-999,skipped,,299057,,,298997,,299057,2021-10-25T14:13:38.821Z,299120.98,1635170782,full,ni_sequenzen,NI_Sequenzen,7,5,,,,,,,,,,,,
,Move,canvas.Screen,0_3_0_5_0_7,-999,skipped,,299066,,,298997,,299066,2021-10-25T14:13:38.831Z,299120.98,1635170782,full,ni_sequenzen,NI_Sequenzen,8,5,,,,,,,,,,,,
,Move,canvas.Screen,0_3_0_5_0_8,-999,skipped,,299075,,,298997,,299075,2021-10-25T14:13:38.840Z,299120.98,1635170782,full,ni_sequenzen,NI_Sequenzen,9,5,,,,,,,,,,,,
,Move,canvas.Screen,0_3_0_5_0_9,-999,skipped,,299083,,,298997,,299083,2021-10-25T14:13:38.848Z,299120.98,1635170782,full,ni_sequenzen,NI_Sequenzen,10,5,,,,,,,,,,,,
,Move,canvas.Screen,0_3_0_5_0_10,-999,skipped,,299089,,,298997,,299089,2021-10-25T14:13:38.854Z,299120.98,1635170782,full,ni_sequenzen,NI_Sequenzen,11,5,,,,,,,,,,,,
,Move,canvas.Screen,0_3_0_5_0_11,-999,skipped,,299097,,,298997,,299097,2021-10-25T14:13:38.860Z,299120.98,1635170782,full,ni_sequenzen,NI_Sequenzen,12,5,,,,,,,,,,,,
,Move,canvas.Screen,0_3_0_5_0_12,-999,skipped,,299103,,,298997,,299103,2021-10-25T14:13:38.867Z,299120.98,1635170782,full,ni_sequenzen,NI_Sequenzen,13,5,,,,,,,,,,,,
,Move,canvas.Screen,0_3_0_5_0_13,-999,skipped,,299109,,,298997,,299109,2021-10-25T14:13:38.873Z,299120.98,1635170782,full,ni_sequenzen,NI_Sequenzen,14,5,,,,,,,,,,,,
,Move,canvas.Screen,0_3_0_5_0_14,-999,skipped,,299114,,,298997,,299114,2021-10-25T14:13:38.879Z,299120.98,1635170782,full,ni_sequenzen,NI_Sequenzen,15,5,,,,,,,,,,,,
,Loop,flow.Loop,0_3_0_5_0,-999,completion,,291867,291881.96,291893,298997,7104,299115,2021-10-25T14:13:38.879Z,299120.98,1635170782,full,ni_sequenzen,NI_Sequenzen,,5,,,,,,,,,,,,
,Feedback,canvas.Screen,0_3_0_5_1,,timeout,,299121,299120.78,299120.98,303107.22,4032.0200000000186,303109,2021-10-25T14:13:42.873Z,303153,1635170782,full,ni_sequenzen,NI_Sequenzen,,5,,,,,,,,,,,,
,Trial,flow.Sequence,0_3_0_5,,completion,,291837,291881.96,291893,303107.22,11214.219999999972,303109,2021-10-25T14:13:42.874Z,303157,1635170782,full,ni_sequenzen,NI_Sequenzen,,5,,,,,,,,,,,,
,Move,canvas.Screen,0_3_0_6_0_0,left,response,,303153,303153,303157,307856,4699,307881,2021-10-25T14:13:47.646Z,307899.32,1635170782,full,ni_sequenzen,NI_Sequenzen,1,6,,,,,,,,,,,,
,Move,canvas.Screen,0_3_0_6_0_1,down,response,,307899,307898.8,307899.32,309559,1659.679999999993,309573,2021-10-25T14:13:49.338Z,309589.74,1635170782,full,ni_sequenzen,NI_Sequenzen,2,6,,,,,,,,,,,,
,Move,canvas.Screen,0_3_0_6_0_2,left,response,,309589,309589.28,309589.74,310044,454.2600000000093,310054,2021-10-25T14:13:49.818Z,310071.98,1635170782,full,ni_sequenzen,NI_Sequenzen,3,6,,,,,,,,,,,,
,Move,canvas.Screen,0_3_0_6_0_3,down,response,,310070,310070.14,310071.98,311200,1128.0200000000186,311203,2021-10-25T14:13:50.968Z,311326.9,1635170782,full,ni_sequenzen,NI_Sequenzen,4,6,,,,,,,,,,,,
,Move,canvas.Screen,0_3_0_6_0_4,-999,skipped,,311222,,,311200,,311223,2021-10-25T14:13:50.988Z,311326.9,1635170782,full,ni_sequenzen,NI_Sequenzen,5,6,,,,,,,,,,,,
,Move,canvas.Screen,0_3_0_6_0_5,-999,skipped,,311239,,,311200,,311239,2021-10-25T14:13:51.003Z,311326.9,1635170782,full,ni_sequenzen,NI_Sequenzen,6,6,,,,,,,,,,,,
,Move,canvas.Screen,0_3_0_6_0_6,-999,skipped,,311251,,,311200,,311251,2021-10-25T14:13:51.016Z,311326.9,1635170782,full,ni_sequenzen,NI_Sequenzen,7,6,,,,,,,,,,,,
,Move,canvas.Screen,0_3_0_6_0_7,-999,skipped,,311262,,,311200,,311263,2021-10-25T14:13:51.027Z,311326.9,1635170782,full,ni_sequenzen,NI_Sequenzen,8,6,,,,,,,,,,,,
,Move,canvas.Screen,0_3_0_6_0_8,-999,skipped,,311274,,,311200,,311274,2021-10-25T14:13:51.038Z,311326.9,1635170782,full,ni_sequenzen,NI_Sequenzen,9,6,,,,,,,,,,,,
,Move,canvas.Screen,0_3_0_6_0_9,-999,skipped,,311284,,,311200,,311285,2021-10-25T14:13:51.049Z,311326.9,1635170782,full,ni_sequenzen,NI_Sequenzen,10,6,,,,,,,,,,,,
,Move,canvas.Screen,0_3_0_6_0_10,-999,skipped,,311295,,,311200,,311296,2021-10-25T14:13:51.060Z,311326.9,1635170782,full,ni_sequenzen,NI_Sequenzen,11,6,,,,,,,,,,,,
,Move,canvas.Screen,0_3_0_6_0_11,-999,skipped,,311303,,,311200,,311303,2021-10-25T14:13:51.067Z,311326.9,1635170782,full,ni_sequenzen,NI_Sequenzen,12,6,,,,,,,,,,,,
,Move,canvas.Screen,0_3_0_6_0_12,-999,skipped,,311308,,,311200,,311308,2021-10-25T14:13:51.073Z,311326.9,1635170782,full,ni_sequenzen,NI_Sequenzen,13,6,,,,,,,,,,,,
,Move,canvas.Screen,0_3_0_6_0_13,-999,skipped,,311314,,,311200,,311314,2021-10-25T14:13:51.079Z,311326.9,1635170782,full,ni_sequenzen,NI_Sequenzen,14,6,,,,,,,,,,,,
,Move,canvas.Screen,0_3_0_6_0_14,-999,skipped,,311321,,,311200,,311321,2021-10-25T14:13:51.086Z,311326.9,1635170782,full,ni_sequenzen,NI_Sequenzen,15,6,,,,,,,,,,,,
,Loop,flow.Loop,0_3_0_6_0,-999,completion,,303138,303153,303157,311200,8043,311321,2021-10-25T14:13:51.086Z,311326.9,1635170782,full,ni_sequenzen,NI_Sequenzen,,6,,,,,,,,,,,,
,Feedback,canvas.Screen,0_3_0_6_1,,timeout,,311327,311326.56,311326.9,315304.3,4015.0599999999977,315306,2021-10-25T14:13:55.070Z,315341.96,1635170782,full,ni_sequenzen,NI_Sequenzen,,6,,,,,,,,,,,,
,Trial,flow.Sequence,0_3_0_6,,completion,,303112,303153,303157,315304.3,12147.299999999988,315307,2021-10-25T14:13:55.071Z,315354.08,1635170782,full,ni_sequenzen,NI_Sequenzen,,6,,,,,,,,,,,,
,Move,canvas.Screen,0_3_0_7_0_0,right,response,,315342,315341.96,315354.08,317387,2032.9199999999837,317403,2021-10-25T14:13:57.167Z,317416.2,1635170782,full,ni_sequenzen,NI_Sequenzen,1,7,,,,,,,,,,,,
,Move,canvas.Screen,0_3_0_7_0_1,down,response,,317416,317415.72,317416.2,318497,1080.7999999999884,318509,2021-10-25T14:13:58.274Z,318526.36,1635170782,full,ni_sequenzen,NI_Sequenzen,2,7,,,,,,,,,,,,
,Move,canvas.Screen,0_3_0_7_0_2,right,response,,318525,318525.84,318526.36,318919,392.64000000001397,318932,2021-10-25T14:13:58.696Z,318948.12,1635170782,full,ni_sequenzen,NI_Sequenzen,3,7,,,,,,,,,,,,
,Move,canvas.Screen,0_3_0_7_0_3,down,response,,318948,318947.66,318948.12,319231,282.88000000000466,319239,2021-10-25T14:13:59.004Z,319369.82,1635170782,full,ni_sequenzen,NI_Sequenzen,4,7,,,,,,,,,,,,
,Move,canvas.Screen,0_3_0_7_0_4,-999,skipped,,319256,,,319231,,319257,2021-10-25T14:13:59.021Z,319369.82,1635170782,full,ni_sequenzen,NI_Sequenzen,5,7,,,,,,,,,,,,
,Move,canvas.Screen,0_3_0_7_0_5,-999,skipped,,319269,,,319231,,319269,2021-10-25T14:13:59.033Z,319369.82,1635170782,full,ni_sequenzen,NI_Sequenzen,6,7,,,,,,,,,,,,
,Move,canvas.Screen,0_3_0_7_0_6,-999,skipped,,319281,,,319231,,319281,2021-10-25T14:13:59.045Z,319369.82,1635170782,full,ni_sequenzen,NI_Sequenzen,7,7,,,,,,,,,,,,
,Move,canvas.Screen,0_3_0_7_0_7,-999,skipped,,319292,,,319231,,319292,2021-10-25T14:13:59.056Z,319369.82,1635170782,full,ni_sequenzen,NI_Sequenzen,8,7,,,,,,,,,,,,
,Move,canvas.Screen,0_3_0_7_0_8,-999,skipped,,319303,,,319231,,319304,2021-10-25T14:13:59.068Z,319369.82,1635170782,full,ni_sequenzen,NI_Sequenzen,9,7,,,,,,,,,,,,
,Move,canvas.Screen,0_3_0_7_0_9,-999,skipped,,319315,,,319231,,319316,2021-10-25T14:13:59.080Z,319369.82,1635170782,full,ni_sequenzen,NI_Sequenzen,10,7,,,,,,,,,,,,
,Move,canvas.Screen,0_3_0_7_0_10,-999,skipped,,319329,,,319231,,319329,2021-10-25T14:13:59.093Z,319369.82,1635170782,full,ni_sequenzen,NI_Sequenzen,11,7,,,,,,,,,,,,
,Move,canvas.Screen,0_3_0_7_0_11,-999,skipped,,319340,,,319231,,319340,2021-10-25T14:13:59.104Z,319369.82,1635170782,full,ni_sequenzen,NI_Sequenzen,12,7,,,,,,,,,,,,
,Move,canvas.Screen,0_3_0_7_0_12,-999,skipped,,319349,,,319231,,319349,2021-10-25T14:13:59.113Z,319369.82,1635170782,full,ni_sequenzen,NI_Sequenzen,13,7,,,,,,,,,,,,
,Move,canvas.Screen,0_3_0_7_0_13,-999,skipped,,319355,,,319231,,319355,2021-10-25T14:13:59.120Z,319369.82,1635170782,full,ni_sequenzen,NI_Sequenzen,14,7,,,,,,,,,,,,
,Move,canvas.Screen,0_3_0_7_0_14,-999,skipped,,319362,,,319231,,319362,2021-10-25T14:13:59.126Z,319369.82,1635170782,full,ni_sequenzen,NI_Sequenzen,15,7,,,,,,,,,,,,
,Loop,flow.Loop,0_3_0_7_0,-999,completion,,315329,315341.96,315354.08,319231,3876.9199999999837,319362,2021-10-25T14:13:59.127Z,319369.82,1635170782,full,ni_sequenzen,NI_Sequenzen,,7,,,,,,,,,,,,
,Feedback,canvas.Screen,0_3_0_7_1,,timeout,,319368,319367.32,319369.82,323352.3,4013.960000000021,323354,2021-10-25T14:14:03.118Z,323383.78,1635170782,full,ni_sequenzen,NI_Sequenzen,,7,,,,,,,,,,,,
,Trial,flow.Sequence,0_3_0_7,,completion,,315307,315341.96,315354.08,323352.3,7998.219999999972,323354,2021-10-25T14:14:03.119Z,323385.46,1635170782,full,ni_sequenzen,NI_Sequenzen,,7,,,,,,,,,,,,
,Move,canvas.Screen,0_3_0_8_0_0,down,response,,323384,323383.78,323385.46,324137,751.539999999979,324155,2021-10-25T14:14:03.920Z,324170.96,1635170782,full,ni_sequenzen,NI_Sequenzen,1,8,,,,,,,,,,,,
,Move,canvas.Screen,0_3_0_8_0_1,right,response,,324171,324170.52,324170.96,324825,654.039999999979,324839,2021-10-25T14:14:04.604Z,324858,1635170782,full,ni_sequenzen,NI_Sequenzen,2,8,,,,,,,,,,,,
,Move,canvas.Screen,0_3_0_8_0_2,down,response,,324857,324857.62,324858,325450,592,325459,2021-10-25T14:14:05.223Z,325468.36,1635170782,full,ni_sequenzen,NI_Sequenzen,3,8,,,,,,,,,,,,
,Move,canvas.Screen,0_3_0_8_0_3,right,response,,325466,325466.14,325468.36,326075,606.640000000014,326081,2021-10-25T14:14:05.844Z,326197.86,1635170782,full,ni_sequenzen,NI_Sequenzen,4,8,,,,,,,,,,,,
,Move,canvas.Screen,0_3_0_8_0_4,-999,skipped,,326100,,,326075,,326101,2021-10-25T14:14:05.865Z,326197.86,1635170782,full,ni_sequenzen,NI_Sequenzen,5,8,,,,,,,,,,,,
,Move,canvas.Screen,0_3_0_8_0_5,-999,skipped,,326122,,,326075,,326122,2021-10-25T14:14:05.887Z,326197.86,1635170782,full,ni_sequenzen,NI_Sequenzen,6,8,,,,,,,,,,,,
,Move,canvas.Screen,0_3_0_8_0_6,-999,skipped,,326134,,,326075,,326135,2021-10-25T14:14:05.899Z,326197.86,1635170782,full,ni_sequenzen,NI_Sequenzen,7,8,,,,,,,,,,,,
,Move,canvas.Screen,0_3_0_8_0_7,-999,skipped,,326146,,,326075,,326146,2021-10-25T14:14:05.910Z,326197.86,1635170782,full,ni_sequenzen,NI_Sequenzen,8,8,,,,,,,,,,,,
,Move,canvas.Screen,0_3_0_8_0_8,-999,skipped,,326154,,,326075,,326154,2021-10-25T14:14:05.919Z,326197.86,1635170782,full,ni_sequenzen,NI_Sequenzen,9,8,,,,,,,,,,,,
,Move,canvas.Screen,0_3_0_8_0_9,-999,skipped,,326163,,,326075,,326163,2021-10-25T14:14:05.928Z,326197.86,1635170782,full,ni_sequenzen,NI_Sequenzen,10,8,,,,,,,,,,,,
,Move,canvas.Screen,0_3_0_8_0_10,-999,skipped,,326169,,,326075,,326169,2021-10-25T14:14:05.933Z,326197.86,1635170782,full,ni_sequenzen,NI_Sequenzen,11,8,,,,,,,,,,,,
,Move,canvas.Screen,0_3_0_8_0_11,-999,skipped,,326175,,,326075,,326175,2021-10-25T14:14:05.939Z,326197.86,1635170782,full,ni_sequenzen,NI_Sequenzen,12,8,,,,,,,,,,,,
,Move,canvas.Screen,0_3_0_8_0_12,-999,skipped,,326180,,,326075,,326180,2021-10-25T14:14:05.945Z,326197.86,1635170782,full,ni_sequenzen,NI_Sequenzen,13,8,,,,,,,,,,,,
,Move,canvas.Screen,0_3_0_8_0_13,-999,skipped,,326186,,,326075,,326186,2021-10-25T14:14:05.951Z,326197.86,1635170782,full,ni_sequenzen,NI_Sequenzen,14,8,,,,,,,,,,,,
,Move,canvas.Screen,0_3_0_8_0_14,-999,skipped,,326193,,,326075,,326193,2021-10-25T14:14:05.957Z,326197.86,1635170782,full,ni_sequenzen,NI_Sequenzen,15,8,,,,,,,,,,,,
,Loop,flow.Loop,0_3_0_8_0,-999,completion,,323372,323383.78,323385.46,326075,2689.539999999979,326193,2021-10-25T14:14:05.957Z,326197.86,1635170782,full,ni_sequenzen,NI_Sequenzen,,8,,,,,,,,,,,,
,Feedback,canvas.Screen,0_3_0_8_1,,timeout,,326197,326197.58,326197.86,330183.96,4015.920000000042,330185,2021-10-25T14:14:09.949Z,330213.78,1635170782,full,ni_sequenzen,NI_Sequenzen,,8,,,,,,,,,,,,
,Trial,flow.Sequence,0_3_0_8,,completion,,323356,323383.78,323385.46,330183.96,6798.5,330185,2021-10-25T14:14:09.950Z,330217.18,1635170782,full,ni_sequenzen,NI_Sequenzen,,8,,,,,,,,,,,,
,Move,canvas.Screen,0_3_0_9_0_0,down,response,,330213,330213.78,330217.18,331747,1529.820000000007,331756,2021-10-25T14:14:11.520Z,331770.54,1635170782,full,ni_sequenzen,NI_Sequenzen,1,9,,,,,,,,,,,,
,Move,canvas.Screen,0_3_0_9_0_1,left,response,,331770,331770.04,331770.54,332153,382.46000000002095,332161,2021-10-25T14:14:11.926Z,332178.3,1635170782,full,ni_sequenzen,NI_Sequenzen,2,9,,,,,,,,,,,,
,Move,canvas.Screen,0_3_0_9_0_2,down,response,,332178,332177.88,332178.3,332684,505.70000000001164,332702,2021-10-25T14:14:12.466Z,332718.66,1635170782,full,ni_sequenzen,NI_Sequenzen,3,9,,,,,,,,,,,,
,Move,canvas.Screen,0_3_0_9_0_3,left,response,,332718,332718.2,332718.66,333387,668.3400000000256,333395,2021-10-25T14:14:13.160Z,333510.6,1635170782,full,ni_sequenzen,NI_Sequenzen,4,9,,,,,,,,,,,,
,Move,canvas.Screen,0_3_0_9_0_4,-999,skipped,,333412,,,333387,,333412,2021-10-25T14:14:13.176Z,333510.6,1635170782,full,ni_sequenzen,NI_Sequenzen,5,9,,,,,,,,,,,,
,Move,canvas.Screen,0_3_0_9_0_5,-999,skipped,,333424,,,333387,,333424,2021-10-25T14:14:13.189Z,333510.6,1635170782,full,ni_sequenzen,NI_Sequenzen,6,9,,,,,,,,,,,,
,Move,canvas.Screen,0_3_0_9_0_6,-999,skipped,,333436,,,333387,,333436,2021-10-25T14:14:13.201Z,333510.6,1635170782,full,ni_sequenzen,NI_Sequenzen,7,9,,,,,,,,,,,,
,Move,canvas.Screen,0_3_0_9_0_7,-999,skipped,,333447,,,333387,,333447,2021-10-25T14:14:13.212Z,333510.6,1635170782,full,ni_sequenzen,NI_Sequenzen,8,9,,,,,,,,,,,,
,Move,canvas.Screen,0_3_0_9_0_8,-999,skipped,,333459,,,333387,,333459,2021-10-25T14:14:13.223Z,333510.6,1635170782,full,ni_sequenzen,NI_Sequenzen,9,9,,,,,,,,,,,,
,Move,canvas.Screen,0_3_0_9_0_9,-999,skipped,,333469,,,333387,,333469,2021-10-25T14:14:13.234Z,333510.6,1635170782,full,ni_sequenzen,NI_Sequenzen,10,9,,,,,,,,,,,,
,Move,canvas.Screen,0_3_0_9_0_10,-999,skipped,,333479,,,333387,,333479,2021-10-25T14:14:13.243Z,333510.6,1635170782,full,ni_sequenzen,NI_Sequenzen,11,9,,,,,,,,,,,,
,Move,canvas.Screen,0_3_0_9_0_11,-999,skipped,,333487,,,333387,,333487,2021-10-25T14:14:13.252Z,333510.6,1635170782,full,ni_sequenzen,NI_Sequenzen,12,9,,,,,,,,,,,,
,Move,canvas.Screen,0_3_0_9_0_12,-999,skipped,,333493,,,333387,,333493,2021-10-25T14:14:13.258Z,333510.6,1635170782,full,ni_sequenzen,NI_Sequenzen,13,9,,,,,,,,,,,,
,Move,canvas.Screen,0_3_0_9_0_13,-999,skipped,,333499,,,333387,,333499,2021-10-25T14:14:13.263Z,333510.6,1635170782,full,ni_sequenzen,NI_Sequenzen,14,9,,,,,,,,,,,,
,Move,canvas.Screen,0_3_0_9_0_14,-999,skipped,,333505,,,333387,,333506,2021-10-25T14:14:13.269Z,333510.6,1635170782,full,ni_sequenzen,NI_Sequenzen,15,9,,,,,,,,,,,,
,Loop,flow.Loop,0_3_0_9_0,-999,completion,,330202,330213.78,330217.18,333387,3169.820000000007,333506,2021-10-25T14:14:13.270Z,333510.6,1635170782,full,ni_sequenzen,NI_Sequenzen,,9,,,,,,,,,,,,
,Feedback,canvas.Screen,0_3_0_9_1,,timeout,,333510,333510.3,333510.6,337498.98,4330.040000000037,337500,2021-10-25T14:14:17.265Z,337840.64,1635170782,full,ni_sequenzen,NI_Sequenzen,,9,,,,,,,,,,,,
,Trial,flow.Sequence,0_3_0_9,,completion,,330186,330213.78,330217.18,337498.98,7281.799999999988,337500,2021-10-25T14:14:17.265Z,337865.34,1635170782,full,ni_sequenzen,NI_Sequenzen,,9,,,,,,,,,,,,
,Block,flow.Loop,0_3_0,,completion,,159059,159091.92,159108.16,337498.98,178390.81999999998,337500,2021-10-25T14:14:17.265Z,337865.34,1635170782,full,ni_sequenzen,NI_Sequenzen,,,,,,,,,,,,,,
,Training_II,flow.Sequence,0_3,,completion,,159011,159091.92,159108.16,337498.98,178390.81999999998,337501,2021-10-25T14:14:17.266Z,337865.34,1635170782,full,ni_sequenzen,NI_Sequenzen,,,,,,,,,,,,,,
,Screen_1,canvas.Screen,0_4_0_0,cont,response,1,337841,337840.64,337865.34,347075,9209.659999999974,347084,2021-10-25T14:14:26.849Z,347113.08,1635170782,full,ni_sequenzen,NI_Sequenzen,,,,,,,,,,,,,,
,Screen_2,canvas.Screen,0_4_0_1,cont,response,1,347098,347097.5,347113.08,354075,6961.919999999984,354087,2021-10-25T14:14:33.852Z,354461.36,1635170782,full,ni_sequenzen,NI_Sequenzen,,,,,,,,,,,,,,
,Screen_3,canvas.Screen,0_4_0_2,cont,response,1,354440,354440.14,354461.36,361170,6708.640000000014,361184,2021-10-25T14:14:40.948Z,361444.36,1635170782,full,ni_sequenzen,NI_Sequenzen,,,,,,,,,,,,,,
,Sequence,flow.Sequence,0_4_0,,completion,1,337546,337840.64,337865.34,361170,23304.659999999974,361186,2021-10-25T14:14:40.949Z,361444.36,1635170782,full,ni_sequenzen,NI_Sequenzen,,,,,,,,,,,,,,
,Screen_1,canvas.Screen,0_4_1_0,,skipped,2,361197,,,361197,,361197,2021-10-25T14:14:40.962Z,361444.36,1635170782,full,ni_sequenzen,NI_Sequenzen,,,,,,,,,,,,,,
,Screen_2,canvas.Screen,0_4_1_1,,skipped,2,361202,,,361197,,361202,2021-10-25T14:14:40.967Z,361444.36,1635170782,full,ni_sequenzen,NI_Sequenzen,,,,,,,,,,,,,,
,Screen_3,canvas.Screen,0_4_1_2,,skipped,2,361208,,,361197,,361208,2021-10-25T14:14:40.972Z,361444.36,1635170782,full,ni_sequenzen,NI_Sequenzen,,,,,,,,,,,,,,
,Sequence,flow.Sequence,0_4_1,,completion,2,361190,,,361197,,361208,2021-10-25T14:14:40.973Z,361444.36,1635170782,full,ni_sequenzen,NI_Sequenzen,,,,,,,,,,,,,,
,Screen_1,canvas.Screen,0_4_2_0,,skipped,3,361216,,,361216,,361216,2021-10-25T14:14:40.981Z,361444.36,1635170782,full,ni_sequenzen,NI_Sequenzen,,,,,,,,,,,,,,
,Screen_2,canvas.Screen,0_4_2_1,,skipped,3,361220,,,361216,,361220,2021-10-25T14:14:40.985Z,361444.36,1635170782,full,ni_sequenzen,NI_Sequenzen,,,,,,,,,,,,,,
,Screen_3,canvas.Screen,0_4_2_2,,skipped,3,361225,,,361216,,361225,2021-10-25T14:14:40.989Z,361444.36,1635170782,full,ni_sequenzen,NI_Sequenzen,,,,,,,,,,,,,,
,Sequence,flow.Sequence,0_4_2,,completion,3,361211,,,361216,,361226,2021-10-25T14:14:40.990Z,361444.36,1635170782,full,ni_sequenzen,NI_Sequenzen,,,,,,,,,,,,,,
,Screen_1,canvas.Screen,0_4_3_0,,skipped,4,361232,,,361232,,361232,2021-10-25T14:14:40.996Z,361444.36,1635170782,full,ni_sequenzen,NI_Sequenzen,,,,,,,,,,,,,,
,Screen_2,canvas.Screen,0_4_3_1,,skipped,4,361237,,,361232,,361237,2021-10-25T14:14:41.001Z,361444.36,1635170782,full,ni_sequenzen,NI_Sequenzen,,,,,,,,,,,,,,
,Screen_3,canvas.Screen,0_4_3_2,,skipped,4,361242,,,361232,,361242,2021-10-25T14:14:41.006Z,361444.36,1635170782,full,ni_sequenzen,NI_Sequenzen,,,,,,,,,,,,,,
,Sequence,flow.Sequence,0_4_3,,completion,4,361228,,,361232,,361242,2021-10-25T14:14:41.007Z,361444.36,1635170782,full,ni_sequenzen,NI_Sequenzen,,,,,,,,,,,,,,
,Screen_1,canvas.Screen,0_4_4_0,,skipped,5,361247,,,361247,,361248,2021-10-25T14:14:41.012Z,361444.36,1635170782,full,ni_sequenzen,NI_Sequenzen,,,,,,,,,,,,,,
,Screen_2,canvas.Screen,0_4_4_1,,skipped,5,361251,,,361247,,361251,2021-10-25T14:14:41.016Z,361444.36,1635170782,full,ni_sequenzen,NI_Sequenzen,,,,,,,,,,,,,,
,Screen_3,canvas.Screen,0_4_4_2,,skipped,5,361256,,,361247,,361256,2021-10-25T14:14:41.021Z,361444.36,1635170782,full,ni_sequenzen,NI_Sequenzen,,,,,,,,,,,,,,
,Sequence,flow.Sequence,0_4_4,,completion,5,361244,,,361247,,361256,2021-10-25T14:14:41.021Z,361444.36,1635170782,full,ni_sequenzen,NI_Sequenzen,,,,,,,,,,,,,,
,Screen_1,canvas.Screen,0_4_5_0,,skipped,6,361260,,,361260,,361260,2021-10-25T14:14:41.025Z,361444.36,1635170782,full,ni_sequenzen,NI_Sequenzen,,,,,,,,,,,,,,
,Screen_2,canvas.Screen,0_4_5_1,,skipped,6,361262,,,361260,,361262,2021-10-25T14:14:41.027Z,361444.36,1635170782,full,ni_sequenzen,NI_Sequenzen,,,,,,,,,,,,,,
,Screen_3,canvas.Screen,0_4_5_2,,skipped,6,361266,,,361260,,361266,2021-10-25T14:14:41.030Z,361444.36,1635170782,full,ni_sequenzen,NI_Sequenzen,,,,,,,,,,,,,,
,Sequence,flow.Sequence,0_4_5,,completion,6,361257,,,361260,,361266,2021-10-25T14:14:41.030Z,361444.36,1635170782,full,ni_sequenzen,NI_Sequenzen,,,,,,,,,,,,,,
,Screen_1,canvas.Screen,0_4_6_0,,skipped,7,361268,,,361268,,361268,2021-10-25T14:14:41.033Z,361444.36,1635170782,full,ni_sequenzen,NI_Sequenzen,,,,,,,,,,,,,,
,Screen_2,canvas.Screen,0_4_6_1,,skipped,7,361271,,,361268,,361271,2021-10-25T14:14:41.035Z,361444.36,1635170782,full,ni_sequenzen,NI_Sequenzen,,,,,,,,,,,,,,
,Screen_3,canvas.Screen,0_4_6_2,,skipped,7,361273,,,361268,,361273,2021-10-25T14:14:41.037Z,361444.36,1635170782,full,ni_sequenzen,NI_Sequenzen,,,,,,,,,,,,,,
,Sequence,flow.Sequence,0_4_6,,completion,7,361267,,,361268,,361273,2021-10-25T14:14:41.038Z,361444.36,1635170782,full,ni_sequenzen,NI_Sequenzen,,,,,,,,,,,,,,
,Screen_1,canvas.Screen,0_4_7_0,,skipped,8,361277,,,361277,,361277,2021-10-25T14:14:41.042Z,361444.36,1635170782,full,ni_sequenzen,NI_Sequenzen,,,,,,,,,,,,,,
,Screen_2,canvas.Screen,0_4_7_1,,skipped,8,361279,,,361277,,361279,2021-10-25T14:14:41.043Z,361444.36,1635170782,full,ni_sequenzen,NI_Sequenzen,,,,,,,,,,,,,,
,Screen_3,canvas.Screen,0_4_7_2,,skipped,8,361280,,,361277,,361281,2021-10-25T14:14:41.045Z,361444.36,1635170782,full,ni_sequenzen,NI_Sequenzen,,,,,,,,,,,,,,
,Sequence,flow.Sequence,0_4_7,,completion,8,361275,,,361277,,361281,2021-10-25T14:14:41.046Z,361444.36,1635170782,full,ni_sequenzen,NI_Sequenzen,,,,,,,,,,,,,,
,Screen_1,canvas.Screen,0_4_8_0,,skipped,9,361283,,,361284,,361284,2021-10-25T14:14:41.048Z,361444.36,1635170782,full,ni_sequenzen,NI_Sequenzen,,,,,,,,,,,,,,
,Screen_2,canvas.Screen,0_4_8_1,,skipped,9,361285,,,361284,,361285,2021-10-25T14:14:41.050Z,361444.36,1635170782,full,ni_sequenzen,NI_Sequenzen,,,,,,,,,,,,,,
,Screen_3,canvas.Screen,0_4_8_2,,skipped,9,361289,,,361284,,361289,2021-10-25T14:14:41.054Z,361444.36,1635170782,full,ni_sequenzen,NI_Sequenzen,,,,,,,,,,,,,,
,Sequence,flow.Sequence,0_4_8,,completion,9,361282,,,361284,,361289,2021-10-25T14:14:41.054Z,361444.36,1635170782,full,ni_sequenzen,NI_Sequenzen,,,,,,,,,,,,,,
,Screen_1,canvas.Screen,0_4_9_0,,skipped,10,361292,,,361292,,361292,2021-10-25T14:14:41.056Z,361444.36,1635170782,full,ni_sequenzen,NI_Sequenzen,,,,,,,,,,,,,,
,Screen_2,canvas.Screen,0_4_9_1,,skipped,10,361294,,,361292,,361294,2021-10-25T14:14:41.059Z,361444.36,1635170782,full,ni_sequenzen,NI_Sequenzen,,,,,,,,,,,,,,
,Screen_3,canvas.Screen,0_4_9_2,,skipped,10,361296,,,361292,,361296,2021-10-25T14:14:41.061Z,361444.36,1635170782,full,ni_sequenzen,NI_Sequenzen,,,,,,,,,,,,,,
,Sequence,flow.Sequence,0_4_9,,completion,10,361290,,,361292,,361296,2021-10-25T14:14:41.061Z,361444.36,1635170782,full,ni_sequenzen,NI_Sequenzen,,,,,,,,,,,,,,
,Screen_1,canvas.Screen,0_4_10_0,,skipped,11,361299,,,361299,,361299,2021-10-25T14:14:41.064Z,361444.36,1635170782,full,ni_sequenzen,NI_Sequenzen,,,,,,,,,,,,,,
,Screen_2,canvas.Screen,0_4_10_1,,skipped,11,361301,,,361299,,361301,2021-10-25T14:14:41.066Z,361444.36,1635170782,full,ni_sequenzen,NI_Sequenzen,,,,,,,,,,,,,,
,Screen_3,canvas.Screen,0_4_10_2,,skipped,11,361303,,,361299,,361303,2021-10-25T14:14:41.068Z,361444.36,1635170782,full,ni_sequenzen,NI_Sequenzen,,,,,,,,,,,,,,
,Sequence,flow.Sequence,0_4_10,,completion,11,361297,,,361299,,361303,2021-10-25T14:14:41.068Z,361444.36,1635170782,full,ni_sequenzen,NI_Sequenzen,,,,,,,,,,,,,,
,Screen_1,canvas.Screen,0_4_11_0,,skipped,12,361306,,,361306,,361306,2021-10-25T14:14:41.071Z,361444.36,1635170782,full,ni_sequenzen,NI_Sequenzen,,,,,,,,,,,,,,
,Screen_2,canvas.Screen,0_4_11_1,,skipped,12,361309,,,361306,,361309,2021-10-25T14:14:41.073Z,361444.36,1635170782,full,ni_sequenzen,NI_Sequenzen,,,,,,,,,,,,,,
,Screen_3,canvas.Screen,0_4_11_2,,skipped,12,361311,,,361306,,361311,2021-10-25T14:14:41.076Z,361444.36,1635170782,full,ni_sequenzen,NI_Sequenzen,,,,,,,,,,,,,,
,Sequence,flow.Sequence,0_4_11,,completion,12,361304,,,361306,,361311,2021-10-25T14:14:41.076Z,361444.36,1635170782,full,ni_sequenzen,NI_Sequenzen,,,,,,,,,,,,,,
,Screen_1,canvas.Screen,0_4_12_0,,skipped,13,361314,,,361314,,361314,2021-10-25T14:14:41.078Z,361444.36,1635170782,full,ni_sequenzen,NI_Sequenzen,,,,,,,,,,,,,,
,Screen_2,canvas.Screen,0_4_12_1,,skipped,13,361315,,,361314,,361315,2021-10-25T14:14:41.080Z,361444.36,1635170782,full,ni_sequenzen,NI_Sequenzen,,,,,,,,,,,,,,
,Screen_3,canvas.Screen,0_4_12_2,,skipped,13,361317,,,361314,,361317,2021-10-25T14:14:41.081Z,361444.36,1635170782,full,ni_sequenzen,NI_Sequenzen,,,,,,,,,,,,,,
,Sequence,flow.Sequence,0_4_12,,completion,13,361312,,,361314,,361317,2021-10-25T14:14:41.082Z,361444.36,1635170782,full,ni_sequenzen,NI_Sequenzen,,,,,,,,,,,,,,
,Screen_1,canvas.Screen,0_4_13_0,,skipped,14,361319,,,361319,,361319,2021-10-25T14:14:41.084Z,361444.36,1635170782,full,ni_sequenzen,NI_Sequenzen,,,,,,,,,,,,,,
,Screen_2,canvas.Screen,0_4_13_1,,skipped,14,361321,,,361319,,361321,2021-10-25T14:14:41.085Z,361444.36,1635170782,full,ni_sequenzen,NI_Sequenzen,,,,,,,,,,,,,,
,Screen_3,canvas.Screen,0_4_13_2,,skipped,14,361323,,,361319,,361323,2021-10-25T14:14:41.088Z,361444.36,1635170782,full,ni_sequenzen,NI_Sequenzen,,,,,,,,,,,,,,
,Sequence,flow.Sequence,0_4_13,,completion,14,361317,,,361319,,361324,2021-10-25T14:14:41.088Z,361444.36,1635170782,full,ni_sequenzen,NI_Sequenzen,,,,,,,,,,,,,,
,Screen_1,canvas.Screen,0_4_14_0,,skipped,15,361327,,,361327,,361327,2021-10-25T14:14:41.091Z,361444.36,1635170782,full,ni_sequenzen,NI_Sequenzen,,,,,,,,,,,,,,
,Screen_2,canvas.Screen,0_4_14_1,,skipped,15,361328,,,361327,,361328,2021-10-25T14:14:41.093Z,361444.36,1635170782,full,ni_sequenzen,NI_Sequenzen,,,,,,,,,,,,,,
,Screen_3,canvas.Screen,0_4_14_2,,skipped,15,361330,,,361327,,361330,2021-10-25T14:14:41.094Z,361444.36,1635170782,full,ni_sequenzen,NI_Sequenzen,,,,,,,,,,,,,,
,Sequence,flow.Sequence,0_4_14,,completion,15,361325,,,361327,,361330,2021-10-25T14:14:41.095Z,361444.36,1635170782,full,ni_sequenzen,NI_Sequenzen,,,,,,,,,,,,,,
,Screen_1,canvas.Screen,0_4_15_0,,skipped,16,361332,,,361332,,361332,2021-10-25T14:14:41.097Z,361444.36,1635170782,full,ni_sequenzen,NI_Sequenzen,,,,,,,,,,,,,,
,Screen_2,canvas.Screen,0_4_15_1,,skipped,16,361334,,,361332,,361334,2021-10-25T14:14:41.098Z,361444.36,1635170782,full,ni_sequenzen,NI_Sequenzen,,,,,,,,,,,,,,
,Screen_3,canvas.Screen,0_4_15_2,,skipped,16,361336,,,361332,,361336,2021-10-25T14:14:41.100Z,361444.36,1635170782,full,ni_sequenzen,NI_Sequenzen,,,,,,,,,,,,,,
,Sequence,flow.Sequence,0_4_15,,completion,16,361331,,,361332,,361337,2021-10-25T14:14:41.100Z,361444.36,1635170782,full,ni_sequenzen,NI_Sequenzen,,,,,,,,,,,,,,
,Screen_1,canvas.Screen,0_4_16_0,,skipped,17,361339,,,361339,,361339,2021-10-25T14:14:41.103Z,361444.36,1635170782,full,ni_sequenzen,NI_Sequenzen,,,,,,,,,,,,,,
,Screen_2,canvas.Screen,0_4_16_1,,skipped,17,361340,,,361339,,361340,2021-10-25T14:14:41.106Z,361444.36,1635170782,full,ni_sequenzen,NI_Sequenzen,,,,,,,,,,,,,,
,Screen_3,canvas.Screen,0_4_16_2,,skipped,17,361343,,,361339,,361343,2021-10-25T14:14:41.107Z,361444.36,1635170782,full,ni_sequenzen,NI_Sequenzen,,,,,,,,,,,,,,
,Sequence,flow.Sequence,0_4_16,,completion,17,361337,,,361339,,361344,2021-10-25T14:14:41.107Z,361444.36,1635170782,full,ni_sequenzen,NI_Sequenzen,,,,,,,,,,,,,,
