meta,sender,sender_type,sender_id,response,ended_on,instrCount,time_run,time_render,time_show,time_end,duration,time_commit,timestamp,time_switch,openLabId,type,task,project,move,trialN,blockN_Train,blockN,moveCount,currPP,points,movesTrial,visitedFields,diff,reward,Strategie,Zweck,Probleme
[object Object],Screen_1,canvas.Screen,0_0_0_0,cont,response,1,610,603.09,636.309,6884,6247.691,6888.899999976158,2021-10-25T16:54:39.854Z,7023.989,1635180875,full,ni_sequenzen,NI_Sequenzen,,,,,,,,,,,,,,
,Screen_2,canvas.Screen,0_0_0_1,cont,response,1,7007.600000023842,7007.688,7023.989,10945.799999952316,3921.8109999523167,10946.5,2021-10-25T16:54:43.911Z,11031.565,1635180875,full,ni_sequenzen,NI_Sequenzen,,,,,,,,,,,,,,
,Screen_3,canvas.Screen,0_0_0_2,cont,response,1,11025.399999976158,11024.032,11031.565,36659.89999997616,25628.334999976156,36660.89999997616,2021-10-25T16:55:09.616Z,36672.704,1635180875,full,ni_sequenzen,NI_Sequenzen,,,,,,,,,,,,,,
,Screen_4,canvas.Screen,0_0_0_3,cont,response,1,36666.60000002384,36663.956,36672.704,43434.89999997616,6762.19599997616,43435.799999952316,2021-10-25T16:55:16.391Z,43553.543,1635180875,full,ni_sequenzen,NI_Sequenzen,,,,,,,,,,,,,,
,Sequence,flow.Sequence,0_0_0,,completion,1,566.2000000476837,603.09,636.309,43434.89999997616,42798.59099997616,43440.89999997616,2021-10-25T16:55:16.396Z,43553.543,1635180875,full,ni_sequenzen,NI_Sequenzen,,,,,,,,,,,,,,
,Screen_1,canvas.Screen,0_0_1_0,,skipped,2,43442.60000002384,,,43442.60000002384,,43442.700000047684,2021-10-25T16:55:16.398Z,43553.543,1635180875,full,ni_sequenzen,NI_Sequenzen,,,,,,,,,,,,,,
,Screen_2,canvas.Screen,0_0_1_1,,skipped,2,43443.60000002384,,,43442.60000002384,,43443.700000047684,2021-10-25T16:55:16.399Z,43553.543,1635180875,full,ni_sequenzen,NI_Sequenzen,,,,,,,,,,,,,,
,Screen_3,canvas.Screen,0_0_1_2,,skipped,2,43444.89999997616,,,43442.60000002384,,43444.89999997616,2021-10-25T16:55:16.400Z,43553.543,1635180875,full,ni_sequenzen,NI_Sequenzen,,,,,,,,,,,,,,
,Screen_4,canvas.Screen,0_0_1_3,,skipped,2,43445.89999997616,,,43442.60000002384,,43445.89999997616,2021-10-25T16:55:16.401Z,43553.543,1635180875,full,ni_sequenzen,NI_Sequenzen,,,,,,,,,,,,,,
,Sequence,flow.Sequence,0_0_1,,completion,2,43441.5,,,43442.60000002384,,43446.200000047684,2021-10-25T16:55:16.401Z,43553.543,1635180875,full,ni_sequenzen,NI_Sequenzen,,,,,,,,,,,,,,
,Screen_1,canvas.Screen,0_0_2_0,,skipped,3,43447.39999997616,,,43447.39999997616,,43447.5,2021-10-25T16:55:16.402Z,43553.543,1635180875,full,ni_sequenzen,NI_Sequenzen,,,,,,,,,,,,,,
,Screen_2,canvas.Screen,0_0_2_1,,skipped,3,43448.200000047684,,,43447.39999997616,,43448.299999952316,2021-10-25T16:55:16.403Z,43553.543,1635180875,full,ni_sequenzen,NI_Sequenzen,,,,,,,,,,,,,,
,Screen_3,canvas.Screen,0_0_2_2,,skipped,3,43449.10000002384,,,43447.39999997616,,43449.299999952316,2021-10-25T16:55:16.404Z,43553.543,1635180875,full,ni_sequenzen,NI_Sequenzen,,,,,,,,,,,,,,
,Screen_4,canvas.Screen,0_0_2_3,,skipped,3,43450,,,43447.39999997616,,43450.10000002384,2021-10-25T16:55:16.405Z,43553.543,1635180875,full,ni_sequenzen,NI_Sequenzen,,,,,,,,,,,,,,
,Sequence,flow.Sequence,0_0_2,,completion,3,43446.60000002384,,,43447.39999997616,,43450.200000047684,2021-10-25T16:55:16.405Z,43553.543,1635180875,full,ni_sequenzen,NI_Sequenzen,,,,,,,,,,,,,,
,Screen_1,canvas.Screen,0_0_3_0,,skipped,4,43451.200000047684,,,43451.200000047684,,43451.299999952316,2021-10-25T16:55:16.406Z,43553.543,1635180875,full,ni_sequenzen,NI_Sequenzen,,,,,,,,,,,,,,
,Screen_2,canvas.Screen,0_0_3_1,,skipped,4,43452,,,43451.200000047684,,43452.10000002384,2021-10-25T16:55:16.407Z,43553.543,1635180875,full,ni_sequenzen,NI_Sequenzen,,,,,,,,,,,,,,
,Screen_3,canvas.Screen,0_0_3_2,,skipped,4,43466.700000047684,,,43451.200000047684,,43466.799999952316,2021-10-25T16:55:16.422Z,43553.543,1635180875,full,ni_sequenzen,NI_Sequenzen,,,,,,,,,,,,,,
,Screen_4,canvas.Screen,0_0_3_3,,skipped,4,43468.200000047684,,,43451.200000047684,,43468.299999952316,2021-10-25T16:55:16.423Z,43553.543,1635180875,full,ni_sequenzen,NI_Sequenzen,,,,,,,,,,,,,,
,Sequence,flow.Sequence,0_0_3,,completion,4,43450.5,,,43451.200000047684,,43468.5,2021-10-25T16:55:16.423Z,43553.543,1635180875,full,ni_sequenzen,NI_Sequenzen,,,,,,,,,,,,,,
,Screen_1,canvas.Screen,0_0_4_0,,skipped,5,43469.60000002384,,,43469.60000002384,,43469.700000047684,2021-10-25T16:55:16.425Z,43553.543,1635180875,full,ni_sequenzen,NI_Sequenzen,,,,,,,,,,,,,,
,Screen_2,canvas.Screen,0_0_4_1,,skipped,5,43470.60000002384,,,43469.60000002384,,43470.60000002384,2021-10-25T16:55:16.426Z,43553.543,1635180875,full,ni_sequenzen,NI_Sequenzen,,,,,,,,,,,,,,
,Screen_3,canvas.Screen,0_0_4_2,,skipped,5,43471.5,,,43469.60000002384,,43471.60000002384,2021-10-25T16:55:16.427Z,43553.543,1635180875,full,ni_sequenzen,NI_Sequenzen,,,,,,,,,,,,,,
,Screen_4,canvas.Screen,0_0_4_3,,skipped,5,43472.299999952316,,,43469.60000002384,,43472.39999997616,2021-10-25T16:55:16.427Z,43553.543,1635180875,full,ni_sequenzen,NI_Sequenzen,,,,,,,,,,,,,,
,Sequence,flow.Sequence,0_0_4,,completion,5,43468.799999952316,,,43469.60000002384,,43472.5,2021-10-25T16:55:16.427Z,43553.543,1635180875,full,ni_sequenzen,NI_Sequenzen,,,,,,,,,,,,,,
,Screen_1,canvas.Screen,0_0_5_0,,skipped,6,43473.5,,,43473.5,,43473.60000002384,2021-10-25T16:55:16.429Z,43553.543,1635180875,full,ni_sequenzen,NI_Sequenzen,,,,,,,,,,,,,,
,Screen_2,canvas.Screen,0_0_5_1,,skipped,6,43474.39999997616,,,43473.5,,43474.39999997616,2021-10-25T16:55:16.429Z,43553.543,1635180875,full,ni_sequenzen,NI_Sequenzen,,,,,,,,,,,,,,
,Screen_3,canvas.Screen,0_0_5_2,,skipped,6,43475.200000047684,,,43473.5,,43475.200000047684,2021-10-25T16:55:16.430Z,43553.543,1635180875,full,ni_sequenzen,NI_Sequenzen,,,,,,,,,,,,,,
,Screen_4,canvas.Screen,0_0_5_3,,skipped,6,43476,,,43473.5,,43476.10000002384,2021-10-25T16:55:16.431Z,43553.543,1635180875,full,ni_sequenzen,NI_Sequenzen,,,,,,,,,,,,,,
,Sequence,flow.Sequence,0_0_5,,completion,6,43472.799999952316,,,43473.5,,43476.200000047684,2021-10-25T16:55:16.431Z,43553.543,1635180875,full,ni_sequenzen,NI_Sequenzen,,,,,,,,,,,,,,
,Screen_1,canvas.Screen,0_0_6_0,,skipped,7,43477.200000047684,,,43477.200000047684,,43477.299999952316,2021-10-25T16:55:16.432Z,43553.543,1635180875,full,ni_sequenzen,NI_Sequenzen,,,,,,,,,,,,,,
,Screen_2,canvas.Screen,0_0_6_1,,skipped,7,43478,,,43477.200000047684,,43478,2021-10-25T16:55:16.433Z,43553.543,1635180875,full,ni_sequenzen,NI_Sequenzen,,,,,,,,,,,,,,
,Screen_3,canvas.Screen,0_0_6_2,,skipped,7,43478.799999952316,,,43477.200000047684,,43478.799999952316,2021-10-25T16:55:16.434Z,43553.543,1635180875,full,ni_sequenzen,NI_Sequenzen,,,,,,,,,,,,,,
,Screen_4,canvas.Screen,0_0_6_3,,skipped,7,43479.89999997616,,,43477.200000047684,,43479.89999997616,2021-10-25T16:55:16.435Z,43553.543,1635180875,full,ni_sequenzen,NI_Sequenzen,,,,,,,,,,,,,,
,Sequence,flow.Sequence,0_0_6,,completion,7,43476.39999997616,,,43477.200000047684,,43480.10000002384,2021-10-25T16:55:16.435Z,43553.543,1635180875,full,ni_sequenzen,NI_Sequenzen,,,,,,,,,,,,,,
,Screen_1,canvas.Screen,0_0_7_0,,skipped,8,43482,,,43482,,43482,2021-10-25T16:55:16.437Z,43553.543,1635180875,full,ni_sequenzen,NI_Sequenzen,,,,,,,,,,,,,,
,Screen_2,canvas.Screen,0_0_7_1,,skipped,8,43482.799999952316,,,43482,,43482.89999997616,2021-10-25T16:55:16.438Z,43553.543,1635180875,full,ni_sequenzen,NI_Sequenzen,,,,,,,,,,,,,,
,Screen_3,canvas.Screen,0_0_7_2,,skipped,8,43483.60000002384,,,43482,,43483.700000047684,2021-10-25T16:55:16.439Z,43553.543,1635180875,full,ni_sequenzen,NI_Sequenzen,,,,,,,,,,,,,,
,Screen_4,canvas.Screen,0_0_7_3,,skipped,8,43484.60000002384,,,43482,,43484.60000002384,2021-10-25T16:55:16.440Z,43553.543,1635180875,full,ni_sequenzen,NI_Sequenzen,,,,,,,,,,,,,,
,Sequence,flow.Sequence,0_0_7,,completion,8,43480.39999997616,,,43482,,43484.700000047684,2021-10-25T16:55:16.440Z,43553.543,1635180875,full,ni_sequenzen,NI_Sequenzen,,,,,,,,,,,,,,
,Screen_1,canvas.Screen,0_0_8_0,,skipped,9,43485.700000047684,,,43485.700000047684,,43485.799999952316,2021-10-25T16:55:16.441Z,43553.543,1635180875,full,ni_sequenzen,NI_Sequenzen,,,,,,,,,,,,,,
,Screen_2,canvas.Screen,0_0_8_1,,skipped,9,43486.5,,,43485.700000047684,,43486.60000002384,2021-10-25T16:55:16.442Z,43553.543,1635180875,full,ni_sequenzen,NI_Sequenzen,,,,,,,,,,,,,,
,Screen_3,canvas.Screen,0_0_8_2,,skipped,9,43487.5,,,43485.700000047684,,43487.5,2021-10-25T16:55:16.443Z,43553.543,1635180875,full,ni_sequenzen,NI_Sequenzen,,,,,,,,,,,,,,
,Screen_4,canvas.Screen,0_0_8_3,,skipped,9,43488.299999952316,,,43485.700000047684,,43488.299999952316,2021-10-25T16:55:16.443Z,43553.543,1635180875,full,ni_sequenzen,NI_Sequenzen,,,,,,,,,,,,,,
,Sequence,flow.Sequence,0_0_8,,completion,9,43485.10000002384,,,43485.700000047684,,43488.39999997616,2021-10-25T16:55:16.443Z,43553.543,1635180875,full,ni_sequenzen,NI_Sequenzen,,,,,,,,,,,,,,
,Screen_1,canvas.Screen,0_0_9_0,,skipped,10,43489.5,,,43489.5,,43489.5,2021-10-25T16:55:16.445Z,43553.543,1635180875,full,ni_sequenzen,NI_Sequenzen,,,,,,,,,,,,,,
,Screen_2,canvas.Screen,0_0_9_1,,skipped,10,43490.200000047684,,,43489.5,,43490.299999952316,2021-10-25T16:55:16.445Z,43553.543,1635180875,full,ni_sequenzen,NI_Sequenzen,,,,,,,,,,,,,,
,Screen_3,canvas.Screen,0_0_9_2,,skipped,10,43491,,,43489.5,,43491.10000002384,2021-10-25T16:55:16.446Z,43553.543,1635180875,full,ni_sequenzen,NI_Sequenzen,,,,,,,,,,,,,,
,Screen_4,canvas.Screen,0_0_9_3,,skipped,10,43491.799999952316,,,43489.5,,43491.89999997616,2021-10-25T16:55:16.447Z,43553.543,1635180875,full,ni_sequenzen,NI_Sequenzen,,,,,,,,,,,,,,
,Sequence,flow.Sequence,0_0_9,,completion,10,43488.700000047684,,,43489.5,,43491.89999997616,2021-10-25T16:55:16.447Z,43553.543,1635180875,full,ni_sequenzen,NI_Sequenzen,,,,,,,,,,,,,,
,Screen_1,canvas.Screen,0_0_10_0,,skipped,11,43493.60000002384,,,43493.60000002384,,43493.700000047684,2021-10-25T16:55:16.449Z,43553.543,1635180875,full,ni_sequenzen,NI_Sequenzen,,,,,,,,,,,,,,
,Screen_2,canvas.Screen,0_0_10_1,,skipped,11,43494.5,,,43493.60000002384,,43494.60000002384,2021-10-25T16:55:16.450Z,43553.543,1635180875,full,ni_sequenzen,NI_Sequenzen,,,,,,,,,,,,,,
,Screen_3,canvas.Screen,0_0_10_2,,skipped,11,43495.299999952316,,,43493.60000002384,,43495.39999997616,2021-10-25T16:55:16.450Z,43553.543,1635180875,full,ni_sequenzen,NI_Sequenzen,,,,,,,,,,,,,,
,Screen_4,canvas.Screen,0_0_10_3,,skipped,11,43496.10000002384,,,43493.60000002384,,43496.10000002384,2021-10-25T16:55:16.451Z,43553.543,1635180875,full,ni_sequenzen,NI_Sequenzen,,,,,,,,,,,,,,
,Sequence,flow.Sequence,0_0_10,,completion,11,43492.200000047684,,,43493.60000002384,,43496.200000047684,2021-10-25T16:55:16.451Z,43553.543,1635180875,full,ni_sequenzen,NI_Sequenzen,,,,,,,,,,,,,,
,Screen_1,canvas.Screen,0_0_11_0,,skipped,12,43498.700000047684,,,43498.700000047684,,43498.799999952316,2021-10-25T16:55:16.454Z,43553.543,1635180875,full,ni_sequenzen,NI_Sequenzen,,,,,,,,,,,,,,
,Screen_2,canvas.Screen,0_0_11_1,,skipped,12,43499.799999952316,,,43498.700000047684,,43499.799999952316,2021-10-25T16:55:16.455Z,43553.543,1635180875,full,ni_sequenzen,NI_Sequenzen,,,,,,,,,,,,,,
,Screen_3,canvas.Screen,0_0_11_2,,skipped,12,43500.60000002384,,,43498.700000047684,,43500.700000047684,2021-10-25T16:55:16.456Z,43553.543,1635180875,full,ni_sequenzen,NI_Sequenzen,,,,,,,,,,,,,,
,Screen_4,canvas.Screen,0_0_11_3,,skipped,12,43501.60000002384,,,43498.700000047684,,43501.60000002384,2021-10-25T16:55:16.457Z,43553.543,1635180875,full,ni_sequenzen,NI_Sequenzen,,,,,,,,,,,,,,
,Sequence,flow.Sequence,0_0_11,,completion,12,43497.10000002384,,,43498.700000047684,,43501.700000047684,2021-10-25T16:55:16.457Z,43553.543,1635180875,full,ni_sequenzen,NI_Sequenzen,,,,,,,,,,,,,,
,Screen_1,canvas.Screen,0_0_12_0,,skipped,13,43503,,,43503,,43503,2021-10-25T16:55:16.458Z,43553.543,1635180875,full,ni_sequenzen,NI_Sequenzen,,,,,,,,,,,,,,
,Screen_2,canvas.Screen,0_0_12_1,,skipped,13,43503.89999997616,,,43503,,43503.89999997616,2021-10-25T16:55:16.459Z,43553.543,1635180875,full,ni_sequenzen,NI_Sequenzen,,,,,,,,,,,,,,
,Screen_3,canvas.Screen,0_0_12_2,,skipped,13,43505.10000002384,,,43503,,43505.200000047684,2021-10-25T16:55:16.460Z,43553.543,1635180875,full,ni_sequenzen,NI_Sequenzen,,,,,,,,,,,,,,
,Screen_4,canvas.Screen,0_0_12_3,,skipped,13,43505.89999997616,,,43503,,43505.89999997616,2021-10-25T16:55:16.461Z,43553.543,1635180875,full,ni_sequenzen,NI_Sequenzen,,,,,,,,,,,,,,
,Sequence,flow.Sequence,0_0_12,,completion,13,43502.200000047684,,,43503,,43506,2021-10-25T16:55:16.461Z,43553.543,1635180875,full,ni_sequenzen,NI_Sequenzen,,,,,,,,,,,,,,
,Screen_1,canvas.Screen,0_0_13_0,,skipped,14,43507,,,43507,,43507.10000002384,2021-10-25T16:55:16.462Z,43553.543,1635180875,full,ni_sequenzen,NI_Sequenzen,,,,,,,,,,,,,,
,Screen_2,canvas.Screen,0_0_13_1,,skipped,14,43507.700000047684,,,43507,,43507.799999952316,2021-10-25T16:55:16.463Z,43553.543,1635180875,full,ni_sequenzen,NI_Sequenzen,,,,,,,,,,,,,,
,Screen_3,canvas.Screen,0_0_13_2,,skipped,14,43509.299999952316,,,43507,,43509.299999952316,2021-10-25T16:55:16.464Z,43553.543,1635180875,full,ni_sequenzen,NI_Sequenzen,,,,,,,,,,,,,,
,Screen_4,canvas.Screen,0_0_13_3,,skipped,14,43510.10000002384,,,43507,,43510.200000047684,2021-10-25T16:55:16.465Z,43553.543,1635180875,full,ni_sequenzen,NI_Sequenzen,,,,,,,,,,,,,,
,Sequence,flow.Sequence,0_0_13,,completion,14,43506.39999997616,,,43507,,43510.299999952316,2021-10-25T16:55:16.465Z,43553.543,1635180875,full,ni_sequenzen,NI_Sequenzen,,,,,,,,,,,,,,
,Screen_1,canvas.Screen,0_0_14_0,,skipped,15,43511.200000047684,,,43511.200000047684,,43511.299999952316,2021-10-25T16:55:16.466Z,43553.543,1635180875,full,ni_sequenzen,NI_Sequenzen,,,,,,,,,,,,,,
,Screen_2,canvas.Screen,0_0_14_1,,skipped,15,43512,,,43511.200000047684,,43512.10000002384,2021-10-25T16:55:16.467Z,43553.543,1635180875,full,ni_sequenzen,NI_Sequenzen,,,,,,,,,,,,,,
,Screen_3,canvas.Screen,0_0_14_2,,skipped,15,43512.700000047684,,,43511.200000047684,,43512.799999952316,2021-10-25T16:55:16.468Z,43553.543,1635180875,full,ni_sequenzen,NI_Sequenzen,,,,,,,,,,,,,,
,Screen_4,canvas.Screen,0_0_14_3,,skipped,15,43513.700000047684,,,43511.200000047684,,43513.700000047684,2021-10-25T16:55:16.469Z,43553.543,1635180875,full,ni_sequenzen,NI_Sequenzen,,,,,,,,,,,,,,
,Sequence,flow.Sequence,0_0_14,,completion,15,43510.60000002384,,,43511.200000047684,,43513.799999952316,2021-10-25T16:55:16.469Z,43553.543,1635180875,full,ni_sequenzen,NI_Sequenzen,,,,,,,,,,,,,,
,Screen_1,canvas.Screen,0_0_15_0,,skipped,16,43514.799999952316,,,43514.799999952316,,43514.799999952316,2021-10-25T16:55:16.470Z,43553.543,1635180875,full,ni_sequenzen,NI_Sequenzen,,,,,,,,,,,,,,
,Screen_2,canvas.Screen,0_0_15_1,,skipped,16,43516,,,43514.799999952316,,43516.10000002384,2021-10-25T16:55:16.471Z,43553.543,1635180875,full,ni_sequenzen,NI_Sequenzen,,,,,,,,,,,,,,
,Screen_3,canvas.Screen,0_0_15_2,,skipped,16,43517.89999997616,,,43514.799999952316,,43517.89999997616,2021-10-25T16:55:16.473Z,43553.543,1635180875,full,ni_sequenzen,NI_Sequenzen,,,,,,,,,,,,,,
,Screen_4,canvas.Screen,0_0_15_3,,skipped,16,43518.89999997616,,,43514.799999952316,,43518.89999997616,2021-10-25T16:55:16.474Z,43553.543,1635180875,full,ni_sequenzen,NI_Sequenzen,,,,,,,,,,,,,,
,Sequence,flow.Sequence,0_0_15,,completion,16,43514.10000002384,,,43514.799999952316,,43519.10000002384,2021-10-25T16:55:16.474Z,43553.543,1635180875,full,ni_sequenzen,NI_Sequenzen,,,,,,,,,,,,,,
,Screen_1,canvas.Screen,0_0_16_0,,skipped,17,43520.10000002384,,,43520.10000002384,,43520.299999952316,2021-10-25T16:55:16.475Z,43553.543,1635180875,full,ni_sequenzen,NI_Sequenzen,,,,,,,,,,,,,,
,Screen_2,canvas.Screen,0_0_16_1,,skipped,17,43521,,,43520.10000002384,,43521.200000047684,2021-10-25T16:55:16.476Z,43553.543,1635180875,full,ni_sequenzen,NI_Sequenzen,,,,,,,,,,,,,,
,Screen_3,canvas.Screen,0_0_16_2,,skipped,17,43521.89999997616,,,43520.10000002384,,43522,2021-10-25T16:55:16.477Z,43553.543,1635180875,full,ni_sequenzen,NI_Sequenzen,,,,,,,,,,,,,,
,Screen_4,canvas.Screen,0_0_16_3,,skipped,17,43523.60000002384,,,43520.10000002384,,43523.700000047684,2021-10-25T16:55:16.479Z,43553.543,1635180875,full,ni_sequenzen,NI_Sequenzen,,,,,,,,,,,,,,
,Sequence,flow.Sequence,0_0_16,,completion,17,43519.39999997616,,,43520.10000002384,,43523.799999952316,2021-10-25T16:55:16.479Z,43553.543,1635180875,full,ni_sequenzen,NI_Sequenzen,,,,,,,,,,,,,,
,Screen_1,canvas.Screen,0_0_17_0,,skipped,18,43524.89999997616,,,43524.89999997616,,43524.89999997616,2021-10-25T16:55:16.480Z,43553.543,1635180875,full,ni_sequenzen,NI_Sequenzen,,,,,,,,,,,,,,
,Screen_2,canvas.Screen,0_0_17_1,,skipped,18,43525.89999997616,,,43524.89999997616,,43525.89999997616,2021-10-25T16:55:16.481Z,43553.543,1635180875,full,ni_sequenzen,NI_Sequenzen,,,,,,,,,,,,,,
,Screen_3,canvas.Screen,0_0_17_2,,skipped,18,43526.60000002384,,,43524.89999997616,,43526.700000047684,2021-10-25T16:55:16.482Z,43553.543,1635180875,full,ni_sequenzen,NI_Sequenzen,,,,,,,,,,,,,,
,Screen_4,canvas.Screen,0_0_17_3,,skipped,18,43527.299999952316,,,43524.89999997616,,43527.39999997616,2021-10-25T16:55:16.482Z,43553.543,1635180875,full,ni_sequenzen,NI_Sequenzen,,,,,,,,,,,,,,
,Sequence,flow.Sequence,0_0_17,,completion,18,43524.10000002384,,,43524.89999997616,,43527.39999997616,2021-10-25T16:55:16.482Z,43553.543,1635180875,full,ni_sequenzen,NI_Sequenzen,,,,,,,,,,,,,,
,Screen_1,canvas.Screen,0_0_18_0,,skipped,19,43528.39999997616,,,43528.39999997616,,43528.39999997616,2021-10-25T16:55:16.483Z,43553.543,1635180875,full,ni_sequenzen,NI_Sequenzen,,,,,,,,,,,,,,
,Screen_2,canvas.Screen,0_0_18_1,,skipped,19,43529.10000002384,,,43528.39999997616,,43529.200000047684,2021-10-25T16:55:16.484Z,43553.543,1635180875,full,ni_sequenzen,NI_Sequenzen,,,,,,,,,,,,,,
,Screen_3,canvas.Screen,0_0_18_2,,skipped,19,43529.89999997616,,,43528.39999997616,,43529.89999997616,2021-10-25T16:55:16.485Z,43553.543,1635180875,full,ni_sequenzen,NI_Sequenzen,,,,,,,,,,,,,,
,Screen_4,canvas.Screen,0_0_18_3,,skipped,19,43530.60000002384,,,43528.39999997616,,43530.60000002384,2021-10-25T16:55:16.486Z,43553.543,1635180875,full,ni_sequenzen,NI_Sequenzen,,,,,,,,,,,,,,
,Sequence,flow.Sequence,0_0_18,,completion,19,43527.799999952316,,,43528.39999997616,,43530.700000047684,2021-10-25T16:55:16.486Z,43553.543,1635180875,full,ni_sequenzen,NI_Sequenzen,,,,,,,,,,,,,,
,Screen_1,canvas.Screen,0_0_19_0,,skipped,20,43531.60000002384,,,43531.60000002384,,43531.60000002384,2021-10-25T16:55:16.487Z,43553.543,1635180875,full,ni_sequenzen,NI_Sequenzen,,,,,,,,,,,,,,
,Screen_2,canvas.Screen,0_0_19_1,,skipped,20,43532.299999952316,,,43531.60000002384,,43532.39999997616,2021-10-25T16:55:16.487Z,43553.543,1635180875,full,ni_sequenzen,NI_Sequenzen,,,,,,,,,,,,,,
,Screen_3,canvas.Screen,0_0_19_2,,skipped,20,43533,,,43531.60000002384,,43533.10000002384,2021-10-25T16:55:16.488Z,43553.543,1635180875,full,ni_sequenzen,NI_Sequenzen,,,,,,,,,,,,,,
,Screen_4,canvas.Screen,0_0_19_3,,skipped,20,43533.700000047684,,,43531.60000002384,,43533.799999952316,2021-10-25T16:55:16.489Z,43553.543,1635180875,full,ni_sequenzen,NI_Sequenzen,,,,,,,,,,,,,,
,Sequence,flow.Sequence,0_0_19,,completion,20,43531,,,43531.60000002384,,43533.89999997616,2021-10-25T16:55:16.489Z,43553.543,1635180875,full,ni_sequenzen,NI_Sequenzen,,,,,,,,,,,,,,
,Instructions_I,flow.Loop,0_0,,completion,,565.1000000238419,603.09,636.309,43531.60000002384,42895.29100002384,43534,2021-10-25T16:55:16.489Z,43553.543,1635180875,full,ni_sequenzen,NI_Sequenzen,,,,,,,,,,,,,,
,Move,canvas.Screen,0_1_0_0,right,response,,43547.5,43539.479,43553.543,45339.39999997616,1785.8569999761603,45340.39999997616,2021-10-25T16:55:18.295Z,45350.441,1635180875,full,ni_sequenzen,NI_Sequenzen,1,,,,,,,,,,,,,
,Move,canvas.Screen,0_1_0_1,right,response,,45344.5,45336.917,45350.441,45775.10000002384,424.65900002384296,45776.10000002384,2021-10-25T16:55:18.731Z,45788.725,1635180875,full,ni_sequenzen,NI_Sequenzen,2,,,,,,,,,,,,,
,Move,canvas.Screen,0_1_0_2,down,response,,45782.60000002384,45767.396,45788.725,46394,605.2750000000015,46394.89999997616,2021-10-25T16:55:19.350Z,46404.143,1635180875,full,ni_sequenzen,NI_Sequenzen,3,,,,,,,,,,,,,
,Move,canvas.Screen,0_1_0_3,down,response,,46398.10000002384,46388.967,46404.143,46718.700000047684,314.5570000476873,46719.200000047684,2021-10-25T16:55:19.674Z,46726.923,1635180875,full,ni_sequenzen,NI_Sequenzen,4,,,,,,,,,,,,,
,Move,canvas.Screen,0_1_0_4,down,response,,46721,46720.92,46726.923,47308.60000002384,581.6770000238394,47309,2021-10-25T16:55:20.264Z,47316.999,1635180875,full,ni_sequenzen,NI_Sequenzen,5,,,,,,,,,,,,,
,Move,canvas.Screen,0_1_0_5,down,response,,47310.799999952316,47310.591,47316.999,47701.200000047684,384.2010000476803,47702.10000002384,2021-10-25T16:55:20.657Z,47711.401,1635180875,full,ni_sequenzen,NI_Sequenzen,6,,,,,,,,,,,,,
,Move,canvas.Screen,0_1_0_6,left,response,,47705.39999997616,47700.37,47711.401,48058.700000047684,347.2990000476857,48059.5,2021-10-25T16:55:21.015Z,48068.699,1635180875,full,ni_sequenzen,NI_Sequenzen,7,,,,,,,,,,,,,
,Move,canvas.Screen,0_1_0_7,left,response,,48062.700000047684,48061.586,48068.699,48345,276.3009999999995,48345.799999952316,2021-10-25T16:55:21.301Z,48355.571,1635180875,full,ni_sequenzen,NI_Sequenzen,8,,,,,,,,,,,,,
,Move,canvas.Screen,0_1_0_8,left,response,,48349.39999997616,48335.665,48355.571,48562.5,206.92899999999645,48563.5,2021-10-25T16:55:21.519Z,48573.036,1635180875,full,ni_sequenzen,NI_Sequenzen,9,,,,,,,,,,,,,
,Move,canvas.Screen,0_1_0_9,left,response,,48566.89999997616,48555.668,48573.036,48895.10000002384,322.0640000238418,48895.700000047684,2021-10-25T16:55:21.851Z,48905.027,1635180875,full,ni_sequenzen,NI_Sequenzen,10,,,,,,,,,,,,,
,Move,canvas.Screen,0_1_0_10,down,response,,48899.200000047684,48890.026,48905.027,49414.89999997616,509.8729999761563,49415.700000047684,2021-10-25T16:55:22.371Z,49425.23,1635180875,full,ni_sequenzen,NI_Sequenzen,11,,,,,,,,,,,,,
,Move,canvas.Screen,0_1_0_11,down,response,,49419.10000002384,49405.421,49425.23,49616.89999997616,191.66999997615494,49617.700000047684,2021-10-25T16:55:22.573Z,49644.109,1635180875,full,ni_sequenzen,NI_Sequenzen,12,,,,,,,,,,,,,
,Move,canvas.Screen,0_1_0_12,down,response,,49621.200000047684,49608.664,49644.109,49786.700000047684,142.59100004768698,49787.5,2021-10-25T16:55:22.743Z,49794.108,1635180875,full,ni_sequenzen,NI_Sequenzen,13,,,,,,,,,,,,,
,Move,canvas.Screen,0_1_0_13,down,response,,49791.10000002384,49777.831,49794.108,49959.89999997616,165.79199997615797,49960.799999952316,2021-10-25T16:55:22.916Z,49971.212,1635180875,full,ni_sequenzen,NI_Sequenzen,14,,,,,,,,,,,,,
,Move,canvas.Screen,0_1_0_14,right,response,,49965,49961.105,49971.212,50642.39999997616,671.1879999761586,50643.299999952316,2021-10-25T16:55:23.598Z,50652.496,1635180875,full,ni_sequenzen,NI_Sequenzen,15,,,,,,,,,,,,,
,Move,canvas.Screen,0_1_0_15,right,response,,50646.60000002384,50638.091,50652.496,50881.39999997616,228.90399997615896,50882.200000047684,2021-10-25T16:55:23.837Z,50893.356,1635180875,full,ni_sequenzen,NI_Sequenzen,16,,,,,,,,,,,,,
,Move,canvas.Screen,0_1_0_16,left,response,,50887.10000002384,50886.18,50893.356,51587.5,694.1440000000002,51588.299999952316,2021-10-25T16:55:24.543Z,51597.784,1635180875,full,ni_sequenzen,NI_Sequenzen,17,,,,,,,,,,,,,
,Move,canvas.Screen,0_1_0_17,right,response,,51591.700000047684,51576.86,51597.784,52138.60000002384,540.8160000238422,52139.299999952316,2021-10-25T16:55:25.094Z,52148.21,1635180875,full,ni_sequenzen,NI_Sequenzen,18,,,,,,,,,,,,,
,Move,canvas.Screen,0_1_0_18,down,response,,52142.200000047684,52131.064,52148.21,52830.200000047684,681.9900000476846,52831.200000047684,2021-10-25T16:55:25.786Z,52840.726,1635180875,full,ni_sequenzen,NI_Sequenzen,19,,,,,,,,,,,,,
,Move,canvas.Screen,0_1_0_19,down,response,,52834.799999952316,52831.897,52840.726,53205.799999952316,365.0739999523139,53206.60000002384,2021-10-25T16:55:26.162Z,53216.065,1635180875,full,ni_sequenzen,NI_Sequenzen,20,,,,,,,,,,,,,
,Move,canvas.Screen,0_1_0_20,right,response,,53210.10000002384,53207.741,53216.065,53710.299999952316,494.23499995231396,53711.299999952316,2021-10-25T16:55:26.666Z,53721.487,1635180875,full,ni_sequenzen,NI_Sequenzen,21,,,,,,,,,,,,,
,Move,canvas.Screen,0_1_0_21,down,response,,53715.200000047684,53699.778,53721.487,54517.89999997616,796.4129999761572,54518.700000047684,2021-10-25T16:55:27.474Z,54527.819,1635180875,full,ni_sequenzen,NI_Sequenzen,22,,,,,,,,,,,,,
,Move,canvas.Screen,0_1_0_22,left,response,,54521.89999997616,54521.414,54527.819,55136,608.1809999999969,55136.799999952316,2021-10-25T16:55:28.092Z,55146.504,1635180875,full,ni_sequenzen,NI_Sequenzen,23,,,,,,,,,,,,,
,Move,canvas.Screen,0_1_0_23,left,response,,55140.39999997616,55128.163,55146.504,56533,1386.4959999999992,56533.799999952316,2021-10-25T16:55:29.489Z,56543.309,1635180875,full,ni_sequenzen,NI_Sequenzen,24,,,,,,,,,,,,,
,Move,canvas.Screen,0_1_0_24,right,response,,56537.200000047684,56529.897,56543.309,57565.89999997616,1022.590999976157,57566.799999952316,2021-10-25T16:55:30.522Z,57593.804,1635180875,full,ni_sequenzen,NI_Sequenzen,25,,,,,,,,,,,,,
,Move,canvas.Screen,0_1_0_25,right,response,,57571,57560.019,57593.804,57847.10000002384,253.2960000238454,57847.89999997616,2021-10-25T16:55:30.803Z,57857.753,1635180875,full,ni_sequenzen,NI_Sequenzen,26,,,,,,,,,,,,,
,Move,canvas.Screen,0_1_0_26,down,response,,57851.60000002384,57844.147,57857.753,58334.799999952316,477.0469999523193,58335.60000002384,2021-10-25T16:55:31.291Z,58344.951,1635180875,full,ni_sequenzen,NI_Sequenzen,27,,,,,,,,,,,,,
,Move,canvas.Screen,0_1_0_27,down,response,,58338.799999952316,58324.401,58344.951,58785.299999952316,440.34899995231535,58786.10000002384,2021-10-25T16:55:31.741Z,58795.383,1635180875,full,ni_sequenzen,NI_Sequenzen,28,,,,,,,,,,,,,
,Move,canvas.Screen,0_1_0_28,right,response,,58789.5,58778.236,58795.383,59680.39999997616,885.0169999761565,59681.39999997616,2021-10-25T16:55:32.636Z,59691.11,1635180875,full,ni_sequenzen,NI_Sequenzen,29,,,,,,,,,,,,,
,Move,canvas.Screen,0_1_0_29,down,response,,59685.200000047684,59679.089,59691.11,60504.89999997616,813.7899999761576,60505.799999952316,2021-10-25T16:55:33.461Z,60555.453,1635180875,full,ni_sequenzen,NI_Sequenzen,30,,,,,,,,,,,,,
,Loop,flow.Loop,0_1_0,-999,completion,,43544.5,43539.479,43553.543,60504.89999997616,16951.35699997616,60506.10000002384,2021-10-25T16:55:33.461Z,60555.453,1635180875,full,ni_sequenzen,NI_Sequenzen,,,,,,,,,,,,,,
,Training_I,flow.Sequence,0_1,,completion,,43534.299999952316,43539.479,43553.543,60504.89999997616,16951.35699997616,60506.299999952316,2021-10-25T16:55:33.461Z,60555.453,1635180875,full,ni_sequenzen,NI_Sequenzen,,,,,,,,,,,,,,
,Screen_1,canvas.Screen,0_2_0_0,cont,response,1,60549.5,60541.482,60555.453,76631.79999995232,16076.346999952315,76632.79999995232,2021-10-25T16:55:49.588Z,76765.874,1635180875,full,ni_sequenzen,NI_Sequenzen,,,,,,,,,,,,,,
,Screen_2,canvas.Screen,0_2_0_1,cont,response,1,76759.60000002384,76755.049,76765.874,85201.89999997616,8436.025999976162,85202.5,2021-10-25T16:55:58.158Z,85212.312,1635180875,full,ni_sequenzen,NI_Sequenzen,,,,,,,,,,,,,,
,Screen_3,canvas.Screen,0_2_0_2,cont,response,1,85206.39999997616,85199.221,85212.312,92007.70000004768,6795.388000047678,92008.10000002384,2021-10-25T16:56:04.963Z,92119.031,1635180875,full,ni_sequenzen,NI_Sequenzen,,,,,,,,,,,,,,
,Screen_4,canvas.Screen,0_2_0_3,cont,response,1,92096.20000004768,92095.709,92119.031,96253.5,4134.468999999997,96254.39999997616,2021-10-25T16:56:09.209Z,96264.46,1635180875,full,ni_sequenzen,NI_Sequenzen,,,,,,,,,,,,,,
,Screen_5,canvas.Screen,0_2_0_4,cont,response,1,96258.39999997616,96252.197,96264.46,103676.70000004768,7412.240000047677,103677.20000004768,2021-10-25T16:56:16.643Z,103763.857,1635180875,full,ni_sequenzen,NI_Sequenzen,,,,,,,,,,,,,,
,Screen_6,canvas.Screen,0_2_0_5,cont,response,1,103757.70000004768,103747.63,103763.857,112055.60000002384,8291.743000023838,112056.5,2021-10-25T16:56:25.022Z,112253.432,1635180875,full,ni_sequenzen,NI_Sequenzen,,,,,,,,,,,,,,
,Sequence,flow.Sequence,0_2_0,,completion,1,60548.39999997616,60541.482,60555.453,112055.60000002384,51500.14700002384,112059.29999995232,2021-10-25T16:56:25.025Z,112253.432,1635180875,full,ni_sequenzen,NI_Sequenzen,,,,,,,,,,,,,,
,Screen_1,canvas.Screen,0_2_1_0,,skipped,2,112061.70000004768,,,112061.70000004768,,112061.79999995232,2021-10-25T16:56:25.028Z,112253.432,1635180875,full,ni_sequenzen,NI_Sequenzen,,,,,,,,,,,,,,
,Screen_2,canvas.Screen,0_2_1_1,,skipped,2,112062.70000004768,,,112061.70000004768,,112062.70000004768,2021-10-25T16:56:25.029Z,112253.432,1635180875,full,ni_sequenzen,NI_Sequenzen,,,,,,,,,,,,,,
,Screen_3,canvas.Screen,0_2_1_2,,skipped,2,112064.60000002384,,,112061.70000004768,,112064.79999995232,2021-10-25T16:56:25.031Z,112253.432,1635180875,full,ni_sequenzen,NI_Sequenzen,,,,,,,,,,,,,,
,Screen_4,canvas.Screen,0_2_1_3,,skipped,2,112066.89999997616,,,112061.70000004768,,112067,2021-10-25T16:56:25.033Z,112253.432,1635180875,full,ni_sequenzen,NI_Sequenzen,,,,,,,,,,,,,,
,Screen_5,canvas.Screen,0_2_1_4,,skipped,2,112069.20000004768,,,112061.70000004768,,112069.29999995232,2021-10-25T16:56:25.035Z,112253.432,1635180875,full,ni_sequenzen,NI_Sequenzen,,,,,,,,,,,,,,
,Screen_6,canvas.Screen,0_2_1_5,,skipped,2,112071,,,112061.70000004768,,112071.10000002384,2021-10-25T16:56:25.037Z,112253.432,1635180875,full,ni_sequenzen,NI_Sequenzen,,,,,,,,,,,,,,
,Sequence,flow.Sequence,0_2_1,,completion,2,112060.70000004768,,,112061.70000004768,,112071.29999995232,2021-10-25T16:56:25.037Z,112253.432,1635180875,full,ni_sequenzen,NI_Sequenzen,,,,,,,,,,,,,,
,Screen_1,canvas.Screen,0_2_2_0,,skipped,3,112073.5,,,112073.5,,112073.60000002384,2021-10-25T16:56:25.040Z,112253.432,1635180875,full,ni_sequenzen,NI_Sequenzen,,,,,,,,,,,,,,
,Screen_2,canvas.Screen,0_2_2_1,,skipped,3,112075,,,112073.5,,112075.20000004768,2021-10-25T16:56:25.041Z,112253.432,1635180875,full,ni_sequenzen,NI_Sequenzen,,,,,,,,,,,,,,
,Screen_3,canvas.Screen,0_2_2_2,,skipped,3,112077,,,112073.5,,112077.10000002384,2021-10-25T16:56:25.043Z,112253.432,1635180875,full,ni_sequenzen,NI_Sequenzen,,,,,,,,,,,,,,
,Screen_4,canvas.Screen,0_2_2_3,,skipped,3,112078.29999995232,,,112073.5,,112078.39999997616,2021-10-25T16:56:25.044Z,112253.432,1635180875,full,ni_sequenzen,NI_Sequenzen,,,,,,,,,,,,,,
,Screen_5,canvas.Screen,0_2_2_4,,skipped,3,112081.79999995232,,,112073.5,,112081.89999997616,2021-10-25T16:56:25.048Z,112253.432,1635180875,full,ni_sequenzen,NI_Sequenzen,,,,,,,,,,,,,,
,Screen_6,canvas.Screen,0_2_2_5,,skipped,3,112083.20000004768,,,112073.5,,112083.39999997616,2021-10-25T16:56:25.049Z,112253.432,1635180875,full,ni_sequenzen,NI_Sequenzen,,,,,,,,,,,,,,
,Sequence,flow.Sequence,0_2_2,,completion,3,112072.20000004768,,,112073.5,,112083.5,2021-10-25T16:56:25.049Z,112253.432,1635180875,full,ni_sequenzen,NI_Sequenzen,,,,,,,,,,,,,,
,Screen_1,canvas.Screen,0_2_3_0,,skipped,4,112084.89999997616,,,112084.89999997616,,112085,2021-10-25T16:56:25.051Z,112253.432,1635180875,full,ni_sequenzen,NI_Sequenzen,,,,,,,,,,,,,,
,Screen_2,canvas.Screen,0_2_3_1,,skipped,4,112085.79999995232,,,112084.89999997616,,112085.89999997616,2021-10-25T16:56:25.052Z,112253.432,1635180875,full,ni_sequenzen,NI_Sequenzen,,,,,,,,,,,,,,
,Screen_3,canvas.Screen,0_2_3_2,,skipped,4,112086.70000004768,,,112084.89999997616,,112086.79999995232,2021-10-25T16:56:25.053Z,112253.432,1635180875,full,ni_sequenzen,NI_Sequenzen,,,,,,,,,,,,,,
,Screen_4,canvas.Screen,0_2_3_3,,skipped,4,112087.5,,,112084.89999997616,,112087.60000002384,2021-10-25T16:56:25.053Z,112253.432,1635180875,full,ni_sequenzen,NI_Sequenzen,,,,,,,,,,,,,,
,Screen_5,canvas.Screen,0_2_3_4,,skipped,4,112088.20000004768,,,112084.89999997616,,112088.29999995232,2021-10-25T16:56:25.054Z,112253.432,1635180875,full,ni_sequenzen,NI_Sequenzen,,,,,,,,,,,,,,
,Screen_6,canvas.Screen,0_2_3_5,,skipped,4,112089,,,112084.89999997616,,112089,2021-10-25T16:56:25.055Z,112253.432,1635180875,full,ni_sequenzen,NI_Sequenzen,,,,,,,,,,,,,,
,Sequence,flow.Sequence,0_2_3,,completion,4,112083.89999997616,,,112084.89999997616,,112089.10000002384,2021-10-25T16:56:25.055Z,112253.432,1635180875,full,ni_sequenzen,NI_Sequenzen,,,,,,,,,,,,,,
,Screen_1,canvas.Screen,0_2_4_0,,skipped,5,112090,,,112090,,112090.10000002384,2021-10-25T16:56:25.056Z,112253.432,1635180875,full,ni_sequenzen,NI_Sequenzen,,,,,,,,,,,,,,
,Screen_2,canvas.Screen,0_2_4_1,,skipped,5,112091.10000002384,,,112090,,112091.20000004768,2021-10-25T16:56:25.057Z,112253.432,1635180875,full,ni_sequenzen,NI_Sequenzen,,,,,,,,,,,,,,
,Screen_3,canvas.Screen,0_2_4_2,,skipped,5,112091.89999997616,,,112090,,112092,2021-10-25T16:56:25.058Z,112253.432,1635180875,full,ni_sequenzen,NI_Sequenzen,,,,,,,,,,,,,,
,Screen_4,canvas.Screen,0_2_4_3,,skipped,5,112092.60000002384,,,112090,,112092.70000004768,2021-10-25T16:56:25.059Z,112253.432,1635180875,full,ni_sequenzen,NI_Sequenzen,,,,,,,,,,,,,,
,Screen_5,canvas.Screen,0_2_4_4,,skipped,5,112093.39999997616,,,112090,,112093.39999997616,2021-10-25T16:56:25.059Z,112253.432,1635180875,full,ni_sequenzen,NI_Sequenzen,,,,,,,,,,,,,,
,Screen_6,canvas.Screen,0_2_4_5,,skipped,5,112094.60000002384,,,112090,,112094.70000004768,2021-10-25T16:56:25.061Z,112253.432,1635180875,full,ni_sequenzen,NI_Sequenzen,,,,,,,,,,,,,,
,Sequence,flow.Sequence,0_2_4,,completion,5,112089.39999997616,,,112090,,112094.89999997616,2021-10-25T16:56:25.061Z,112253.432,1635180875,full,ni_sequenzen,NI_Sequenzen,,,,,,,,,,,,,,
,Screen_1,canvas.Screen,0_2_5_0,,skipped,6,112095.89999997616,,,112095.89999997616,,112095.89999997616,2021-10-25T16:56:25.062Z,112253.432,1635180875,full,ni_sequenzen,NI_Sequenzen,,,,,,,,,,,,,,
,Screen_2,canvas.Screen,0_2_5_1,,skipped,6,112096.60000002384,,,112095.89999997616,,112096.60000002384,2021-10-25T16:56:25.062Z,112253.432,1635180875,full,ni_sequenzen,NI_Sequenzen,,,,,,,,,,,,,,
,Screen_3,canvas.Screen,0_2_5_2,,skipped,6,112097.20000004768,,,112095.89999997616,,112097.29999995232,2021-10-25T16:56:25.063Z,112253.432,1635180875,full,ni_sequenzen,NI_Sequenzen,,,,,,,,,,,,,,
,Screen_4,canvas.Screen,0_2_5_3,,skipped,6,112098,,,112095.89999997616,,112098,2021-10-25T16:56:25.064Z,112253.432,1635180875,full,ni_sequenzen,NI_Sequenzen,,,,,,,,,,,,,,
,Screen_5,canvas.Screen,0_2_5_4,,skipped,6,112098.60000002384,,,112095.89999997616,,112098.70000004768,2021-10-25T16:56:25.065Z,112253.432,1635180875,full,ni_sequenzen,NI_Sequenzen,,,,,,,,,,,,,,
,Screen_6,canvas.Screen,0_2_5_5,,skipped,6,112099.29999995232,,,112095.89999997616,,112099.5,2021-10-25T16:56:25.065Z,112253.432,1635180875,full,ni_sequenzen,NI_Sequenzen,,,,,,,,,,,,,,
,Sequence,flow.Sequence,0_2_5,,completion,6,112095.10000002384,,,112095.89999997616,,112099.5,2021-10-25T16:56:25.065Z,112253.432,1635180875,full,ni_sequenzen,NI_Sequenzen,,,,,,,,,,,,,,
,Screen_1,canvas.Screen,0_2_6_0,,skipped,7,112100.5,,,112100.5,,112100.5,2021-10-25T16:56:25.066Z,112253.432,1635180875,full,ni_sequenzen,NI_Sequenzen,,,,,,,,,,,,,,
,Screen_2,canvas.Screen,0_2_6_1,,skipped,7,112101.10000002384,,,112100.5,,112101.20000004768,2021-10-25T16:56:25.067Z,112253.432,1635180875,full,ni_sequenzen,NI_Sequenzen,,,,,,,,,,,,,,
,Screen_3,canvas.Screen,0_2_6_2,,skipped,7,112101.79999995232,,,112100.5,,112101.89999997616,2021-10-25T16:56:25.068Z,112253.432,1635180875,full,ni_sequenzen,NI_Sequenzen,,,,,,,,,,,,,,
,Screen_4,canvas.Screen,0_2_6_3,,skipped,7,112102.5,,,112100.5,,112102.5,2021-10-25T16:56:25.068Z,112253.432,1635180875,full,ni_sequenzen,NI_Sequenzen,,,,,,,,,,,,,,
,Screen_5,canvas.Screen,0_2_6_4,,skipped,7,112103.20000004768,,,112100.5,,112103.20000004768,2021-10-25T16:56:25.069Z,112253.432,1635180875,full,ni_sequenzen,NI_Sequenzen,,,,,,,,,,,,,,
,Screen_6,canvas.Screen,0_2_6_5,,skipped,7,112103.89999997616,,,112100.5,,112103.89999997616,2021-10-25T16:56:25.070Z,112253.432,1635180875,full,ni_sequenzen,NI_Sequenzen,,,,,,,,,,,,,,
,Sequence,flow.Sequence,0_2_6,,completion,7,112099.79999995232,,,112100.5,,112104,2021-10-25T16:56:25.070Z,112253.432,1635180875,full,ni_sequenzen,NI_Sequenzen,,,,,,,,,,,,,,
,Screen_1,canvas.Screen,0_2_7_0,,skipped,8,112105.70000004768,,,112105.70000004768,,112105.79999995232,2021-10-25T16:56:25.072Z,112253.432,1635180875,full,ni_sequenzen,NI_Sequenzen,,,,,,,,,,,,,,
,Screen_2,canvas.Screen,0_2_7_1,,skipped,8,112106.70000004768,,,112105.70000004768,,112106.79999995232,2021-10-25T16:56:25.073Z,112253.432,1635180875,full,ni_sequenzen,NI_Sequenzen,,,,,,,,,,,,,,
,Screen_3,canvas.Screen,0_2_7_2,,skipped,8,112107.39999997616,,,112105.70000004768,,112107.5,2021-10-25T16:56:25.073Z,112253.432,1635180875,full,ni_sequenzen,NI_Sequenzen,,,,,,,,,,,,,,
,Screen_4,canvas.Screen,0_2_7_3,,skipped,8,112108.10000002384,,,112105.70000004768,,112108.20000004768,2021-10-25T16:56:25.074Z,112253.432,1635180875,full,ni_sequenzen,NI_Sequenzen,,,,,,,,,,,,,,
,Screen_5,canvas.Screen,0_2_7_4,,skipped,8,112108.79999995232,,,112105.70000004768,,112108.89999997616,2021-10-25T16:56:25.075Z,112253.432,1635180875,full,ni_sequenzen,NI_Sequenzen,,,,,,,,,,,,,,
,Screen_6,canvas.Screen,0_2_7_5,,skipped,8,112109.5,,,112105.70000004768,,112109.60000002384,2021-10-25T16:56:25.075Z,112253.432,1635180875,full,ni_sequenzen,NI_Sequenzen,,,,,,,,,,,,,,
,Sequence,flow.Sequence,0_2_7,,completion,8,112104.29999995232,,,112105.70000004768,,112109.70000004768,2021-10-25T16:56:25.076Z,112253.432,1635180875,full,ni_sequenzen,NI_Sequenzen,,,,,,,,,,,,,,
,Screen_1,canvas.Screen,0_2_8_0,,skipped,9,112110.70000004768,,,112110.70000004768,,112110.70000004768,2021-10-25T16:56:25.077Z,112253.432,1635180875,full,ni_sequenzen,NI_Sequenzen,,,,,,,,,,,,,,
,Screen_2,canvas.Screen,0_2_8_1,,skipped,9,112111.39999997616,,,112110.70000004768,,112111.39999997616,2021-10-25T16:56:25.077Z,112253.432,1635180875,full,ni_sequenzen,NI_Sequenzen,,,,,,,,,,,,,,
,Screen_3,canvas.Screen,0_2_8_2,,skipped,9,112112,,,112110.70000004768,,112112.10000002384,2021-10-25T16:56:25.078Z,112253.432,1635180875,full,ni_sequenzen,NI_Sequenzen,,,,,,,,,,,,,,
,Screen_4,canvas.Screen,0_2_8_3,,skipped,9,112112.70000004768,,,112110.70000004768,,112112.70000004768,2021-10-25T16:56:25.079Z,112253.432,1635180875,full,ni_sequenzen,NI_Sequenzen,,,,,,,,,,,,,,
,Screen_5,canvas.Screen,0_2_8_4,,skipped,9,112113.39999997616,,,112110.70000004768,,112113.39999997616,2021-10-25T16:56:25.079Z,112253.432,1635180875,full,ni_sequenzen,NI_Sequenzen,,,,,,,,,,,,,,
,Screen_6,canvas.Screen,0_2_8_5,,skipped,9,112114.10000002384,,,112110.70000004768,,112114.10000002384,2021-10-25T16:56:25.080Z,112253.432,1635180875,full,ni_sequenzen,NI_Sequenzen,,,,,,,,,,,,,,
,Sequence,flow.Sequence,0_2_8,,completion,9,112110,,,112110.70000004768,,112114.20000004768,2021-10-25T16:56:25.080Z,112253.432,1635180875,full,ni_sequenzen,NI_Sequenzen,,,,,,,,,,,,,,
,Screen_1,canvas.Screen,0_2_9_0,,skipped,10,112115.70000004768,,,112115.70000004768,,112115.79999995232,2021-10-25T16:56:25.082Z,112253.432,1635180875,full,ni_sequenzen,NI_Sequenzen,,,,,,,,,,,,,,
,Screen_2,canvas.Screen,0_2_9_1,,skipped,10,112116.60000002384,,,112115.70000004768,,112116.60000002384,2021-10-25T16:56:25.083Z,112253.432,1635180875,full,ni_sequenzen,NI_Sequenzen,,,,,,,,,,,,,,
,Screen_3,canvas.Screen,0_2_9_2,,skipped,10,112117.20000004768,,,112115.70000004768,,112117.39999997616,2021-10-25T16:56:25.083Z,112253.432,1635180875,full,ni_sequenzen,NI_Sequenzen,,,,,,,,,,,,,,
,Screen_4,canvas.Screen,0_2_9_3,,skipped,10,112118.10000002384,,,112115.70000004768,,112118.10000002384,2021-10-25T16:56:25.084Z,112253.432,1635180875,full,ni_sequenzen,NI_Sequenzen,,,,,,,,,,,,,,
,Screen_5,canvas.Screen,0_2_9_4,,skipped,10,112119,,,112115.70000004768,,112119.10000002384,2021-10-25T16:56:25.085Z,112253.432,1635180875,full,ni_sequenzen,NI_Sequenzen,,,,,,,,,,,,,,
,Screen_6,canvas.Screen,0_2_9_5,,skipped,10,112120.10000002384,,,112115.70000004768,,112120.10000002384,2021-10-25T16:56:25.086Z,112253.432,1635180875,full,ni_sequenzen,NI_Sequenzen,,,,,,,,,,,,,,
,Sequence,flow.Sequence,0_2_9,,completion,10,112114.5,,,112115.70000004768,,112120.29999995232,2021-10-25T16:56:25.086Z,112253.432,1635180875,full,ni_sequenzen,NI_Sequenzen,,,,,,,,,,,,,,
,Screen_1,canvas.Screen,0_2_10_0,,skipped,11,112121.20000004768,,,112121.20000004768,,112121.29999995232,2021-10-25T16:56:25.087Z,112253.432,1635180875,full,ni_sequenzen,NI_Sequenzen,,,,,,,,,,,,,,
,Screen_2,canvas.Screen,0_2_10_1,,skipped,11,112122,,,112121.20000004768,,112122.10000002384,2021-10-25T16:56:25.088Z,112253.432,1635180875,full,ni_sequenzen,NI_Sequenzen,,,,,,,,,,,,,,
,Screen_3,canvas.Screen,0_2_10_2,,skipped,11,112122.79999995232,,,112121.20000004768,,112122.79999995232,2021-10-25T16:56:25.089Z,112253.432,1635180875,full,ni_sequenzen,NI_Sequenzen,,,,,,,,,,,,,,
,Screen_4,canvas.Screen,0_2_10_3,,skipped,11,112123.39999997616,,,112121.20000004768,,112123.5,2021-10-25T16:56:25.089Z,112253.432,1635180875,full,ni_sequenzen,NI_Sequenzen,,,,,,,,,,,,,,
,Screen_5,canvas.Screen,0_2_10_4,,skipped,11,112124.10000002384,,,112121.20000004768,,112124.20000004768,2021-10-25T16:56:25.090Z,112253.432,1635180875,full,ni_sequenzen,NI_Sequenzen,,,,,,,,,,,,,,
,Screen_6,canvas.Screen,0_2_10_5,,skipped,11,112124.79999995232,,,112121.20000004768,,112124.89999997616,2021-10-25T16:56:25.091Z,112253.432,1635180875,full,ni_sequenzen,NI_Sequenzen,,,,,,,,,,,,,,
,Sequence,flow.Sequence,0_2_10,,completion,11,112120.5,,,112121.20000004768,,112124.89999997616,2021-10-25T16:56:25.091Z,112253.432,1635180875,full,ni_sequenzen,NI_Sequenzen,,,,,,,,,,,,,,
,Screen_1,canvas.Screen,0_2_11_0,,skipped,12,112126.10000002384,,,112126.10000002384,,112126.10000002384,2021-10-25T16:56:25.092Z,112253.432,1635180875,full,ni_sequenzen,NI_Sequenzen,,,,,,,,,,,,,,
,Screen_2,canvas.Screen,0_2_11_1,,skipped,12,112126.79999995232,,,112126.10000002384,,112126.89999997616,2021-10-25T16:56:25.093Z,112253.432,1635180875,full,ni_sequenzen,NI_Sequenzen,,,,,,,,,,,,,,
,Screen_3,canvas.Screen,0_2_11_2,,skipped,12,112128.29999995232,,,112126.10000002384,,112128.39999997616,2021-10-25T16:56:25.094Z,112253.432,1635180875,full,ni_sequenzen,NI_Sequenzen,,,,,,,,,,,,,,
,Screen_4,canvas.Screen,0_2_11_3,,skipped,12,112129.10000002384,,,112126.10000002384,,112129.10000002384,2021-10-25T16:56:25.095Z,112253.432,1635180875,full,ni_sequenzen,NI_Sequenzen,,,,,,,,,,,,,,
,Screen_5,canvas.Screen,0_2_11_4,,skipped,12,112129.79999995232,,,112126.10000002384,,112129.89999997616,2021-10-25T16:56:25.096Z,112253.432,1635180875,full,ni_sequenzen,NI_Sequenzen,,,,,,,,,,,,,,
,Screen_6,canvas.Screen,0_2_11_5,,skipped,12,112130.39999997616,,,112126.10000002384,,112130.5,2021-10-25T16:56:25.096Z,112253.432,1635180875,full,ni_sequenzen,NI_Sequenzen,,,,,,,,,,,,,,
,Sequence,flow.Sequence,0_2_11,,completion,12,112125.29999995232,,,112126.10000002384,,112130.60000002384,2021-10-25T16:56:25.096Z,112253.432,1635180875,full,ni_sequenzen,NI_Sequenzen,,,,,,,,,,,,,,
,Screen_1,canvas.Screen,0_2_12_0,,skipped,13,112131.5,,,112131.5,,112131.5,2021-10-25T16:56:25.097Z,112253.432,1635180875,full,ni_sequenzen,NI_Sequenzen,,,,,,,,,,,,,,
,Screen_2,canvas.Screen,0_2_12_1,,skipped,13,112132.20000004768,,,112131.5,,112132.20000004768,2021-10-25T16:56:25.098Z,112253.432,1635180875,full,ni_sequenzen,NI_Sequenzen,,,,,,,,,,,,,,
,Screen_3,canvas.Screen,0_2_12_2,,skipped,13,112132.79999995232,,,112131.5,,112132.89999997616,2021-10-25T16:56:25.099Z,112253.432,1635180875,full,ni_sequenzen,NI_Sequenzen,,,,,,,,,,,,,,
,Screen_4,canvas.Screen,0_2_12_3,,skipped,13,112133.5,,,112131.5,,112133.60000002384,2021-10-25T16:56:25.099Z,112253.432,1635180875,full,ni_sequenzen,NI_Sequenzen,,,,,,,,,,,,,,
,Screen_5,canvas.Screen,0_2_12_4,,skipped,13,112134.20000004768,,,112131.5,,112134.29999995232,2021-10-25T16:56:25.100Z,112253.432,1635180875,full,ni_sequenzen,NI_Sequenzen,,,,,,,,,,,,,,
,Screen_6,canvas.Screen,0_2_12_5,,skipped,13,112134.79999995232,,,112131.5,,112134.79999995232,2021-10-25T16:56:25.101Z,112253.432,1635180875,full,ni_sequenzen,NI_Sequenzen,,,,,,,,,,,,,,
,Sequence,flow.Sequence,0_2_12,,completion,13,112130.89999997616,,,112131.5,,112135,2021-10-25T16:56:25.101Z,112253.432,1635180875,full,ni_sequenzen,NI_Sequenzen,,,,,,,,,,,,,,
,Screen_1,canvas.Screen,0_2_13_0,,skipped,14,112135.79999995232,,,112135.79999995232,,112135.89999997616,2021-10-25T16:56:25.102Z,112253.432,1635180875,full,ni_sequenzen,NI_Sequenzen,,,,,,,,,,,,,,
,Screen_2,canvas.Screen,0_2_13_1,,skipped,14,112136.5,,,112135.79999995232,,112136.70000004768,2021-10-25T16:56:25.103Z,112253.432,1635180875,full,ni_sequenzen,NI_Sequenzen,,,,,,,,,,,,,,
,Screen_3,canvas.Screen,0_2_13_2,,skipped,14,112137.39999997616,,,112135.79999995232,,112137.60000002384,2021-10-25T16:56:25.103Z,112253.432,1635180875,full,ni_sequenzen,NI_Sequenzen,,,,,,,,,,,,,,
,Screen_4,canvas.Screen,0_2_13_3,,skipped,14,112139,,,112135.79999995232,,112139.10000002384,2021-10-25T16:56:25.105Z,112253.432,1635180875,full,ni_sequenzen,NI_Sequenzen,,,,,,,,,,,,,,
,Screen_5,canvas.Screen,0_2_13_4,,skipped,14,112139.70000004768,,,112135.79999995232,,112139.89999997616,2021-10-25T16:56:25.106Z,112253.432,1635180875,full,ni_sequenzen,NI_Sequenzen,,,,,,,,,,,,,,
,Screen_6,canvas.Screen,0_2_13_5,,skipped,14,112140.5,,,112135.79999995232,,112140.60000002384,2021-10-25T16:56:25.106Z,112253.432,1635180875,full,ni_sequenzen,NI_Sequenzen,,,,,,,,,,,,,,
,Sequence,flow.Sequence,0_2_13,,completion,14,112135.20000004768,,,112135.79999995232,,112140.60000002384,2021-10-25T16:56:25.107Z,112253.432,1635180875,full,ni_sequenzen,NI_Sequenzen,,,,,,,,,,,,,,
,Screen_1,canvas.Screen,0_2_14_0,,skipped,15,112141.60000002384,,,112141.60000002384,,112141.60000002384,2021-10-25T16:56:25.108Z,112253.432,1635180875,full,ni_sequenzen,NI_Sequenzen,,,,,,,,,,,,,,
,Screen_2,canvas.Screen,0_2_14_1,,skipped,15,112142.29999995232,,,112141.60000002384,,112142.39999997616,2021-10-25T16:56:25.108Z,112253.432,1635180875,full,ni_sequenzen,NI_Sequenzen,,,,,,,,,,,,,,
,Screen_3,canvas.Screen,0_2_14_2,,skipped,15,112143.10000002384,,,112141.60000002384,,112143.10000002384,2021-10-25T16:56:25.109Z,112253.432,1635180875,full,ni_sequenzen,NI_Sequenzen,,,,,,,,,,,,,,
,Screen_4,canvas.Screen,0_2_14_3,,skipped,15,112143.79999995232,,,112141.60000002384,,112143.79999995232,2021-10-25T16:56:25.110Z,112253.432,1635180875,full,ni_sequenzen,NI_Sequenzen,,,,,,,,,,,,,,
,Screen_5,canvas.Screen,0_2_14_4,,skipped,15,112144.39999997616,,,112141.60000002384,,112144.39999997616,2021-10-25T16:56:25.110Z,112253.432,1635180875,full,ni_sequenzen,NI_Sequenzen,,,,,,,,,,,,,,
,Screen_6,canvas.Screen,0_2_14_5,,skipped,15,112145,,,112141.60000002384,,112145.20000004768,2021-10-25T16:56:25.111Z,112253.432,1635180875,full,ni_sequenzen,NI_Sequenzen,,,,,,,,,,,,,,
,Sequence,flow.Sequence,0_2_14,,completion,15,112140.89999997616,,,112141.60000002384,,112145.29999995232,2021-10-25T16:56:25.111Z,112253.432,1635180875,full,ni_sequenzen,NI_Sequenzen,,,,,,,,,,,,,,
,Screen_1,canvas.Screen,0_2_15_0,,skipped,16,112146.20000004768,,,112146.20000004768,,112146.20000004768,2021-10-25T16:56:25.112Z,112253.432,1635180875,full,ni_sequenzen,NI_Sequenzen,,,,,,,,,,,,,,
,Screen_2,canvas.Screen,0_2_15_1,,skipped,16,112146.89999997616,,,112146.20000004768,,112146.89999997616,2021-10-25T16:56:25.113Z,112253.432,1635180875,full,ni_sequenzen,NI_Sequenzen,,,,,,,,,,,,,,
,Screen_3,canvas.Screen,0_2_15_2,,skipped,16,112147.5,,,112146.20000004768,,112147.60000002384,2021-10-25T16:56:25.113Z,112253.432,1635180875,full,ni_sequenzen,NI_Sequenzen,,,,,,,,,,,,,,
,Screen_4,canvas.Screen,0_2_15_3,,skipped,16,112148.89999997616,,,112146.20000004768,,112149,2021-10-25T16:56:25.115Z,112253.432,1635180875,full,ni_sequenzen,NI_Sequenzen,,,,,,,,,,,,,,
,Screen_5,canvas.Screen,0_2_15_4,,skipped,16,112149.70000004768,,,112146.20000004768,,112149.79999995232,2021-10-25T16:56:25.116Z,112253.432,1635180875,full,ni_sequenzen,NI_Sequenzen,,,,,,,,,,,,,,
,Screen_6,canvas.Screen,0_2_15_5,,skipped,16,112150.5,,,112146.20000004768,,112150.60000002384,2021-10-25T16:56:25.116Z,112253.432,1635180875,full,ni_sequenzen,NI_Sequenzen,,,,,,,,,,,,,,
,Sequence,flow.Sequence,0_2_15,,completion,16,112145.5,,,112146.20000004768,,112150.60000002384,2021-10-25T16:56:25.117Z,112253.432,1635180875,full,ni_sequenzen,NI_Sequenzen,,,,,,,,,,,,,,
,Screen_1,canvas.Screen,0_2_16_0,,skipped,17,112151.5,,,112151.5,,112151.70000004768,2021-10-25T16:56:25.118Z,112253.432,1635180875,full,ni_sequenzen,NI_Sequenzen,,,,,,,,,,,,,,
,Screen_2,canvas.Screen,0_2_16_1,,skipped,17,112152.29999995232,,,112151.5,,112152.29999995232,2021-10-25T16:56:25.118Z,112253.432,1635180875,full,ni_sequenzen,NI_Sequenzen,,,,,,,,,,,,,,
,Screen_3,canvas.Screen,0_2_16_2,,skipped,17,112153.29999995232,,,112151.5,,112153.39999997616,2021-10-25T16:56:25.119Z,112253.432,1635180875,full,ni_sequenzen,NI_Sequenzen,,,,,,,,,,,,,,
,Screen_4,canvas.Screen,0_2_16_3,,skipped,17,112154,,,112151.5,,112154.10000002384,2021-10-25T16:56:25.120Z,112253.432,1635180875,full,ni_sequenzen,NI_Sequenzen,,,,,,,,,,,,,,
,Screen_5,canvas.Screen,0_2_16_4,,skipped,17,112154.79999995232,,,112151.5,,112154.79999995232,2021-10-25T16:56:25.121Z,112253.432,1635180875,full,ni_sequenzen,NI_Sequenzen,,,,,,,,,,,,,,
,Screen_6,canvas.Screen,0_2_16_5,,skipped,17,112155.39999997616,,,112151.5,,112155.5,2021-10-25T16:56:25.121Z,112253.432,1635180875,full,ni_sequenzen,NI_Sequenzen,,,,,,,,,,,,,,
,Sequence,flow.Sequence,0_2_16,,completion,17,112150.89999997616,,,112151.5,,112155.5,2021-10-25T16:56:25.121Z,112253.432,1635180875,full,ni_sequenzen,NI_Sequenzen,,,,,,,,,,,,,,
,Screen_1,canvas.Screen,0_2_17_0,,skipped,18,112156.5,,,112156.5,,112156.60000002384,2021-10-25T16:56:25.122Z,112253.432,1635180875,full,ni_sequenzen,NI_Sequenzen,,,,,,,,,,,,,,
,Screen_2,canvas.Screen,0_2_17_1,,skipped,18,112157.20000004768,,,112156.5,,112157.20000004768,2021-10-25T16:56:25.123Z,112253.432,1635180875,full,ni_sequenzen,NI_Sequenzen,,,,,,,,,,,,,,
,Screen_3,canvas.Screen,0_2_17_2,,skipped,18,112157.79999995232,,,112156.5,,112157.89999997616,2021-10-25T16:56:25.124Z,112253.432,1635180875,full,ni_sequenzen,NI_Sequenzen,,,,,,,,,,,,,,
,Screen_4,canvas.Screen,0_2_17_3,,skipped,18,112158.5,,,112156.5,,112158.60000002384,2021-10-25T16:56:25.124Z,112253.432,1635180875,full,ni_sequenzen,NI_Sequenzen,,,,,,,,,,,,,,
,Screen_5,canvas.Screen,0_2_17_4,,skipped,18,112160,,,112156.5,,112160,2021-10-25T16:56:25.126Z,112253.432,1635180875,full,ni_sequenzen,NI_Sequenzen,,,,,,,,,,,,,,
,Screen_6,canvas.Screen,0_2_17_5,,skipped,18,112160.70000004768,,,112156.5,,112160.79999995232,2021-10-25T16:56:25.127Z,112253.432,1635180875,full,ni_sequenzen,NI_Sequenzen,,,,,,,,,,,,,,
,Sequence,flow.Sequence,0_2_17,,completion,18,112155.79999995232,,,112156.5,,112160.89999997616,2021-10-25T16:56:25.127Z,112253.432,1635180875,full,ni_sequenzen,NI_Sequenzen,,,,,,,,,,,,,,
,Screen_1,canvas.Screen,0_2_18_0,,skipped,19,112161.79999995232,,,112161.79999995232,,112161.79999995232,2021-10-25T16:56:25.128Z,112253.432,1635180875,full,ni_sequenzen,NI_Sequenzen,,,,,,,,,,,,,,
,Screen_2,canvas.Screen,0_2_18_1,,skipped,19,112162.39999997616,,,112161.79999995232,,112162.5,2021-10-25T16:56:25.128Z,112253.432,1635180875,full,ni_sequenzen,NI_Sequenzen,,,,,,,,,,,,,,
,Screen_3,canvas.Screen,0_2_18_2,,skipped,19,112163.10000002384,,,112161.79999995232,,112163.10000002384,2021-10-25T16:56:25.129Z,112253.432,1635180875,full,ni_sequenzen,NI_Sequenzen,,,,,,,,,,,,,,
,Screen_4,canvas.Screen,0_2_18_3,,skipped,19,112163.79999995232,,,112161.79999995232,,112163.89999997616,2021-10-25T16:56:25.130Z,112253.432,1635180875,full,ni_sequenzen,NI_Sequenzen,,,,,,,,,,,,,,
,Screen_5,canvas.Screen,0_2_18_4,,skipped,19,112164.39999997616,,,112161.79999995232,,112164.5,2021-10-25T16:56:25.130Z,112253.432,1635180875,full,ni_sequenzen,NI_Sequenzen,,,,,,,,,,,,,,
,Screen_6,canvas.Screen,0_2_18_5,,skipped,19,112165.10000002384,,,112161.79999995232,,112165.10000002384,2021-10-25T16:56:25.131Z,112253.432,1635180875,full,ni_sequenzen,NI_Sequenzen,,,,,,,,,,,,,,
,Sequence,flow.Sequence,0_2_18,,completion,19,112161.20000004768,,,112161.79999995232,,112165.29999995232,2021-10-25T16:56:25.131Z,112253.432,1635180875,full,ni_sequenzen,NI_Sequenzen,,,,,,,,,,,,,,
,Screen_1,canvas.Screen,0_2_19_0,,skipped,20,112166.10000002384,,,112166.10000002384,,112166.20000004768,2021-10-25T16:56:25.132Z,112253.432,1635180875,full,ni_sequenzen,NI_Sequenzen,,,,,,,,,,,,,,
,Screen_2,canvas.Screen,0_2_19_1,,skipped,20,112166.79999995232,,,112166.10000002384,,112166.79999995232,2021-10-25T16:56:25.133Z,112253.432,1635180875,full,ni_sequenzen,NI_Sequenzen,,,,,,,,,,,,,,
,Screen_3,canvas.Screen,0_2_19_2,,skipped,20,112167.5,,,112166.10000002384,,112167.60000002384,2021-10-25T16:56:25.133Z,112253.432,1635180875,full,ni_sequenzen,NI_Sequenzen,,,,,,,,,,,,,,
,Screen_4,canvas.Screen,0_2_19_3,,skipped,20,112168.10000002384,,,112166.10000002384,,112168.29999995232,2021-10-25T16:56:25.134Z,112253.432,1635180875,full,ni_sequenzen,NI_Sequenzen,,,,,,,,,,,,,,
,Screen_5,canvas.Screen,0_2_19_4,,skipped,20,112168.79999995232,,,112166.10000002384,,112168.89999997616,2021-10-25T16:56:25.135Z,112253.432,1635180875,full,ni_sequenzen,NI_Sequenzen,,,,,,,,,,,,,,
,Screen_6,canvas.Screen,0_2_19_5,,skipped,20,112170.29999995232,,,112166.10000002384,,112170.29999995232,2021-10-25T16:56:25.136Z,112253.432,1635180875,full,ni_sequenzen,NI_Sequenzen,,,,,,,,,,,,,,
,Sequence,flow.Sequence,0_2_19,,completion,20,112165.5,,,112166.10000002384,,112170.39999997616,2021-10-25T16:56:25.136Z,112253.432,1635180875,full,ni_sequenzen,NI_Sequenzen,,,,,,,,,,,,,,
,Screen_1,canvas.Screen,0_2_20_0,,skipped,21,112171.5,,,112171.5,,112171.60000002384,2021-10-25T16:56:25.137Z,112253.432,1635180875,full,ni_sequenzen,NI_Sequenzen,,,,,,,,,,,,,,
,Screen_2,canvas.Screen,0_2_20_1,,skipped,21,112172.20000004768,,,112171.5,,112172.29999995232,2021-10-25T16:56:25.138Z,112253.432,1635180875,full,ni_sequenzen,NI_Sequenzen,,,,,,,,,,,,,,
,Screen_3,canvas.Screen,0_2_20_2,,skipped,21,112173,,,112171.5,,112173,2021-10-25T16:56:25.139Z,112253.432,1635180875,full,ni_sequenzen,NI_Sequenzen,,,,,,,,,,,,,,
,Screen_4,canvas.Screen,0_2_20_3,,skipped,21,112173.60000002384,,,112171.5,,112173.70000004768,2021-10-25T16:56:25.140Z,112253.432,1635180875,full,ni_sequenzen,NI_Sequenzen,,,,,,,,,,,,,,
,Screen_5,canvas.Screen,0_2_20_4,,skipped,21,112174.29999995232,,,112171.5,,112174.39999997616,2021-10-25T16:56:25.140Z,112253.432,1635180875,full,ni_sequenzen,NI_Sequenzen,,,,,,,,,,,,,,
,Screen_6,canvas.Screen,0_2_20_5,,skipped,21,112175.10000002384,,,112171.5,,112175.20000004768,2021-10-25T16:56:25.141Z,112253.432,1635180875,full,ni_sequenzen,NI_Sequenzen,,,,,,,,,,,,,,
,Sequence,flow.Sequence,0_2_20,,completion,21,112170.79999995232,,,112171.5,,112175.29999995232,2021-10-25T16:56:25.141Z,112253.432,1635180875,full,ni_sequenzen,NI_Sequenzen,,,,,,,,,,,,,,
,Screen_1,canvas.Screen,0_2_21_0,,skipped,22,112176.20000004768,,,112176.29999995232,,112176.29999995232,2021-10-25T16:56:25.142Z,112253.432,1635180875,full,ni_sequenzen,NI_Sequenzen,,,,,,,,,,,,,,
,Screen_2,canvas.Screen,0_2_21_1,,skipped,22,112177,,,112176.29999995232,,112177,2021-10-25T16:56:25.143Z,112253.432,1635180875,full,ni_sequenzen,NI_Sequenzen,,,,,,,,,,,,,,
,Screen_3,canvas.Screen,0_2_21_2,,skipped,22,112177.60000002384,,,112176.29999995232,,112177.70000004768,2021-10-25T16:56:25.144Z,112253.432,1635180875,full,ni_sequenzen,NI_Sequenzen,,,,,,,,,,,,,,
,Screen_4,canvas.Screen,0_2_21_3,,skipped,22,112178.29999995232,,,112176.29999995232,,112178.29999995232,2021-10-25T16:56:25.144Z,112253.432,1635180875,full,ni_sequenzen,NI_Sequenzen,,,,,,,,,,,,,,
,Screen_5,canvas.Screen,0_2_21_4,,skipped,22,112179.5,,,112176.29999995232,,112179.60000002384,2021-10-25T16:56:25.146Z,112253.432,1635180875,full,ni_sequenzen,NI_Sequenzen,,,,,,,,,,,,,,
,Screen_6,canvas.Screen,0_2_21_5,,skipped,22,112180.39999997616,,,112176.29999995232,,112180.39999997616,2021-10-25T16:56:25.146Z,112253.432,1635180875,full,ni_sequenzen,NI_Sequenzen,,,,,,,,,,,,,,
,Sequence,flow.Sequence,0_2_21,,completion,22,112175.60000002384,,,112176.29999995232,,112180.60000002384,2021-10-25T16:56:25.146Z,112253.432,1635180875,full,ni_sequenzen,NI_Sequenzen,,,,,,,,,,,,,,
,Screen_1,canvas.Screen,0_2_22_0,,skipped,23,112182.20000004768,,,112182.20000004768,,112182.29999995232,2021-10-25T16:56:25.148Z,112253.432,1635180875,full,ni_sequenzen,NI_Sequenzen,,,,,,,,,,,,,,
,Screen_2,canvas.Screen,0_2_22_1,,skipped,23,112183.10000002384,,,112182.20000004768,,112183.10000002384,2021-10-25T16:56:25.149Z,112253.432,1635180875,full,ni_sequenzen,NI_Sequenzen,,,,,,,,,,,,,,
,Screen_3,canvas.Screen,0_2_22_2,,skipped,23,112184.5,,,112182.20000004768,,112184.60000002384,2021-10-25T16:56:25.150Z,112253.432,1635180875,full,ni_sequenzen,NI_Sequenzen,,,,,,,,,,,,,,
,Screen_4,canvas.Screen,0_2_22_3,,skipped,23,112185.29999995232,,,112182.20000004768,,112185.39999997616,2021-10-25T16:56:25.151Z,112253.432,1635180875,full,ni_sequenzen,NI_Sequenzen,,,,,,,,,,,,,,
,Screen_5,canvas.Screen,0_2_22_4,,skipped,23,112186,,,112182.20000004768,,112186,2021-10-25T16:56:25.152Z,112253.432,1635180875,full,ni_sequenzen,NI_Sequenzen,,,,,,,,,,,,,,
,Screen_6,canvas.Screen,0_2_22_5,,skipped,23,112186.70000004768,,,112182.20000004768,,112186.70000004768,2021-10-25T16:56:25.153Z,112253.432,1635180875,full,ni_sequenzen,NI_Sequenzen,,,,,,,,,,,,,,
,Sequence,flow.Sequence,0_2_22,,completion,23,112180.89999997616,,,112182.20000004768,,112186.79999995232,2021-10-25T16:56:25.153Z,112253.432,1635180875,full,ni_sequenzen,NI_Sequenzen,,,,,,,,,,,,,,
,Screen_1,canvas.Screen,0_2_23_0,,skipped,24,112187.70000004768,,,112187.70000004768,,112187.79999995232,2021-10-25T16:56:25.154Z,112253.432,1635180875,full,ni_sequenzen,NI_Sequenzen,,,,,,,,,,,,,,
,Screen_2,canvas.Screen,0_2_23_1,,skipped,24,112188.39999997616,,,112187.70000004768,,112188.5,2021-10-25T16:56:25.154Z,112253.432,1635180875,full,ni_sequenzen,NI_Sequenzen,,,,,,,,,,,,,,
,Screen_3,canvas.Screen,0_2_23_2,,skipped,24,112189.10000002384,,,112187.70000004768,,112189.10000002384,2021-10-25T16:56:25.155Z,112253.432,1635180875,full,ni_sequenzen,NI_Sequenzen,,,,,,,,,,,,,,
,Screen_4,canvas.Screen,0_2_23_3,,skipped,24,112189.79999995232,,,112187.70000004768,,112189.79999995232,2021-10-25T16:56:25.156Z,112253.432,1635180875,full,ni_sequenzen,NI_Sequenzen,,,,,,,,,,,,,,
,Screen_5,canvas.Screen,0_2_23_4,,skipped,24,112190.39999997616,,,112187.70000004768,,112190.5,2021-10-25T16:56:25.156Z,112253.432,1635180875,full,ni_sequenzen,NI_Sequenzen,,,,,,,,,,,,,,
,Screen_6,canvas.Screen,0_2_23_5,,skipped,24,112191.20000004768,,,112187.70000004768,,112191.29999995232,2021-10-25T16:56:25.157Z,112253.432,1635180875,full,ni_sequenzen,NI_Sequenzen,,,,,,,,,,,,,,
,Sequence,flow.Sequence,0_2_23,,completion,24,112187.10000002384,,,112187.70000004768,,112191.39999997616,2021-10-25T16:56:25.157Z,112253.432,1635180875,full,ni_sequenzen,NI_Sequenzen,,,,,,,,,,,,,,
,Screen_1,canvas.Screen,0_2_24_0,,skipped,25,112192.39999997616,,,112192.39999997616,,112192.39999997616,2021-10-25T16:56:25.158Z,112253.432,1635180875,full,ni_sequenzen,NI_Sequenzen,,,,,,,,,,,,,,
,Screen_2,canvas.Screen,0_2_24_1,,skipped,25,112193,,,112192.39999997616,,112193.10000002384,2021-10-25T16:56:25.159Z,112253.432,1635180875,full,ni_sequenzen,NI_Sequenzen,,,,,,,,,,,,,,
,Screen_3,canvas.Screen,0_2_24_2,,skipped,25,112194.29999995232,,,112192.39999997616,,112194.39999997616,2021-10-25T16:56:25.160Z,112253.432,1635180875,full,ni_sequenzen,NI_Sequenzen,,,,,,,,,,,,,,
,Screen_4,canvas.Screen,0_2_24_3,,skipped,25,112195.10000002384,,,112192.39999997616,,112195.20000004768,2021-10-25T16:56:25.161Z,112253.432,1635180875,full,ni_sequenzen,NI_Sequenzen,,,,,,,,,,,,,,
,Screen_5,canvas.Screen,0_2_24_4,,skipped,25,112195.79999995232,,,112192.39999997616,,112195.79999995232,2021-10-25T16:56:25.162Z,112253.432,1635180875,full,ni_sequenzen,NI_Sequenzen,,,,,,,,,,,,,,
,Screen_6,canvas.Screen,0_2_24_5,,skipped,25,112196.5,,,112192.39999997616,,112196.60000002384,2021-10-25T16:56:25.162Z,112253.432,1635180875,full,ni_sequenzen,NI_Sequenzen,,,,,,,,,,,,,,
,Sequence,flow.Sequence,0_2_24,,completion,25,112191.70000004768,,,112192.39999997616,,112196.60000002384,2021-10-25T16:56:25.163Z,112253.432,1635180875,full,ni_sequenzen,NI_Sequenzen,,,,,,,,,,,,,,
,Screen_1,canvas.Screen,0_2_25_0,,skipped,26,112197.60000002384,,,112197.60000002384,,112197.60000002384,2021-10-25T16:56:25.164Z,112253.432,1635180875,full,ni_sequenzen,NI_Sequenzen,,,,,,,,,,,,,,
,Screen_2,canvas.Screen,0_2_25_1,,skipped,26,112198.29999995232,,,112197.60000002384,,112198.39999997616,2021-10-25T16:56:25.164Z,112253.432,1635180875,full,ni_sequenzen,NI_Sequenzen,,,,,,,,,,,,,,
,Screen_3,canvas.Screen,0_2_25_2,,skipped,26,112198.89999997616,,,112197.60000002384,,112199,2021-10-25T16:56:25.165Z,112253.432,1635180875,full,ni_sequenzen,NI_Sequenzen,,,,,,,,,,,,,,
,Screen_4,canvas.Screen,0_2_25_3,,skipped,26,112199.60000002384,,,112197.60000002384,,112199.60000002384,2021-10-25T16:56:25.166Z,112253.432,1635180875,full,ni_sequenzen,NI_Sequenzen,,,,,,,,,,,,,,
,Screen_5,canvas.Screen,0_2_25_4,,skipped,26,112200.29999995232,,,112197.60000002384,,112200.29999995232,2021-10-25T16:56:25.166Z,112253.432,1635180875,full,ni_sequenzen,NI_Sequenzen,,,,,,,,,,,,,,
,Screen_6,canvas.Screen,0_2_25_5,,skipped,26,112201,,,112197.60000002384,,112201,2021-10-25T16:56:25.167Z,112253.432,1635180875,full,ni_sequenzen,NI_Sequenzen,,,,,,,,,,,,,,
,Sequence,flow.Sequence,0_2_25,,completion,26,112196.89999997616,,,112197.60000002384,,112201.10000002384,2021-10-25T16:56:25.167Z,112253.432,1635180875,full,ni_sequenzen,NI_Sequenzen,,,,,,,,,,,,,,
,Screen_1,canvas.Screen,0_2_26_0,,skipped,27,112202.10000002384,,,112202.10000002384,,112202.20000004768,2021-10-25T16:56:25.168Z,112253.432,1635180875,full,ni_sequenzen,NI_Sequenzen,,,,,,,,,,,,,,
,Screen_2,canvas.Screen,0_2_26_1,,skipped,27,112202.79999995232,,,112202.10000002384,,112203.10000002384,2021-10-25T16:56:25.169Z,112253.432,1635180875,full,ni_sequenzen,NI_Sequenzen,,,,,,,,,,,,,,
,Screen_3,canvas.Screen,0_2_26_2,,skipped,27,112203.89999997616,,,112202.10000002384,,112204,2021-10-25T16:56:25.170Z,112253.432,1635180875,full,ni_sequenzen,NI_Sequenzen,,,,,,,,,,,,,,
,Screen_4,canvas.Screen,0_2_26_3,,skipped,27,112205.20000004768,,,112202.10000002384,,112205.39999997616,2021-10-25T16:56:25.171Z,112253.432,1635180875,full,ni_sequenzen,NI_Sequenzen,,,,,,,,,,,,,,
,Screen_5,canvas.Screen,0_2_26_4,,skipped,27,112206.10000002384,,,112202.10000002384,,112206.39999997616,2021-10-25T16:56:25.172Z,112253.432,1635180875,full,ni_sequenzen,NI_Sequenzen,,,,,,,,,,,,,,
,Screen_6,canvas.Screen,0_2_26_5,,skipped,27,112207.39999997616,,,112202.10000002384,,112207.5,2021-10-25T16:56:25.173Z,112253.432,1635180875,full,ni_sequenzen,NI_Sequenzen,,,,,,,,,,,,,,
,Sequence,flow.Sequence,0_2_26,,completion,27,112201.39999997616,,,112202.10000002384,,112207.60000002384,2021-10-25T16:56:25.173Z,112253.432,1635180875,full,ni_sequenzen,NI_Sequenzen,,,,,,,,,,,,,,
,Screen_1,canvas.Screen,0_2_27_0,,skipped,28,112208.5,,,112208.5,,112208.60000002384,2021-10-25T16:56:25.174Z,112253.432,1635180875,full,ni_sequenzen,NI_Sequenzen,,,,,,,,,,,,,,
,Screen_2,canvas.Screen,0_2_27_1,,skipped,28,112209.29999995232,,,112208.5,,112209.29999995232,2021-10-25T16:56:25.175Z,112253.432,1635180875,full,ni_sequenzen,NI_Sequenzen,,,,,,,,,,,,,,
,Screen_3,canvas.Screen,0_2_27_2,,skipped,28,112209.89999997616,,,112208.5,,112209.89999997616,2021-10-25T16:56:25.176Z,112253.432,1635180875,full,ni_sequenzen,NI_Sequenzen,,,,,,,,,,,,,,
,Screen_4,canvas.Screen,0_2_27_3,,skipped,28,112210.60000002384,,,112208.5,,112210.60000002384,2021-10-25T16:56:25.177Z,112253.432,1635180875,full,ni_sequenzen,NI_Sequenzen,,,,,,,,,,,,,,
,Screen_5,canvas.Screen,0_2_27_4,,skipped,28,112211.20000004768,,,112208.5,,112211.29999995232,2021-10-25T16:56:25.177Z,112253.432,1635180875,full,ni_sequenzen,NI_Sequenzen,,,,,,,,,,,,,,
,Screen_6,canvas.Screen,0_2_27_5,,skipped,28,112211.89999997616,,,112208.5,,112212,2021-10-25T16:56:25.178Z,112253.432,1635180875,full,ni_sequenzen,NI_Sequenzen,,,,,,,,,,,,,,
,Sequence,flow.Sequence,0_2_27,,completion,28,112207.89999997616,,,112208.5,,112212,2021-10-25T16:56:25.178Z,112253.432,1635180875,full,ni_sequenzen,NI_Sequenzen,,,,,,,,,,,,,,
,Screen_1,canvas.Screen,0_2_28_0,,skipped,29,112213,,,112213,,112213,2021-10-25T16:56:25.179Z,112253.432,1635180875,full,ni_sequenzen,NI_Sequenzen,,,,,,,,,,,,,,
,Screen_2,canvas.Screen,0_2_28_1,,skipped,29,112213.70000004768,,,112213,,112213.70000004768,2021-10-25T16:56:25.180Z,112253.432,1635180875,full,ni_sequenzen,NI_Sequenzen,,,,,,,,,,,,,,
,Screen_3,canvas.Screen,0_2_28_2,,skipped,29,112214.29999995232,,,112213,,112214.39999997616,2021-10-25T16:56:25.180Z,112253.432,1635180875,full,ni_sequenzen,NI_Sequenzen,,,,,,,,,,,,,,
,Screen_4,canvas.Screen,0_2_28_3,,skipped,29,112215,,,112213,,112215,2021-10-25T16:56:25.181Z,112253.432,1635180875,full,ni_sequenzen,NI_Sequenzen,,,,,,,,,,,,,,
,Screen_5,canvas.Screen,0_2_28_4,,skipped,29,112216.20000004768,,,112213,,112216.20000004768,2021-10-25T16:56:25.182Z,112253.432,1635180875,full,ni_sequenzen,NI_Sequenzen,,,,,,,,,,,,,,
,Screen_6,canvas.Screen,0_2_28_5,,skipped,29,112216.89999997616,,,112213,,112217,2021-10-25T16:56:25.183Z,112253.432,1635180875,full,ni_sequenzen,NI_Sequenzen,,,,,,,,,,,,,,
,Sequence,flow.Sequence,0_2_28,,completion,29,112212.39999997616,,,112213,,112217.10000002384,2021-10-25T16:56:25.183Z,112253.432,1635180875,full,ni_sequenzen,NI_Sequenzen,,,,,,,,,,,,,,
,Screen_1,canvas.Screen,0_2_29_0,,skipped,30,112218,,,112218,,112218,2021-10-25T16:56:25.184Z,112253.432,1635180875,full,ni_sequenzen,NI_Sequenzen,,,,,,,,,,,,,,
,Screen_2,canvas.Screen,0_2_29_1,,skipped,30,112218.60000002384,,,112218,,112218.70000004768,2021-10-25T16:56:25.185Z,112253.432,1635180875,full,ni_sequenzen,NI_Sequenzen,,,,,,,,,,,,,,
,Screen_3,canvas.Screen,0_2_29_2,,skipped,30,112219.20000004768,,,112218,,112219.29999995232,2021-10-25T16:56:25.185Z,112253.432,1635180875,full,ni_sequenzen,NI_Sequenzen,,,,,,,,,,,,,,
,Screen_4,canvas.Screen,0_2_29_3,,skipped,30,112219.79999995232,,,112218,,112219.89999997616,2021-10-25T16:56:25.186Z,112253.432,1635180875,full,ni_sequenzen,NI_Sequenzen,,,,,,,,,,,,,,
,Screen_5,canvas.Screen,0_2_29_4,,skipped,30,112220.5,,,112218,,112220.5,2021-10-25T16:56:25.186Z,112253.432,1635180875,full,ni_sequenzen,NI_Sequenzen,,,,,,,,,,,,,,
,Screen_6,canvas.Screen,0_2_29_5,,skipped,30,112221.10000002384,,,112218,,112221.20000004768,2021-10-25T16:56:25.187Z,112253.432,1635180875,full,ni_sequenzen,NI_Sequenzen,,,,,,,,,,,,,,
,Sequence,flow.Sequence,0_2_29,,completion,30,112217.29999995232,,,112218,,112221.29999995232,2021-10-25T16:56:25.187Z,112253.432,1635180875,full,ni_sequenzen,NI_Sequenzen,,,,,,,,,,,,,,
,Instructions_II,flow.Loop,0_2,,completion,,60547.700000047684,60541.482,60555.453,112218,51662.547,112221.29999995232,2021-10-25T16:56:25.187Z,112253.432,1635180875,full,ni_sequenzen,NI_Sequenzen,,,,,,,,,,,,,,
,Move,canvas.Screen,0_3_0_0_0_0,down,response,,112247.5,112247.007,112253.432,117487,5233.567999999999,117487.39999997616,2021-10-25T16:56:30.453Z,117498.854,1635180875,full,ni_sequenzen,NI_Sequenzen,1,0,,,,,,,,,,,,
,Move,canvas.Screen,0_3_0_0_0_1,right,response,,117492.89999997616,117486.604,117498.854,121661.39999997616,4162.5459999761515,121662.29999995232,2021-10-25T16:56:34.628Z,121673.892,1635180875,full,ni_sequenzen,NI_Sequenzen,2,0,,,,,,,,,,,,
,Move,canvas.Screen,0_3_0_0_0_2,right,response,,121667.89999997616,121665.669,121673.892,122182.79999995232,508.9079999523092,122183.79999995232,2021-10-25T16:56:35.150Z,122193.653,1635180875,full,ni_sequenzen,NI_Sequenzen,3,0,,,,,,,,,,,,
,Move,canvas.Screen,0_3_0_0_0_3,down,response,,122187.79999995232,122174.124,122193.653,123209.79999995232,1016.1469999523106,123210.5,2021-10-25T16:56:36.176Z,123257.173,1635180875,full,ni_sequenzen,NI_Sequenzen,4,0,,,,,,,,,,,,
,Move,canvas.Screen,0_3_0_0_0_4,-999,skipped,,123215.20000004768,,,123209.79999995232,,123215.29999995232,2021-10-25T16:56:36.181Z,123257.173,1635180875,full,ni_sequenzen,NI_Sequenzen,5,0,,,,,,,,,,,,
,Move,canvas.Screen,0_3_0_0_0_5,-999,skipped,,123219.60000002384,,,123209.79999995232,,123219.70000004768,2021-10-25T16:56:36.186Z,123257.173,1635180875,full,ni_sequenzen,NI_Sequenzen,6,0,,,,,,,,,,,,
,Move,canvas.Screen,0_3_0_0_0_6,-999,skipped,,123223.70000004768,,,123209.79999995232,,123223.89999997616,2021-10-25T16:56:36.190Z,123257.173,1635180875,full,ni_sequenzen,NI_Sequenzen,7,0,,,,,,,,,,,,
,Move,canvas.Screen,0_3_0_0_0_7,-999,skipped,,123228.5,,,123209.79999995232,,123228.5,2021-10-25T16:56:36.194Z,123257.173,1635180875,full,ni_sequenzen,NI_Sequenzen,8,0,,,,,,,,,,,,
,Move,canvas.Screen,0_3_0_0_0_8,-999,skipped,,123231.5,,,123209.79999995232,,123231.60000002384,2021-10-25T16:56:36.197Z,123257.173,1635180875,full,ni_sequenzen,NI_Sequenzen,9,0,,,,,,,,,,,,
,Move,canvas.Screen,0_3_0_0_0_9,-999,skipped,,123234.79999995232,,,123209.79999995232,,123234.89999997616,2021-10-25T16:56:36.201Z,123257.173,1635180875,full,ni_sequenzen,NI_Sequenzen,10,0,,,,,,,,,,,,
,Move,canvas.Screen,0_3_0_0_0_10,-999,skipped,,123237.39999997616,,,123209.79999995232,,123237.5,2021-10-25T16:56:36.203Z,123257.173,1635180875,full,ni_sequenzen,NI_Sequenzen,11,0,,,,,,,,,,,,
,Move,canvas.Screen,0_3_0_0_0_11,-999,skipped,,123239.89999997616,,,123209.79999995232,,123240,2021-10-25T16:56:36.206Z,123257.173,1635180875,full,ni_sequenzen,NI_Sequenzen,12,0,,,,,,,,,,,,
,Move,canvas.Screen,0_3_0_0_0_12,-999,skipped,,123243,,,123209.79999995232,,123243.20000004768,2021-10-25T16:56:36.209Z,123257.173,1635180875,full,ni_sequenzen,NI_Sequenzen,13,0,,,,,,,,,,,,
,Move,canvas.Screen,0_3_0_0_0_13,-999,skipped,,123245.5,,,123209.79999995232,,123245.60000002384,2021-10-25T16:56:36.211Z,123257.173,1635180875,full,ni_sequenzen,NI_Sequenzen,14,0,,,,,,,,,,,,
,Move,canvas.Screen,0_3_0_0_0_14,-999,skipped,,123247.89999997616,,,123209.79999995232,,123248,2021-10-25T16:56:36.214Z,123257.173,1635180875,full,ni_sequenzen,NI_Sequenzen,15,0,,,,,,,,,,,,
,Loop,flow.Loop,0_3_0_0_0,-999,completion,,112243.60000002384,112247.007,112253.432,123209.79999995232,10956.367999952316,123248.10000002384,2021-10-25T16:56:36.214Z,123257.173,1635180875,full,ni_sequenzen,NI_Sequenzen,,0,,,,,,,,,,,,
,Feedback,canvas.Screen,0_3_0_0_1,,timeout,,123251.20000004768,123243.659,123257.173,127244.873,4004.470000000001,127246.20000004768,2021-10-25T16:56:40.212Z,127261.643,1635180875,full,ni_sequenzen,NI_Sequenzen,,0,,,,,,,,,,,,
,Trial,flow.Sequence,0_3_0_0,,completion,,112234.20000004768,112247.007,112253.432,127244.873,14991.441000000006,127246.29999995232,2021-10-25T16:56:40.212Z,127278.324,1635180875,full,ni_sequenzen,NI_Sequenzen,,0,,,,,,,,,,,,
,Move,canvas.Screen,0_3_0_1_0_0,down,response,,127256.5,127261.643,127278.324,133863.89999997616,6585.575999976165,133864.39999997616,2021-10-25T16:56:46.830Z,133873.081,1635180875,full,ni_sequenzen,NI_Sequenzen,1,1,,,,,,,,,,,,
,Move,canvas.Screen,0_3_0_1_0_1,right,response,,133866.89999997616,133861.3,133873.081,136059.70000004768,2186.619000047678,136060.29999995232,2021-10-25T16:56:49.026Z,136087.734,1635180875,full,ni_sequenzen,NI_Sequenzen,2,1,,,,,,,,,,,,
,Move,canvas.Screen,0_3_0_1_0_2,right,response,,136065,136056.483,136087.734,136926.39999997616,838.6659999761614,136927.39999997616,2021-10-25T16:56:49.893Z,136938.256,1635180875,full,ni_sequenzen,NI_Sequenzen,3,1,,,,,,,,,,,,
,Move,canvas.Screen,0_3_0_1_0_3,down,response,,136932.10000002384,136921.395,136938.256,137647.70000004768,709.4440000476898,137648.20000004768,2021-10-25T16:56:50.614Z,137697.554,1635180875,full,ni_sequenzen,NI_Sequenzen,4,1,,,,,,,,,,,,
,Move,canvas.Screen,0_3_0_1_0_4,-999,skipped,,137651.39999997616,,,137647.70000004768,,137651.5,2021-10-25T16:56:50.617Z,137697.554,1635180875,full,ni_sequenzen,NI_Sequenzen,5,1,,,,,,,,,,,,
,Move,canvas.Screen,0_3_0_1_0_5,-999,skipped,,137653.60000002384,,,137647.70000004768,,137653.70000004768,2021-10-25T16:56:50.620Z,137697.554,1635180875,full,ni_sequenzen,NI_Sequenzen,6,1,,,,,,,,,,,,
,Move,canvas.Screen,0_3_0_1_0_6,-999,skipped,,137659.89999997616,,,137647.70000004768,,137660.10000002384,2021-10-25T16:56:50.626Z,137697.554,1635180875,full,ni_sequenzen,NI_Sequenzen,7,1,,,,,,,,,,,,
,Move,canvas.Screen,0_3_0_1_0_7,-999,skipped,,137664.89999997616,,,137647.70000004768,,137665,2021-10-25T16:56:50.631Z,137697.554,1635180875,full,ni_sequenzen,NI_Sequenzen,8,1,,,,,,,,,,,,
,Move,canvas.Screen,0_3_0_1_0_8,-999,skipped,,137669.89999997616,,,137647.70000004768,,137670.10000002384,2021-10-25T16:56:50.636Z,137697.554,1635180875,full,ni_sequenzen,NI_Sequenzen,9,1,,,,,,,,,,,,
,Move,canvas.Screen,0_3_0_1_0_9,-999,skipped,,137676.20000004768,,,137647.70000004768,,137676.39999997616,2021-10-25T16:56:50.642Z,137697.554,1635180875,full,ni_sequenzen,NI_Sequenzen,10,1,,,,,,,,,,,,
,Move,canvas.Screen,0_3_0_1_0_10,-999,skipped,,137679.79999995232,,,137647.70000004768,,137679.89999997616,2021-10-25T16:56:50.646Z,137697.554,1635180875,full,ni_sequenzen,NI_Sequenzen,11,1,,,,,,,,,,,,
,Move,canvas.Screen,0_3_0_1_0_11,-999,skipped,,137681.89999997616,,,137647.70000004768,,137681.89999997616,2021-10-25T16:56:50.648Z,137697.554,1635180875,full,ni_sequenzen,NI_Sequenzen,12,1,,,,,,,,,,,,
,Move,canvas.Screen,0_3_0_1_0_12,-999,skipped,,137683.79999995232,,,137647.70000004768,,137683.89999997616,2021-10-25T16:56:50.650Z,137697.554,1635180875,full,ni_sequenzen,NI_Sequenzen,13,1,,,,,,,,,,,,
,Move,canvas.Screen,0_3_0_1_0_13,-999,skipped,,137686.29999995232,,,137647.70000004768,,137686.39999997616,2021-10-25T16:56:50.652Z,137697.554,1635180875,full,ni_sequenzen,NI_Sequenzen,14,1,,,,,,,,,,,,
,Move,canvas.Screen,0_3_0_1_0_14,-999,skipped,,137688.70000004768,,,137647.70000004768,,137688.70000004768,2021-10-25T16:56:50.655Z,137697.554,1635180875,full,ni_sequenzen,NI_Sequenzen,15,1,,,,,,,,,,,,
,Loop,flow.Loop,0_3_0_1_0,-999,completion,,127254.20000004768,127261.643,127278.324,137647.70000004768,10369.37600004769,137688.89999997616,2021-10-25T16:56:50.655Z,137697.554,1635180875,full,ni_sequenzen,NI_Sequenzen,,1,,,,,,,,,,,,
,Feedback,canvas.Screen,0_3_0_1_1,,timeout,,137691.5,137688.385,137697.554,141684.466,4003.3819999999832,141685.60000002384,2021-10-25T16:56:54.652Z,141700.936,1635180875,full,ni_sequenzen,NI_Sequenzen,,1,,,,,,,,,,,,
,Trial,flow.Sequence,0_3_0_1,,completion,,127247,127261.643,127278.324,141684.466,14406.141999999993,141686,2021-10-25T16:56:54.652Z,141717.609,1635180875,full,ni_sequenzen,NI_Sequenzen,,1,,,,,,,,,,,,
,Move,canvas.Screen,0_3_0_2_0_0,down,response,,141702,141700.936,141717.609,144404.20000004768,2686.591000047687,144405,2021-10-25T16:56:57.371Z,144417.026,1635180875,full,ni_sequenzen,NI_Sequenzen,1,2,,,,,,,,,,,,
,Move,canvas.Screen,0_3_0_2_0_1,right,response,,144410.89999997616,144401.214,144417.026,147637,3219.9739999999874,147638,2021-10-25T16:57:00.604Z,147649.606,1635180875,full,ni_sequenzen,NI_Sequenzen,2,2,,,,,,,,,,,,
,Move,canvas.Screen,0_3_0_2_0_2,right,response,,147643.70000004768,147633.922,147649.606,148219.39999997616,569.7939999761584,148220.20000004768,2021-10-25T16:57:01.186Z,148232.828,1635180875,full,ni_sequenzen,NI_Sequenzen,3,2,,,,,,,,,,,,
,Move,canvas.Screen,0_3_0_2_0_3,down,response,,148227,148216.618,148232.828,148923.20000004768,690.3720000476751,148924,2021-10-25T16:57:01.890Z,148958.87,1635180875,full,ni_sequenzen,NI_Sequenzen,4,2,,,,,,,,,,,,
,Move,canvas.Screen,0_3_0_2_0_4,-999,skipped,,148928.29999995232,,,148923.20000004768,,148928.29999995232,2021-10-25T16:57:01.894Z,148958.87,1635180875,full,ni_sequenzen,NI_Sequenzen,5,2,,,,,,,,,,,,
,Move,canvas.Screen,0_3_0_2_0_5,-999,skipped,,148930.29999995232,,,148923.20000004768,,148930.29999995232,2021-10-25T16:57:01.896Z,148958.87,1635180875,full,ni_sequenzen,NI_Sequenzen,6,2,,,,,,,,,,,,
,Move,canvas.Screen,0_3_0_2_0_6,-999,skipped,,148932.10000002384,,,148923.20000004768,,148932.20000004768,2021-10-25T16:57:01.898Z,148958.87,1635180875,full,ni_sequenzen,NI_Sequenzen,7,2,,,,,,,,,,,,
,Move,canvas.Screen,0_3_0_2_0_7,-999,skipped,,148934.60000002384,,,148923.20000004768,,148934.60000002384,2021-10-25T16:57:01.901Z,148958.87,1635180875,full,ni_sequenzen,NI_Sequenzen,8,2,,,,,,,,,,,,
,Move,canvas.Screen,0_3_0_2_0_8,-999,skipped,,148937,,,148923.20000004768,,148937.10000002384,2021-10-25T16:57:01.903Z,148958.87,1635180875,full,ni_sequenzen,NI_Sequenzen,9,2,,,,,,,,,,,,
,Move,canvas.Screen,0_3_0_2_0_9,-999,skipped,,148939.5,,,148923.20000004768,,148939.60000002384,2021-10-25T16:57:01.906Z,148958.87,1635180875,full,ni_sequenzen,NI_Sequenzen,10,2,,,,,,,,,,,,
,Move,canvas.Screen,0_3_0_2_0_10,-999,skipped,,148941.39999997616,,,148923.20000004768,,148941.60000002384,2021-10-25T16:57:01.907Z,148958.87,1635180875,full,ni_sequenzen,NI_Sequenzen,11,2,,,,,,,,,,,,
,Move,canvas.Screen,0_3_0_2_0_11,-999,skipped,,148943.70000004768,,,148923.20000004768,,148943.70000004768,2021-10-25T16:57:01.910Z,148958.87,1635180875,full,ni_sequenzen,NI_Sequenzen,12,2,,,,,,,,,,,,
,Move,canvas.Screen,0_3_0_2_0_12,-999,skipped,,148945.70000004768,,,148923.20000004768,,148945.79999995232,2021-10-25T16:57:01.912Z,148958.87,1635180875,full,ni_sequenzen,NI_Sequenzen,13,2,,,,,,,,,,,,
,Move,canvas.Screen,0_3_0_2_0_13,-999,skipped,,148948.10000002384,,,148923.20000004768,,148948.20000004768,2021-10-25T16:57:01.914Z,148958.87,1635180875,full,ni_sequenzen,NI_Sequenzen,14,2,,,,,,,,,,,,
,Move,canvas.Screen,0_3_0_2_0_14,-999,skipped,,148949.89999997616,,,148923.20000004768,,148950,2021-10-25T16:57:01.916Z,148958.87,1635180875,full,ni_sequenzen,NI_Sequenzen,15,2,,,,,,,,,,,,
,Loop,flow.Loop,0_3_0_2_0,-999,completion,,141699.5,141700.936,141717.609,148923.20000004768,7205.591000047687,148950.10000002384,2021-10-25T16:57:01.916Z,148958.87,1635180875,full,ni_sequenzen,NI_Sequenzen,,2,,,,,,,,,,,,
,Feedback,canvas.Screen,0_3_0_2_1,,timeout,,148952.60000002384,148949.87,148958.87,152934.93,3992.5739999999932,152938.10000002384,2021-10-25T16:57:05.904Z,152951.444,1635180875,full,ni_sequenzen,NI_Sequenzen,,2,,,,,,,,,,,,
,Trial,flow.Sequence,0_3_0_2,,completion,,141686.39999997616,141700.936,141717.609,152934.93,11217.320999999996,152938.29999995232,2021-10-25T16:57:05.904Z,152968.259,1635180875,full,ni_sequenzen,NI_Sequenzen,,2,,,,,,,,,,,,
,Move,canvas.Screen,0_3_0_3_0_0,down,response,,152959.89999997616,152951.444,152968.259,157601.60000002384,4633.341000023851,157602.10000002384,2021-10-25T16:57:10.568Z,157613.086,1635180875,full,ni_sequenzen,NI_Sequenzen,1,3,,,,,,,,,,,,
,Move,canvas.Screen,0_3_0_3_0_1,right,response,,157607.20000004768,157601.485,157613.086,159046.39999997616,1433.313999976148,159047,2021-10-25T16:57:12.011Z,159057.596,1635180875,full,ni_sequenzen,NI_Sequenzen,2,3,,,,,,,,,,,,
,Move,canvas.Screen,0_3_0_3_0_2,right,response,,159051.29999995232,159046.447,159057.596,159407.10000002384,349.5040000238514,159407.79999995232,2021-10-25T16:57:12.372Z,159417.768,1635180875,full,ni_sequenzen,NI_Sequenzen,3,3,,,,,,,,,,,,
,Move,canvas.Screen,0_3_0_3_0_3,down,response,,159411.79999995232,159407.42,159417.768,159904.20000004768,486.4320000476728,159905.10000002384,2021-10-25T16:57:12.869Z,159955.137,1635180875,full,ni_sequenzen,NI_Sequenzen,4,3,,,,,,,,,,,,
,Move,canvas.Screen,0_3_0_3_0_4,-999,skipped,,159909.89999997616,,,159904.20000004768,,159910,2021-10-25T16:57:12.874Z,159955.137,1635180875,full,ni_sequenzen,NI_Sequenzen,5,3,,,,,,,,,,,,
,Move,canvas.Screen,0_3_0_3_0_5,-999,skipped,,159926.70000004768,,,159904.20000004768,,159926.79999995232,2021-10-25T16:57:12.890Z,159955.137,1635180875,full,ni_sequenzen,NI_Sequenzen,6,3,,,,,,,,,,,,
,Move,canvas.Screen,0_3_0_3_0_6,-999,skipped,,159929.89999997616,,,159904.20000004768,,159930,2021-10-25T16:57:12.894Z,159955.137,1635180875,full,ni_sequenzen,NI_Sequenzen,7,3,,,,,,,,,,,,
,Move,canvas.Screen,0_3_0_3_0_7,-999,skipped,,159931.89999997616,,,159904.20000004768,,159932,2021-10-25T16:57:12.896Z,159955.137,1635180875,full,ni_sequenzen,NI_Sequenzen,8,3,,,,,,,,,,,,
,Move,canvas.Screen,0_3_0_3_0_8,-999,skipped,,159934.79999995232,,,159904.20000004768,,159934.89999997616,2021-10-25T16:57:12.899Z,159955.137,1635180875,full,ni_sequenzen,NI_Sequenzen,9,3,,,,,,,,,,,,
,Move,canvas.Screen,0_3_0_3_0_9,-999,skipped,,159936.70000004768,,,159904.20000004768,,159936.79999995232,2021-10-25T16:57:12.900Z,159955.137,1635180875,full,ni_sequenzen,NI_Sequenzen,10,3,,,,,,,,,,,,
,Move,canvas.Screen,0_3_0_3_0_10,-999,skipped,,159938.60000002384,,,159904.20000004768,,159938.60000002384,2021-10-25T16:57:12.902Z,159955.137,1635180875,full,ni_sequenzen,NI_Sequenzen,11,3,,,,,,,,,,,,
,Move,canvas.Screen,0_3_0_3_0_11,-999,skipped,,159940.39999997616,,,159904.20000004768,,159940.5,2021-10-25T16:57:12.904Z,159955.137,1635180875,full,ni_sequenzen,NI_Sequenzen,12,3,,,,,,,,,,,,
,Move,canvas.Screen,0_3_0_3_0_12,-999,skipped,,159942.70000004768,,,159904.20000004768,,159942.79999995232,2021-10-25T16:57:12.906Z,159955.137,1635180875,full,ni_sequenzen,NI_Sequenzen,13,3,,,,,,,,,,,,
,Move,canvas.Screen,0_3_0_3_0_13,-999,skipped,,159944.60000002384,,,159904.20000004768,,159944.60000002384,2021-10-25T16:57:12.908Z,159955.137,1635180875,full,ni_sequenzen,NI_Sequenzen,14,3,,,,,,,,,,,,
,Move,canvas.Screen,0_3_0_3_0_14,-999,skipped,,159946.60000002384,,,159904.20000004768,,159946.70000004768,2021-10-25T16:57:12.910Z,159955.137,1635180875,full,ni_sequenzen,NI_Sequenzen,15,3,,,,,,,,,,,,
,Loop,flow.Loop,0_3_0_3_0,-999,completion,,152955.29999995232,152951.444,152968.259,159904.20000004768,6935.941000047693,159946.79999995232,2021-10-25T16:57:12.910Z,159955.137,1635180875,full,ni_sequenzen,NI_Sequenzen,,3,,,,,,,,,,,,
,Feedback,canvas.Screen,0_3_0_3_1,,timeout,,159949.10000002384,159934.755,159955.137,163942.449,4003.7360000000044,163943.39999997616,2021-10-25T16:57:16.907Z,163958.873,1635180875,full,ni_sequenzen,NI_Sequenzen,,3,,,,,,,,,,,,
,Trial,flow.Sequence,0_3_0_3,,completion,,152938.79999995232,152951.444,152968.259,163942.449,10974.190000000002,163943.70000004768,2021-10-25T16:57:16.907Z,163975.541,1635180875,full,ni_sequenzen,NI_Sequenzen,,3,,,,,,,,,,,,
,Move,canvas.Screen,0_3_0_4_0_0,left,response,,163958.5,163958.873,163975.541,168058.79999995232,4083.258999952319,168059.39999997616,2021-10-25T16:57:21.023Z,168067.708,1635180875,full,ni_sequenzen,NI_Sequenzen,1,4,,,,,,,,,,,,
,Move,canvas.Screen,0_3_0_4_0_1,down,response,,168061.79999995232,168059.097,168067.708,169109.10000002384,1041.3920000238286,169110,2021-10-25T16:57:22.074Z,169120.398,1635180875,full,ni_sequenzen,NI_Sequenzen,2,4,,,,,,,,,,,,
,Move,canvas.Screen,0_3_0_4_0_2,down,response,,169114.20000004768,169101.226,169120.398,169750.79999995232,630.4019999523298,169751.70000004768,2021-10-25T16:57:22.715Z,169762.121,1635180875,full,ni_sequenzen,NI_Sequenzen,3,4,,,,,,,,,,,,
,Move,canvas.Screen,0_3_0_4_0_3,left,response,,169756.20000004768,169753.862,169762.121,170806.10000002384,1043.9790000238281,170806.89999997616,2021-10-25T16:57:23.771Z,170842.495,1635180875,full,ni_sequenzen,NI_Sequenzen,4,4,,,,,,,,,,,,
,Move,canvas.Screen,0_3_0_4_0_4,-999,skipped,,170811.70000004768,,,170806.10000002384,,170811.79999995232,2021-10-25T16:57:23.775Z,170842.495,1635180875,full,ni_sequenzen,NI_Sequenzen,5,4,,,,,,,,,,,,
,Move,canvas.Screen,0_3_0_4_0_5,-999,skipped,,170813.79999995232,,,170806.10000002384,,170813.89999997616,2021-10-25T16:57:23.778Z,170842.495,1635180875,full,ni_sequenzen,NI_Sequenzen,6,4,,,,,,,,,,,,
,Move,canvas.Screen,0_3_0_4_0_6,-999,skipped,,170815.79999995232,,,170806.10000002384,,170815.79999995232,2021-10-25T16:57:23.779Z,170842.495,1635180875,full,ni_sequenzen,NI_Sequenzen,7,4,,,,,,,,,,,,
,Move,canvas.Screen,0_3_0_4_0_7,-999,skipped,,170818.29999995232,,,170806.10000002384,,170818.29999995232,2021-10-25T16:57:23.782Z,170842.495,1635180875,full,ni_sequenzen,NI_Sequenzen,8,4,,,,,,,,,,,,
,Move,canvas.Screen,0_3_0_4_0_8,-999,skipped,,170820.10000002384,,,170806.10000002384,,170820.20000004768,2021-10-25T16:57:23.784Z,170842.495,1635180875,full,ni_sequenzen,NI_Sequenzen,9,4,,,,,,,,,,,,
,Move,canvas.Screen,0_3_0_4_0_9,-999,skipped,,170822.5,,,170806.10000002384,,170822.5,2021-10-25T16:57:23.786Z,170842.495,1635180875,full,ni_sequenzen,NI_Sequenzen,10,4,,,,,,,,,,,,
,Move,canvas.Screen,0_3_0_4_0_10,-999,skipped,,170825.29999995232,,,170806.10000002384,,170825.29999995232,2021-10-25T16:57:23.789Z,170842.495,1635180875,full,ni_sequenzen,NI_Sequenzen,11,4,,,,,,,,,,,,
,Move,canvas.Screen,0_3_0_4_0_11,-999,skipped,,170827.39999997616,,,170806.10000002384,,170827.5,2021-10-25T16:57:23.791Z,170842.495,1635180875,full,ni_sequenzen,NI_Sequenzen,12,4,,,,,,,,,,,,
,Move,canvas.Screen,0_3_0_4_0_12,-999,skipped,,170829.29999995232,,,170806.10000002384,,170829.39999997616,2021-10-25T16:57:23.793Z,170842.495,1635180875,full,ni_sequenzen,NI_Sequenzen,13,4,,,,,,,,,,,,
,Move,canvas.Screen,0_3_0_4_0_13,-999,skipped,,170831.79999995232,,,170806.10000002384,,170831.89999997616,2021-10-25T16:57:23.796Z,170842.495,1635180875,full,ni_sequenzen,NI_Sequenzen,14,4,,,,,,,,,,,,
,Move,canvas.Screen,0_3_0_4_0_14,-999,skipped,,170833.70000004768,,,170806.10000002384,,170833.79999995232,2021-10-25T16:57:23.797Z,170842.495,1635180875,full,ni_sequenzen,NI_Sequenzen,15,4,,,,,,,,,,,,
,Loop,flow.Loop,0_3_0_4_0,-999,completion,,163955.60000002384,163958.873,163975.541,170806.10000002384,6830.559000023844,170833.79999995232,2021-10-25T16:57:23.798Z,170842.495,1635180875,full,ni_sequenzen,NI_Sequenzen,,4,,,,,,,,,,,,
,Feedback,canvas.Screen,0_3_0_4_1,,timeout,,170836.5,170829.133,170842.495,174818.505,3992.464000000007,174821.39999997616,2021-10-25T16:57:27.785Z,174834.959,1635180875,full,ni_sequenzen,NI_Sequenzen,,4,,,,,,,,,,,,
,Trial,flow.Sequence,0_3_0_4,,completion,,163944.29999995232,163958.873,163975.541,174818.505,10842.964000000007,174821.60000002384,2021-10-25T16:57:27.785Z,174851.865,1635180875,full,ni_sequenzen,NI_Sequenzen,,4,,,,,,,,,,,,
,Move,canvas.Screen,0_3_0_5_0_0,left,response,,174835.5,174834.959,174851.865,176634.20000004768,1782.335000047693,176634.89999997616,2021-10-25T16:57:29.599Z,176647.596,1635180875,full,ni_sequenzen,NI_Sequenzen,1,5,,,,,,,,,,,,
,Move,canvas.Screen,0_3_0_5_0_1,down,response,,176641.70000004768,176635.308,176647.596,177828.29999995232,1180.7039999523258,177828.60000002384,2021-10-25T16:57:30.792Z,177836.868,1635180875,full,ni_sequenzen,NI_Sequenzen,2,5,,,,,,,,,,,,
,Move,canvas.Screen,0_3_0_5_0_2,down,response,,177830.89999997616,177814.546,177836.868,178282.60000002384,445.7320000238542,178283.20000004768,2021-10-25T16:57:31.247Z,178292.221,1635180875,full,ni_sequenzen,NI_Sequenzen,3,5,,,,,,,,,,,,
,Move,canvas.Screen,0_3_0_5_0_3,left,response,,178286,178270.461,178292.221,180452.70000004768,2160.4790000476933,180453.5,2021-10-25T16:57:33.417Z,180505.051,1635180875,full,ni_sequenzen,NI_Sequenzen,4,5,,,,,,,,,,,,
,Move,canvas.Screen,0_3_0_5_0_4,-999,skipped,,180458.5,,,180452.70000004768,,180458.60000002384,2021-10-25T16:57:33.422Z,180505.051,1635180875,full,ni_sequenzen,NI_Sequenzen,5,5,,,,,,,,,,,,
,Move,canvas.Screen,0_3_0_5_0_5,-999,skipped,,180460.5,,,180452.70000004768,,180460.60000002384,2021-10-25T16:57:33.424Z,180505.051,1635180875,full,ni_sequenzen,NI_Sequenzen,6,5,,,,,,,,,,,,
,Move,canvas.Screen,0_3_0_5_0_6,-999,skipped,,180466.89999997616,,,180452.70000004768,,180467,2021-10-25T16:57:33.431Z,180505.051,1635180875,full,ni_sequenzen,NI_Sequenzen,7,5,,,,,,,,,,,,
,Move,canvas.Screen,0_3_0_5_0_7,-999,skipped,,180472.29999995232,,,180452.70000004768,,180472.39999997616,2021-10-25T16:57:33.436Z,180505.051,1635180875,full,ni_sequenzen,NI_Sequenzen,8,5,,,,,,,,,,,,
,Move,canvas.Screen,0_3_0_5_0_8,-999,skipped,,180477.39999997616,,,180452.70000004768,,180477.5,2021-10-25T16:57:33.441Z,180505.051,1635180875,full,ni_sequenzen,NI_Sequenzen,9,5,,,,,,,,,,,,
,Move,canvas.Screen,0_3_0_5_0_9,-999,skipped,,180483.89999997616,,,180452.70000004768,,180484,2021-10-25T16:57:33.448Z,180505.051,1635180875,full,ni_sequenzen,NI_Sequenzen,10,5,,,,,,,,,,,,
,Move,canvas.Screen,0_3_0_5_0_10,-999,skipped,,180487.39999997616,,,180452.70000004768,,180487.39999997616,2021-10-25T16:57:33.451Z,180505.051,1635180875,full,ni_sequenzen,NI_Sequenzen,11,5,,,,,,,,,,,,
,Move,canvas.Screen,0_3_0_5_0_11,-999,skipped,,180489.29999995232,,,180452.70000004768,,180489.29999995232,2021-10-25T16:57:33.453Z,180505.051,1635180875,full,ni_sequenzen,NI_Sequenzen,12,5,,,,,,,,,,,,
,Move,canvas.Screen,0_3_0_5_0_12,-999,skipped,,180491.20000004768,,,180452.70000004768,,180491.29999995232,2021-10-25T16:57:33.455Z,180505.051,1635180875,full,ni_sequenzen,NI_Sequenzen,13,5,,,,,,,,,,,,
,Move,canvas.Screen,0_3_0_5_0_13,-999,skipped,,180494.10000002384,,,180452.70000004768,,180494.10000002384,2021-10-25T16:57:33.458Z,180505.051,1635180875,full,ni_sequenzen,NI_Sequenzen,14,5,,,,,,,,,,,,
,Move,canvas.Screen,0_3_0_5_0_14,-999,skipped,,180496.29999995232,,,180452.70000004768,,180496.29999995232,2021-10-25T16:57:33.460Z,180505.051,1635180875,full,ni_sequenzen,NI_Sequenzen,15,5,,,,,,,,,,,,
,Loop,flow.Loop,0_3_0_5_0,-999,completion,,174832.89999997616,174834.959,174851.865,180452.70000004768,5600.835000047693,180496.5,2021-10-25T16:57:33.460Z,180505.051,1635180875,full,ni_sequenzen,NI_Sequenzen,,5,,,,,,,,,,,,
,Feedback,canvas.Screen,0_3_0_5_1,,timeout,,180499.10000002384,180492.216,180505.051,184490.341,4001.6669999999867,184491.70000004768,2021-10-25T16:57:37.455Z,184506.718,1635180875,full,ni_sequenzen,NI_Sequenzen,,5,,,,,,,,,,,,
,Trial,flow.Sequence,0_3_0_5,,completion,,174822.10000002384,174834.959,174851.865,184490.341,9638.475999999995,184491.89999997616,2021-10-25T16:57:37.456Z,184523.743,1635180875,full,ni_sequenzen,NI_Sequenzen,,5,,,,,,,,,,,,
,Move,canvas.Screen,0_3_0_6_0_0,down,response,,184508.60000002384,184506.718,184523.743,185159.79999995232,636.0569999523286,185160.5,2021-10-25T16:57:38.124Z,185174.083,1635180875,full,ni_sequenzen,NI_Sequenzen,1,6,,,,,,,,,,,,
,Move,canvas.Screen,0_3_0_6_0_1,right,response,,185168.20000004768,185157.006,185174.083,187070.39999997616,1896.3169999761449,187071.20000004768,2021-10-25T16:57:40.035Z,187082.122,1635180875,full,ni_sequenzen,NI_Sequenzen,2,6,,,,,,,,,,,,
,Move,canvas.Screen,0_3_0_6_0_2,right,response,,187076,187074.401,187082.122,187546.39999997616,464.2779999761551,187547.20000004768,2021-10-25T16:57:40.511Z,187557.474,1635180875,full,ni_sequenzen,NI_Sequenzen,3,6,,,,,,,,,,,,
,Move,canvas.Screen,0_3_0_6_0_3,down,response,,187551.39999997616,187548.883,187557.474,188065.20000004768,507.7260000476963,188065.79999995232,2021-10-25T16:57:41.030Z,188125.159,1635180875,full,ni_sequenzen,NI_Sequenzen,4,6,,,,,,,,,,,,
,Move,canvas.Screen,0_3_0_6_0_4,-999,skipped,,188070.60000002384,,,188065.20000004768,,188070.79999995232,2021-10-25T16:57:41.034Z,188125.159,1635180875,full,ni_sequenzen,NI_Sequenzen,5,6,,,,,,,,,,,,
,Move,canvas.Screen,0_3_0_6_0_5,-999,skipped,,188093,,,188065.20000004768,,188093.10000002384,2021-10-25T16:57:41.057Z,188125.159,1635180875,full,ni_sequenzen,NI_Sequenzen,6,6,,,,,,,,,,,,
,Move,canvas.Screen,0_3_0_6_0_6,-999,skipped,,188096.39999997616,,,188065.20000004768,,188096.60000002384,2021-10-25T16:57:41.060Z,188125.159,1635180875,full,ni_sequenzen,NI_Sequenzen,7,6,,,,,,,,,,,,
,Move,canvas.Screen,0_3_0_6_0_7,-999,skipped,,188099.10000002384,,,188065.20000004768,,188099.20000004768,2021-10-25T16:57:41.063Z,188125.159,1635180875,full,ni_sequenzen,NI_Sequenzen,8,6,,,,,,,,,,,,
,Move,canvas.Screen,0_3_0_6_0_8,-999,skipped,,188102.5,,,188065.20000004768,,188102.60000002384,2021-10-25T16:57:41.066Z,188125.159,1635180875,full,ni_sequenzen,NI_Sequenzen,9,6,,,,,,,,,,,,
,Move,canvas.Screen,0_3_0_6_0_9,-999,skipped,,188104.60000002384,,,188065.20000004768,,188104.70000004768,2021-10-25T16:57:41.068Z,188125.159,1635180875,full,ni_sequenzen,NI_Sequenzen,10,6,,,,,,,,,,,,
,Move,canvas.Screen,0_3_0_6_0_10,-999,skipped,,188107,,,188065.20000004768,,188107.10000002384,2021-10-25T16:57:41.071Z,188125.159,1635180875,full,ni_sequenzen,NI_Sequenzen,11,6,,,,,,,,,,,,
,Move,canvas.Screen,0_3_0_6_0_11,-999,skipped,,188109.70000004768,,,188065.20000004768,,188109.79999995232,2021-10-25T16:57:41.073Z,188125.159,1635180875,full,ni_sequenzen,NI_Sequenzen,12,6,,,,,,,,,,,,
,Move,canvas.Screen,0_3_0_6_0_12,-999,skipped,,188111.79999995232,,,188065.20000004768,,188111.89999997616,2021-10-25T16:57:41.076Z,188125.159,1635180875,full,ni_sequenzen,NI_Sequenzen,13,6,,,,,,,,,,,,
,Move,canvas.Screen,0_3_0_6_0_13,-999,skipped,,188114,,,188065.20000004768,,188114.10000002384,2021-10-25T16:57:41.078Z,188125.159,1635180875,full,ni_sequenzen,NI_Sequenzen,14,6,,,,,,,,,,,,
,Move,canvas.Screen,0_3_0_6_0_14,-999,skipped,,188116.60000002384,,,188065.20000004768,,188116.70000004768,2021-10-25T16:57:41.080Z,188125.159,1635180875,full,ni_sequenzen,NI_Sequenzen,15,6,,,,,,,,,,,,
,Loop,flow.Loop,0_3_0_6_0,-999,completion,,184505.20000004768,184506.718,184523.743,188065.20000004768,3541.457000047696,188116.70000004768,2021-10-25T16:57:41.080Z,188125.159,1635180875,full,ni_sequenzen,NI_Sequenzen,,6,,,,,,,,,,,,
,Feedback,canvas.Screen,0_3_0_6_1,,timeout,,188119.20000004768,188107.598,188125.159,192106.133,3997.3709999999846,192107.29999995232,2021-10-25T16:57:45.071Z,192122.53,1635180875,full,ni_sequenzen,NI_Sequenzen,,6,,,,,,,,,,,,
,Trial,flow.Sequence,0_3_0_6,,completion,,184493,184506.718,184523.743,192106.133,7582.390000000014,192107.60000002384,2021-10-25T16:57:45.071Z,192139.157,1635180875,full,ni_sequenzen,NI_Sequenzen,,6,,,,,,,,,,,,
,Move,canvas.Screen,0_3_0_7_0_0,down,response,,192138.20000004768,192122.53,192139.157,199420.20000004768,7281.043000047677,199421,2021-10-25T16:57:52.385Z,199431.683,1635180875,full,ni_sequenzen,NI_Sequenzen,1,7,,,,,,,,,,,,
,Move,canvas.Screen,0_3_0_7_0_1,right,response,,199425.5,199422.344,199431.683,200429.29999995232,997.6169999523263,200430.10000002384,2021-10-25T16:57:53.394Z,200458.152,1635180875,full,ni_sequenzen,NI_Sequenzen,2,7,,,,,,,,,,,,
,Move,canvas.Screen,0_3_0_7_0_2,right,response,,200435.5,200431.749,200458.152,200929,470.84799999999814,200929.70000004768,2021-10-25T16:57:53.893Z,200939.69,1635180875,full,ni_sequenzen,NI_Sequenzen,3,7,,,,,,,,,,,,
,Move,canvas.Screen,0_3_0_7_0_3,down,response,,200933.70000004768,200925.204,200939.69,201381.29999995232,441.60999995231396,201382.39999997616,2021-10-25T16:57:54.346Z,201418.237,1635180875,full,ni_sequenzen,NI_Sequenzen,4,7,,,,,,,,,,,,
,Move,canvas.Screen,0_3_0_7_0_4,-999,skipped,,201386.5,,,201381.29999995232,,201386.60000002384,2021-10-25T16:57:54.350Z,201418.237,1635180875,full,ni_sequenzen,NI_Sequenzen,5,7,,,,,,,,,,,,
,Move,canvas.Screen,0_3_0_7_0_5,-999,skipped,,201388.5,,,201381.29999995232,,201388.5,2021-10-25T16:57:54.352Z,201418.237,1635180875,full,ni_sequenzen,NI_Sequenzen,6,7,,,,,,,,,,,,
,Move,canvas.Screen,0_3_0_7_0_6,-999,skipped,,201390.5,,,201381.29999995232,,201390.60000002384,2021-10-25T16:57:54.354Z,201418.237,1635180875,full,ni_sequenzen,NI_Sequenzen,7,7,,,,,,,,,,,,
,Move,canvas.Screen,0_3_0_7_0_7,-999,skipped,,201393.10000002384,,,201381.29999995232,,201393.20000004768,2021-10-25T16:57:54.357Z,201418.237,1635180875,full,ni_sequenzen,NI_Sequenzen,8,7,,,,,,,,,,,,
,Move,canvas.Screen,0_3_0_7_0_8,-999,skipped,,201395.10000002384,,,201381.29999995232,,201395.20000004768,2021-10-25T16:57:54.359Z,201418.237,1635180875,full,ni_sequenzen,NI_Sequenzen,9,7,,,,,,,,,,,,
,Move,canvas.Screen,0_3_0_7_0_9,-999,skipped,,201397.10000002384,,,201381.29999995232,,201397.20000004768,2021-10-25T16:57:54.361Z,201418.237,1635180875,full,ni_sequenzen,NI_Sequenzen,10,7,,,,,,,,,,,,
,Move,canvas.Screen,0_3_0_7_0_10,-999,skipped,,201399.60000002384,,,201381.29999995232,,201399.70000004768,2021-10-25T16:57:54.363Z,201418.237,1635180875,full,ni_sequenzen,NI_Sequenzen,11,7,,,,,,,,,,,,
,Move,canvas.Screen,0_3_0_7_0_11,-999,skipped,,201401.5,,,201381.29999995232,,201401.60000002384,2021-10-25T16:57:54.365Z,201418.237,1635180875,full,ni_sequenzen,NI_Sequenzen,12,7,,,,,,,,,,,,
,Move,canvas.Screen,0_3_0_7_0_12,-999,skipped,,201403.79999995232,,,201381.29999995232,,201404,2021-10-25T16:57:54.368Z,201418.237,1635180875,full,ni_sequenzen,NI_Sequenzen,13,7,,,,,,,,,,,,
,Move,canvas.Screen,0_3_0_7_0_13,-999,skipped,,201407.20000004768,,,201381.29999995232,,201407.29999995232,2021-10-25T16:57:54.371Z,201418.237,1635180875,full,ni_sequenzen,NI_Sequenzen,14,7,,,,,,,,,,,,
,Move,canvas.Screen,0_3_0_7_0_14,-999,skipped,,201409.10000002384,,,201381.29999995232,,201409.20000004768,2021-10-25T16:57:54.373Z,201418.237,1635180875,full,ni_sequenzen,NI_Sequenzen,15,7,,,,,,,,,,,,
,Loop,flow.Loop,0_3_0_7_0,-999,completion,,192132.70000004768,192122.53,192139.157,201381.29999995232,9242.14299995231,201409.29999995232,2021-10-25T16:57:54.373Z,201418.237,1635180875,full,ni_sequenzen,NI_Sequenzen,,7,,,,,,,,,,,,
,Feedback,canvas.Screen,0_3_0_7_1,,timeout,,201412,201406.65,201418.237,205396.387,3994.6210000000137,205399.60000002384,2021-10-25T16:57:58.363Z,205412.858,1635180875,full,ni_sequenzen,NI_Sequenzen,,7,,,,,,,,,,,,
,Trial,flow.Sequence,0_3_0_7,,completion,,192108.20000004768,192122.53,192139.157,205396.387,13257.229999999981,205399.79999995232,2021-10-25T16:57:58.363Z,205429.815,1635180875,full,ni_sequenzen,NI_Sequenzen,,7,,,,,,,,,,,,
,Move,canvas.Screen,0_3_0_8_0_0,down,response,,205413.89999997616,205412.858,205429.815,207015.10000002384,1585.2850000238395,207015.89999997616,2021-10-25T16:57:59.980Z,207043.244,1635180875,full,ni_sequenzen,NI_Sequenzen,1,8,,,,,,,,,,,,
,Move,canvas.Screen,0_3_0_8_0_1,right,response,,207020.60000002384,207013.041,207043.244,207671.5,628.255999999994,207672.29999995232,2021-10-25T16:58:00.636Z,207682.511,1635180875,full,ni_sequenzen,NI_Sequenzen,2,8,,,,,,,,,,,,
,Move,canvas.Screen,0_3_0_8_0_2,right,response,,207676.60000002384,207676.576,207682.511,208008.60000002384,326.08900002384325,208009.39999997616,2021-10-25T16:58:00.973Z,208019.909,1635180875,full,ni_sequenzen,NI_Sequenzen,3,8,,,,,,,,,,,,
,Move,canvas.Screen,0_3_0_8_0_3,down,response,,208013.70000004768,207999.552,208019.909,208370.89999997616,350.99099997614394,208371.39999997616,2021-10-25T16:58:01.335Z,208407.437,1635180875,full,ni_sequenzen,NI_Sequenzen,4,8,,,,,,,,,,,,
,Move,canvas.Screen,0_3_0_8_0_4,-999,skipped,,208374.70000004768,,,208370.89999997616,,208374.70000004768,2021-10-25T16:58:01.338Z,208407.437,1635180875,full,ni_sequenzen,NI_Sequenzen,5,8,,,,,,,,,,,,
,Move,canvas.Screen,0_3_0_8_0_5,-999,skipped,,208377.20000004768,,,208370.89999997616,,208377.39999997616,2021-10-25T16:58:01.341Z,208407.437,1635180875,full,ni_sequenzen,NI_Sequenzen,6,8,,,,,,,,,,,,
,Move,canvas.Screen,0_3_0_8_0_6,-999,skipped,,208380.20000004768,,,208370.89999997616,,208380.29999995232,2021-10-25T16:58:01.344Z,208407.437,1635180875,full,ni_sequenzen,NI_Sequenzen,7,8,,,,,,,,,,,,
,Move,canvas.Screen,0_3_0_8_0_7,-999,skipped,,208382.5,,,208370.89999997616,,208382.5,2021-10-25T16:58:01.346Z,208407.437,1635180875,full,ni_sequenzen,NI_Sequenzen,8,8,,,,,,,,,,,,
,Move,canvas.Screen,0_3_0_8_0_8,-999,skipped,,208384.70000004768,,,208370.89999997616,,208384.79999995232,2021-10-25T16:58:01.348Z,208407.437,1635180875,full,ni_sequenzen,NI_Sequenzen,9,8,,,,,,,,,,,,
,Move,canvas.Screen,0_3_0_8_0_9,-999,skipped,,208387.39999997616,,,208370.89999997616,,208387.39999997616,2021-10-25T16:58:01.351Z,208407.437,1635180875,full,ni_sequenzen,NI_Sequenzen,10,8,,,,,,,,,,,,
,Move,canvas.Screen,0_3_0_8_0_10,-999,skipped,,208390,,,208370.89999997616,,208390,2021-10-25T16:58:01.354Z,208407.437,1635180875,full,ni_sequenzen,NI_Sequenzen,11,8,,,,,,,,,,,,
,Move,canvas.Screen,0_3_0_8_0_11,-999,skipped,,208391.89999997616,,,208370.89999997616,,208391.89999997616,2021-10-25T16:58:01.356Z,208407.437,1635180875,full,ni_sequenzen,NI_Sequenzen,12,8,,,,,,,,,,,,
,Move,canvas.Screen,0_3_0_8_0_12,-999,skipped,,208393.70000004768,,,208370.89999997616,,208393.79999995232,2021-10-25T16:58:01.358Z,208407.437,1635180875,full,ni_sequenzen,NI_Sequenzen,13,8,,,,,,,,,,,,
,Move,canvas.Screen,0_3_0_8_0_13,-999,skipped,,208396.20000004768,,,208370.89999997616,,208396.29999995232,2021-10-25T16:58:01.360Z,208407.437,1635180875,full,ni_sequenzen,NI_Sequenzen,14,8,,,,,,,,,,,,
