meta,sender,sender_type,sender_id,response,ended_on,instrCount,time_run,time_render,time_show,time_end,duration,time_commit,timestamp,time_switch,openLabId,type,task,project,move,trialN,blockN_Train,blockN,moveCount,currPP,points,movesTrial,visitedFields,diff,reward,Strategie,Zweck,Probleme
[object Object],Screen_1,canvas.Screen,0_0_0_0,cont,response,1,2815,2815.46,2874.44,11721,8846.56,11735,2021-10-27T19:36:50.144Z,11923.34,1635363393,full,ni_sequenzen,NI_Sequenzen,,,,,,,,,,,,,,
,Screen_2,canvas.Screen,0_0_0_1,cont,response,1,11890,11889.6,11923.34,23862,11938.66,23876,2021-10-27T19:37:02.284Z,24005.1,1635363393,full,ni_sequenzen,NI_Sequenzen,,,,,,,,,,,,,,
,Screen_3,canvas.Screen,0_0_0_2,cont,response,1,23994,23994.36,24005.1,45940,21934.9,45945,2021-10-27T19:37:24.353Z,45952.04,1635363393,full,ni_sequenzen,NI_Sequenzen,,,,,,,,,,,,,,
,Screen_4,canvas.Screen,0_0_0_3,back,response,1,45951,45951.78,45952.04,51815,5862.959999999999,51821,2021-10-27T19:37:30.230Z,51845.22,1635363393,full,ni_sequenzen,NI_Sequenzen,,,,,,,,,,,,,,
,Sequence,flow.Sequence,0_0_0,,completion,1,2670,2815.46,2874.44,51815,48940.56,51823,2021-10-27T19:37:30.231Z,51845.22,1635363393,full,ni_sequenzen,NI_Sequenzen,,,,,,,,,,,,,,
,Screen_1,canvas.Screen,0_0_1_0,,skipped,2,51831,,,51831,,51832,2021-10-27T19:37:30.240Z,51845.22,1635363393,full,ni_sequenzen,NI_Sequenzen,,,,,,,,,,,,,,
,Screen_2,canvas.Screen,0_0_1_1,,skipped,2,51839,,,51831,,51839,2021-10-27T19:37:30.248Z,51845.22,1635363393,full,ni_sequenzen,NI_Sequenzen,,,,,,,,,,,,,,
,Screen_3,canvas.Screen,0_0_1_2,cont,response,2,51845,51844.66,51845.22,54737,2891.779999999999,54745,2021-10-27T19:37:33.152Z,54753.72,1635363393,full,ni_sequenzen,NI_Sequenzen,,,,,,,,,,,,,,
,Screen_4,canvas.Screen,0_0_1_3,cont,response,2,54753,54753.1,54753.72,55706,952.2799999999988,55712,2021-10-27T19:37:34.120Z,56022.02,1635363393,full,ni_sequenzen,NI_Sequenzen,,,,,,,,,,,,,,
,Sequence,flow.Sequence,0_0_1,,completion,2,51827,51844.66,51845.22,55706,3860.779999999999,55714,2021-10-27T19:37:34.122Z,56022.02,1635363393,full,ni_sequenzen,NI_Sequenzen,,,,,,,,,,,,,,
,Screen_1,canvas.Screen,0_0_2_0,,skipped,3,55723,,,55723,,55724,2021-10-27T19:37:34.132Z,56022.02,1635363393,full,ni_sequenzen,NI_Sequenzen,,,,,,,,,,,,,,
,Screen_2,canvas.Screen,0_0_2_1,,skipped,3,55731,,,55723,,55732,2021-10-27T19:37:34.140Z,56022.02,1635363393,full,ni_sequenzen,NI_Sequenzen,,,,,,,,,,,,,,
,Screen_3,canvas.Screen,0_0_2_2,,skipped,3,55738,,,55723,,55738,2021-10-27T19:37:34.146Z,56022.02,1635363393,full,ni_sequenzen,NI_Sequenzen,,,,,,,,,,,,,,
,Screen_4,canvas.Screen,0_0_2_3,,skipped,3,55744,,,55723,,55744,2021-10-27T19:37:34.153Z,56022.02,1635363393,full,ni_sequenzen,NI_Sequenzen,,,,,,,,,,,,,,
,Sequence,flow.Sequence,0_0_2,,completion,3,55717,,,55723,,55744,2021-10-27T19:37:34.153Z,56022.02,1635363393,full,ni_sequenzen,NI_Sequenzen,,,,,,,,,,,,,,
,Screen_1,canvas.Screen,0_0_3_0,,skipped,4,55752,,,55752,,55752,2021-10-27T19:37:34.160Z,56022.02,1635363393,full,ni_sequenzen,NI_Sequenzen,,,,,,,,,,,,,,
,Screen_2,canvas.Screen,0_0_3_1,,skipped,4,55756,,,55752,,55756,2021-10-27T19:37:34.165Z,56022.02,1635363393,full,ni_sequenzen,NI_Sequenzen,,,,,,,,,,,,,,
,Screen_3,canvas.Screen,0_0_3_2,,skipped,4,55761,,,55752,,55761,2021-10-27T19:37:34.170Z,56022.02,1635363393,full,ni_sequenzen,NI_Sequenzen,,,,,,,,,,,,,,
,Screen_4,canvas.Screen,0_0_3_3,,skipped,4,55769,,,55752,,55769,2021-10-27T19:37:34.177Z,56022.02,1635363393,full,ni_sequenzen,NI_Sequenzen,,,,,,,,,,,,,,
,Sequence,flow.Sequence,0_0_3,,completion,4,55746,,,55752,,55770,2021-10-27T19:37:34.177Z,56022.02,1635363393,full,ni_sequenzen,NI_Sequenzen,,,,,,,,,,,,,,
,Screen_1,canvas.Screen,0_0_4_0,,skipped,5,55776,,,55776,,55776,2021-10-27T19:37:34.184Z,56022.02,1635363393,full,ni_sequenzen,NI_Sequenzen,,,,,,,,,,,,,,
,Screen_2,canvas.Screen,0_0_4_1,,skipped,5,55780,,,55776,,55780,2021-10-27T19:37:34.188Z,56022.02,1635363393,full,ni_sequenzen,NI_Sequenzen,,,,,,,,,,,,,,
,Screen_3,canvas.Screen,0_0_4_2,,skipped,5,55784,,,55776,,55784,2021-10-27T19:37:34.192Z,56022.02,1635363393,full,ni_sequenzen,NI_Sequenzen,,,,,,,,,,,,,,
,Screen_4,canvas.Screen,0_0_4_3,,skipped,5,55791,,,55776,,55791,2021-10-27T19:37:34.199Z,56022.02,1635363393,full,ni_sequenzen,NI_Sequenzen,,,,,,,,,,,,,,
,Sequence,flow.Sequence,0_0_4,,completion,5,55772,,,55776,,55792,2021-10-27T19:37:34.200Z,56022.02,1635363393,full,ni_sequenzen,NI_Sequenzen,,,,,,,,,,,,,,
,Screen_1,canvas.Screen,0_0_5_0,,skipped,6,55798,,,55798,,55798,2021-10-27T19:37:34.206Z,56022.02,1635363393,full,ni_sequenzen,NI_Sequenzen,,,,,,,,,,,,,,
,Screen_2,canvas.Screen,0_0_5_1,,skipped,6,55802,,,55798,,55802,2021-10-27T19:37:34.210Z,56022.02,1635363393,full,ni_sequenzen,NI_Sequenzen,,,,,,,,,,,,,,
,Screen_3,canvas.Screen,0_0_5_2,,skipped,6,55806,,,55798,,55806,2021-10-27T19:37:34.214Z,56022.02,1635363393,full,ni_sequenzen,NI_Sequenzen,,,,,,,,,,,,,,
,Screen_4,canvas.Screen,0_0_5_3,,skipped,6,55812,,,55798,,55812,2021-10-27T19:37:34.221Z,56022.02,1635363393,full,ni_sequenzen,NI_Sequenzen,,,,,,,,,,,,,,
,Sequence,flow.Sequence,0_0_5,,completion,6,55794,,,55798,,55813,2021-10-27T19:37:34.221Z,56022.02,1635363393,full,ni_sequenzen,NI_Sequenzen,,,,,,,,,,,,,,
,Screen_1,canvas.Screen,0_0_6_0,,skipped,7,55819,,,55819,,55819,2021-10-27T19:37:34.227Z,56022.02,1635363393,full,ni_sequenzen,NI_Sequenzen,,,,,,,,,,,,,,
,Screen_2,canvas.Screen,0_0_6_1,,skipped,7,55822,,,55819,,55822,2021-10-27T19:37:34.231Z,56022.02,1635363393,full,ni_sequenzen,NI_Sequenzen,,,,,,,,,,,,,,
,Screen_3,canvas.Screen,0_0_6_2,,skipped,7,55826,,,55819,,55826,2021-10-27T19:37:34.234Z,56022.02,1635363393,full,ni_sequenzen,NI_Sequenzen,,,,,,,,,,,,,,
,Screen_4,canvas.Screen,0_0_6_3,,skipped,7,55830,,,55819,,55830,2021-10-27T19:37:34.238Z,56022.02,1635363393,full,ni_sequenzen,NI_Sequenzen,,,,,,,,,,,,,,
,Sequence,flow.Sequence,0_0_6,,completion,7,55815,,,55819,,55831,2021-10-27T19:37:34.239Z,56022.02,1635363393,full,ni_sequenzen,NI_Sequenzen,,,,,,,,,,,,,,
,Screen_1,canvas.Screen,0_0_7_0,,skipped,8,55836,,,55836,,55836,2021-10-27T19:37:34.244Z,56022.02,1635363393,full,ni_sequenzen,NI_Sequenzen,,,,,,,,,,,,,,
,Screen_2,canvas.Screen,0_0_7_1,,skipped,8,55839,,,55836,,55840,2021-10-27T19:37:34.247Z,56022.02,1635363393,full,ni_sequenzen,NI_Sequenzen,,,,,,,,,,,,,,
,Screen_3,canvas.Screen,0_0_7_2,,skipped,8,55844,,,55836,,55844,2021-10-27T19:37:34.253Z,56022.02,1635363393,full,ni_sequenzen,NI_Sequenzen,,,,,,,,,,,,,,
,Screen_4,canvas.Screen,0_0_7_3,,skipped,8,55849,,,55836,,55849,2021-10-27T19:37:34.258Z,56022.02,1635363393,full,ni_sequenzen,NI_Sequenzen,,,,,,,,,,,,,,
,Sequence,flow.Sequence,0_0_7,,completion,8,55833,,,55836,,55850,2021-10-27T19:37:34.258Z,56022.02,1635363393,full,ni_sequenzen,NI_Sequenzen,,,,,,,,,,,,,,
,Screen_1,canvas.Screen,0_0_8_0,,skipped,9,55855,,,55855,,55855,2021-10-27T19:37:34.263Z,56022.02,1635363393,full,ni_sequenzen,NI_Sequenzen,,,,,,,,,,,,,,
,Screen_2,canvas.Screen,0_0_8_1,,skipped,9,55858,,,55855,,55859,2021-10-27T19:37:34.267Z,56022.02,1635363393,full,ni_sequenzen,NI_Sequenzen,,,,,,,,,,,,,,
,Screen_3,canvas.Screen,0_0_8_2,,skipped,9,55863,,,55855,,55864,2021-10-27T19:37:34.273Z,56022.02,1635363393,full,ni_sequenzen,NI_Sequenzen,,,,,,,,,,,,,,
,Screen_4,canvas.Screen,0_0_8_3,,skipped,9,55869,,,55855,,55869,2021-10-27T19:37:34.278Z,56022.02,1635363393,full,ni_sequenzen,NI_Sequenzen,,,,,,,,,,,,,,
,Sequence,flow.Sequence,0_0_8,,completion,9,55851,,,55855,,55870,2021-10-27T19:37:34.278Z,56022.02,1635363393,full,ni_sequenzen,NI_Sequenzen,,,,,,,,,,,,,,
,Screen_1,canvas.Screen,0_0_9_0,,skipped,10,55875,,,55875,,55876,2021-10-27T19:37:34.284Z,56022.02,1635363393,full,ni_sequenzen,NI_Sequenzen,,,,,,,,,,,,,,
,Screen_2,canvas.Screen,0_0_9_1,,skipped,10,55879,,,55875,,55880,2021-10-27T19:37:34.288Z,56022.02,1635363393,full,ni_sequenzen,NI_Sequenzen,,,,,,,,,,,,,,
,Screen_3,canvas.Screen,0_0_9_2,,skipped,10,55884,,,55875,,55884,2021-10-27T19:37:34.292Z,56022.02,1635363393,full,ni_sequenzen,NI_Sequenzen,,,,,,,,,,,,,,
,Screen_4,canvas.Screen,0_0_9_3,,skipped,10,55887,,,55875,,55887,2021-10-27T19:37:34.296Z,56022.02,1635363393,full,ni_sequenzen,NI_Sequenzen,,,,,,,,,,,,,,
,Sequence,flow.Sequence,0_0_9,,completion,10,55872,,,55875,,55888,2021-10-27T19:37:34.297Z,56022.02,1635363393,full,ni_sequenzen,NI_Sequenzen,,,,,,,,,,,,,,
,Screen_1,canvas.Screen,0_0_10_0,,skipped,11,55893,,,55893,,55894,2021-10-27T19:37:34.302Z,56022.02,1635363393,full,ni_sequenzen,NI_Sequenzen,,,,,,,,,,,,,,
,Screen_2,canvas.Screen,0_0_10_1,,skipped,11,55899,,,55893,,55899,2021-10-27T19:37:34.307Z,56022.02,1635363393,full,ni_sequenzen,NI_Sequenzen,,,,,,,,,,,,,,
,Screen_3,canvas.Screen,0_0_10_2,,skipped,11,55903,,,55893,,55903,2021-10-27T19:37:34.311Z,56022.02,1635363393,full,ni_sequenzen,NI_Sequenzen,,,,,,,,,,,,,,
,Screen_4,canvas.Screen,0_0_10_3,,skipped,11,55908,,,55893,,55908,2021-10-27T19:37:34.316Z,56022.02,1635363393,full,ni_sequenzen,NI_Sequenzen,,,,,,,,,,,,,,
,Sequence,flow.Sequence,0_0_10,,completion,11,55889,,,55893,,55909,2021-10-27T19:37:34.317Z,56022.02,1635363393,full,ni_sequenzen,NI_Sequenzen,,,,,,,,,,,,,,
,Screen_1,canvas.Screen,0_0_11_0,,skipped,12,55913,,,55913,,55913,2021-10-27T19:37:34.321Z,56022.02,1635363393,full,ni_sequenzen,NI_Sequenzen,,,,,,,,,,,,,,
,Screen_2,canvas.Screen,0_0_11_1,,skipped,12,55916,,,55913,,55917,2021-10-27T19:37:34.325Z,56022.02,1635363393,full,ni_sequenzen,NI_Sequenzen,,,,,,,,,,,,,,
,Screen_3,canvas.Screen,0_0_11_2,,skipped,12,55921,,,55913,,55921,2021-10-27T19:37:34.329Z,56022.02,1635363393,full,ni_sequenzen,NI_Sequenzen,,,,,,,,,,,,,,
,Screen_4,canvas.Screen,0_0_11_3,,skipped,12,55925,,,55913,,55925,2021-10-27T19:37:34.334Z,56022.02,1635363393,full,ni_sequenzen,NI_Sequenzen,,,,,,,,,,,,,,
,Sequence,flow.Sequence,0_0_11,,completion,12,55910,,,55913,,55926,2021-10-27T19:37:34.334Z,56022.02,1635363393,full,ni_sequenzen,NI_Sequenzen,,,,,,,,,,,,,,
,Screen_1,canvas.Screen,0_0_12_0,,skipped,13,55930,,,55930,,55930,2021-10-27T19:37:34.339Z,56022.02,1635363393,full,ni_sequenzen,NI_Sequenzen,,,,,,,,,,,,,,
,Screen_2,canvas.Screen,0_0_12_1,,skipped,13,55933,,,55930,,55933,2021-10-27T19:37:34.342Z,56022.02,1635363393,full,ni_sequenzen,NI_Sequenzen,,,,,,,,,,,,,,
,Screen_3,canvas.Screen,0_0_12_2,,skipped,13,55938,,,55930,,55939,2021-10-27T19:37:34.347Z,56022.02,1635363393,full,ni_sequenzen,NI_Sequenzen,,,,,,,,,,,,,,
,Screen_4,canvas.Screen,0_0_12_3,,skipped,13,55944,,,55930,,55944,2021-10-27T19:37:34.352Z,56022.02,1635363393,full,ni_sequenzen,NI_Sequenzen,,,,,,,,,,,,,,
,Sequence,flow.Sequence,0_0_12,,completion,13,55927,,,55930,,55945,2021-10-27T19:37:34.353Z,56022.02,1635363393,full,ni_sequenzen,NI_Sequenzen,,,,,,,,,,,,,,
,Screen_1,canvas.Screen,0_0_13_0,,skipped,14,55951,,,55951,,55951,2021-10-27T19:37:34.359Z,56022.02,1635363393,full,ni_sequenzen,NI_Sequenzen,,,,,,,,,,,,,,
,Screen_2,canvas.Screen,0_0_13_1,,skipped,14,55954,,,55951,,55954,2021-10-27T19:37:34.363Z,56022.02,1635363393,full,ni_sequenzen,NI_Sequenzen,,,,,,,,,,,,,,
,Screen_3,canvas.Screen,0_0_13_2,,skipped,14,55958,,,55951,,55958,2021-10-27T19:37:34.367Z,56022.02,1635363393,full,ni_sequenzen,NI_Sequenzen,,,,,,,,,,,,,,
,Screen_4,canvas.Screen,0_0_13_3,,skipped,14,55961,,,55951,,55961,2021-10-27T19:37:34.370Z,56022.02,1635363393,full,ni_sequenzen,NI_Sequenzen,,,,,,,,,,,,,,
,Sequence,flow.Sequence,0_0_13,,completion,14,55947,,,55951,,55962,2021-10-27T19:37:34.370Z,56022.02,1635363393,full,ni_sequenzen,NI_Sequenzen,,,,,,,,,,,,,,
,Screen_1,canvas.Screen,0_0_14_0,,skipped,15,55965,,,55965,,55965,2021-10-27T19:37:34.373Z,56022.02,1635363393,full,ni_sequenzen,NI_Sequenzen,,,,,,,,,,,,,,
,Screen_2,canvas.Screen,0_0_14_1,,skipped,15,55968,,,55965,,55968,2021-10-27T19:37:34.376Z,56022.02,1635363393,full,ni_sequenzen,NI_Sequenzen,,,,,,,,,,,,,,
,Screen_3,canvas.Screen,0_0_14_2,,skipped,15,55970,,,55965,,55970,2021-10-27T19:37:34.378Z,56022.02,1635363393,full,ni_sequenzen,NI_Sequenzen,,,,,,,,,,,,,,
,Screen_4,canvas.Screen,0_0_14_3,,skipped,15,55972,,,55965,,55972,2021-10-27T19:37:34.380Z,56022.02,1635363393,full,ni_sequenzen,NI_Sequenzen,,,,,,,,,,,,,,
,Sequence,flow.Sequence,0_0_14,,completion,15,55963,,,55965,,55972,2021-10-27T19:37:34.380Z,56022.02,1635363393,full,ni_sequenzen,NI_Sequenzen,,,,,,,,,,,,,,
,Screen_1,canvas.Screen,0_0_15_0,,skipped,16,55975,,,55975,,55975,2021-10-27T19:37:34.384Z,56022.02,1635363393,full,ni_sequenzen,NI_Sequenzen,,,,,,,,,,,,,,
,Screen_2,canvas.Screen,0_0_15_1,,skipped,16,55977,,,55975,,55977,2021-10-27T19:37:34.385Z,56022.02,1635363393,full,ni_sequenzen,NI_Sequenzen,,,,,,,,,,,,,,
,Screen_3,canvas.Screen,0_0_15_2,,skipped,16,55979,,,55975,,55979,2021-10-27T19:37:34.387Z,56022.02,1635363393,full,ni_sequenzen,NI_Sequenzen,,,,,,,,,,,,,,
,Screen_4,canvas.Screen,0_0_15_3,,skipped,16,55980,,,55975,,55980,2021-10-27T19:37:34.389Z,56022.02,1635363393,full,ni_sequenzen,NI_Sequenzen,,,,,,,,,,,,,,
,Sequence,flow.Sequence,0_0_15,,completion,16,55974,,,55975,,55980,2021-10-27T19:37:34.389Z,56022.02,1635363393,full,ni_sequenzen,NI_Sequenzen,,,,,,,,,,,,,,
,Screen_1,canvas.Screen,0_0_16_0,,skipped,17,55983,,,55983,,55983,2021-10-27T19:37:34.392Z,56022.02,1635363393,full,ni_sequenzen,NI_Sequenzen,,,,,,,,,,,,,,
,Screen_2,canvas.Screen,0_0_16_1,,skipped,17,55984,,,55983,,55984,2021-10-27T19:37:34.393Z,56022.02,1635363393,full,ni_sequenzen,NI_Sequenzen,,,,,,,,,,,,,,
,Screen_3,canvas.Screen,0_0_16_2,,skipped,17,55986,,,55983,,55986,2021-10-27T19:37:34.395Z,56022.02,1635363393,full,ni_sequenzen,NI_Sequenzen,,,,,,,,,,,,,,
,Screen_4,canvas.Screen,0_0_16_3,,skipped,17,55989,,,55983,,55989,2021-10-27T19:37:34.397Z,56022.02,1635363393,full,ni_sequenzen,NI_Sequenzen,,,,,,,,,,,,,,
,Sequence,flow.Sequence,0_0_16,,completion,17,55981,,,55983,,55989,2021-10-27T19:37:34.397Z,56022.02,1635363393,full,ni_sequenzen,NI_Sequenzen,,,,,,,,,,,,,,
,Screen_1,canvas.Screen,0_0_17_0,,skipped,18,55990,,,55990,,55990,2021-10-27T19:37:34.398Z,56022.02,1635363393,full,ni_sequenzen,NI_Sequenzen,,,,,,,,,,,,,,
,Screen_2,canvas.Screen,0_0_17_1,,skipped,18,55992,,,55990,,55992,2021-10-27T19:37:34.400Z,56022.02,1635363393,full,ni_sequenzen,NI_Sequenzen,,,,,,,,,,,,,,
,Screen_3,canvas.Screen,0_0_17_2,,skipped,18,55993,,,55990,,55993,2021-10-27T19:37:34.402Z,56022.02,1635363393,full,ni_sequenzen,NI_Sequenzen,,,,,,,,,,,,,,
,Screen_4,canvas.Screen,0_0_17_3,,skipped,18,55994,,,55990,,55994,2021-10-27T19:37:34.403Z,56022.02,1635363393,full,ni_sequenzen,NI_Sequenzen,,,,,,,,,,,,,,
,Sequence,flow.Sequence,0_0_17,,completion,18,55989,,,55990,,55994,2021-10-27T19:37:34.403Z,56022.02,1635363393,full,ni_sequenzen,NI_Sequenzen,,,,,,,,,,,,,,
,Screen_1,canvas.Screen,0_0_18_0,,skipped,19,55996,,,55996,,55996,2021-10-27T19:37:34.404Z,56022.02,1635363393,full,ni_sequenzen,NI_Sequenzen,,,,,,,,,,,,,,
,Screen_2,canvas.Screen,0_0_18_1,,skipped,19,55997,,,55996,,55997,2021-10-27T19:37:34.405Z,56022.02,1635363393,full,ni_sequenzen,NI_Sequenzen,,,,,,,,,,,,,,
,Screen_3,canvas.Screen,0_0_18_2,,skipped,19,55999,,,55996,,55999,2021-10-27T19:37:34.407Z,56022.02,1635363393,full,ni_sequenzen,NI_Sequenzen,,,,,,,,,,,,,,
,Screen_4,canvas.Screen,0_0_18_3,,skipped,19,56000,,,55996,,56000,2021-10-27T19:37:34.408Z,56022.02,1635363393,full,ni_sequenzen,NI_Sequenzen,,,,,,,,,,,,,,
,Sequence,flow.Sequence,0_0_18,,completion,19,55995,,,55996,,56000,2021-10-27T19:37:34.408Z,56022.02,1635363393,full,ni_sequenzen,NI_Sequenzen,,,,,,,,,,,,,,
,Screen_1,canvas.Screen,0_0_19_0,,skipped,20,56001,,,56001,,56002,2021-10-27T19:37:34.410Z,56022.02,1635363393,full,ni_sequenzen,NI_Sequenzen,,,,,,,,,,,,,,
,Screen_2,canvas.Screen,0_0_19_1,,skipped,20,56003,,,56001,,56003,2021-10-27T19:37:34.411Z,56022.02,1635363393,full,ni_sequenzen,NI_Sequenzen,,,,,,,,,,,,,,
,Screen_3,canvas.Screen,0_0_19_2,,skipped,20,56004,,,56001,,56004,2021-10-27T19:37:34.412Z,56022.02,1635363393,full,ni_sequenzen,NI_Sequenzen,,,,,,,,,,,,,,
,Screen_4,canvas.Screen,0_0_19_3,,skipped,20,56005,,,56001,,56005,2021-10-27T19:37:34.413Z,56022.02,1635363393,full,ni_sequenzen,NI_Sequenzen,,,,,,,,,,,,,,
,Sequence,flow.Sequence,0_0_19,,completion,20,56001,,,56001,,56005,2021-10-27T19:37:34.414Z,56022.02,1635363393,full,ni_sequenzen,NI_Sequenzen,,,,,,,,,,,,,,
,Instructions_I,flow.Loop,0_0,,completion,,2667,2815.46,2874.44,56001,53126.56,56006,2021-10-27T19:37:34.414Z,56022.02,1635363393,full,ni_sequenzen,NI_Sequenzen,,,,,,,,,,,,,,
,Move,canvas.Screen,0_1_0_0,left,response,,56022,56021.8,56022.02,58861,2838.980000000003,58875,2021-10-27T19:37:37.283Z,58888.78,1635363393,full,ni_sequenzen,NI_Sequenzen,1,,,,,,,,,,,,,
,Move,canvas.Screen,0_1_0_1,right,response,,58889,58888.24,58888.78,59659,770.2200000000012,59672,2021-10-27T19:37:38.080Z,59686.56,1635363393,full,ni_sequenzen,NI_Sequenzen,2,,,,,,,,,,,,,
,Move,canvas.Screen,0_1_0_2,down,response,,59686,59686.02,59686.56,60564,877.4400000000023,60578,2021-10-27T19:37:38.987Z,60616.98,1635363393,full,ni_sequenzen,NI_Sequenzen,3,,,,,,,,,,,,,
,Move,canvas.Screen,0_1_0_3,down,response,,60609,60608.94,60616.98,61253,636.0199999999968,61257,2021-10-27T19:37:39.666Z,61272.66,1635363393,full,ni_sequenzen,NI_Sequenzen,4,,,,,,,,,,,,,
,Move,canvas.Screen,0_1_0_4,down,response,,61272,61272.06,61272.66,61548,275.3399999999965,61555,2021-10-27T19:37:39.963Z,61575.04,1635363393,full,ni_sequenzen,NI_Sequenzen,5,,,,,,,,,,,,,
,Move,canvas.Screen,0_1_0_5,left,response,,61574,61574.48,61575.04,62142,566.9599999999991,62153,2021-10-27T19:37:40.562Z,62169.5,1635363393,full,ni_sequenzen,NI_Sequenzen,6,,,,,,,,,,,,,
,Move,canvas.Screen,0_1_0_6,right,response,,62169,62168.92,62169.5,62940,770.5,62950,2021-10-27T19:37:41.359Z,62966.72,1635363393,full,ni_sequenzen,NI_Sequenzen,7,,,,,,,,,,,,,
,Move,canvas.Screen,0_1_0_7,right,response,,62965,62965.02,62966.72,63565,598.2799999999988,63584,2021-10-27T19:37:41.992Z,63600.12,1635363393,full,ni_sequenzen,NI_Sequenzen,8,,,,,,,,,,,,,
,Move,canvas.Screen,0_1_0_8,down,response,,63600,63599.52,63600.12,64284,683.8799999999974,64293,2021-10-27T19:37:42.701Z,64307.42,1635363393,full,ni_sequenzen,NI_Sequenzen,9,,,,,,,,,,,,,
,Move,canvas.Screen,0_1_0_9,down,response,,64307,64306.82,64307.42,64878,570.5800000000017,64883,2021-10-27T19:37:43.291Z,64899.78,1635363393,full,ni_sequenzen,NI_Sequenzen,10,,,,,,,,,,,,,
,Move,canvas.Screen,0_1_0_10,right,response,,64897,64896.76,64899.78,65205,305.22000000000116,65209,2021-10-27T19:37:43.618Z,65225.52,1635363393,full,ni_sequenzen,NI_Sequenzen,11,,,,,,,,,,,,,
,Move,canvas.Screen,0_1_0_11,left,response,,65225,65225.02,65225.52,65815,589.4800000000032,65820,2021-10-27T19:37:44.228Z,65834.9,1635363393,full,ni_sequenzen,NI_Sequenzen,12,,,,,,,,,,,,,
,Move,canvas.Screen,0_1_0_12,down,response,,65834,65834.38,65834.9,66565,730.1000000000058,66570,2021-10-27T19:37:44.978Z,66585.68,1635363393,full,ni_sequenzen,NI_Sequenzen,13,,,,,,,,,,,,,
,Move,canvas.Screen,0_1_0_13,down,response,,66585,66585.18,66585.68,66878,292.320000000007,66894,2021-10-27T19:37:45.302Z,66907.24,1635363393,full,ni_sequenzen,NI_Sequenzen,14,,,,,,,,,,,,,
,Move,canvas.Screen,0_1_0_14,right,response,,66907,66906.66,66907.24,67315,407.75999999999476,67332,2021-10-27T19:37:45.741Z,67349.44,1635363393,full,ni_sequenzen,NI_Sequenzen,15,,,,,,,,,,,,,
,Move,canvas.Screen,0_1_0_15,left,response,,67345,67344.96,67349.44,67768,418.5599999999977,67784,2021-10-27T19:37:46.192Z,67804.08,1635363393,full,ni_sequenzen,NI_Sequenzen,16,,,,,,,,,,,,,
,Move,canvas.Screen,0_1_0_16,down,response,,67804,67803.22,67804.08,68690,885.9199999999983,68704,2021-10-27T19:37:47.113Z,68720.5,1635363393,full,ni_sequenzen,NI_Sequenzen,17,,,,,,,,,,,,,
,Move,canvas.Screen,0_1_0_17,down,response,,68720,68720.04,68720.5,69034,313.5,69050,2021-10-27T19:37:47.458Z,69061.62,1635363393,full,ni_sequenzen,NI_Sequenzen,18,,,,,,,,,,,,,
,Move,canvas.Screen,0_1_0_18,down,response,,69061,69061.02,69061.62,69581,519.3800000000047,69587,2021-10-27T19:37:47.995Z,69606.02,1635363393,full,ni_sequenzen,NI_Sequenzen,19,,,,,,,,,,,,,
,Move,canvas.Screen,0_1_0_19,right,response,,69605,69605.56,69606.02,70409,802.9799999999959,70421,2021-10-27T19:37:48.830Z,70433.42,1635363393,full,ni_sequenzen,NI_Sequenzen,20,,,,,,,,,,,,,
,Move,canvas.Screen,0_1_0_20,left,response,,70433,70432.86,70433.42,72424,1990.5800000000017,72429,2021-10-27T19:37:50.838Z,72436.02,1635363393,full,ni_sequenzen,NI_Sequenzen,21,,,,,,,,,,,,,
,Move,canvas.Screen,0_1_0_21,left,response,,72436,72435.74,72436.02,72862,425.9799999999959,72873,2021-10-27T19:37:51.281Z,72885.1,1635363393,full,ni_sequenzen,NI_Sequenzen,22,,,,,,,,,,,,,
,Move,canvas.Screen,0_1_0_22,down,response,,72885,72884.5,72885.1,73487,601.8999999999942,73500,2021-10-27T19:37:51.908Z,73515.3,1635363393,full,ni_sequenzen,NI_Sequenzen,23,,,,,,,,,,,,,
,Move,canvas.Screen,0_1_0_23,down,response,,73511,73511.22,73515.3,73706,190.6999999999971,73722,2021-10-27T19:37:52.131Z,73733.36,1635363393,full,ni_sequenzen,NI_Sequenzen,24,,,,,,,,,,,,,
,Move,canvas.Screen,0_1_0_24,down,response,,73733,73732.74,73733.36,73908,174.63999999999942,73916,2021-10-27T19:37:52.324Z,73931.9,1635363393,full,ni_sequenzen,NI_Sequenzen,25,,,,,,,,,,,,,
,Move,canvas.Screen,0_1_0_25,left,response,,73927,73926.96,73931.9,74361,429.1000000000058,74366,2021-10-27T19:37:52.775Z,74377.64,1635363393,full,ni_sequenzen,NI_Sequenzen,26,,,,,,,,,,,,,
,Move,canvas.Screen,0_1_0_26,left,response,,74377,74377.06,74377.64,74627,249.36000000000058,74640,2021-10-27T19:37:53.048Z,74652.3,1635363393,full,ni_sequenzen,NI_Sequenzen,27,,,,,,,,,,,,,
,Move,canvas.Screen,0_1_0_27,left,response,,74652,74651.82,74652.3,74878,225.6999999999971,74891,2021-10-27T19:37:53.300Z,74901.8,1635363393,full,ni_sequenzen,NI_Sequenzen,28,,,,,,,,,,,,,
,Move,canvas.Screen,0_1_0_28,down,response,,74902,74901.16,74901.8,75846,944.1999999999971,75860,2021-10-27T19:37:54.269Z,75871.76,1635363393,full,ni_sequenzen,NI_Sequenzen,29,,,,,,,,,,,,,
,Move,canvas.Screen,0_1_0_29,down,response,,75871,75871.24,75871.76,76565,693.2400000000052,76575,2021-10-27T19:37:54.984Z,76700.78,1635363393,full,ni_sequenzen,NI_Sequenzen,30,,,,,,,,,,,,,
,Loop,flow.Loop,0_1_0,-999,completion,,56018,56021.8,56022.02,76565,20542.980000000003,76577,2021-10-27T19:37:54.986Z,76700.78,1635363393,full,ni_sequenzen,NI_Sequenzen,,,,,,,,,,,,,,
,Training_I,flow.Sequence,0_1,,completion,,56006,56021.8,56022.02,76565,20542.980000000003,76577,2021-10-27T19:37:54.986Z,76700.78,1635363393,full,ni_sequenzen,NI_Sequenzen,,,,,,,,,,,,,,
,Screen_1,canvas.Screen,0_2_0_0,cont,response,1,76700,76700.28,76700.78,85955,9254.220000000001,85972,2021-10-27T19:38:04.380Z,86130.34,1635363393,full,ni_sequenzen,NI_Sequenzen,,,,,,,,,,,,,,
,Screen_2,canvas.Screen,0_2_0_1,cont,response,1,86110,86110.2,86130.34,95299,9168.660000000003,95313,2021-10-27T19:38:13.722Z,95319.54,1635363393,full,ni_sequenzen,NI_Sequenzen,,,,,,,,,,,,,,
,Screen_3,canvas.Screen,0_2_0_2,cont,response,1,95319,95318.94,95319.54,103034,7714.460000000006,103041,2021-10-27T19:38:21.449Z,103161.46,1635363393,full,ni_sequenzen,NI_Sequenzen,,,,,,,,,,,,,,
,Screen_4,canvas.Screen,0_2_0_3,cont,response,1,103152,103151.6,103161.46,111768,8606.539999999994,111772,2021-10-27T19:38:30.181Z,111777.16,1635363393,full,ni_sequenzen,NI_Sequenzen,,,,,,,,,,,,,,
,Screen_5,canvas.Screen,0_2_0_4,cont,response,1,111777,111776.96,111777.16,119596,7818.8399999999965,119612,2021-10-27T19:38:38.020Z,119775.98,1635363393,full,ni_sequenzen,NI_Sequenzen,,,,,,,,,,,,,,
,Screen_6,canvas.Screen,0_2_0_5,cont,response,1,119765,119765.18,119775.98,124221,4445.020000000004,124236,2021-10-27T19:38:42.645Z,124558.64,1635363393,full,ni_sequenzen,NI_Sequenzen,,,,,,,,,,,,,,
,Sequence,flow.Sequence,0_2_0,,completion,1,76697,76700.28,76700.78,124221,47520.22,124237,2021-10-27T19:38:42.646Z,124558.64,1635363393,full,ni_sequenzen,NI_Sequenzen,,,,,,,,,,,,,,
,Screen_1,canvas.Screen,0_2_1_0,,skipped,2,124243,,,124243,,124244,2021-10-27T19:38:42.652Z,124558.64,1635363393,full,ni_sequenzen,NI_Sequenzen,,,,,,,,,,,,,,
,Screen_2,canvas.Screen,0_2_1_1,,skipped,2,124245,,,124243,,124245,2021-10-27T19:38:42.654Z,124558.64,1635363393,full,ni_sequenzen,NI_Sequenzen,,,,,,,,,,,,,,
,Screen_3,canvas.Screen,0_2_1_2,,skipped,2,124247,,,124243,,124247,2021-10-27T19:38:42.655Z,124558.64,1635363393,full,ni_sequenzen,NI_Sequenzen,,,,,,,,,,,,,,
,Screen_4,canvas.Screen,0_2_1_3,,skipped,2,124248,,,124243,,124248,2021-10-27T19:38:42.656Z,124558.64,1635363393,full,ni_sequenzen,NI_Sequenzen,,,,,,,,,,,,,,
,Screen_5,canvas.Screen,0_2_1_4,,skipped,2,124249,,,124243,,124249,2021-10-27T19:38:42.658Z,124558.64,1635363393,full,ni_sequenzen,NI_Sequenzen,,,,,,,,,,,,,,
,Screen_6,canvas.Screen,0_2_1_5,,skipped,2,124251,,,124243,,124251,2021-10-27T19:38:42.660Z,124558.64,1635363393,full,ni_sequenzen,NI_Sequenzen,,,,,,,,,,,,,,
,Sequence,flow.Sequence,0_2_1,,completion,2,124239,,,124243,,124251,2021-10-27T19:38:42.660Z,124558.64,1635363393,full,ni_sequenzen,NI_Sequenzen,,,,,,,,,,,,,,
,Screen_1,canvas.Screen,0_2_2_0,,skipped,3,124253,,,124253,,124253,2021-10-27T19:38:42.662Z,124558.64,1635363393,full,ni_sequenzen,NI_Sequenzen,,,,,,,,,,,,,,
,Screen_2,canvas.Screen,0_2_2_1,,skipped,3,124255,,,124253,,124255,2021-10-27T19:38:42.664Z,124558.64,1635363393,full,ni_sequenzen,NI_Sequenzen,,,,,,,,,,,,,,
,Screen_3,canvas.Screen,0_2_2_2,,skipped,3,124257,,,124253,,124258,2021-10-27T19:38:42.666Z,124558.64,1635363393,full,ni_sequenzen,NI_Sequenzen,,,,,,,,,,,,,,
,Screen_4,canvas.Screen,0_2_2_3,,skipped,3,124259,,,124253,,124259,2021-10-27T19:38:42.667Z,124558.64,1635363393,full,ni_sequenzen,NI_Sequenzen,,,,,,,,,,,,,,
,Screen_5,canvas.Screen,0_2_2_4,,skipped,3,124260,,,124253,,124260,2021-10-27T19:38:42.669Z,124558.64,1635363393,full,ni_sequenzen,NI_Sequenzen,,,,,,,,,,,,,,
,Screen_6,canvas.Screen,0_2_2_5,,skipped,3,124262,,,124253,,124262,2021-10-27T19:38:42.670Z,124558.64,1635363393,full,ni_sequenzen,NI_Sequenzen,,,,,,,,,,,,,,
,Sequence,flow.Sequence,0_2_2,,completion,3,124252,,,124253,,124262,2021-10-27T19:38:42.670Z,124558.64,1635363393,full,ni_sequenzen,NI_Sequenzen,,,,,,,,,,,,,,
,Screen_1,canvas.Screen,0_2_3_0,,skipped,4,124265,,,124265,,124265,2021-10-27T19:38:42.672Z,124558.64,1635363393,full,ni_sequenzen,NI_Sequenzen,,,,,,,,,,,,,,
,Screen_2,canvas.Screen,0_2_3_1,,skipped,4,124266,,,124265,,124266,2021-10-27T19:38:42.675Z,124558.64,1635363393,full,ni_sequenzen,NI_Sequenzen,,,,,,,,,,,,,,
,Screen_3,canvas.Screen,0_2_3_2,,skipped,4,124267,,,124265,,124267,2021-10-27T19:38:42.676Z,124558.64,1635363393,full,ni_sequenzen,NI_Sequenzen,,,,,,,,,,,,,,
,Screen_4,canvas.Screen,0_2_3_3,,skipped,4,124269,,,124265,,124269,2021-10-27T19:38:42.678Z,124558.64,1635363393,full,ni_sequenzen,NI_Sequenzen,,,,,,,,,,,,,,
,Screen_5,canvas.Screen,0_2_3_4,,skipped,4,124271,,,124265,,124271,2021-10-27T19:38:42.679Z,124558.64,1635363393,full,ni_sequenzen,NI_Sequenzen,,,,,,,,,,,,,,
,Screen_6,canvas.Screen,0_2_3_5,,skipped,4,124272,,,124265,,124272,2021-10-27T19:38:42.680Z,124558.64,1635363393,full,ni_sequenzen,NI_Sequenzen,,,,,,,,,,,,,,
,Sequence,flow.Sequence,0_2_3,,completion,4,124263,,,124265,,124273,2021-10-27T19:38:42.680Z,124558.64,1635363393,full,ni_sequenzen,NI_Sequenzen,,,,,,,,,,,,,,
,Screen_1,canvas.Screen,0_2_4_0,,skipped,5,124275,,,124275,,124275,2021-10-27T19:38:42.683Z,124558.64,1635363393,full,ni_sequenzen,NI_Sequenzen,,,,,,,,,,,,,,
,Screen_2,canvas.Screen,0_2_4_1,,skipped,5,124276,,,124275,,124276,2021-10-27T19:38:42.685Z,124558.64,1635363393,full,ni_sequenzen,NI_Sequenzen,,,,,,,,,,,,,,
,Screen_3,canvas.Screen,0_2_4_2,,skipped,5,124278,,,124275,,124278,2021-10-27T19:38:42.686Z,124558.64,1635363393,full,ni_sequenzen,NI_Sequenzen,,,,,,,,,,,,,,
,Screen_4,canvas.Screen,0_2_4_3,,skipped,5,124279,,,124275,,124279,2021-10-27T19:38:42.688Z,124558.64,1635363393,full,ni_sequenzen,NI_Sequenzen,,,,,,,,,,,,,,
,Screen_5,canvas.Screen,0_2_4_4,,skipped,5,124281,,,124275,,124281,2021-10-27T19:38:42.689Z,124558.64,1635363393,full,ni_sequenzen,NI_Sequenzen,,,,,,,,,,,,,,
,Screen_6,canvas.Screen,0_2_4_5,,skipped,5,124282,,,124275,,124282,2021-10-27T19:38:42.690Z,124558.64,1635363393,full,ni_sequenzen,NI_Sequenzen,,,,,,,,,,,,,,
,Sequence,flow.Sequence,0_2_4,,completion,5,124274,,,124275,,124282,2021-10-27T19:38:42.690Z,124558.64,1635363393,full,ni_sequenzen,NI_Sequenzen,,,,,,,,,,,,,,
,Screen_1,canvas.Screen,0_2_5_0,,skipped,6,124285,,,124285,,124285,2021-10-27T19:38:42.693Z,124558.64,1635363393,full,ni_sequenzen,NI_Sequenzen,,,,,,,,,,,,,,
,Screen_2,canvas.Screen,0_2_5_1,,skipped,6,124286,,,124285,,124286,2021-10-27T19:38:42.695Z,124558.64,1635363393,full,ni_sequenzen,NI_Sequenzen,,,,,,,,,,,,,,
,Screen_3,canvas.Screen,0_2_5_2,,skipped,6,124288,,,124285,,124288,2021-10-27T19:38:42.696Z,124558.64,1635363393,full,ni_sequenzen,NI_Sequenzen,,,,,,,,,,,,,,
,Screen_4,canvas.Screen,0_2_5_3,,skipped,6,124289,,,124285,,124289,2021-10-27T19:38:42.698Z,124558.64,1635363393,full,ni_sequenzen,NI_Sequenzen,,,,,,,,,,,,,,
,Screen_5,canvas.Screen,0_2_5_4,,skipped,6,124291,,,124285,,124291,2021-10-27T19:38:42.699Z,124558.64,1635363393,full,ni_sequenzen,NI_Sequenzen,,,,,,,,,,,,,,
,Screen_6,canvas.Screen,0_2_5_5,,skipped,6,124292,,,124285,,124293,2021-10-27T19:38:42.701Z,124558.64,1635363393,full,ni_sequenzen,NI_Sequenzen,,,,,,,,,,,,,,
,Sequence,flow.Sequence,0_2_5,,completion,6,124283,,,124285,,124293,2021-10-27T19:38:42.701Z,124558.64,1635363393,full,ni_sequenzen,NI_Sequenzen,,,,,,,,,,,,,,
,Screen_1,canvas.Screen,0_2_6_0,,skipped,7,124295,,,124295,,124295,2021-10-27T19:38:42.704Z,124558.64,1635363393,full,ni_sequenzen,NI_Sequenzen,,,,,,,,,,,,,,
,Screen_2,canvas.Screen,0_2_6_1,,skipped,7,124296,,,124295,,124297,2021-10-27T19:38:42.705Z,124558.64,1635363393,full,ni_sequenzen,NI_Sequenzen,,,,,,,,,,,,,,
,Screen_3,canvas.Screen,0_2_6_2,,skipped,7,124298,,,124295,,124298,2021-10-27T19:38:42.707Z,124558.64,1635363393,full,ni_sequenzen,NI_Sequenzen,,,,,,,,,,,,,,
,Screen_4,canvas.Screen,0_2_6_3,,skipped,7,124300,,,124295,,124300,2021-10-27T19:38:42.708Z,124558.64,1635363393,full,ni_sequenzen,NI_Sequenzen,,,,,,,,,,,,,,
,Screen_5,canvas.Screen,0_2_6_4,,skipped,7,124301,,,124295,,124301,2021-10-27T19:38:42.710Z,124558.64,1635363393,full,ni_sequenzen,NI_Sequenzen,,,,,,,,,,,,,,
,Screen_6,canvas.Screen,0_2_6_5,,skipped,7,124302,,,124295,,124302,2021-10-27T19:38:42.711Z,124558.64,1635363393,full,ni_sequenzen,NI_Sequenzen,,,,,,,,,,,,,,
,Sequence,flow.Sequence,0_2_6,,completion,7,124294,,,124295,,124304,2021-10-27T19:38:42.711Z,124558.64,1635363393,full,ni_sequenzen,NI_Sequenzen,,,,,,,,,,,,,,
,Screen_1,canvas.Screen,0_2_7_0,,skipped,8,124305,,,124305,,124306,2021-10-27T19:38:42.713Z,124558.64,1635363393,full,ni_sequenzen,NI_Sequenzen,,,,,,,,,,,,,,
,Screen_2,canvas.Screen,0_2_7_1,,skipped,8,124307,,,124305,,124307,2021-10-27T19:38:42.715Z,124558.64,1635363393,full,ni_sequenzen,NI_Sequenzen,,,,,,,,,,,,,,
,Screen_3,canvas.Screen,0_2_7_2,,skipped,8,124309,,,124305,,124309,2021-10-27T19:38:42.717Z,124558.64,1635363393,full,ni_sequenzen,NI_Sequenzen,,,,,,,,,,,,,,
,Screen_4,canvas.Screen,0_2_7_3,,skipped,8,124310,,,124305,,124310,2021-10-27T19:38:42.718Z,124558.64,1635363393,full,ni_sequenzen,NI_Sequenzen,,,,,,,,,,,,,,
,Screen_5,canvas.Screen,0_2_7_4,,skipped,8,124311,,,124305,,124311,2021-10-27T19:38:42.720Z,124558.64,1635363393,full,ni_sequenzen,NI_Sequenzen,,,,,,,,,,,,,,
,Screen_6,canvas.Screen,0_2_7_5,,skipped,8,124313,,,124305,,124313,2021-10-27T19:38:42.721Z,124558.64,1635363393,full,ni_sequenzen,NI_Sequenzen,,,,,,,,,,,,,,
,Sequence,flow.Sequence,0_2_7,,completion,8,124304,,,124305,,124313,2021-10-27T19:38:42.721Z,124558.64,1635363393,full,ni_sequenzen,NI_Sequenzen,,,,,,,,,,,,,,
,Screen_1,canvas.Screen,0_2_8_0,,skipped,9,124316,,,124316,,124316,2021-10-27T19:38:42.723Z,124558.64,1635363393,full,ni_sequenzen,NI_Sequenzen,,,,,,,,,,,,,,
,Screen_2,canvas.Screen,0_2_8_1,,skipped,9,124317,,,124316,,124317,2021-10-27T19:38:42.725Z,124558.64,1635363393,full,ni_sequenzen,NI_Sequenzen,,,,,,,,,,,,,,
,Screen_3,canvas.Screen,0_2_8_2,,skipped,9,124318,,,124316,,124318,2021-10-27T19:38:42.727Z,124558.64,1635363393,full,ni_sequenzen,NI_Sequenzen,,,,,,,,,,,,,,
,Screen_4,canvas.Screen,0_2_8_3,,skipped,9,124320,,,124316,,124320,2021-10-27T19:38:42.728Z,124558.64,1635363393,full,ni_sequenzen,NI_Sequenzen,,,,,,,,,,,,,,
,Screen_5,canvas.Screen,0_2_8_4,,skipped,9,124322,,,124316,,124322,2021-10-27T19:38:42.730Z,124558.64,1635363393,full,ni_sequenzen,NI_Sequenzen,,,,,,,,,,,,,,
,Screen_6,canvas.Screen,0_2_8_5,,skipped,9,124323,,,124316,,124323,2021-10-27T19:38:42.731Z,124558.64,1635363393,full,ni_sequenzen,NI_Sequenzen,,,,,,,,,,,,,,
,Sequence,flow.Sequence,0_2_8,,completion,9,124314,,,124316,,124323,2021-10-27T19:38:42.731Z,124558.64,1635363393,full,ni_sequenzen,NI_Sequenzen,,,,,,,,,,,,,,
,Screen_1,canvas.Screen,0_2_9_0,,skipped,10,124325,,,124325,,124326,2021-10-27T19:38:42.734Z,124558.64,1635363393,full,ni_sequenzen,NI_Sequenzen,,,,,,,,,,,,,,
,Screen_2,canvas.Screen,0_2_9_1,,skipped,10,124327,,,124325,,124327,2021-10-27T19:38:42.735Z,124558.64,1635363393,full,ni_sequenzen,NI_Sequenzen,,,,,,,,,,,,,,
,Screen_3,canvas.Screen,0_2_9_2,,skipped,10,124328,,,124325,,124328,2021-10-27T19:38:42.737Z,124558.64,1635363393,full,ni_sequenzen,NI_Sequenzen,,,,,,,,,,,,,,
,Screen_4,canvas.Screen,0_2_9_3,,skipped,10,124330,,,124325,,124330,2021-10-27T19:38:42.739Z,124558.64,1635363393,full,ni_sequenzen,NI_Sequenzen,,,,,,,,,,,,,,
,Screen_5,canvas.Screen,0_2_9_4,,skipped,10,124332,,,124325,,124333,2021-10-27T19:38:42.741Z,124558.64,1635363393,full,ni_sequenzen,NI_Sequenzen,,,,,,,,,,,,,,
,Screen_6,canvas.Screen,0_2_9_5,,skipped,10,124334,,,124325,,124334,2021-10-27T19:38:42.742Z,124558.64,1635363393,full,ni_sequenzen,NI_Sequenzen,,,,,,,,,,,,,,
,Sequence,flow.Sequence,0_2_9,,completion,10,124324,,,124325,,124335,2021-10-27T19:38:42.743Z,124558.64,1635363393,full,ni_sequenzen,NI_Sequenzen,,,,,,,,,,,,,,
,Screen_1,canvas.Screen,0_2_10_0,,skipped,11,124338,,,124338,,124338,2021-10-27T19:38:42.746Z,124558.64,1635363393,full,ni_sequenzen,NI_Sequenzen,,,,,,,,,,,,,,
,Screen_2,canvas.Screen,0_2_10_1,,skipped,11,124340,,,124338,,124340,2021-10-27T19:38:42.747Z,124558.64,1635363393,full,ni_sequenzen,NI_Sequenzen,,,,,,,,,,,,,,
,Screen_3,canvas.Screen,0_2_10_2,,skipped,11,124341,,,124338,,124342,2021-10-27T19:38:42.750Z,124558.64,1635363393,full,ni_sequenzen,NI_Sequenzen,,,,,,,,,,,,,,
,Screen_4,canvas.Screen,0_2_10_3,,skipped,11,124343,,,124338,,124343,2021-10-27T19:38:42.751Z,124558.64,1635363393,full,ni_sequenzen,NI_Sequenzen,,,,,,,,,,,,,,
,Screen_5,canvas.Screen,0_2_10_4,,skipped,11,124345,,,124338,,124346,2021-10-27T19:38:42.753Z,124558.64,1635363393,full,ni_sequenzen,NI_Sequenzen,,,,,,,,,,,,,,
,Screen_6,canvas.Screen,0_2_10_5,,skipped,11,124347,,,124338,,124347,2021-10-27T19:38:42.755Z,124558.64,1635363393,full,ni_sequenzen,NI_Sequenzen,,,,,,,,,,,,,,
,Sequence,flow.Sequence,0_2_10,,completion,11,124336,,,124338,,124347,2021-10-27T19:38:42.756Z,124558.64,1635363393,full,ni_sequenzen,NI_Sequenzen,,,,,,,,,,,,,,
,Screen_1,canvas.Screen,0_2_11_0,,skipped,12,124350,,,124350,,124351,2021-10-27T19:38:42.759Z,124558.64,1635363393,full,ni_sequenzen,NI_Sequenzen,,,,,,,,,,,,,,
,Screen_2,canvas.Screen,0_2_11_1,,skipped,12,124353,,,124350,,124353,2021-10-27T19:38:42.762Z,124558.64,1635363393,full,ni_sequenzen,NI_Sequenzen,,,,,,,,,,,,,,
,Screen_3,canvas.Screen,0_2_11_2,,skipped,12,124355,,,124350,,124356,2021-10-27T19:38:42.764Z,124558.64,1635363393,full,ni_sequenzen,NI_Sequenzen,,,,,,,,,,,,,,
,Screen_4,canvas.Screen,0_2_11_3,,skipped,12,124358,,,124350,,124358,2021-10-27T19:38:42.767Z,124558.64,1635363393,full,ni_sequenzen,NI_Sequenzen,,,,,,,,,,,,,,
,Screen_5,canvas.Screen,0_2_11_4,,skipped,12,124360,,,124350,,124360,2021-10-27T19:38:42.769Z,124558.64,1635363393,full,ni_sequenzen,NI_Sequenzen,,,,,,,,,,,,,,
,Screen_6,canvas.Screen,0_2_11_5,,skipped,12,124362,,,124350,,124362,2021-10-27T19:38:42.771Z,124558.64,1635363393,full,ni_sequenzen,NI_Sequenzen,,,,,,,,,,,,,,
,Sequence,flow.Sequence,0_2_11,,completion,12,124348,,,124350,,124363,2021-10-27T19:38:42.771Z,124558.64,1635363393,full,ni_sequenzen,NI_Sequenzen,,,,,,,,,,,,,,
,Screen_1,canvas.Screen,0_2_12_0,,skipped,13,124367,,,124367,,124367,2021-10-27T19:38:42.776Z,124558.64,1635363393,full,ni_sequenzen,NI_Sequenzen,,,,,,,,,,,,,,
,Screen_2,canvas.Screen,0_2_12_1,,skipped,13,124370,,,124367,,124370,2021-10-27T19:38:42.778Z,124558.64,1635363393,full,ni_sequenzen,NI_Sequenzen,,,,,,,,,,,,,,
,Screen_3,canvas.Screen,0_2_12_2,,skipped,13,124372,,,124367,,124372,2021-10-27T19:38:42.780Z,124558.64,1635363393,full,ni_sequenzen,NI_Sequenzen,,,,,,,,,,,,,,
,Screen_4,canvas.Screen,0_2_12_3,,skipped,13,124374,,,124367,,124374,2021-10-27T19:38:42.782Z,124558.64,1635363393,full,ni_sequenzen,NI_Sequenzen,,,,,,,,,,,,,,
,Screen_5,canvas.Screen,0_2_12_4,,skipped,13,124376,,,124367,,124376,2021-10-27T19:38:42.784Z,124558.64,1635363393,full,ni_sequenzen,NI_Sequenzen,,,,,,,,,,,,,,
,Screen_6,canvas.Screen,0_2_12_5,,skipped,13,124379,,,124367,,124379,2021-10-27T19:38:42.787Z,124558.64,1635363393,full,ni_sequenzen,NI_Sequenzen,,,,,,,,,,,,,,
,Sequence,flow.Sequence,0_2_12,,completion,13,124364,,,124367,,124379,2021-10-27T19:38:42.787Z,124558.64,1635363393,full,ni_sequenzen,NI_Sequenzen,,,,,,,,,,,,,,
,Screen_1,canvas.Screen,0_2_13_0,,skipped,14,124382,,,124382,,124382,2021-10-27T19:38:42.791Z,124558.64,1635363393,full,ni_sequenzen,NI_Sequenzen,,,,,,,,,,,,,,
,Screen_2,canvas.Screen,0_2_13_1,,skipped,14,124384,,,124382,,124384,2021-10-27T19:38:42.793Z,124558.64,1635363393,full,ni_sequenzen,NI_Sequenzen,,,,,,,,,,,,,,
,Screen_3,canvas.Screen,0_2_13_2,,skipped,14,124387,,,124382,,124387,2021-10-27T19:38:42.795Z,124558.64,1635363393,full,ni_sequenzen,NI_Sequenzen,,,,,,,,,,,,,,
,Screen_4,canvas.Screen,0_2_13_3,,skipped,14,124388,,,124382,,124388,2021-10-27T19:38:42.797Z,124558.64,1635363393,full,ni_sequenzen,NI_Sequenzen,,,,,,,,,,,,,,
,Screen_5,canvas.Screen,0_2_13_4,,skipped,14,124391,,,124382,,124391,2021-10-27T19:38:42.799Z,124558.64,1635363393,full,ni_sequenzen,NI_Sequenzen,,,,,,,,,,,,,,
,Screen_6,canvas.Screen,0_2_13_5,,skipped,14,124393,,,124382,,124393,2021-10-27T19:38:42.802Z,124558.64,1635363393,full,ni_sequenzen,NI_Sequenzen,,,,,,,,,,,,,,
,Sequence,flow.Sequence,0_2_13,,completion,14,124380,,,124382,,124393,2021-10-27T19:38:42.802Z,124558.64,1635363393,full,ni_sequenzen,NI_Sequenzen,,,,,,,,,,,,,,
,Screen_1,canvas.Screen,0_2_14_0,,skipped,15,124396,,,124396,,124396,2021-10-27T19:38:42.804Z,124558.64,1635363393,full,ni_sequenzen,NI_Sequenzen,,,,,,,,,,,,,,
,Screen_2,canvas.Screen,0_2_14_1,,skipped,15,124398,,,124396,,124399,2021-10-27T19:38:42.806Z,124558.64,1635363393,full,ni_sequenzen,NI_Sequenzen,,,,,,,,,,,,,,
,Screen_3,canvas.Screen,0_2_14_2,,skipped,15,124401,,,124396,,124401,2021-10-27T19:38:42.808Z,124558.64,1635363393,full,ni_sequenzen,NI_Sequenzen,,,,,,,,,,,,,,
,Screen_4,canvas.Screen,0_2_14_3,,skipped,15,124403,,,124396,,124403,2021-10-27T19:38:42.811Z,124558.64,1635363393,full,ni_sequenzen,NI_Sequenzen,,,,,,,,,,,,,,
,Screen_5,canvas.Screen,0_2_14_4,,skipped,15,124404,,,124396,,124404,2021-10-27T19:38:42.813Z,124558.64,1635363393,full,ni_sequenzen,NI_Sequenzen,,,,,,,,,,,,,,
,Screen_6,canvas.Screen,0_2_14_5,,skipped,15,124407,,,124396,,124408,2021-10-27T19:38:42.816Z,124558.64,1635363393,full,ni_sequenzen,NI_Sequenzen,,,,,,,,,,,,,,
,Sequence,flow.Sequence,0_2_14,,completion,15,124394,,,124396,,124408,2021-10-27T19:38:42.816Z,124558.64,1635363393,full,ni_sequenzen,NI_Sequenzen,,,,,,,,,,,,,,
,Screen_1,canvas.Screen,0_2_15_0,,skipped,16,124410,,,124410,,124410,2021-10-27T19:38:42.818Z,124558.64,1635363393,full,ni_sequenzen,NI_Sequenzen,,,,,,,,,,,,,,
,Screen_2,canvas.Screen,0_2_15_1,,skipped,16,124412,,,124410,,124413,2021-10-27T19:38:42.821Z,124558.64,1635363393,full,ni_sequenzen,NI_Sequenzen,,,,,,,,,,,,,,
,Screen_3,canvas.Screen,0_2_15_2,,skipped,16,124415,,,124410,,124415,2021-10-27T19:38:42.823Z,124558.64,1635363393,full,ni_sequenzen,NI_Sequenzen,,,,,,,,,,,,,,
,Screen_4,canvas.Screen,0_2_15_3,,skipped,16,124417,,,124410,,124417,2021-10-27T19:38:42.826Z,124558.64,1635363393,full,ni_sequenzen,NI_Sequenzen,,,,,,,,,,,,,,
,Screen_5,canvas.Screen,0_2_15_4,,skipped,16,124419,,,124410,,124419,2021-10-27T19:38:42.827Z,124558.64,1635363393,full,ni_sequenzen,NI_Sequenzen,,,,,,,,,,,,,,
,Screen_6,canvas.Screen,0_2_15_5,,skipped,16,124421,,,124410,,124421,2021-10-27T19:38:42.829Z,124558.64,1635363393,full,ni_sequenzen,NI_Sequenzen,,,,,,,,,,,,,,
,Sequence,flow.Sequence,0_2_15,,completion,16,124409,,,124410,,124421,2021-10-27T19:38:42.829Z,124558.64,1635363393,full,ni_sequenzen,NI_Sequenzen,,,,,,,,,,,,,,
,Screen_1,canvas.Screen,0_2_16_0,,skipped,17,124424,,,124424,,124424,2021-10-27T19:38:42.833Z,124558.64,1635363393,full,ni_sequenzen,NI_Sequenzen,,,,,,,,,,,,,,
,Screen_2,canvas.Screen,0_2_16_1,,skipped,17,124426,,,124424,,124426,2021-10-27T19:38:42.835Z,124558.64,1635363393,full,ni_sequenzen,NI_Sequenzen,,,,,,,,,,,,,,
,Screen_3,canvas.Screen,0_2_16_2,,skipped,17,124428,,,124424,,124429,2021-10-27T19:38:42.837Z,124558.64,1635363393,full,ni_sequenzen,NI_Sequenzen,,,,,,,,,,,,,,
,Screen_4,canvas.Screen,0_2_16_3,,skipped,17,124430,,,124424,,124431,2021-10-27T19:38:42.839Z,124558.64,1635363393,full,ni_sequenzen,NI_Sequenzen,,,,,,,,,,,,,,
,Screen_5,canvas.Screen,0_2_16_4,,skipped,17,124432,,,124424,,124432,2021-10-27T19:38:42.841Z,124558.64,1635363393,full,ni_sequenzen,NI_Sequenzen,,,,,,,,,,,,,,
,Screen_6,canvas.Screen,0_2_16_5,,skipped,17,124434,,,124424,,124434,2021-10-27T19:38:42.842Z,124558.64,1635363393,full,ni_sequenzen,NI_Sequenzen,,,,,,,,,,,,,,
,Sequence,flow.Sequence,0_2_16,,completion,17,124422,,,124424,,124434,2021-10-27T19:38:42.843Z,124558.64,1635363393,full,ni_sequenzen,NI_Sequenzen,,,,,,,,,,,,,,
,Screen_1,canvas.Screen,0_2_17_0,,skipped,18,124436,,,124436,,124437,2021-10-27T19:38:42.845Z,124558.64,1635363393,full,ni_sequenzen,NI_Sequenzen,,,,,,,,,,,,,,
,Screen_2,canvas.Screen,0_2_17_1,,skipped,18,124438,,,124436,,124439,2021-10-27T19:38:42.847Z,124558.64,1635363393,full,ni_sequenzen,NI_Sequenzen,,,,,,,,,,,,,,
,Screen_3,canvas.Screen,0_2_17_2,,skipped,18,124440,,,124436,,124440,2021-10-27T19:38:42.849Z,124558.64,1635363393,full,ni_sequenzen,NI_Sequenzen,,,,,,,,,,,,,,
,Screen_4,canvas.Screen,0_2_17_3,,skipped,18,124442,,,124436,,124442,2021-10-27T19:38:42.850Z,124558.64,1635363393,full,ni_sequenzen,NI_Sequenzen,,,,,,,,,,,,,,
,Screen_5,canvas.Screen,0_2_17_4,,skipped,18,124443,,,124436,,124443,2021-10-27T19:38:42.851Z,124558.64,1635363393,full,ni_sequenzen,NI_Sequenzen,,,,,,,,,,,,,,
,Screen_6,canvas.Screen,0_2_17_5,,skipped,18,124445,,,124436,,124445,2021-10-27T19:38:42.853Z,124558.64,1635363393,full,ni_sequenzen,NI_Sequenzen,,,,,,,,,,,,,,
,Sequence,flow.Sequence,0_2_17,,completion,18,124435,,,124436,,124445,2021-10-27T19:38:42.853Z,124558.64,1635363393,full,ni_sequenzen,NI_Sequenzen,,,,,,,,,,,,,,
,Screen_1,canvas.Screen,0_2_18_0,,skipped,19,124446,,,124446,,124446,2021-10-27T19:38:42.855Z,124558.64,1635363393,full,ni_sequenzen,NI_Sequenzen,,,,,,,,,,,,,,
,Screen_2,canvas.Screen,0_2_18_1,,skipped,19,124448,,,124446,,124448,2021-10-27T19:38:42.857Z,124558.64,1635363393,full,ni_sequenzen,NI_Sequenzen,,,,,,,,,,,,,,
,Screen_3,canvas.Screen,0_2_18_2,,skipped,19,124449,,,124446,,124449,2021-10-27T19:38:42.858Z,124558.64,1635363393,full,ni_sequenzen,NI_Sequenzen,,,,,,,,,,,,,,
,Screen_4,canvas.Screen,0_2_18_3,,skipped,19,124450,,,124446,,124450,2021-10-27T19:38:42.859Z,124558.64,1635363393,full,ni_sequenzen,NI_Sequenzen,,,,,,,,,,,,,,
,Screen_5,canvas.Screen,0_2_18_4,,skipped,19,124452,,,124446,,124452,2021-10-27T19:38:42.860Z,124558.64,1635363393,full,ni_sequenzen,NI_Sequenzen,,,,,,,,,,,,,,
,Screen_6,canvas.Screen,0_2_18_5,,skipped,19,124453,,,124446,,124453,2021-10-27T19:38:42.861Z,124558.64,1635363393,full,ni_sequenzen,NI_Sequenzen,,,,,,,,,,,,,,
,Sequence,flow.Sequence,0_2_18,,completion,19,124445,,,124446,,124453,2021-10-27T19:38:42.862Z,124558.64,1635363393,full,ni_sequenzen,NI_Sequenzen,,,,,,,,,,,,,,
,Screen_1,canvas.Screen,0_2_19_0,,skipped,20,124456,,,124456,,124456,2021-10-27T19:38:42.863Z,124558.64,1635363393,full,ni_sequenzen,NI_Sequenzen,,,,,,,,,,,,,,
,Screen_2,canvas.Screen,0_2_19_1,,skipped,20,124457,,,124456,,124457,2021-10-27T19:38:42.866Z,124558.64,1635363393,full,ni_sequenzen,NI_Sequenzen,,,,,,,,,,,,,,
,Screen_3,canvas.Screen,0_2_19_2,,skipped,20,124459,,,124456,,124459,2021-10-27T19:38:42.867Z,124558.64,1635363393,full,ni_sequenzen,NI_Sequenzen,,,,,,,,,,,,,,
,Screen_4,canvas.Screen,0_2_19_3,,skipped,20,124460,,,124456,,124460,2021-10-27T19:38:42.868Z,124558.64,1635363393,full,ni_sequenzen,NI_Sequenzen,,,,,,,,,,,,,,
,Screen_5,canvas.Screen,0_2_19_4,,skipped,20,124461,,,124456,,124461,2021-10-27T19:38:42.869Z,124558.64,1635363393,full,ni_sequenzen,NI_Sequenzen,,,,,,,,,,,,,,
,Screen_6,canvas.Screen,0_2_19_5,,skipped,20,124462,,,124456,,124462,2021-10-27T19:38:42.870Z,124558.64,1635363393,full,ni_sequenzen,NI_Sequenzen,,,,,,,,,,,,,,
,Sequence,flow.Sequence,0_2_19,,completion,20,124455,,,124456,,124462,2021-10-27T19:38:42.870Z,124558.64,1635363393,full,ni_sequenzen,NI_Sequenzen,,,,,,,,,,,,,,
,Screen_1,canvas.Screen,0_2_20_0,,skipped,21,124463,,,124463,,124463,2021-10-27T19:38:42.871Z,124558.64,1635363393,full,ni_sequenzen,NI_Sequenzen,,,,,,,,,,,,,,
,Screen_2,canvas.Screen,0_2_20_1,,skipped,21,124464,,,124463,,124464,2021-10-27T19:38:42.872Z,124558.64,1635363393,full,ni_sequenzen,NI_Sequenzen,,,,,,,,,,,,,,
,Screen_3,canvas.Screen,0_2_20_2,,skipped,21,124466,,,124463,,124466,2021-10-27T19:38:42.874Z,124558.64,1635363393,full,ni_sequenzen,NI_Sequenzen,,,,,,,,,,,,,,
,Screen_4,canvas.Screen,0_2_20_3,,skipped,21,124467,,,124463,,124467,2021-10-27T19:38:42.875Z,124558.64,1635363393,full,ni_sequenzen,NI_Sequenzen,,,,,,,,,,,,,,
,Screen_5,canvas.Screen,0_2_20_4,,skipped,21,124468,,,124463,,124468,2021-10-27T19:38:42.876Z,124558.64,1635363393,full,ni_sequenzen,NI_Sequenzen,,,,,,,,,,,,,,
,Screen_6,canvas.Screen,0_2_20_5,,skipped,21,124469,,,124463,,124469,2021-10-27T19:38:42.877Z,124558.64,1635363393,full,ni_sequenzen,NI_Sequenzen,,,,,,,,,,,,,,
,Sequence,flow.Sequence,0_2_20,,completion,21,124462,,,124463,,124469,2021-10-27T19:38:42.877Z,124558.64,1635363393,full,ni_sequenzen,NI_Sequenzen,,,,,,,,,,,,,,
,Screen_1,canvas.Screen,0_2_21_0,,skipped,22,124471,,,124471,,124471,2021-10-27T19:38:42.879Z,124558.64,1635363393,full,ni_sequenzen,NI_Sequenzen,,,,,,,,,,,,,,
,Screen_2,canvas.Screen,0_2_21_1,,skipped,22,124472,,,124471,,124472,2021-10-27T19:38:42.880Z,124558.64,1635363393,full,ni_sequenzen,NI_Sequenzen,,,,,,,,,,,,,,
,Screen_3,canvas.Screen,0_2_21_2,,skipped,22,124473,,,124471,,124473,2021-10-27T19:38:42.881Z,124558.64,1635363393,full,ni_sequenzen,NI_Sequenzen,,,,,,,,,,,,,,
,Screen_4,canvas.Screen,0_2_21_3,,skipped,22,124473,,,124471,,124473,2021-10-27T19:38:42.882Z,124558.64,1635363393,full,ni_sequenzen,NI_Sequenzen,,,,,,,,,,,,,,
,Screen_5,canvas.Screen,0_2_21_4,,skipped,22,124474,,,124471,,124475,2021-10-27T19:38:42.883Z,124558.64,1635363393,full,ni_sequenzen,NI_Sequenzen,,,,,,,,,,,,,,
,Screen_6,canvas.Screen,0_2_21_5,,skipped,22,124477,,,124471,,124477,2021-10-27T19:38:42.884Z,124558.64,1635363393,full,ni_sequenzen,NI_Sequenzen,,,,,,,,,,,,,,
,Sequence,flow.Sequence,0_2_21,,completion,22,124470,,,124471,,124477,2021-10-27T19:38:42.885Z,124558.64,1635363393,full,ni_sequenzen,NI_Sequenzen,,,,,,,,,,,,,,
,Screen_1,canvas.Screen,0_2_22_0,,skipped,23,124478,,,124478,,124478,2021-10-27T19:38:42.886Z,124558.64,1635363393,full,ni_sequenzen,NI_Sequenzen,,,,,,,,,,,,,,
,Screen_2,canvas.Screen,0_2_22_1,,skipped,23,124479,,,124478,,124479,2021-10-27T19:38:42.887Z,124558.64,1635363393,full,ni_sequenzen,NI_Sequenzen,,,,,,,,,,,,,,
,Screen_3,canvas.Screen,0_2_22_2,,skipped,23,124480,,,124478,,124480,2021-10-27T19:38:42.888Z,124558.64,1635363393,full,ni_sequenzen,NI_Sequenzen,,,,,,,,,,,,,,
,Screen_4,canvas.Screen,0_2_22_3,,skipped,23,124481,,,124478,,124481,2021-10-27T19:38:42.889Z,124558.64,1635363393,full,ni_sequenzen,NI_Sequenzen,,,,,,,,,,,,,,
,Screen_5,canvas.Screen,0_2_22_4,,skipped,23,124482,,,124478,,124482,2021-10-27T19:38:42.891Z,124558.64,1635363393,full,ni_sequenzen,NI_Sequenzen,,,,,,,,,,,,,,
,Screen_6,canvas.Screen,0_2_22_5,,skipped,23,124483,,,124478,,124483,2021-10-27T19:38:42.891Z,124558.64,1635363393,full,ni_sequenzen,NI_Sequenzen,,,,,,,,,,,,,,
,Sequence,flow.Sequence,0_2_22,,completion,23,124477,,,124478,,124483,2021-10-27T19:38:42.891Z,124558.64,1635363393,full,ni_sequenzen,NI_Sequenzen,,,,,,,,,,,,,,
,Screen_1,canvas.Screen,0_2_23_0,,skipped,24,124485,,,124485,,124485,2021-10-27T19:38:42.893Z,124558.64,1635363393,full,ni_sequenzen,NI_Sequenzen,,,,,,,,,,,,,,
,Screen_2,canvas.Screen,0_2_23_1,,skipped,24,124486,,,124485,,124486,2021-10-27T19:38:42.894Z,124558.64,1635363393,full,ni_sequenzen,NI_Sequenzen,,,,,,,,,,,,,,
,Screen_3,canvas.Screen,0_2_23_2,,skipped,24,124487,,,124485,,124487,2021-10-27T19:38:42.895Z,124558.64,1635363393,full,ni_sequenzen,NI_Sequenzen,,,,,,,,,,,,,,
,Screen_4,canvas.Screen,0_2_23_3,,skipped,24,124488,,,124485,,124488,2021-10-27T19:38:42.896Z,124558.64,1635363393,full,ni_sequenzen,NI_Sequenzen,,,,,,,,,,,,,,
,Screen_5,canvas.Screen,0_2_23_4,,skipped,24,124489,,,124485,,124489,2021-10-27T19:38:42.898Z,124558.64,1635363393,full,ni_sequenzen,NI_Sequenzen,,,,,,,,,,,,,,
,Screen_6,canvas.Screen,0_2_23_5,,skipped,24,124490,,,124485,,124490,2021-10-27T19:38:42.899Z,124558.64,1635363393,full,ni_sequenzen,NI_Sequenzen,,,,,,,,,,,,,,
,Sequence,flow.Sequence,0_2_23,,completion,24,124484,,,124485,,124490,2021-10-27T19:38:42.899Z,124558.64,1635363393,full,ni_sequenzen,NI_Sequenzen,,,,,,,,,,,,,,
,Screen_1,canvas.Screen,0_2_24_0,,skipped,25,124492,,,124492,,124493,2021-10-27T19:38:42.901Z,124558.64,1635363393,full,ni_sequenzen,NI_Sequenzen,,,,,,,,,,,,,,
,Screen_2,canvas.Screen,0_2_24_1,,skipped,25,124494,,,124492,,124494,2021-10-27T19:38:42.902Z,124558.64,1635363393,full,ni_sequenzen,NI_Sequenzen,,,,,,,,,,,,,,
,Screen_3,canvas.Screen,0_2_24_2,,skipped,25,124495,,,124492,,124495,2021-10-27T19:38:42.904Z,124558.64,1635363393,full,ni_sequenzen,NI_Sequenzen,,,,,,,,,,,,,,
,Screen_4,canvas.Screen,0_2_24_3,,skipped,25,124496,,,124492,,124496,2021-10-27T19:38:42.905Z,124558.64,1635363393,full,ni_sequenzen,NI_Sequenzen,,,,,,,,,,,,,,
,Screen_5,canvas.Screen,0_2_24_4,,skipped,25,124497,,,124492,,124497,2021-10-27T19:38:42.906Z,124558.64,1635363393,full,ni_sequenzen,NI_Sequenzen,,,,,,,,,,,,,,
,Screen_6,canvas.Screen,0_2_24_5,,skipped,25,124498,,,124492,,124498,2021-10-27T19:38:42.907Z,124558.64,1635363393,full,ni_sequenzen,NI_Sequenzen,,,,,,,,,,,,,,
,Sequence,flow.Sequence,0_2_24,,completion,25,124491,,,124492,,124498,2021-10-27T19:38:42.907Z,124558.64,1635363393,full,ni_sequenzen,NI_Sequenzen,,,,,,,,,,,,,,
,Screen_1,canvas.Screen,0_2_25_0,,skipped,26,124500,,,124500,,124500,2021-10-27T19:38:42.908Z,124558.64,1635363393,full,ni_sequenzen,NI_Sequenzen,,,,,,,,,,,,,,
,Screen_2,canvas.Screen,0_2_25_1,,skipped,26,124501,,,124500,,124501,2021-10-27T19:38:42.909Z,124558.64,1635363393,full,ni_sequenzen,NI_Sequenzen,,,,,,,,,,,,,,
,Screen_3,canvas.Screen,0_2_25_2,,skipped,26,124502,,,124500,,124502,2021-10-27T19:38:42.910Z,124558.64,1635363393,full,ni_sequenzen,NI_Sequenzen,,,,,,,,,,,,,,
,Screen_4,canvas.Screen,0_2_25_3,,skipped,26,124503,,,124500,,124503,2021-10-27T19:38:42.911Z,124558.64,1635363393,full,ni_sequenzen,NI_Sequenzen,,,,,,,,,,,,,,
,Screen_5,canvas.Screen,0_2_25_4,,skipped,26,124504,,,124500,,124504,2021-10-27T19:38:42.912Z,124558.64,1635363393,full,ni_sequenzen,NI_Sequenzen,,,,,,,,,,,,,,
,Screen_6,canvas.Screen,0_2_25_5,,skipped,26,124505,,,124500,,124505,2021-10-27T19:38:42.913Z,124558.64,1635363393,full,ni_sequenzen,NI_Sequenzen,,,,,,,,,,,,,,
,Sequence,flow.Sequence,0_2_25,,completion,26,124499,,,124500,,124505,2021-10-27T19:38:42.913Z,124558.64,1635363393,full,ni_sequenzen,NI_Sequenzen,,,,,,,,,,,,,,
,Screen_1,canvas.Screen,0_2_26_0,,skipped,27,124506,,,124506,,124506,2021-10-27T19:38:42.915Z,124558.64,1635363393,full,ni_sequenzen,NI_Sequenzen,,,,,,,,,,,,,,
,Screen_2,canvas.Screen,0_2_26_1,,skipped,27,124507,,,124506,,124508,2021-10-27T19:38:42.916Z,124558.64,1635363393,full,ni_sequenzen,NI_Sequenzen,,,,,,,,,,,,,,
,Screen_3,canvas.Screen,0_2_26_2,,skipped,27,124508,,,124506,,124508,2021-10-27T19:38:42.917Z,124558.64,1635363393,full,ni_sequenzen,NI_Sequenzen,,,,,,,,,,,,,,
,Screen_4,canvas.Screen,0_2_26_3,,skipped,27,124509,,,124506,,124509,2021-10-27T19:38:42.918Z,124558.64,1635363393,full,ni_sequenzen,NI_Sequenzen,,,,,,,,,,,,,,
,Screen_5,canvas.Screen,0_2_26_4,,skipped,27,124511,,,124506,,124511,2021-10-27T19:38:42.919Z,124558.64,1635363393,full,ni_sequenzen,NI_Sequenzen,,,,,,,,,,,,,,
,Screen_6,canvas.Screen,0_2_26_5,,skipped,27,124511,,,124506,,124511,2021-10-27T19:38:42.920Z,124558.64,1635363393,full,ni_sequenzen,NI_Sequenzen,,,,,,,,,,,,,,
,Sequence,flow.Sequence,0_2_26,,completion,27,124506,,,124506,,124511,2021-10-27T19:38:42.920Z,124558.64,1635363393,full,ni_sequenzen,NI_Sequenzen,,,,,,,,,,,,,,
,Screen_1,canvas.Screen,0_2_27_0,,skipped,28,124513,,,124513,,124513,2021-10-27T19:38:42.922Z,124558.64,1635363393,full,ni_sequenzen,NI_Sequenzen,,,,,,,,,,,,,,
,Screen_2,canvas.Screen,0_2_27_1,,skipped,28,124514,,,124513,,124514,2021-10-27T19:38:42.923Z,124558.64,1635363393,full,ni_sequenzen,NI_Sequenzen,,,,,,,,,,,,,,
,Screen_3,canvas.Screen,0_2_27_2,,skipped,28,124515,,,124513,,124515,2021-10-27T19:38:42.923Z,124558.64,1635363393,full,ni_sequenzen,NI_Sequenzen,,,,,,,,,,,,,,
,Screen_4,canvas.Screen,0_2_27_3,,skipped,28,124516,,,124513,,124516,2021-10-27T19:38:42.924Z,124558.64,1635363393,full,ni_sequenzen,NI_Sequenzen,,,,,,,,,,,,,,
,Screen_5,canvas.Screen,0_2_27_4,,skipped,28,124517,,,124513,,124517,2021-10-27T19:38:42.925Z,124558.64,1635363393,full,ni_sequenzen,NI_Sequenzen,,,,,,,,,,,,,,
,Screen_6,canvas.Screen,0_2_27_5,,skipped,28,124518,,,124513,,124518,2021-10-27T19:38:42.927Z,124558.64,1635363393,full,ni_sequenzen,NI_Sequenzen,,,,,,,,,,,,,,
,Sequence,flow.Sequence,0_2_27,,completion,28,124512,,,124513,,124518,2021-10-27T19:38:42.927Z,124558.64,1635363393,full,ni_sequenzen,NI_Sequenzen,,,,,,,,,,,,,,
,Screen_1,canvas.Screen,0_2_28_0,,skipped,29,124520,,,124520,,124520,2021-10-27T19:38:42.928Z,124558.64,1635363393,full,ni_sequenzen,NI_Sequenzen,,,,,,,,,,,,,,
,Screen_2,canvas.Screen,0_2_28_1,,skipped,29,124521,,,124520,,124521,2021-10-27T19:38:42.930Z,124558.64,1635363393,full,ni_sequenzen,NI_Sequenzen,,,,,,,,,,,,,,
,Screen_3,canvas.Screen,0_2_28_2,,skipped,29,124523,,,124520,,124523,2021-10-27T19:38:42.931Z,124558.64,1635363393,full,ni_sequenzen,NI_Sequenzen,,,,,,,,,,,,,,
,Screen_4,canvas.Screen,0_2_28_3,,skipped,29,124525,,,124520,,124525,2021-10-27T19:38:42.933Z,124558.64,1635363393,full,ni_sequenzen,NI_Sequenzen,,,,,,,,,,,,,,
,Screen_5,canvas.Screen,0_2_28_4,,skipped,29,124526,,,124520,,124526,2021-10-27T19:38:42.934Z,124558.64,1635363393,full,ni_sequenzen,NI_Sequenzen,,,,,,,,,,,,,,
,Screen_6,canvas.Screen,0_2_28_5,,skipped,29,124527,,,124520,,124527,2021-10-27T19:38:42.935Z,124558.64,1635363393,full,ni_sequenzen,NI_Sequenzen,,,,,,,,,,,,,,
,Sequence,flow.Sequence,0_2_28,,completion,29,124518,,,124520,,124527,2021-10-27T19:38:42.935Z,124558.64,1635363393,full,ni_sequenzen,NI_Sequenzen,,,,,,,,,,,,,,
,Screen_1,canvas.Screen,0_2_29_0,,skipped,30,124528,,,124528,,124528,2021-10-27T19:38:42.937Z,124558.64,1635363393,full,ni_sequenzen,NI_Sequenzen,,,,,,,,,,,,,,
,Screen_2,canvas.Screen,0_2_29_1,,skipped,30,124529,,,124528,,124529,2021-10-27T19:38:42.938Z,124558.64,1635363393,full,ni_sequenzen,NI_Sequenzen,,,,,,,,,,,,,,
,Screen_3,canvas.Screen,0_2_29_2,,skipped,30,124530,,,124528,,124530,2021-10-27T19:38:42.938Z,124558.64,1635363393,full,ni_sequenzen,NI_Sequenzen,,,,,,,,,,,,,,
,Screen_4,canvas.Screen,0_2_29_3,,skipped,30,124531,,,124528,,124531,2021-10-27T19:38:42.939Z,124558.64,1635363393,full,ni_sequenzen,NI_Sequenzen,,,,,,,,,,,,,,
,Screen_5,canvas.Screen,0_2_29_4,,skipped,30,124532,,,124528,,124532,2021-10-27T19:38:42.940Z,124558.64,1635363393,full,ni_sequenzen,NI_Sequenzen,,,,,,,,,,,,,,
,Screen_6,canvas.Screen,0_2_29_5,,skipped,30,124533,,,124528,,124533,2021-10-27T19:38:42.941Z,124558.64,1635363393,full,ni_sequenzen,NI_Sequenzen,,,,,,,,,,,,,,
,Sequence,flow.Sequence,0_2_29,,completion,30,124528,,,124528,,124533,2021-10-27T19:38:42.941Z,124558.64,1635363393,full,ni_sequenzen,NI_Sequenzen,,,,,,,,,,,,,,
,Instructions_II,flow.Loop,0_2,,completion,,76695,76700.28,76700.78,124528,47827.22,124534,2021-10-27T19:38:42.942Z,124558.64,1635363393,full,ni_sequenzen,NI_Sequenzen,,,,,,,,,,,,,,
,Move,canvas.Screen,0_3_0_0_0_0,right,response,,124555,124555.4,124558.64,134346,9787.36,134355,2021-10-27T19:38:52.763Z,134374.04,1635363393,full,ni_sequenzen,NI_Sequenzen,1,0,,,,,,,,,,,,
,Move,canvas.Screen,0_3_0_0_0_1,down,response,,134371,134371.32,134374.04,135987,1612.9599999999919,135994,2021-10-27T19:38:54.402Z,136023.82,1635363393,full,ni_sequenzen,NI_Sequenzen,2,0,,,,,,,,,,,,
,Move,canvas.Screen,0_3_0_0_0_2,right,response,,136023,136023.28,136023.82,139815,3791.179999999993,139830,2021-10-27T19:38:58.237Z,139843.42,1635363393,full,ni_sequenzen,NI_Sequenzen,3,0,,,,,,,,,,,,
,Move,canvas.Screen,0_3_0_0_0_3,down,response,,139843,139843.1,139843.42,140548,704.5799999999872,140564,2021-10-27T19:38:58.972Z,140713.74,1635363393,full,ni_sequenzen,NI_Sequenzen,4,0,,,,,,,,,,,,
,Move,canvas.Screen,0_3_0_0_0_4,-999,skipped,,140588,,,140548,,140588,2021-10-27T19:38:58.997Z,140713.74,1635363393,full,ni_sequenzen,NI_Sequenzen,5,0,,,,,,,,,,,,
,Move,canvas.Screen,0_3_0_0_0_5,-999,skipped,,140610,,,140548,,140610,2021-10-27T19:38:59.018Z,140713.74,1635363393,full,ni_sequenzen,NI_Sequenzen,6,0,,,,,,,,,,,,
,Move,canvas.Screen,0_3_0_0_0_6,-999,skipped,,140627,,,140548,,140627,2021-10-27T19:38:59.035Z,140713.74,1635363393,full,ni_sequenzen,NI_Sequenzen,7,0,,,,,,,,,,,,
,Move,canvas.Screen,0_3_0_0_0_7,-999,skipped,,140643,,,140548,,140643,2021-10-27T19:38:59.051Z,140713.74,1635363393,full,ni_sequenzen,NI_Sequenzen,8,0,,,,,,,,,,,,
,Move,canvas.Screen,0_3_0_0_0_8,-999,skipped,,140658,,,140548,,140658,2021-10-27T19:38:59.066Z,140713.74,1635363393,full,ni_sequenzen,NI_Sequenzen,9,0,,,,,,,,,,,,
,Move,canvas.Screen,0_3_0_0_0_9,-999,skipped,,140673,,,140548,,140673,2021-10-27T19:38:59.082Z,140713.74,1635363393,full,ni_sequenzen,NI_Sequenzen,10,0,,,,,,,,,,,,
,Move,canvas.Screen,0_3_0_0_0_10,-999,skipped,,140684,,,140548,,140684,2021-10-27T19:38:59.092Z,140713.74,1635363393,full,ni_sequenzen,NI_Sequenzen,11,0,,,,,,,,,,,,
,Move,canvas.Screen,0_3_0_0_0_11,-999,skipped,,140691,,,140548,,140692,2021-10-27T19:38:59.100Z,140713.74,1635363393,full,ni_sequenzen,NI_Sequenzen,12,0,,,,,,,,,,,,
,Move,canvas.Screen,0_3_0_0_0_12,-999,skipped,,140698,,,140548,,140698,2021-10-27T19:38:59.107Z,140713.74,1635363393,full,ni_sequenzen,NI_Sequenzen,13,0,,,,,,,,,,,,
,Move,canvas.Screen,0_3_0_0_0_13,-999,skipped,,140704,,,140548,,140704,2021-10-27T19:38:59.112Z,140713.74,1635363393,full,ni_sequenzen,NI_Sequenzen,14,0,,,,,,,,,,,,
,Move,canvas.Screen,0_3_0_0_0_14,-999,skipped,,140709,,,140548,,140709,2021-10-27T19:38:59.117Z,140713.74,1635363393,full,ni_sequenzen,NI_Sequenzen,15,0,,,,,,,,,,,,
,Loop,flow.Loop,0_3_0_0_0,-999,completion,,124550,124555.4,124558.64,140548,15989.36,140710,2021-10-27T19:38:59.118Z,140713.74,1635363393,full,ni_sequenzen,NI_Sequenzen,,0,,,,,,,,,,,,
,Feedback,canvas.Screen,0_3_0_0_1,,timeout,,140714,140713.5,140713.74,144689.58,4039.0200000000186,144692,2021-10-27T19:39:03.099Z,144752.76,1635363393,full,ni_sequenzen,NI_Sequenzen,,0,,,,,,,,,,,,
,Trial,flow.Sequence,0_3_0_0,,completion,,124544,124555.4,124558.64,144689.58,20130.939999999988,144692,2021-10-27T19:39:03.100Z,144756.06,1635363393,full,ni_sequenzen,NI_Sequenzen,,0,,,,,,,,,,,,
,Move,canvas.Screen,0_3_0_1_0_0,right,response,,144753,144752.76,144756.06,149034,4277.940000000002,149040,2021-10-27T19:39:07.448Z,149059.58,1635363393,full,ni_sequenzen,NI_Sequenzen,1,1,,,,,,,,,,,,
,Move,canvas.Screen,0_3_0_1_0_1,down,response,,149059,149058.96,149059.58,149690,630.4200000000128,149706,2021-10-27T19:39:08.114Z,149726.06,1635363393,full,ni_sequenzen,NI_Sequenzen,2,1,,,,,,,,,,,,
,Move,canvas.Screen,0_3_0_1_0_2,right,response,,149725,149725.54,149726.06,150456,729.9400000000023,150464,2021-10-27T19:39:08.872Z,150482.3,1635363393,full,ni_sequenzen,NI_Sequenzen,3,1,,,,,,,,,,,,
,Move,canvas.Screen,0_3_0_1_0_3,down,response,,150481,150481.68,150482.3,151315,832.7000000000116,151332,2021-10-27T19:39:09.740Z,151473.72,1635363393,full,ni_sequenzen,NI_Sequenzen,4,1,,,,,,,,,,,,
,Move,canvas.Screen,0_3_0_1_0_4,-999,skipped,,151350,,,151315,,151350,2021-10-27T19:39:09.758Z,151473.72,1635363393,full,ni_sequenzen,NI_Sequenzen,5,1,,,,,,,,,,,,
,Move,canvas.Screen,0_3_0_1_0_5,-999,skipped,,151366,,,151315,,151367,2021-10-27T19:39:09.776Z,151473.72,1635363393,full,ni_sequenzen,NI_Sequenzen,6,1,,,,,,,,,,,,
,Move,canvas.Screen,0_3_0_1_0_6,-999,skipped,,151382,,,151315,,151383,2021-10-27T19:39:09.791Z,151473.72,1635363393,full,ni_sequenzen,NI_Sequenzen,7,1,,,,,,,,,,,,
,Move,canvas.Screen,0_3_0_1_0_7,-999,skipped,,151395,,,151315,,151396,2021-10-27T19:39:09.805Z,151473.72,1635363393,full,ni_sequenzen,NI_Sequenzen,8,1,,,,,,,,,,,,
,Move,canvas.Screen,0_3_0_1_0_8,-999,skipped,,151408,,,151315,,151408,2021-10-27T19:39:09.817Z,151473.72,1635363393,full,ni_sequenzen,NI_Sequenzen,9,1,,,,,,,,,,,,
,Move,canvas.Screen,0_3_0_1_0_9,-999,skipped,,151423,,,151315,,151423,2021-10-27T19:39:09.831Z,151473.72,1635363393,full,ni_sequenzen,NI_Sequenzen,10,1,,,,,,,,,,,,
,Move,canvas.Screen,0_3_0_1_0_10,-999,skipped,,151435,,,151315,,151435,2021-10-27T19:39:09.844Z,151473.72,1635363393,full,ni_sequenzen,NI_Sequenzen,11,1,,,,,,,,,,,,
,Move,canvas.Screen,0_3_0_1_0_11,-999,skipped,,151447,,,151315,,151447,2021-10-27T19:39:09.856Z,151473.72,1635363393,full,ni_sequenzen,NI_Sequenzen,12,1,,,,,,,,,,,,
,Move,canvas.Screen,0_3_0_1_0_12,-999,skipped,,151455,,,151315,,151456,2021-10-27T19:39:09.864Z,151473.72,1635363393,full,ni_sequenzen,NI_Sequenzen,13,1,,,,,,,,,,,,
,Move,canvas.Screen,0_3_0_1_0_13,-999,skipped,,151463,,,151315,,151463,2021-10-27T19:39:09.871Z,151473.72,1635363393,full,ni_sequenzen,NI_Sequenzen,14,1,,,,,,,,,,,,
,Move,canvas.Screen,0_3_0_1_0_14,-999,skipped,,151469,,,151315,,151469,2021-10-27T19:39:09.877Z,151473.72,1635363393,full,ni_sequenzen,NI_Sequenzen,15,1,,,,,,,,,,,,
,Loop,flow.Loop,0_3_0_1_0,-999,completion,,144736,144752.76,144756.06,151315,6558.940000000002,151469,2021-10-27T19:39:09.878Z,151473.72,1635363393,full,ni_sequenzen,NI_Sequenzen,,1,,,,,,,,,,,,
,Feedback,canvas.Screen,0_3_0_1_1,,timeout,,151473,151473.42,151473.72,155454.64,4014.0199999999895,155455,2021-10-27T19:39:13.864Z,155487.74,1635363393,full,ni_sequenzen,NI_Sequenzen,,1,,,,,,,,,,,,
,Trial,flow.Sequence,0_3_0_1,,completion,,144694,144752.76,144756.06,155454.64,10698.580000000016,155456,2021-10-27T19:39:13.864Z,155487.96,1635363393,full,ni_sequenzen,NI_Sequenzen,,1,,,,,,,,,,,,
,Move,canvas.Screen,0_3_0_2_0_0,right,response,,155487,155487.74,155487.96,159924,4436.040000000008,159935,2021-10-27T19:39:18.343Z,159954.06,1635363393,full,ni_sequenzen,NI_Sequenzen,1,2,,,,,,,,,,,,
,Move,canvas.Screen,0_3_0_2_0_1,down,response,,159950,159950.18,159954.06,160362,407.9400000000023,160377,2021-10-27T19:39:18.785Z,160394.58,1635363393,full,ni_sequenzen,NI_Sequenzen,2,2,,,,,,,,,,,,
,Move,canvas.Screen,0_3_0_2_0_2,right,response,,160393,160393.96,160394.58,160909,514.4200000000128,160914,2021-10-27T19:39:19.322Z,160932.32,1635363393,full,ni_sequenzen,NI_Sequenzen,3,2,,,,,,,,,,,,
,Move,canvas.Screen,0_3_0_2_0_3,down,response,,160932,160931.8,160932.32,161456,523.679999999993,161465,2021-10-27T19:39:19.874Z,161598.5,1635363393,full,ni_sequenzen,NI_Sequenzen,4,2,,,,,,,,,,,,
,Move,canvas.Screen,0_3_0_2_0_4,-999,skipped,,161483,,,161456,,161483,2021-10-27T19:39:19.892Z,161598.5,1635363393,full,ni_sequenzen,NI_Sequenzen,5,2,,,,,,,,,,,,
,Move,canvas.Screen,0_3_0_2_0_5,-999,skipped,,161498,,,161456,,161498,2021-10-27T19:39:19.906Z,161598.5,1635363393,full,ni_sequenzen,NI_Sequenzen,6,2,,,,,,,,,,,,
,Move,canvas.Screen,0_3_0_2_0_6,-999,skipped,,161511,,,161456,,161512,2021-10-27T19:39:19.920Z,161598.5,1635363393,full,ni_sequenzen,NI_Sequenzen,7,2,,,,,,,,,,,,
,Move,canvas.Screen,0_3_0_2_0_7,-999,skipped,,161524,,,161456,,161524,2021-10-27T19:39:19.932Z,161598.5,1635363393,full,ni_sequenzen,NI_Sequenzen,8,2,,,,,,,,,,,,
,Move,canvas.Screen,0_3_0_2_0_8,-999,skipped,,161537,,,161456,,161537,2021-10-27T19:39:19.946Z,161598.5,1635363393,full,ni_sequenzen,NI_Sequenzen,9,2,,,,,,,,,,,,
,Move,canvas.Screen,0_3_0_2_0_9,-999,skipped,,161550,,,161456,,161550,2021-10-27T19:39:19.959Z,161598.5,1635363393,full,ni_sequenzen,NI_Sequenzen,10,2,,,,,,,,,,,,
,Move,canvas.Screen,0_3_0_2_0_10,-999,skipped,,161562,,,161456,,161563,2021-10-27T19:39:19.970Z,161598.5,1635363393,full,ni_sequenzen,NI_Sequenzen,11,2,,,,,,,,,,,,
,Move,canvas.Screen,0_3_0_2_0_11,-999,skipped,,161573,,,161456,,161573,2021-10-27T19:39:19.981Z,161598.5,1635363393,full,ni_sequenzen,NI_Sequenzen,12,2,,,,,,,,,,,,
,Move,canvas.Screen,0_3_0_2_0_12,-999,skipped,,161581,,,161456,,161581,2021-10-27T19:39:19.989Z,161598.5,1635363393,full,ni_sequenzen,NI_Sequenzen,13,2,,,,,,,,,,,,
,Move,canvas.Screen,0_3_0_2_0_13,-999,skipped,,161588,,,161456,,161588,2021-10-27T19:39:19.996Z,161598.5,1635363393,full,ni_sequenzen,NI_Sequenzen,14,2,,,,,,,,,,,,
,Move,canvas.Screen,0_3_0_2_0_14,-999,skipped,,161593,,,161456,,161593,2021-10-27T19:39:20.001Z,161598.5,1635363393,full,ni_sequenzen,NI_Sequenzen,15,2,,,,,,,,,,,,
,Loop,flow.Loop,0_3_0_2_0,-999,completion,,155479,155487.74,155487.96,161456,5968.040000000008,161594,2021-10-27T19:39:20.002Z,161598.5,1635363393,full,ni_sequenzen,NI_Sequenzen,,2,,,,,,,,,,,,
,Feedback,canvas.Screen,0_3_0_2_1,,timeout,,161599,161598.28,161598.5,165586.92,4028.6199999999953,165588,2021-10-27T19:39:23.996Z,165627.12,1635363393,full,ni_sequenzen,NI_Sequenzen,,2,,,,,,,,,,,,
,Trial,flow.Sequence,0_3_0_2,,completion,,155457,155487.74,155487.96,165586.92,10098.960000000021,165590,2021-10-27T19:39:23.998Z,165636.66,1635363393,full,ni_sequenzen,NI_Sequenzen,,2,,,,,,,,,,,,
,Move,canvas.Screen,0_3_0_3_0_0,right,response,,165627,165627.12,165636.66,169581,3944.3399999999965,169600,2021-10-27T19:39:28.008Z,169607.9,1635363393,full,ni_sequenzen,NI_Sequenzen,1,3,,,,,,,,,,,,
,Move,canvas.Screen,0_3_0_3_0_1,down,response,,169607,169607.68,169607.9,169956,348.1000000000058,169959,2021-10-27T19:39:28.367Z,169977.28,1635363393,full,ni_sequenzen,NI_Sequenzen,2,3,,,,,,,,,,,,
,Move,canvas.Screen,0_3_0_3_0_2,right,response,,169976,169976.6,169977.28,170331,353.72000000000116,170335,2021-10-27T19:39:28.744Z,170353.42,1635363393,full,ni_sequenzen,NI_Sequenzen,3,3,,,,,,,,,,,,
,Move,canvas.Screen,0_3_0_3_0_3,down,response,,170353,170352.98,170353.42,170706,352.5799999999872,170718,2021-10-27T19:39:29.127Z,170848.28,1635363393,full,ni_sequenzen,NI_Sequenzen,4,3,,,,,,,,,,,,
,Move,canvas.Screen,0_3_0_3_0_4,-999,skipped,,170735,,,170706,,170735,2021-10-27T19:39:29.143Z,170848.28,1635363393,full,ni_sequenzen,NI_Sequenzen,5,3,,,,,,,,,,,,
,Move,canvas.Screen,0_3_0_3_0_5,-999,skipped,,170749,,,170706,,170749,2021-10-27T19:39:29.158Z,170848.28,1635363393,full,ni_sequenzen,NI_Sequenzen,6,3,,,,,,,,,,,,
,Move,canvas.Screen,0_3_0_3_0_6,-999,skipped,,170762,,,170706,,170762,2021-10-27T19:39:29.171Z,170848.28,1635363393,full,ni_sequenzen,NI_Sequenzen,7,3,,,,,,,,,,,,
,Move,canvas.Screen,0_3_0_3_0_7,-999,skipped,,170775,,,170706,,170775,2021-10-27T19:39:29.184Z,170848.28,1635363393,full,ni_sequenzen,NI_Sequenzen,8,3,,,,,,,,,,,,
,Move,canvas.Screen,0_3_0_3_0_8,-999,skipped,,170787,,,170706,,170787,2021-10-27T19:39:29.195Z,170848.28,1635363393,full,ni_sequenzen,NI_Sequenzen,9,3,,,,,,,,,,,,
,Move,canvas.Screen,0_3_0_3_0_9,-999,skipped,,170798,,,170706,,170798,2021-10-27T19:39:29.207Z,170848.28,1635363393,full,ni_sequenzen,NI_Sequenzen,10,3,,,,,,,,,,,,
,Move,canvas.Screen,0_3_0_3_0_10,-999,skipped,,170810,,,170706,,170810,2021-10-27T19:39:29.218Z,170848.28,1635363393,full,ni_sequenzen,NI_Sequenzen,11,3,,,,,,,,,,,,
,Move,canvas.Screen,0_3_0_3_0_11,-999,skipped,,170823,,,170706,,170823,2021-10-27T19:39:29.231Z,170848.28,1635363393,full,ni_sequenzen,NI_Sequenzen,12,3,,,,,,,,,,,,
,Move,canvas.Screen,0_3_0_3_0_12,-999,skipped,,170831,,,170706,,170831,2021-10-27T19:39:29.239Z,170848.28,1635363393,full,ni_sequenzen,NI_Sequenzen,13,3,,,,,,,,,,,,
,Move,canvas.Screen,0_3_0_3_0_13,-999,skipped,,170838,,,170706,,170838,2021-10-27T19:39:29.245Z,170848.28,1635363393,full,ni_sequenzen,NI_Sequenzen,14,3,,,,,,,,,,,,
,Move,canvas.Screen,0_3_0_3_0_14,-999,skipped,,170844,,,170706,,170844,2021-10-27T19:39:29.252Z,170848.28,1635363393,full,ni_sequenzen,NI_Sequenzen,15,3,,,,,,,,,,,,
,Loop,flow.Loop,0_3_0_3_0,-999,completion,,165613,165627.12,165636.66,170706,5069.3399999999965,170844,2021-10-27T19:39:29.252Z,170848.28,1635363393,full,ni_sequenzen,NI_Sequenzen,,3,,,,,,,,,,,,
,Feedback,canvas.Screen,0_3_0_3_1,,timeout,,170848,170848.02,170848.28,174835.5,4021.100000000006,174837,2021-10-27T19:39:33.245Z,174869.38,1635363393,full,ni_sequenzen,NI_Sequenzen,,3,,,,,,,,,,,,
,Trial,flow.Sequence,0_3_0_3,,completion,,165591,165627.12,165636.66,174835.5,9198.839999999997,174837,2021-10-27T19:39:33.245Z,174885.5,1635363393,full,ni_sequenzen,NI_Sequenzen,,3,,,,,,,,,,,,
,Move,canvas.Screen,0_3_0_4_0_0,right,response,,174869,174869.38,174885.5,176017,1131.5,176027,2021-10-27T19:39:34.435Z,176044.38,1635363393,full,ni_sequenzen,NI_Sequenzen,1,4,,,,,,,,,,,,
,Move,canvas.Screen,0_3_0_4_0_1,down,response,,176044,176043.82,176044.38,176362,317.61999999999534,176368,2021-10-27T19:39:34.776Z,176384.86,1635363393,full,ni_sequenzen,NI_Sequenzen,2,4,,,,,,,,,,,,
,Move,canvas.Screen,0_3_0_4_0_2,right,response,,176384,176384.36,176384.86,176721,336.14000000001397,176730,2021-10-27T19:39:35.138Z,176768.54,1635363393,full,ni_sequenzen,NI_Sequenzen,3,4,,,,,,,,,,,,
,Move,canvas.Screen,0_3_0_4_0_3,down,response,,176768,176768.12,176768.54,177081,312.45999999999185,177098,2021-10-27T19:39:35.506Z,177310.78,1635363393,full,ni_sequenzen,NI_Sequenzen,4,4,,,,,,,,,,,,
,Move,canvas.Screen,0_3_0_4_0_4,-999,skipped,,177128,,,177081,,177129,2021-10-27T19:39:35.536Z,177310.78,1635363393,full,ni_sequenzen,NI_Sequenzen,5,4,,,,,,,,,,,,
,Move,canvas.Screen,0_3_0_4_0_5,-999,skipped,,177156,,,177081,,177157,2021-10-27T19:39:35.565Z,177310.78,1635363393,full,ni_sequenzen,NI_Sequenzen,6,4,,,,,,,,,,,,
,Move,canvas.Screen,0_3_0_4_0_6,-999,skipped,,177180,,,177081,,177180,2021-10-27T19:39:35.589Z,177310.78,1635363393,full,ni_sequenzen,NI_Sequenzen,7,4,,,,,,,,,,,,
,Move,canvas.Screen,0_3_0_4_0_7,-999,skipped,,177199,,,177081,,177200,2021-10-27T19:39:35.609Z,177310.78,1635363393,full,ni_sequenzen,NI_Sequenzen,8,4,,,,,,,,,,,,
,Move,canvas.Screen,0_3_0_4_0_8,-999,skipped,,177217,,,177081,,177217,2021-10-27T19:39:35.625Z,177310.78,1635363393,full,ni_sequenzen,NI_Sequenzen,9,4,,,,,,,,,,,,
,Move,canvas.Screen,0_3_0_4_0_9,-999,skipped,,177235,,,177081,,177235,2021-10-27T19:39:35.644Z,177310.78,1635363393,full,ni_sequenzen,NI_Sequenzen,10,4,,,,,,,,,,,,
,Move,canvas.Screen,0_3_0_4_0_10,-999,skipped,,177250,,,177081,,177250,2021-10-27T19:39:35.658Z,177310.78,1635363393,full,ni_sequenzen,NI_Sequenzen,11,4,,,,,,,,,,,,
,Move,canvas.Screen,0_3_0_4_0_11,-999,skipped,,177265,,,177081,,177265,2021-10-27T19:39:35.673Z,177310.78,1635363393,full,ni_sequenzen,NI_Sequenzen,12,4,,,,,,,,,,,,
,Move,canvas.Screen,0_3_0_4_0_12,-999,skipped,,177277,,,177081,,177278,2021-10-27T19:39:35.686Z,177310.78,1635363393,full,ni_sequenzen,NI_Sequenzen,13,4,,,,,,,,,,,,
,Move,canvas.Screen,0_3_0_4_0_13,-999,skipped,,177290,,,177081,,177290,2021-10-27T19:39:35.699Z,177310.78,1635363393,full,ni_sequenzen,NI_Sequenzen,14,4,,,,,,,,,,,,
,Move,canvas.Screen,0_3_0_4_0_14,-999,skipped,,177300,,,177081,,177300,2021-10-27T19:39:35.709Z,177310.78,1635363393,full,ni_sequenzen,NI_Sequenzen,15,4,,,,,,,,,,,,
,Loop,flow.Loop,0_3_0_4_0,-999,completion,,174855,174869.38,174885.5,177081,2195.5,177301,2021-10-27T19:39:35.710Z,177310.78,1635363393,full,ni_sequenzen,NI_Sequenzen,,4,,,,,,,,,,,,
,Feedback,canvas.Screen,0_3_0_4_1,,timeout,,177310,177310.36,177310.78,181301.32,4054.0599999999977,181303,2021-10-27T19:39:39.711Z,181364.84,1635363393,full,ni_sequenzen,NI_Sequenzen,,4,,,,,,,,,,,,
,Trial,flow.Sequence,0_3_0_4,,completion,,174838,174869.38,174885.5,181301.32,6415.820000000007,181303,2021-10-27T19:39:39.712Z,181367.96,1635363393,full,ni_sequenzen,NI_Sequenzen,,4,,,,,,,,,,,,
,Move,canvas.Screen,0_3_0_5_0_0,right,response,,181365,181364.84,181367.96,182862,1494.0400000000081,182870,2021-10-27T19:39:41.278Z,182888.54,1635363393,full,ni_sequenzen,NI_Sequenzen,1,5,,,,,,,,,,,,
,Move,canvas.Screen,0_3_0_5_0_1,down,response,,182888,182887.98,182888.54,183237,348.45999999999185,183247,2021-10-27T19:39:41.655Z,183267.46,1635363393,full,ni_sequenzen,NI_Sequenzen,2,5,,,,,,,,,,,,
,Move,canvas.Screen,0_3_0_5_0_2,right,response,,183267,183267.04,183267.46,183643,375.54000000000815,183657,2021-10-27T19:39:42.065Z,183675.58,1635363393,full,ni_sequenzen,NI_Sequenzen,3,5,,,,,,,,,,,,
,Move,canvas.Screen,0_3_0_5_0_3,down,response,,183675,183675.08,183675.58,184034,358.4200000000128,184039,2021-10-27T19:39:42.447Z,184198.42,1635363393,full,ni_sequenzen,NI_Sequenzen,4,5,,,,,,,,,,,,
,Move,canvas.Screen,0_3_0_5_0_4,-999,skipped,,184058,,,184034,,184058,2021-10-27T19:39:42.467Z,184198.42,1635363393,full,ni_sequenzen,NI_Sequenzen,5,5,,,,,,,,,,,,
,Move,canvas.Screen,0_3_0_5_0_5,-999,skipped,,184073,,,184034,,184073,2021-10-27T19:39:42.483Z,184198.42,1635363393,full,ni_sequenzen,NI_Sequenzen,6,5,,,,,,,,,,,,
,Move,canvas.Screen,0_3_0_5_0_6,-999,skipped,,184089,,,184034,,184089,2021-10-27T19:39:42.497Z,184198.42,1635363393,full,ni_sequenzen,NI_Sequenzen,7,5,,,,,,,,,,,,
,Move,canvas.Screen,0_3_0_5_0_7,-999,skipped,,184104,,,184034,,184104,2021-10-27T19:39:42.512Z,184198.42,1635363393,full,ni_sequenzen,NI_Sequenzen,8,5,,,,,,,,,,,,
,Move,canvas.Screen,0_3_0_5_0_8,-999,skipped,,184121,,,184034,,184122,2021-10-27T19:39:42.530Z,184198.42,1635363393,full,ni_sequenzen,NI_Sequenzen,9,5,,,,,,,,,,,,
,Move,canvas.Screen,0_3_0_5_0_9,-999,skipped,,184135,,,184034,,184135,2021-10-27T19:39:42.543Z,184198.42,1635363393,full,ni_sequenzen,NI_Sequenzen,10,5,,,,,,,,,,,,
,Move,canvas.Screen,0_3_0_5_0_10,-999,skipped,,184147,,,184034,,184147,2021-10-27T19:39:42.555Z,184198.42,1635363393,full,ni_sequenzen,NI_Sequenzen,11,5,,,,,,,,,,,,
,Move,canvas.Screen,0_3_0_5_0_11,-999,skipped,,184159,,,184034,,184159,2021-10-27T19:39:42.567Z,184198.42,1635363393,full,ni_sequenzen,NI_Sequenzen,12,5,,,,,,,,,,,,
,Move,canvas.Screen,0_3_0_5_0_12,-999,skipped,,184175,,,184034,,184175,2021-10-27T19:39:42.583Z,184198.42,1635363393,full,ni_sequenzen,NI_Sequenzen,13,5,,,,,,,,,,,,
,Move,canvas.Screen,0_3_0_5_0_13,-999,skipped,,184184,,,184034,,184184,2021-10-27T19:39:42.593Z,184198.42,1635363393,full,ni_sequenzen,NI_Sequenzen,14,5,,,,,,,,,,,,
,Move,canvas.Screen,0_3_0_5_0_14,-999,skipped,,184192,,,184034,,184192,2021-10-27T19:39:42.601Z,184198.42,1635363393,full,ni_sequenzen,NI_Sequenzen,15,5,,,,,,,,,,,,
,Loop,flow.Loop,0_3_0_5_0,-999,completion,,181349,181364.84,181367.96,184034,2666.040000000008,184193,2021-10-27T19:39:42.601Z,184198.42,1635363393,full,ni_sequenzen,NI_Sequenzen,,5,,,,,,,,,,,,
,Feedback,canvas.Screen,0_3_0_5_1,,timeout,,184198,184198.1,184198.42,188184,4031.5999999999767,188185,2021-10-27T19:39:46.594Z,188230.02,1635363393,full,ni_sequenzen,NI_Sequenzen,,5,,,,,,,,,,,,
,Trial,flow.Sequence,0_3_0_5,,completion,,181305,181364.84,181367.96,188184,6816.040000000008,188187,2021-10-27T19:39:46.594Z,188233.76,1635363393,full,ni_sequenzen,NI_Sequenzen,,5,,,,,,,,,,,,
,Move,canvas.Screen,0_3_0_6_0_0,down,response,,188230,188230.02,188233.76,191970,3736.2399999999907,191990,2021-10-27T19:39:50.399Z,192008.16,1635363393,full,ni_sequenzen,NI_Sequenzen,1,6,,,,,,,,,,,,
,Move,canvas.Screen,0_3_0_6_0_1,left,response,,192007,192007.58,192008.16,193049,1040.8399999999965,193058,2021-10-27T19:39:51.465Z,193075.88,1635363393,full,ni_sequenzen,NI_Sequenzen,2,6,,,,,,,,,,,,
,Move,canvas.Screen,0_3_0_6_0_2,down,response,,193075,193075.4,193075.88,193643,567.1199999999953,193651,2021-10-27T19:39:52.060Z,193669.56,1635363393,full,ni_sequenzen,NI_Sequenzen,3,6,,,,,,,,,,,,
,Move,canvas.Screen,0_3_0_6_0_3,left,response,,193669,193669.02,193669.56,194220,550.4400000000023,194235,2021-10-27T19:39:52.644Z,194399.58,1635363393,full,ni_sequenzen,NI_Sequenzen,4,6,,,,,,,,,,,,
,Move,canvas.Screen,0_3_0_6_0_4,-999,skipped,,194254,,,194220,,194254,2021-10-27T19:39:52.663Z,194399.58,1635363393,full,ni_sequenzen,NI_Sequenzen,5,6,,,,,,,,,,,,
,Move,canvas.Screen,0_3_0_6_0_5,-999,skipped,,194269,,,194220,,194269,2021-10-27T19:39:52.678Z,194399.58,1635363393,full,ni_sequenzen,NI_Sequenzen,6,6,,,,,,,,,,,,
,Move,canvas.Screen,0_3_0_6_0_6,-999,skipped,,194283,,,194220,,194283,2021-10-27T19:39:52.691Z,194399.58,1635363393,full,ni_sequenzen,NI_Sequenzen,7,6,,,,,,,,,,,,
,Move,canvas.Screen,0_3_0_6_0_7,-999,skipped,,194295,,,194220,,194296,2021-10-27T19:39:52.704Z,194399.58,1635363393,full,ni_sequenzen,NI_Sequenzen,8,6,,,,,,,,,,,,
,Move,canvas.Screen,0_3_0_6_0_8,-999,skipped,,194309,,,194220,,194309,2021-10-27T19:39:52.717Z,194399.58,1635363393,full,ni_sequenzen,NI_Sequenzen,9,6,,,,,,,,,,,,
,Move,canvas.Screen,0_3_0_6_0_9,-999,skipped,,194322,,,194220,,194323,2021-10-27T19:39:52.731Z,194399.58,1635363393,full,ni_sequenzen,NI_Sequenzen,10,6,,,,,,,,,,,,
,Move,canvas.Screen,0_3_0_6_0_10,-999,skipped,,194337,,,194220,,194337,2021-10-27T19:39:52.746Z,194399.58,1635363393,full,ni_sequenzen,NI_Sequenzen,11,6,,,,,,,,,,,,
,Move,canvas.Screen,0_3_0_6_0_11,-999,skipped,,194350,,,194220,,194350,2021-10-27T19:39:52.759Z,194399.58,1635363393,full,ni_sequenzen,NI_Sequenzen,12,6,,,,,,,,,,,,
,Move,canvas.Screen,0_3_0_6_0_12,-999,skipped,,194363,,,194220,,194363,2021-10-27T19:39:52.771Z,194399.58,1635363393,full,ni_sequenzen,NI_Sequenzen,13,6,,,,,,,,,,,,
,Move,canvas.Screen,0_3_0_6_0_13,-999,skipped,,194375,,,194220,,194375,2021-10-27T19:39:52.783Z,194399.58,1635363393,full,ni_sequenzen,NI_Sequenzen,14,6,,,,,,,,,,,,
,Move,canvas.Screen,0_3_0_6_0_14,-999,skipped,,194387,,,194220,,194388,2021-10-27T19:39:52.796Z,194399.58,1635363393,full,ni_sequenzen,NI_Sequenzen,15,6,,,,,,,,,,,,
,Loop,flow.Loop,0_3_0_6_0,-999,completion,,188216,188230.02,188233.76,194220,5986.239999999991,194388,2021-10-27T19:39:52.796Z,194399.58,1635363393,full,ni_sequenzen,NI_Sequenzen,,6,,,,,,,,,,,,
,Feedback,canvas.Screen,0_3_0_6_1,,timeout,,194398,194397.6,194399.58,198382.6,4023.6200000000244,198384,2021-10-27T19:39:56.792Z,198423.2,1635363393,full,ni_sequenzen,NI_Sequenzen,,6,,,,,,,,,,,,
,Trial,flow.Sequence,0_3_0_6,,completion,,188188,188230.02,188233.76,198382.6,10148.839999999997,198386,2021-10-27T19:39:56.793Z,198432.44,1635363393,full,ni_sequenzen,NI_Sequenzen,,6,,,,,,,,,,,,
,Move,canvas.Screen,0_3_0_7_0_0,down,response,,198424,198423.2,198432.44,202611,4178.559999999998,202628,2021-10-27T19:40:01.036Z,202648.52,1635363393,full,ni_sequenzen,NI_Sequenzen,1,7,,,,,,,,,,,,
,Move,canvas.Screen,0_3_0_7_0_1,right,response,,202645,202645.68,202648.52,203362,713.4800000000105,203370,2021-10-27T19:40:01.779Z,203387.8,1635363393,full,ni_sequenzen,NI_Sequenzen,2,7,,,,,,,,,,,,
,Move,canvas.Screen,0_3_0_7_0_2,down,response,,203387,203387.24,203387.8,204003,615.2000000000116,204013,2021-10-27T19:40:02.421Z,204031.68,1635363393,full,ni_sequenzen,NI_Sequenzen,3,7,,,,,,,,,,,,
,Move,canvas.Screen,0_3_0_7_0_3,right,response,,204030,204029.68,204031.68,204424,392.320000000007,204444,2021-10-27T19:40:02.852Z,204573.4,1635363393,full,ni_sequenzen,NI_Sequenzen,4,7,,,,,,,,,,,,
,Move,canvas.Screen,0_3_0_7_0_4,-999,skipped,,204462,,,204424,,204462,2021-10-27T19:40:02.870Z,204573.4,1635363393,full,ni_sequenzen,NI_Sequenzen,5,7,,,,,,,,,,,,
,Move,canvas.Screen,0_3_0_7_0_5,-999,skipped,,204476,,,204424,,204477,2021-10-27T19:40:02.886Z,204573.4,1635363393,full,ni_sequenzen,NI_Sequenzen,6,7,,,,,,,,,,,,
,Move,canvas.Screen,0_3_0_7_0_6,-999,skipped,,204490,,,204424,,204490,2021-10-27T19:40:02.899Z,204573.4,1635363393,full,ni_sequenzen,NI_Sequenzen,7,7,,,,,,,,,,,,
,Move,canvas.Screen,0_3_0_7_0_7,-999,skipped,,204504,,,204424,,204504,2021-10-27T19:40:02.912Z,204573.4,1635363393,full,ni_sequenzen,NI_Sequenzen,8,7,,,,,,,,,,,,
,Move,canvas.Screen,0_3_0_7_0_8,-999,skipped,,204517,,,204424,,204517,2021-10-27T19:40:02.926Z,204573.4,1635363393,full,ni_sequenzen,NI_Sequenzen,9,7,,,,,,,,,,,,
,Move,canvas.Screen,0_3_0_7_0_9,-999,skipped,,204529,,,204424,,204529,2021-10-27T19:40:02.937Z,204573.4,1635363393,full,ni_sequenzen,NI_Sequenzen,10,7,,,,,,,,,,,,
,Move,canvas.Screen,0_3_0_7_0_10,-999,skipped,,204541,,,204424,,204541,2021-10-27T19:40:02.949Z,204573.4,1635363393,full,ni_sequenzen,NI_Sequenzen,11,7,,,,,,,,,,,,
,Move,canvas.Screen,0_3_0_7_0_11,-999,skipped,,204550,,,204424,,204550,2021-10-27T19:40:02.958Z,204573.4,1635363393,full,ni_sequenzen,NI_Sequenzen,12,7,,,,,,,,,,,,
,Move,canvas.Screen,0_3_0_7_0_12,-999,skipped,,204558,,,204424,,204558,2021-10-27T19:40:02.966Z,204573.4,1635363393,full,ni_sequenzen,NI_Sequenzen,13,7,,,,,,,,,,,,
,Move,canvas.Screen,0_3_0_7_0_13,-999,skipped,,204564,,,204424,,204565,2021-10-27T19:40:02.972Z,204573.4,1635363393,full,ni_sequenzen,NI_Sequenzen,14,7,,,,,,,,,,,,
,Move,canvas.Screen,0_3_0_7_0_14,-999,skipped,,204569,,,204424,,204569,2021-10-27T19:40:02.977Z,204573.4,1635363393,full,ni_sequenzen,NI_Sequenzen,15,7,,,,,,,,,,,,
,Loop,flow.Loop,0_3_0_7_0,-999,completion,,198409,198423.2,198432.44,204424,5991.559999999998,204569,2021-10-27T19:40:02.977Z,204573.4,1635363393,full,ni_sequenzen,NI_Sequenzen,,7,,,,,,,,,,,,
,Feedback,canvas.Screen,0_3_0_7_1,,timeout,,204573,204573.14,204573.4,208564.66,4028.140000000014,208566,2021-10-27T19:40:06.974Z,208601.54,1635363393,full,ni_sequenzen,NI_Sequenzen,,7,,,,,,,,,,,,
,Trial,flow.Sequence,0_3_0_7,,completion,,198387,198423.2,198432.44,208564.66,10132.220000000001,208566,2021-10-27T19:40:06.974Z,208614.44,1635363393,full,ni_sequenzen,NI_Sequenzen,,7,,,,,,,,,,,,
,Move,canvas.Screen,0_3_0_8_0_0,right,response,,208601,208601.54,208614.44,213048,4433.559999999998,213065,2021-10-27T19:40:11.473Z,213074.86,1635363393,full,ni_sequenzen,NI_Sequenzen,1,8,,,,,,,,,,,,
,Move,canvas.Screen,0_3_0_8_0_1,down,response,,213075,213074.68,213074.86,213423,348.14000000001397,213435,2021-10-27T19:40:11.843Z,213452.42,1635363393,full,ni_sequenzen,NI_Sequenzen,2,8,,,,,,,,,,,,
,Move,canvas.Screen,0_3_0_8_0_2,right,response,,213452,213451.96,213452.42,213799,346.5799999999872,213810,2021-10-27T19:40:12.219Z,213830.44,1635363393,full,ni_sequenzen,NI_Sequenzen,3,8,,,,,,,,,,,,
,Move,canvas.Screen,0_3_0_8_0_3,down,response,,213827,213826.58,213830.44,214174,343.5599999999977,214184,2021-10-27T19:40:12.592Z,214317.36,1635363393,full,ni_sequenzen,NI_Sequenzen,4,8,,,,,,,,,,,,
,Move,canvas.Screen,0_3_0_8_0_4,-999,skipped,,214200,,,214174,,214201,2021-10-27T19:40:12.609Z,214317.36,1635363393,full,ni_sequenzen,NI_Sequenzen,5,8,,,,,,,,,,,,
,Move,canvas.Screen,0_3_0_8_0_5,-999,skipped,,214214,,,214174,,214214,2021-10-27T19:40:12.623Z,214317.36,1635363393,full,ni_sequenzen,NI_Sequenzen,6,8,,,,,,,,,,,,
,Move,canvas.Screen,0_3_0_8_0_6,-999,skipped,,214228,,,214174,,214228,2021-10-27T19:40:12.636Z,214317.36,1635363393,full,ni_sequenzen,NI_Sequenzen,7,8,,,,,,,,,,,,
,Move,canvas.Screen,0_3_0_8_0_7,-999,skipped,,214241,,,214174,,214241,2021-10-27T19:40:12.649Z,214317.36,1635363393,full,ni_sequenzen,NI_Sequenzen,8,8,,,,,,,,,,,,
,Move,canvas.Screen,0_3_0_8_0_8,-999,skipped,,214253,,,214174,,214253,2021-10-27T19:40:12.661Z,214317.36,1635363393,full,ni_sequenzen,NI_Sequenzen,9,8,,,,,,,,,,,,
,Move,canvas.Screen,0_3_0_8_0_9,-999,skipped,,214266,,,214174,,214266,2021-10-27T19:40:12.674Z,214317.36,1635363393,full,ni_sequenzen,NI_Sequenzen,10,8,,,,,,,,,,,,
,Move,canvas.Screen,0_3_0_8_0_10,-999,skipped,,214278,,,214174,,214278,2021-10-27T19:40:12.687Z,214317.36,1635363393,full,ni_sequenzen,NI_Sequenzen,11,8,,,,,,,,,,,,
,Move,canvas.Screen,0_3_0_8_0_11,-999,skipped,,214292,,,214174,,214292,2021-10-27T19:40:12.700Z,214317.36,1635363393,full,ni_sequenzen,NI_Sequenzen,12,8,,,,,,,,,,,,
,Move,canvas.Screen,0_3_0_8_0_12,-999,skipped,,214299,,,214174,,214300,2021-10-27T19:40:12.708Z,214317.36,1635363393,full,ni_sequenzen,NI_Sequenzen,13,8,,,,,,,,,,,,
,Move,canvas.Screen,0_3_0_8_0_13,-999,skipped,,214307,,,214174,,214307,2021-10-27T19:40:12.715Z,214317.36,1635363393,full,ni_sequenzen,NI_Sequenzen,14,8,,,,,,,,,,,,
,Move,canvas.Screen,0_3_0_8_0_14,-999,skipped,,214312,,,214174,,214313,2021-10-27T19:40:12.721Z,214317.36,1635363393,full,ni_sequenzen,NI_Sequenzen,15,8,,,,,,,,,,,,
,Loop,flow.Loop,0_3_0_8_0,-999,completion,,208586,208601.54,208614.44,214174,5559.559999999998,214313,2021-10-27T19:40:12.721Z,214317.36,1635363393,full,ni_sequenzen,NI_Sequenzen,,8,,,,,,,,,,,,
,Feedback,canvas.Screen,0_3_0_8_1,,timeout,,214317,214317.02,214317.36,218296.54,4016,218298,2021-10-27T19:40:16.706Z,218333.36,1635363393,full,ni_sequenzen,NI_Sequenzen,,8,,,,,,,,,,,,
,Trial,flow.Sequence,0_3_0_8,,completion,,208567,208601.54,208614.44,218296.54,9682.100000000006,218298,2021-10-27T19:40:16.707Z,218346.5,1635363393,full,ni_sequenzen,NI_Sequenzen,,8,,,,,,,,,,,,
,Move,canvas.Screen,0_3_0_9_0_0,down,response,,218334,218333.36,218346.5,221220,2873.5,221230,2021-10-27T19:40:19.638Z,221245.76,1635363393,full,ni_sequenzen,NI_Sequenzen,1,9,,,,,,,,,,,,
,Move,canvas.Screen,0_3_0_9_0_1,left,response,,221245,221245.08,221245.76,221612,366.2399999999907,221629,2021-10-27T19:40:20.037Z,221647.02,1635363393,full,ni_sequenzen,NI_Sequenzen,2,9,,,,,,,,,,,,
,Move,canvas.Screen,0_3_0_9_0_2,down,response,,221646,221646.46,221647.02,222049,401.9800000000105,222063,2021-10-27T19:40:20.471Z,222080.98,1635363393,full,ni_sequenzen,NI_Sequenzen,3,9,,,,,,,,,,,,
,Move,canvas.Screen,0_3_0_9_0_3,left,response,,222080,222080.5,222080.98,222503,422.0199999999895,222513,2021-10-27T19:40:20.921Z,222656.2,1635363393,full,ni_sequenzen,NI_Sequenzen,4,9,,,,,,,,,,,,
,Move,canvas.Screen,0_3_0_9_0_4,-999,skipped,,222528,,,222503,,222528,2021-10-27T19:40:20.937Z,222656.2,1635363393,full,ni_sequenzen,NI_Sequenzen,5,9,,,,,,,,,,,,
,Move,canvas.Screen,0_3_0_9_0_5,-999,skipped,,222542,,,222503,,222542,2021-10-27T19:40:20.951Z,222656.2,1635363393,full,ni_sequenzen,NI_Sequenzen,6,9,,,,,,,,,,,,
,Move,canvas.Screen,0_3_0_9_0_6,-999,skipped,,222556,,,222503,,222557,2021-10-27T19:40:20.964Z,222656.2,1635363393,full,ni_sequenzen,NI_Sequenzen,7,9,,,,,,,,,,,,
,Move,canvas.Screen,0_3_0_9_0_7,-999,skipped,,222570,,,222503,,222570,2021-10-27T19:40:20.978Z,222656.2,1635363393,full,ni_sequenzen,NI_Sequenzen,8,9,,,,,,,,,,,,
,Move,canvas.Screen,0_3_0_9_0_8,-999,skipped,,222583,,,222503,,222583,2021-10-27T19:40:20.991Z,222656.2,1635363393,full,ni_sequenzen,NI_Sequenzen,9,9,,,,,,,,,,,,
,Move,canvas.Screen,0_3_0_9_0_9,-999,skipped,,222596,,,222503,,222596,2021-10-27T19:40:21.004Z,222656.2,1635363393,full,ni_sequenzen,NI_Sequenzen,10,9,,,,,,,,,,,,
,Move,canvas.Screen,0_3_0_9_0_10,-999,skipped,,222609,,,222503,,222609,2021-10-27T19:40:21.017Z,222656.2,1635363393,full,ni_sequenzen,NI_Sequenzen,11,9,,,,,,,,,,,,
,Move,canvas.Screen,0_3_0_9_0_11,-999,skipped,,222620,,,222503,,222621,2021-10-27T19:40:21.029Z,222656.2,1635363393,full,ni_sequenzen,NI_Sequenzen,12,9,,,,,,,,,,,,
,Move,canvas.Screen,0_3_0_9_0_12,-999,skipped,,222634,,,222503,,222634,2021-10-27T19:40:21.042Z,222656.2,1635363393,full,ni_sequenzen,NI_Sequenzen,13,9,,,,,,,,,,,,
,Move,canvas.Screen,0_3_0_9_0_13,-999,skipped,,222643,,,222503,,222643,2021-10-27T19:40:21.052Z,222656.2,1635363393,full,ni_sequenzen,NI_Sequenzen,14,9,,,,,,,,,,,,
,Move,canvas.Screen,0_3_0_9_0_14,-999,skipped,,222651,,,222503,,222651,2021-10-27T19:40:21.059Z,222656.2,1635363393,full,ni_sequenzen,NI_Sequenzen,15,9,,,,,,,,,,,,
,Loop,flow.Loop,0_3_0_9_0,-999,completion,,218317,218333.36,218346.5,222503,4156.5,222651,2021-10-27T19:40:21.059Z,222656.2,1635363393,full,ni_sequenzen,NI_Sequenzen,,9,,,,,,,,,,,,
,Feedback,canvas.Screen,0_3_0_9_1,,timeout,,222656,222655.9,222656.2,226645.62,4118.599999999977,226647,2021-10-27T19:40:25.055Z,226774.8,1635363393,full,ni_sequenzen,NI_Sequenzen,,9,,,,,,,,,,,,
,Trial,flow.Sequence,0_3_0_9,,completion,,218299,218333.36,218346.5,226645.62,8299.119999999995,226647,2021-10-27T19:40:25.056Z,226795.42,1635363393,full,ni_sequenzen,NI_Sequenzen,,9,,,,,,,,,,,,
,Block,flow.Loop,0_3_0,,completion,,124543,124555.4,124558.64,226645.62,102086.98,226648,2021-10-27T19:40:25.056Z,226795.42,1635363393,full,ni_sequenzen,NI_Sequenzen,,,,,,,,,,,,,,
,Training_II,flow.Sequence,0_3,,completion,,124534,124555.4,124558.64,226645.62,102086.98,226648,2021-10-27T19:40:25.057Z,226795.42,1635363393,full,ni_sequenzen,NI_Sequenzen,,,,,,,,,,,,,,
,Screen_1,canvas.Screen,0_4_0_0,cont,response,1,226775,226774.8,226795.42,233362,6566.579999999987,233366,2021-10-27T19:40:31.775Z,233377.9,1635363393,full,ni_sequenzen,NI_Sequenzen,,,,,,,,,,,,,,
,Screen_2,canvas.Screen,0_4_0_1,cont,response,1,233374,233373.2,233377.9,248096,14718.100000000006,248101,2021-10-27T19:40:46.509Z,248225.94,1635363393,full,ni_sequenzen,NI_Sequenzen,,,,,,,,,,,,,,
,Screen_3,canvas.Screen,0_4_0_2,cont,response,1,248213,248213.22,248225.94,257721,9495.059999999998,257731,2021-10-27T19:40:56.139Z,257865,1635363393,full,ni_sequenzen,NI_Sequenzen,,,,,,,,,,,,,,
,Sequence,flow.Sequence,0_4_0,,completion,1,226704,226774.8,226795.42,257721,30925.579999999987,257731,2021-10-27T19:40:56.140Z,257865,1635363393,full,ni_sequenzen,NI_Sequenzen,,,,,,,,,,,,,,
,Screen_1,canvas.Screen,0_4_1_0,,skipped,2,257738,,,257738,,257738,2021-10-27T19:40:56.146Z,257865,1635363393,full,ni_sequenzen,NI_Sequenzen,,,,,,,,,,,,,,
,Screen_2,canvas.Screen,0_4_1_1,,skipped,2,257739,,,257738,,257739,2021-10-27T19:40:56.147Z,257865,1635363393,full,ni_sequenzen,NI_Sequenzen,,,,,,,,,,,,,,
,Screen_3,canvas.Screen,0_4_1_2,,skipped,2,257740,,,257738,,257740,2021-10-27T19:40:56.148Z,257865,1635363393,full,ni_sequenzen,NI_Sequenzen,,,,,,,,,,,,,,
,Sequence,flow.Sequence,0_4_1,,completion,2,257735,,,257738,,257741,2021-10-27T19:40:56.149Z,257865,1635363393,full,ni_sequenzen,NI_Sequenzen,,,,,,,,,,,,,,
,Screen_1,canvas.Screen,0_4_2_0,,skipped,3,257742,,,257742,,257742,2021-10-27T19:40:56.151Z,257865,1635363393,full,ni_sequenzen,NI_Sequenzen,,,,,,,,,,,,,,
,Screen_2,canvas.Screen,0_4_2_1,,skipped,3,257744,,,257742,,257744,2021-10-27T19:40:56.152Z,257865,1635363393,full,ni_sequenzen,NI_Sequenzen,,,,,,,,,,,,,,
,Screen_3,canvas.Screen,0_4_2_2,,skipped,3,257745,,,257742,,257745,2021-10-27T19:40:56.153Z,257865,1635363393,full,ni_sequenzen,NI_Sequenzen,,,,,,,,,,,,,,
,Sequence,flow.Sequence,0_4_2,,completion,3,257741,,,257742,,257746,2021-10-27T19:40:56.153Z,257865,1635363393,full,ni_sequenzen,NI_Sequenzen,,,,,,,,,,,,,,
,Screen_1,canvas.Screen,0_4_3_0,,skipped,4,257747,,,257747,,257747,2021-10-27T19:40:56.155Z,257865,1635363393,full,ni_sequenzen,NI_Sequenzen,,,,,,,,,,,,,,
,Screen_2,canvas.Screen,0_4_3_1,,skipped,4,257747,,,257747,,257747,2021-10-27T19:40:56.156Z,257865,1635363393,full,ni_sequenzen,NI_Sequenzen,,,,,,,,,,,,,,
,Screen_3,canvas.Screen,0_4_3_2,,skipped,4,257749,,,257747,,257749,2021-10-27T19:40:56.158Z,257865,1635363393,full,ni_sequenzen,NI_Sequenzen,,,,,,,,,,,,,,
,Sequence,flow.Sequence,0_4_3,,completion,4,257746,,,257747,,257749,2021-10-27T19:40:56.158Z,257865,1635363393,full,ni_sequenzen,NI_Sequenzen,,,,,,,,,,,,,,
,Screen_1,canvas.Screen,0_4_4_0,,skipped,5,257752,,,257752,,257752,2021-10-27T19:40:56.160Z,257865,1635363393,full,ni_sequenzen,NI_Sequenzen,,,,,,,,,,,,,,
,Screen_2,canvas.Screen,0_4_4_1,,skipped,5,257753,,,257752,,257753,2021-10-27T19:40:56.161Z,257865,1635363393,full,ni_sequenzen,NI_Sequenzen,,,,,,,,,,,,,,
,Screen_3,canvas.Screen,0_4_4_2,,skipped,5,257753,,,257752,,257753,2021-10-27T19:40:56.162Z,257865,1635363393,full,ni_sequenzen,NI_Sequenzen,,,,,,,,,,,,,,
,Sequence,flow.Sequence,0_4_4,,completion,5,257751,,,257752,,257754,2021-10-27T19:40:56.162Z,257865,1635363393,full,ni_sequenzen,NI_Sequenzen,,,,,,,,,,,,,,
,Screen_1,canvas.Screen,0_4_5_0,,skipped,6,257756,,,257756,,257756,2021-10-27T19:40:56.164Z,257865,1635363393,full,ni_sequenzen,NI_Sequenzen,,,,,,,,,,,,,,
,Screen_2,canvas.Screen,0_4_5_1,,skipped,6,257757,,,257756,,257757,2021-10-27T19:40:56.165Z,257865,1635363393,full,ni_sequenzen,NI_Sequenzen,,,,,,,,,,,,,,
,Screen_3,canvas.Screen,0_4_5_2,,skipped,6,257758,,,257756,,257758,2021-10-27T19:40:56.167Z,257865,1635363393,full,ni_sequenzen,NI_Sequenzen,,,,,,,,,,,,,,
,Sequence,flow.Sequence,0_4_5,,completion,6,257755,,,257756,,257758,2021-10-27T19:40:56.167Z,257865,1635363393,full,ni_sequenzen,NI_Sequenzen,,,,,,,,,,,,,,
,Screen_1,canvas.Screen,0_4_6_0,,skipped,7,257760,,,257760,,257760,2021-10-27T19:40:56.168Z,257865,1635363393,full,ni_sequenzen,NI_Sequenzen,,,,,,,,,,,,,,
,Screen_2,canvas.Screen,0_4_6_1,,skipped,7,257761,,,257760,,257761,2021-10-27T19:40:56.169Z,257865,1635363393,full,ni_sequenzen,NI_Sequenzen,,,,,,,,,,,,,,
,Screen_3,canvas.Screen,0_4_6_2,,skipped,7,257762,,,257760,,257762,2021-10-27T19:40:56.170Z,257865,1635363393,full,ni_sequenzen,NI_Sequenzen,,,,,,,,,,,,,,
,Sequence,flow.Sequence,0_4_6,,completion,7,257759,,,257760,,257762,2021-10-27T19:40:56.170Z,257865,1635363393,full,ni_sequenzen,NI_Sequenzen,,,,,,,,,,,,,,
,Screen_1,canvas.Screen,0_4_7_0,,skipped,8,257763,,,257763,,257763,2021-10-27T19:40:56.172Z,257865,1635363393,full,ni_sequenzen,NI_Sequenzen,,,,,,,,,,,,,,
,Screen_2,canvas.Screen,0_4_7_1,,skipped,8,257765,,,257763,,257765,2021-10-27T19:40:56.173Z,257865,1635363393,full,ni_sequenzen,NI_Sequenzen,,,,,,,,,,,,,,
,Screen_3,canvas.Screen,0_4_7_2,,skipped,8,257766,,,257763,,257766,2021-10-27T19:40:56.174Z,257865,1635363393,full,ni_sequenzen,NI_Sequenzen,,,,,,,,,,,,,,
,Sequence,flow.Sequence,0_4_7,,completion,8,257762,,,257763,,257766,2021-10-27T19:40:56.174Z,257865,1635363393,full,ni_sequenzen,NI_Sequenzen,,,,,,,,,,,,,,
,Screen_1,canvas.Screen,0_4_8_0,,skipped,9,257767,,,257767,,257767,2021-10-27T19:40:56.176Z,257865,1635363393,full,ni_sequenzen,NI_Sequenzen,,,,,,,,,,,,,,
,Screen_2,canvas.Screen,0_4_8_1,,skipped,9,257768,,,257767,,257768,2021-10-27T19:40:56.177Z,257865,1635363393,full,ni_sequenzen,NI_Sequenzen,,,,,,,,,,,,,,
,Screen_3,canvas.Screen,0_4_8_2,,skipped,9,257770,,,257767,,257770,2021-10-27T19:40:56.178Z,257865,1635363393,full,ni_sequenzen,NI_Sequenzen,,,,,,,,,,,,,,
,Sequence,flow.Sequence,0_4_8,,completion,9,257766,,,257767,,257770,2021-10-27T19:40:56.178Z,257865,1635363393,full,ni_sequenzen,NI_Sequenzen,,,,,,,,,,,,,,
,Screen_1,canvas.Screen,0_4_9_0,,skipped,10,257772,,,257772,,257772,2021-10-27T19:40:56.180Z,257865,1635363393,full,ni_sequenzen,NI_Sequenzen,,,,,,,,,,,,,,
,Screen_2,canvas.Screen,0_4_9_1,,skipped,10,257773,,,257772,,257773,2021-10-27T19:40:56.181Z,257865,1635363393,full,ni_sequenzen,NI_Sequenzen,,,,,,,,,,,,,,
,Screen_3,canvas.Screen,0_4_9_2,,skipped,10,257774,,,257772,,257774,2021-10-27T19:40:56.182Z,257865,1635363393,full,ni_sequenzen,NI_Sequenzen,,,,,,,,,,,,,,
,Sequence,flow.Sequence,0_4_9,,completion,10,257771,,,257772,,257774,2021-10-27T19:40:56.182Z,257865,1635363393,full,ni_sequenzen,NI_Sequenzen,,,,,,,,,,,,,,
,Screen_1,canvas.Screen,0_4_10_0,,skipped,11,257775,,,257775,,257775,2021-10-27T19:40:56.183Z,257865,1635363393,full,ni_sequenzen,NI_Sequenzen,,,,,,,,,,,,,,
,Screen_2,canvas.Screen,0_4_10_1,,skipped,11,257776,,,257775,,257777,2021-10-27T19:40:56.184Z,257865,1635363393,full,ni_sequenzen,NI_Sequenzen,,,,,,,,,,,,,,
,Screen_3,canvas.Screen,0_4_10_2,,skipped,11,257777,,,257775,,257777,2021-10-27T19:40:56.186Z,257865,1635363393,full,ni_sequenzen,NI_Sequenzen,,,,,,,,,,,,,,
,Sequence,flow.Sequence,0_4_10,,completion,11,257775,,,257775,,257778,2021-10-27T19:40:56.186Z,257865,1635363393,full,ni_sequenzen,NI_Sequenzen,,,,,,,,,,,,,,
,Screen_1,canvas.Screen,0_4_11_0,,skipped,12,257778,,,257779,,257779,2021-10-27T19:40:56.187Z,257865,1635363393,full,ni_sequenzen,NI_Sequenzen,,,,,,,,,,,,,,
,Screen_2,canvas.Screen,0_4_11_1,,skipped,12,257780,,,257779,,257780,2021-10-27T19:40:56.188Z,257865,1635363393,full,ni_sequenzen,NI_Sequenzen,,,,,,,,,,,,,,
,Screen_3,canvas.Screen,0_4_11_2,,skipped,12,257781,,,257779,,257781,2021-10-27T19:40:56.189Z,257865,1635363393,full,ni_sequenzen,NI_Sequenzen,,,,,,,,,,,,,,
,Sequence,flow.Sequence,0_4_11,,completion,12,257778,,,257779,,257781,2021-10-27T19:40:56.189Z,257865,1635363393,full,ni_sequenzen,NI_Sequenzen,,,,,,,,,,,,,,
,Screen_1,canvas.Screen,0_4_12_0,,skipped,13,257782,,,257782,,257782,2021-10-27T19:40:56.191Z,257865,1635363393,full,ni_sequenzen,NI_Sequenzen,,,,,,,,,,,,,,
,Screen_2,canvas.Screen,0_4_12_1,,skipped,13,257783,,,257782,,257783,2021-10-27T19:40:56.192Z,257865,1635363393,full,ni_sequenzen,NI_Sequenzen,,,,,,,,,,,,,,
,Screen_3,canvas.Screen,0_4_12_2,,skipped,13,257784,,,257782,,257784,2021-10-27T19:40:56.192Z,257865,1635363393,full,ni_sequenzen,NI_Sequenzen,,,,,,,,,,,,,,
,Sequence,flow.Sequence,0_4_12,,completion,13,257781,,,257782,,257784,2021-10-27T19:40:56.192Z,257865,1635363393,full,ni_sequenzen,NI_Sequenzen,,,,,,,,,,,,,,
,Screen_1,canvas.Screen,0_4_13_0,,skipped,14,257786,,,257786,,257786,2021-10-27T19:40:56.194Z,257865,1635363393,full,ni_sequenzen,NI_Sequenzen,,,,,,,,,,,,,,
,Screen_2,canvas.Screen,0_4_13_1,,skipped,14,257787,,,257786,,257787,2021-10-27T19:40:56.195Z,257865,1635363393,full,ni_sequenzen,NI_Sequenzen,,,,,,,,,,,,,,
,Screen_3,canvas.Screen,0_4_13_2,,skipped,14,257788,,,257786,,257788,2021-10-27T19:40:56.196Z,257865,1635363393,full,ni_sequenzen,NI_Sequenzen,,,,,,,,,,,,,,
,Sequence,flow.Sequence,0_4_13,,completion,14,257785,,,257786,,257788,2021-10-27T19:40:56.197Z,257865,1635363393,full,ni_sequenzen,NI_Sequenzen,,,,,,,,,,,,,,
,Screen_1,canvas.Screen,0_4_14_0,,skipped,15,257789,,,257789,,257789,2021-10-27T19:40:56.198Z,257865,1635363393,full,ni_sequenzen,NI_Sequenzen,,,,,,,,,,,,,,
,Screen_2,canvas.Screen,0_4_14_1,,skipped,15,257791,,,257789,,257791,2021-10-27T19:40:56.199Z,257865,1635363393,full,ni_sequenzen,NI_Sequenzen,,,,,,,,,,,,,,
,Screen_3,canvas.Screen,0_4_14_2,,skipped,15,257792,,,257789,,257792,2021-10-27T19:40:56.201Z,257865,1635363393,full,ni_sequenzen,NI_Sequenzen,,,,,,,,,,,,,,
,Sequence,flow.Sequence,0_4_14,,completion,15,257789,,,257789,,257792,2021-10-27T19:40:56.201Z,257865,1635363393,full,ni_sequenzen,NI_Sequenzen,,,,,,,,,,,,,,
,Screen_1,canvas.Screen,0_4_15_0,,skipped,16,257793,,,257793,,257793,2021-10-27T19:40:56.201Z,257865,1635363393,full,ni_sequenzen,NI_Sequenzen,,,,,,,,,,,,,,
,Screen_2,canvas.Screen,0_4_15_1,,skipped,16,257794,,,257793,,257794,2021-10-27T19:40:56.202Z,257865,1635363393,full,ni_sequenzen,NI_Sequenzen,,,,,,,,,,,,,,
,Screen_3,canvas.Screen,0_4_15_2,,skipped,16,257795,,,257793,,257795,2021-10-27T19:40:56.204Z,257865,1635363393,full,ni_sequenzen,NI_Sequenzen,,,,,,,,,,,,,,
,Sequence,flow.Sequence,0_4_15,,completion,16,257792,,,257793,,257795,2021-10-27T19:40:56.204Z,257865,1635363393,full,ni_sequenzen,NI_Sequenzen,,,,,,,,,,,,,,
,Screen_1,canvas.Screen,0_4_16_0,,skipped,17,257797,,,257797,,257797,2021-10-27T19:40:56.205Z,257865,1635363393,full,ni_sequenzen,NI_Sequenzen,,,,,,,,,,,,,,
,Screen_2,canvas.Screen,0_4_16_1,,skipped,17,257799,,,257797,,257799,2021-10-27T19:40:56.206Z,257865,1635363393,full,ni_sequenzen,NI_Sequenzen,,,,,,,,,,,,,,
,Screen_3,canvas.Screen,0_4_16_2,,skipped,17,257800,,,257797,,257800,2021-10-27T19:40:56.208Z,257865,1635363393,full,ni_sequenzen,NI_Sequenzen,,,,,,,,,,,,,,
,Sequence,flow.Sequence,0_4_16,,completion,17,257796,,,257797,,257800,2021-10-27T19:40:56.208Z,257865,1635363393,full,ni_sequenzen,NI_Sequenzen,,,,,,,,,,,,,,
,Screen_1,canvas.Screen,0_4_17_0,,skipped,18,257801,,,257801,,257801,2021-10-27T19:40:56.209Z,257865,1635363393,full,ni_sequenzen,NI_Sequenzen,,,,,,,,,,,,,,
