meta,sender,sender_type,sender_id,response,ended_on,instrCount,time_run,time_render,time_show,time_end,duration,time_commit,timestamp,time_switch,openLabId,type,task,project,move,trialN,blockN_Train,blockN,moveCount,currPP,points,movesTrial,visitedFields,diff,reward,Strategie,Zweck,Probleme
[object Object],Screen_1,canvas.Screen,0_0_0_0,cont,response,1,649,655.24,671.9,18669,17997.1,18691,2021-10-26T12:50:02.977Z,18822.48,1635252578,full,ni_sequenzen,NI_Sequenzen,,,,,,,,,,,,,,
,Screen_2,canvas.Screen,0_0_0_1,cont,response,1,18801,18801.14,18822.48,34779,15956.52,34782,2021-10-26T12:50:19.068Z,34856.3,1635252578,full,ni_sequenzen,NI_Sequenzen,,,,,,,,,,,,,,
,Screen_3,canvas.Screen,0_0_0_2,cont,response,1,34855,34854.82,34856.3,56482,21625.699999999997,56495,2021-10-26T12:50:40.781Z,56507.5,1635252578,full,ni_sequenzen,NI_Sequenzen,,,,,,,,,,,,,,
,Screen_4,canvas.Screen,0_0_0_3,cont,response,1,56503,56503.6,56507.5,61981,5473.5,61991,2021-10-26T12:50:46.278Z,62207.26,1635252578,full,ni_sequenzen,NI_Sequenzen,,,,,,,,,,,,,,
,Sequence,flow.Sequence,0_0_0,,completion,1,596,655.24,671.9,61981,61309.1,61994,2021-10-26T12:50:46.280Z,62207.26,1635252578,full,ni_sequenzen,NI_Sequenzen,,,,,,,,,,,,,,
,Screen_1,canvas.Screen,0_0_1_0,,skipped,2,62006,,,62006,,62007,2021-10-26T12:50:46.293Z,62207.26,1635252578,full,ni_sequenzen,NI_Sequenzen,,,,,,,,,,,,,,
,Screen_2,canvas.Screen,0_0_1_1,,skipped,2,62013,,,62006,,62014,2021-10-26T12:50:46.300Z,62207.26,1635252578,full,ni_sequenzen,NI_Sequenzen,,,,,,,,,,,,,,
,Screen_3,canvas.Screen,0_0_1_2,,skipped,2,62016,,,62006,,62016,2021-10-26T12:50:46.303Z,62207.26,1635252578,full,ni_sequenzen,NI_Sequenzen,,,,,,,,,,,,,,
,Screen_4,canvas.Screen,0_0_1_3,,skipped,2,62020,,,62006,,62020,2021-10-26T12:50:46.306Z,62207.26,1635252578,full,ni_sequenzen,NI_Sequenzen,,,,,,,,,,,,,,
,Sequence,flow.Sequence,0_0_1,,completion,2,61999,,,62006,,62021,2021-10-26T12:50:46.307Z,62207.26,1635252578,full,ni_sequenzen,NI_Sequenzen,,,,,,,,,,,,,,
,Screen_1,canvas.Screen,0_0_2_0,,skipped,3,62023,,,62023,,62024,2021-10-26T12:50:46.310Z,62207.26,1635252578,full,ni_sequenzen,NI_Sequenzen,,,,,,,,,,,,,,
,Screen_2,canvas.Screen,0_0_2_1,,skipped,3,62026,,,62023,,62026,2021-10-26T12:50:46.312Z,62207.26,1635252578,full,ni_sequenzen,NI_Sequenzen,,,,,,,,,,,,,,
,Screen_3,canvas.Screen,0_0_2_2,,skipped,3,62030,,,62023,,62030,2021-10-26T12:50:46.317Z,62207.26,1635252578,full,ni_sequenzen,NI_Sequenzen,,,,,,,,,,,,,,
,Screen_4,canvas.Screen,0_0_2_3,,skipped,3,62033,,,62023,,62033,2021-10-26T12:50:46.319Z,62207.26,1635252578,full,ni_sequenzen,NI_Sequenzen,,,,,,,,,,,,,,
,Sequence,flow.Sequence,0_0_2,,completion,3,62022,,,62023,,62033,2021-10-26T12:50:46.320Z,62207.26,1635252578,full,ni_sequenzen,NI_Sequenzen,,,,,,,,,,,,,,
,Screen_1,canvas.Screen,0_0_3_0,,skipped,4,62036,,,62036,,62037,2021-10-26T12:50:46.322Z,62207.26,1635252578,full,ni_sequenzen,NI_Sequenzen,,,,,,,,,,,,,,
,Screen_2,canvas.Screen,0_0_3_1,,skipped,4,62039,,,62036,,62039,2021-10-26T12:50:46.325Z,62207.26,1635252578,full,ni_sequenzen,NI_Sequenzen,,,,,,,,,,,,,,
,Screen_3,canvas.Screen,0_0_3_2,,skipped,4,62042,,,62036,,62042,2021-10-26T12:50:46.328Z,62207.26,1635252578,full,ni_sequenzen,NI_Sequenzen,,,,,,,,,,,,,,
,Screen_4,canvas.Screen,0_0_3_3,,skipped,4,62044,,,62036,,62044,2021-10-26T12:50:46.330Z,62207.26,1635252578,full,ni_sequenzen,NI_Sequenzen,,,,,,,,,,,,,,
,Sequence,flow.Sequence,0_0_3,,completion,4,62034,,,62036,,62045,2021-10-26T12:50:46.331Z,62207.26,1635252578,full,ni_sequenzen,NI_Sequenzen,,,,,,,,,,,,,,
,Screen_1,canvas.Screen,0_0_4_0,,skipped,5,62047,,,62047,,62047,2021-10-26T12:50:46.333Z,62207.26,1635252578,full,ni_sequenzen,NI_Sequenzen,,,,,,,,,,,,,,
,Screen_2,canvas.Screen,0_0_4_1,,skipped,5,62049,,,62047,,62050,2021-10-26T12:50:46.335Z,62207.26,1635252578,full,ni_sequenzen,NI_Sequenzen,,,,,,,,,,,,,,
,Screen_3,canvas.Screen,0_0_4_2,,skipped,5,62051,,,62047,,62051,2021-10-26T12:50:46.338Z,62207.26,1635252578,full,ni_sequenzen,NI_Sequenzen,,,,,,,,,,,,,,
,Screen_4,canvas.Screen,0_0_4_3,,skipped,5,62053,,,62047,,62054,2021-10-26T12:50:46.340Z,62207.26,1635252578,full,ni_sequenzen,NI_Sequenzen,,,,,,,,,,,,,,
,Sequence,flow.Sequence,0_0_4,,completion,5,62045,,,62047,,62054,2021-10-26T12:50:46.340Z,62207.26,1635252578,full,ni_sequenzen,NI_Sequenzen,,,,,,,,,,,,,,
,Screen_1,canvas.Screen,0_0_5_0,,skipped,6,62055,,,62055,,62055,2021-10-26T12:50:46.342Z,62207.26,1635252578,full,ni_sequenzen,NI_Sequenzen,,,,,,,,,,,,,,
,Screen_2,canvas.Screen,0_0_5_1,,skipped,6,62057,,,62055,,62058,2021-10-26T12:50:46.344Z,62207.26,1635252578,full,ni_sequenzen,NI_Sequenzen,,,,,,,,,,,,,,
,Screen_3,canvas.Screen,0_0_5_2,,skipped,6,62059,,,62055,,62059,2021-10-26T12:50:46.346Z,62207.26,1635252578,full,ni_sequenzen,NI_Sequenzen,,,,,,,,,,,,,,
,Screen_4,canvas.Screen,0_0_5_3,,skipped,6,62061,,,62055,,62061,2021-10-26T12:50:46.347Z,62207.26,1635252578,full,ni_sequenzen,NI_Sequenzen,,,,,,,,,,,,,,
,Sequence,flow.Sequence,0_0_5,,completion,6,62054,,,62055,,62061,2021-10-26T12:50:46.348Z,62207.26,1635252578,full,ni_sequenzen,NI_Sequenzen,,,,,,,,,,,,,,
,Screen_1,canvas.Screen,0_0_6_0,,skipped,7,62064,,,62064,,62064,2021-10-26T12:50:46.350Z,62207.26,1635252578,full,ni_sequenzen,NI_Sequenzen,,,,,,,,,,,,,,
,Screen_2,canvas.Screen,0_0_6_1,,skipped,7,62066,,,62064,,62066,2021-10-26T12:50:46.352Z,62207.26,1635252578,full,ni_sequenzen,NI_Sequenzen,,,,,,,,,,,,,,
,Screen_3,canvas.Screen,0_0_6_2,,skipped,7,62067,,,62064,,62067,2021-10-26T12:50:46.354Z,62207.26,1635252578,full,ni_sequenzen,NI_Sequenzen,,,,,,,,,,,,,,
,Screen_4,canvas.Screen,0_0_6_3,,skipped,7,62069,,,62064,,62069,2021-10-26T12:50:46.355Z,62207.26,1635252578,full,ni_sequenzen,NI_Sequenzen,,,,,,,,,,,,,,
,Sequence,flow.Sequence,0_0_6,,completion,7,62062,,,62064,,62069,2021-10-26T12:50:46.356Z,62207.26,1635252578,full,ni_sequenzen,NI_Sequenzen,,,,,,,,,,,,,,
,Screen_1,canvas.Screen,0_0_7_0,,skipped,8,62072,,,62072,,62072,2021-10-26T12:50:46.358Z,62207.26,1635252578,full,ni_sequenzen,NI_Sequenzen,,,,,,,,,,,,,,
,Screen_2,canvas.Screen,0_0_7_1,,skipped,8,62073,,,62072,,62073,2021-10-26T12:50:46.359Z,62207.26,1635252578,full,ni_sequenzen,NI_Sequenzen,,,,,,,,,,,,,,
,Screen_3,canvas.Screen,0_0_7_2,,skipped,8,62075,,,62072,,62076,2021-10-26T12:50:46.362Z,62207.26,1635252578,full,ni_sequenzen,NI_Sequenzen,,,,,,,,,,,,,,
,Screen_4,canvas.Screen,0_0_7_3,,skipped,8,62078,,,62072,,62078,2021-10-26T12:50:46.364Z,62207.26,1635252578,full,ni_sequenzen,NI_Sequenzen,,,,,,,,,,,,,,
,Sequence,flow.Sequence,0_0_7,,completion,8,62070,,,62072,,62078,2021-10-26T12:50:46.364Z,62207.26,1635252578,full,ni_sequenzen,NI_Sequenzen,,,,,,,,,,,,,,
,Screen_1,canvas.Screen,0_0_8_0,,skipped,9,62080,,,62080,,62080,2021-10-26T12:50:46.366Z,62207.26,1635252578,full,ni_sequenzen,NI_Sequenzen,,,,,,,,,,,,,,
,Screen_2,canvas.Screen,0_0_8_1,,skipped,9,62081,,,62080,,62082,2021-10-26T12:50:46.368Z,62207.26,1635252578,full,ni_sequenzen,NI_Sequenzen,,,,,,,,,,,,,,
,Screen_3,canvas.Screen,0_0_8_2,,skipped,9,62084,,,62080,,62084,2021-10-26T12:50:46.371Z,62207.26,1635252578,full,ni_sequenzen,NI_Sequenzen,,,,,,,,,,,,,,
,Screen_4,canvas.Screen,0_0_8_3,,skipped,9,62086,,,62080,,62086,2021-10-26T12:50:46.372Z,62207.26,1635252578,full,ni_sequenzen,NI_Sequenzen,,,,,,,,,,,,,,
,Sequence,flow.Sequence,0_0_8,,completion,9,62079,,,62080,,62086,2021-10-26T12:50:46.372Z,62207.26,1635252578,full,ni_sequenzen,NI_Sequenzen,,,,,,,,,,,,,,
,Screen_1,canvas.Screen,0_0_9_0,,skipped,10,62088,,,62088,,62088,2021-10-26T12:50:46.375Z,62207.26,1635252578,full,ni_sequenzen,NI_Sequenzen,,,,,,,,,,,,,,
,Screen_2,canvas.Screen,0_0_9_1,,skipped,10,62089,,,62088,,62090,2021-10-26T12:50:46.377Z,62207.26,1635252578,full,ni_sequenzen,NI_Sequenzen,,,,,,,,,,,,,,
,Screen_3,canvas.Screen,0_0_9_2,,skipped,10,62092,,,62088,,62092,2021-10-26T12:50:46.378Z,62207.26,1635252578,full,ni_sequenzen,NI_Sequenzen,,,,,,,,,,,,,,
,Screen_4,canvas.Screen,0_0_9_3,,skipped,10,62094,,,62088,,62094,2021-10-26T12:50:46.380Z,62207.26,1635252578,full,ni_sequenzen,NI_Sequenzen,,,,,,,,,,,,,,
,Sequence,flow.Sequence,0_0_9,,completion,10,62087,,,62088,,62094,2021-10-26T12:50:46.380Z,62207.26,1635252578,full,ni_sequenzen,NI_Sequenzen,,,,,,,,,,,,,,
,Screen_1,canvas.Screen,0_0_10_0,,skipped,11,62096,,,62096,,62096,2021-10-26T12:50:46.382Z,62207.26,1635252578,full,ni_sequenzen,NI_Sequenzen,,,,,,,,,,,,,,
,Screen_2,canvas.Screen,0_0_10_1,,skipped,11,62097,,,62096,,62098,2021-10-26T12:50:46.384Z,62207.26,1635252578,full,ni_sequenzen,NI_Sequenzen,,,,,,,,,,,,,,
,Screen_3,canvas.Screen,0_0_10_2,,skipped,11,62099,,,62096,,62100,2021-10-26T12:50:46.386Z,62207.26,1635252578,full,ni_sequenzen,NI_Sequenzen,,,,,,,,,,,,,,
,Screen_4,canvas.Screen,0_0_10_3,,skipped,11,62101,,,62096,,62101,2021-10-26T12:50:46.387Z,62207.26,1635252578,full,ni_sequenzen,NI_Sequenzen,,,,,,,,,,,,,,
,Sequence,flow.Sequence,0_0_10,,completion,11,62095,,,62096,,62101,2021-10-26T12:50:46.387Z,62207.26,1635252578,full,ni_sequenzen,NI_Sequenzen,,,,,,,,,,,,,,
,Screen_1,canvas.Screen,0_0_11_0,,skipped,12,62104,,,62104,,62104,2021-10-26T12:50:46.390Z,62207.26,1635252578,full,ni_sequenzen,NI_Sequenzen,,,,,,,,,,,,,,
,Screen_2,canvas.Screen,0_0_11_1,,skipped,12,62106,,,62104,,62106,2021-10-26T12:50:46.392Z,62207.26,1635252578,full,ni_sequenzen,NI_Sequenzen,,,,,,,,,,,,,,
,Screen_3,canvas.Screen,0_0_11_2,,skipped,12,62107,,,62104,,62108,2021-10-26T12:50:46.394Z,62207.26,1635252578,full,ni_sequenzen,NI_Sequenzen,,,,,,,,,,,,,,
,Screen_4,canvas.Screen,0_0_11_3,,skipped,12,62109,,,62104,,62109,2021-10-26T12:50:46.395Z,62207.26,1635252578,full,ni_sequenzen,NI_Sequenzen,,,,,,,,,,,,,,
,Sequence,flow.Sequence,0_0_11,,completion,12,62102,,,62104,,62109,2021-10-26T12:50:46.396Z,62207.26,1635252578,full,ni_sequenzen,NI_Sequenzen,,,,,,,,,,,,,,
,Screen_1,canvas.Screen,0_0_12_0,,skipped,13,62111,,,62111,,62112,2021-10-26T12:50:46.398Z,62207.26,1635252578,full,ni_sequenzen,NI_Sequenzen,,,,,,,,,,,,,,
,Screen_2,canvas.Screen,0_0_12_1,,skipped,13,62113,,,62111,,62113,2021-10-26T12:50:46.399Z,62207.26,1635252578,full,ni_sequenzen,NI_Sequenzen,,,,,,,,,,,,,,
,Screen_3,canvas.Screen,0_0_12_2,,skipped,13,62114,,,62111,,62114,2021-10-26T12:50:46.401Z,62207.26,1635252578,full,ni_sequenzen,NI_Sequenzen,,,,,,,,,,,,,,
,Screen_4,canvas.Screen,0_0_12_3,,skipped,13,62117,,,62111,,62117,2021-10-26T12:50:46.403Z,62207.26,1635252578,full,ni_sequenzen,NI_Sequenzen,,,,,,,,,,,,,,
,Sequence,flow.Sequence,0_0_12,,completion,13,62110,,,62111,,62117,2021-10-26T12:50:46.403Z,62207.26,1635252578,full,ni_sequenzen,NI_Sequenzen,,,,,,,,,,,,,,
,Screen_1,canvas.Screen,0_0_13_0,,skipped,14,62119,,,62119,,62119,2021-10-26T12:50:46.405Z,62207.26,1635252578,full,ni_sequenzen,NI_Sequenzen,,,,,,,,,,,,,,
,Screen_2,canvas.Screen,0_0_13_1,,skipped,14,62120,,,62119,,62120,2021-10-26T12:50:46.407Z,62207.26,1635252578,full,ni_sequenzen,NI_Sequenzen,,,,,,,,,,,,,,
,Screen_3,canvas.Screen,0_0_13_2,,skipped,14,62122,,,62119,,62122,2021-10-26T12:50:46.409Z,62207.26,1635252578,full,ni_sequenzen,NI_Sequenzen,,,,,,,,,,,,,,
,Screen_4,canvas.Screen,0_0_13_3,,skipped,14,62125,,,62119,,62125,2021-10-26T12:50:46.411Z,62207.26,1635252578,full,ni_sequenzen,NI_Sequenzen,,,,,,,,,,,,,,
,Sequence,flow.Sequence,0_0_13,,completion,14,62118,,,62119,,62125,2021-10-26T12:50:46.411Z,62207.26,1635252578,full,ni_sequenzen,NI_Sequenzen,,,,,,,,,,,,,,
,Screen_1,canvas.Screen,0_0_14_0,,skipped,15,62127,,,62127,,62127,2021-10-26T12:50:46.413Z,62207.26,1635252578,full,ni_sequenzen,NI_Sequenzen,,,,,,,,,,,,,,
,Screen_2,canvas.Screen,0_0_14_1,,skipped,15,62129,,,62127,,62129,2021-10-26T12:50:46.415Z,62207.26,1635252578,full,ni_sequenzen,NI_Sequenzen,,,,,,,,,,,,,,
,Screen_3,canvas.Screen,0_0_14_2,,skipped,15,62130,,,62127,,62130,2021-10-26T12:50:46.417Z,62207.26,1635252578,full,ni_sequenzen,NI_Sequenzen,,,,,,,,,,,,,,
,Screen_4,canvas.Screen,0_0_14_3,,skipped,15,62132,,,62127,,62132,2021-10-26T12:50:46.419Z,62207.26,1635252578,full,ni_sequenzen,NI_Sequenzen,,,,,,,,,,,,,,
,Sequence,flow.Sequence,0_0_14,,completion,15,62126,,,62127,,62132,2021-10-26T12:50:46.419Z,62207.26,1635252578,full,ni_sequenzen,NI_Sequenzen,,,,,,,,,,,,,,
,Screen_1,canvas.Screen,0_0_15_0,,skipped,16,62134,,,62134,,62134,2021-10-26T12:50:46.421Z,62207.26,1635252578,full,ni_sequenzen,NI_Sequenzen,,,,,,,,,,,,,,
,Screen_2,canvas.Screen,0_0_15_1,,skipped,16,62135,,,62134,,62135,2021-10-26T12:50:46.422Z,62207.26,1635252578,full,ni_sequenzen,NI_Sequenzen,,,,,,,,,,,,,,
,Screen_3,canvas.Screen,0_0_15_2,,skipped,16,62137,,,62134,,62137,2021-10-26T12:50:46.423Z,62207.26,1635252578,full,ni_sequenzen,NI_Sequenzen,,,,,,,,,,,,,,
,Screen_4,canvas.Screen,0_0_15_3,,skipped,16,62140,,,62134,,62140,2021-10-26T12:50:46.426Z,62207.26,1635252578,full,ni_sequenzen,NI_Sequenzen,,,,,,,,,,,,,,
,Sequence,flow.Sequence,0_0_15,,completion,16,62133,,,62134,,62140,2021-10-26T12:50:46.426Z,62207.26,1635252578,full,ni_sequenzen,NI_Sequenzen,,,,,,,,,,,,,,
,Screen_1,canvas.Screen,0_0_16_0,,skipped,17,62142,,,62142,,62142,2021-10-26T12:50:46.429Z,62207.26,1635252578,full,ni_sequenzen,NI_Sequenzen,,,,,,,,,,,,,,
,Screen_2,canvas.Screen,0_0_16_1,,skipped,17,62143,,,62142,,62143,2021-10-26T12:50:46.430Z,62207.26,1635252578,full,ni_sequenzen,NI_Sequenzen,,,,,,,,,,,,,,
,Screen_3,canvas.Screen,0_0_16_2,,skipped,17,62145,,,62142,,62146,2021-10-26T12:50:46.431Z,62207.26,1635252578,full,ni_sequenzen,NI_Sequenzen,,,,,,,,,,,,,,
,Screen_4,canvas.Screen,0_0_16_3,,skipped,17,62147,,,62142,,62147,2021-10-26T12:50:46.434Z,62207.26,1635252578,full,ni_sequenzen,NI_Sequenzen,,,,,,,,,,,,,,
,Sequence,flow.Sequence,0_0_16,,completion,17,62141,,,62142,,62147,2021-10-26T12:50:46.434Z,62207.26,1635252578,full,ni_sequenzen,NI_Sequenzen,,,,,,,,,,,,,,
,Screen_1,canvas.Screen,0_0_17_0,,skipped,18,62149,,,62149,,62149,2021-10-26T12:50:46.436Z,62207.26,1635252578,full,ni_sequenzen,NI_Sequenzen,,,,,,,,,,,,,,
,Screen_2,canvas.Screen,0_0_17_1,,skipped,18,62150,,,62149,,62151,2021-10-26T12:50:46.437Z,62207.26,1635252578,full,ni_sequenzen,NI_Sequenzen,,,,,,,,,,,,,,
,Screen_3,canvas.Screen,0_0_17_2,,skipped,18,62152,,,62149,,62152,2021-10-26T12:50:46.439Z,62207.26,1635252578,full,ni_sequenzen,NI_Sequenzen,,,,,,,,,,,,,,
,Screen_4,canvas.Screen,0_0_17_3,,skipped,18,62154,,,62149,,62154,2021-10-26T12:50:46.440Z,62207.26,1635252578,full,ni_sequenzen,NI_Sequenzen,,,,,,,,,,,,,,
,Sequence,flow.Sequence,0_0_17,,completion,18,62148,,,62149,,62154,2021-10-26T12:50:46.441Z,62207.26,1635252578,full,ni_sequenzen,NI_Sequenzen,,,,,,,,,,,,,,
,Screen_1,canvas.Screen,0_0_18_0,,skipped,19,62156,,,62156,,62156,2021-10-26T12:50:46.443Z,62207.26,1635252578,full,ni_sequenzen,NI_Sequenzen,,,,,,,,,,,,,,
,Screen_2,canvas.Screen,0_0_18_1,,skipped,19,62157,,,62156,,62157,2021-10-26T12:50:46.444Z,62207.26,1635252578,full,ni_sequenzen,NI_Sequenzen,,,,,,,,,,,,,,
,Screen_3,canvas.Screen,0_0_18_2,,skipped,19,62159,,,62156,,62159,2021-10-26T12:50:46.446Z,62207.26,1635252578,full,ni_sequenzen,NI_Sequenzen,,,,,,,,,,,,,,
,Screen_4,canvas.Screen,0_0_18_3,,skipped,19,62161,,,62156,,62161,2021-10-26T12:50:46.447Z,62207.26,1635252578,full,ni_sequenzen,NI_Sequenzen,,,,,,,,,,,,,,
,Sequence,flow.Sequence,0_0_18,,completion,19,62155,,,62156,,62161,2021-10-26T12:50:46.448Z,62207.26,1635252578,full,ni_sequenzen,NI_Sequenzen,,,,,,,,,,,,,,
,Screen_1,canvas.Screen,0_0_19_0,,skipped,20,62163,,,62163,,62163,2021-10-26T12:50:46.450Z,62207.26,1635252578,full,ni_sequenzen,NI_Sequenzen,,,,,,,,,,,,,,
,Screen_2,canvas.Screen,0_0_19_1,,skipped,20,62164,,,62163,,62164,2021-10-26T12:50:46.451Z,62207.26,1635252578,full,ni_sequenzen,NI_Sequenzen,,,,,,,,,,,,,,
,Screen_3,canvas.Screen,0_0_19_2,,skipped,20,62166,,,62163,,62166,2021-10-26T12:50:46.452Z,62207.26,1635252578,full,ni_sequenzen,NI_Sequenzen,,,,,,,,,,,,,,
,Screen_4,canvas.Screen,0_0_19_3,,skipped,20,62168,,,62163,,62168,2021-10-26T12:50:46.454Z,62207.26,1635252578,full,ni_sequenzen,NI_Sequenzen,,,,,,,,,,,,,,
,Sequence,flow.Sequence,0_0_19,,completion,20,62161,,,62163,,62168,2021-10-26T12:50:46.455Z,62207.26,1635252578,full,ni_sequenzen,NI_Sequenzen,,,,,,,,,,,,,,
,Instructions_I,flow.Loop,0_0,,completion,,595,655.24,671.9,62163,61491.1,62169,2021-10-26T12:50:46.455Z,62207.26,1635252578,full,ni_sequenzen,NI_Sequenzen,,,,,,,,,,,,,,
,Move,canvas.Screen,0_1_0_0,left,response,,62191,62191.16,62207.26,63513,1305.739999999998,63519,2021-10-26T12:50:47.805Z,63533.32,1635252578,full,ni_sequenzen,NI_Sequenzen,1,,,,,,,,,,,,,
,Move,canvas.Screen,0_1_0_1,left,response,,63533,63532.7,63533.32,64029,495.6800000000003,64047,2021-10-26T12:50:48.333Z,64059.16,1635252578,full,ni_sequenzen,NI_Sequenzen,2,,,,,,,,,,,,,
,Move,canvas.Screen,0_1_0_2,left,response,,64059,64058.82,64059.16,64481,421.8399999999965,64495,2021-10-26T12:50:48.781Z,64508.46,1635252578,full,ni_sequenzen,NI_Sequenzen,3,,,,,,,,,,,,,
,Move,canvas.Screen,0_1_0_3,right,response,,64508,64508.12,64508.46,66482,1973.5400000000009,66486,2021-10-26T12:50:50.773Z,66498.68,1635252578,full,ni_sequenzen,NI_Sequenzen,4,,,,,,,,,,,,,
,Move,canvas.Screen,0_1_0_4,down,response,,66498,66498.28,66498.68,67732,1233.320000000007,67745,2021-10-26T12:50:52.031Z,67769.74,1635252578,full,ni_sequenzen,NI_Sequenzen,5,,,,,,,,,,,,,
,Move,canvas.Screen,0_1_0_5,right,response,,67769,67769.3,67769.74,71435,3665.2599999999948,71449,2021-10-26T12:50:55.735Z,71469.28,1635252578,full,ni_sequenzen,NI_Sequenzen,6,,,,,,,,,,,,,
,Move,canvas.Screen,0_1_0_6,down,response,,71469,71469,71469.28,71966,496.72000000000116,71983,2021-10-26T12:50:56.269Z,71997.74,1635252578,full,ni_sequenzen,NI_Sequenzen,7,,,,,,,,,,,,,
,Move,canvas.Screen,0_1_0_7,down,response,,71997,71997.32,71997.74,72357,359.25999999999476,72366,2021-10-26T12:50:56.652Z,72382.78,1635252578,full,ni_sequenzen,NI_Sequenzen,8,,,,,,,,,,,,,
,Move,canvas.Screen,0_1_0_8,down,response,,72383,72382.42,72382.78,72591,208.22000000000116,72605,2021-10-26T12:50:56.892Z,72612.3,1635252578,full,ni_sequenzen,NI_Sequenzen,9,,,,,,,,,,,,,
,Move,canvas.Screen,0_1_0_9,down,response,,72612,72612.1,72612.3,72934,321.6999999999971,72941,2021-10-26T12:50:57.227Z,72946.12,1635252578,full,ni_sequenzen,NI_Sequenzen,10,,,,,,,,,,,,,
,Move,canvas.Screen,0_1_0_10,right,response,,72946,72945.92,72946.12,73169,222.88000000000466,73180,2021-10-26T12:50:57.466Z,73186.66,1635252578,full,ni_sequenzen,NI_Sequenzen,11,,,,,,,,,,,,,
,Move,canvas.Screen,0_1_0_11,right,response,,73186,73186.38,73186.66,73404,217.3399999999965,73412,2021-10-26T12:50:57.699Z,73417.28,1635252578,full,ni_sequenzen,NI_Sequenzen,12,,,,,,,,,,,,,
,Move,canvas.Screen,0_1_0_12,right,response,,73417,73417.08,73417.28,73591,173.72000000000116,73596,2021-10-26T12:50:57.882Z,73607.46,1635252578,full,ni_sequenzen,NI_Sequenzen,13,,,,,,,,,,,,,
,Move,canvas.Screen,0_1_0_13,left,response,,73601,73600.9,73607.46,74013,405.5399999999936,74020,2021-10-26T12:50:58.307Z,74026.3,1635252578,full,ni_sequenzen,NI_Sequenzen,14,,,,,,,,,,,,,
,Move,canvas.Screen,0_1_0_14,left,response,,74026,74026.1,74026.3,74325,298.6999999999971,74332,2021-10-26T12:50:58.618Z,74338.4,1635252578,full,ni_sequenzen,NI_Sequenzen,15,,,,,,,,,,,,,
,Move,canvas.Screen,0_1_0_15,down,response,,74339,74338.2,74338.4,74544,205.60000000000582,74548,2021-10-26T12:50:58.834Z,74557.46,1635252578,full,ni_sequenzen,NI_Sequenzen,16,,,,,,,,,,,,,
,Move,canvas.Screen,0_1_0_16,down,response,,74553,74553.36,74557.46,74950,392.5399999999936,74964,2021-10-26T12:50:59.250Z,74968.3,1635252578,full,ni_sequenzen,NI_Sequenzen,17,,,,,,,,,,,,,
,Move,canvas.Screen,0_1_0_17,down,response,,74968,74968.16,74968.3,75168,199.6999999999971,75180,2021-10-26T12:50:59.467Z,75186.06,1635252578,full,ni_sequenzen,NI_Sequenzen,18,,,,,,,,,,,,,
,Move,canvas.Screen,0_1_0_18,down,response,,75186,75185.88,75186.06,75404,217.94000000000233,75415,2021-10-26T12:50:59.702Z,75428.16,1635252578,full,ni_sequenzen,NI_Sequenzen,19,,,,,,,,,,,,,
,Move,canvas.Screen,0_1_0_19,right,response,,75428,75427.72,75428.16,75700,271.8399999999965,75713,2021-10-26T12:50:59.999Z,75724.74,1635252578,full,ni_sequenzen,NI_Sequenzen,20,,,,,,,,,,,,,
,Move,canvas.Screen,0_1_0_20,left,response,,75723,75723.08,75724.74,76044,319.25999999999476,76060,2021-10-26T12:51:00.346Z,76065.98,1635252578,full,ni_sequenzen,NI_Sequenzen,21,,,,,,,,,,,,,
,Move,canvas.Screen,0_1_0_21,left,response,,76066,76065.76,76065.98,76434,368.0200000000041,76437,2021-10-26T12:51:00.722Z,76442.04,1635252578,full,ni_sequenzen,NI_Sequenzen,22,,,,,,,,,,,,,
,Move,canvas.Screen,0_1_0_22,left,response,,76441,76441.82,76442.04,76669,226.9600000000064,76676,2021-10-26T12:51:00.962Z,76680.46,1635252578,full,ni_sequenzen,NI_Sequenzen,23,,,,,,,,,,,,,
,Move,canvas.Screen,0_1_0_23,down,response,,76680,76680.24,76680.46,77029,348.5399999999936,77045,2021-10-26T12:51:01.331Z,77049.54,1635252578,full,ni_sequenzen,NI_Sequenzen,24,,,,,,,,,,,,,
,Move,canvas.Screen,0_1_0_24,down,response,,77049,77049.36,77049.54,77279,229.4600000000064,77284,2021-10-26T12:51:01.570Z,77289.52,1635252578,full,ni_sequenzen,NI_Sequenzen,25,,,,,,,,,,,,,
,Move,canvas.Screen,0_1_0_25,down,response,,77289,77289.26,77289.52,77529,239.47999999999593,77532,2021-10-26T12:51:01.819Z,77536.26,1635252578,full,ni_sequenzen,NI_Sequenzen,26,,,,,,,,,,,,,
,Move,canvas.Screen,0_1_0_26,down,response,,77536,77536.1,77536.26,77779,242.74000000000524,77789,2021-10-26T12:51:02.075Z,77794.38,1635252578,full,ni_sequenzen,NI_Sequenzen,27,,,,,,,,,,,,,
,Move,canvas.Screen,0_1_0_27,left,response,,77794,77794.12,77794.38,77997,202.61999999999534,78012,2021-10-26T12:51:02.299Z,78018.72,1635252578,full,ni_sequenzen,NI_Sequenzen,28,,,,,,,,,,,,,
,Move,canvas.Screen,0_1_0_28,right,response,,78018,78018.44,78018.72,78607,588.2799999999988,78620,2021-10-26T12:51:02.906Z,78624.82,1635252578,full,ni_sequenzen,NI_Sequenzen,29,,,,,,,,,,,,,
,Move,canvas.Screen,0_1_0_29,right,response,,78624,78624.58,78624.82,79122,497.179999999993,79124,2021-10-26T12:51:03.411Z,79178.52,1635252578,full,ni_sequenzen,NI_Sequenzen,30,,,,,,,,,,,,,
,Loop,flow.Loop,0_1_0,-999,completion,,62187,62191.16,62207.26,79122,16914.739999999998,79124,2021-10-26T12:51:03.411Z,79178.52,1635252578,full,ni_sequenzen,NI_Sequenzen,,,,,,,,,,,,,,
,Training_I,flow.Sequence,0_1,,completion,,62169,62191.16,62207.26,79122,16914.739999999998,79125,2021-10-26T12:51:03.411Z,79178.52,1635252578,full,ni_sequenzen,NI_Sequenzen,,,,,,,,,,,,,,
,Screen_1,canvas.Screen,0_2_0_0,cont,response,1,79179,79178.3,79178.52,79325,146.47999999999593,79333,2021-10-26T12:51:03.618Z,79445.82,1635252578,full,ni_sequenzen,NI_Sequenzen,,,,,,,,,,,,,,
,Screen_2,canvas.Screen,0_2_0_1,back,response,1,79445,79445.56,79445.82,81122,1676.179999999993,81125,2021-10-26T12:51:05.410Z,81249.18,1635252578,full,ni_sequenzen,NI_Sequenzen,,,,,,,,,,,,,,
,Screen_3,canvas.Screen,0_2_0_2,,skipped,1,81127,,,81122,,81127,2021-10-26T12:51:05.413Z,81249.18,1635252578,full,ni_sequenzen,NI_Sequenzen,,,,,,,,,,,,,,
,Screen_4,canvas.Screen,0_2_0_3,,skipped,1,81200,,,81122,,81200,2021-10-26T12:51:05.486Z,81249.18,1635252578,full,ni_sequenzen,NI_Sequenzen,,,,,,,,,,,,,,
,Screen_5,canvas.Screen,0_2_0_4,,skipped,1,81202,,,81122,,81202,2021-10-26T12:51:05.489Z,81249.18,1635252578,full,ni_sequenzen,NI_Sequenzen,,,,,,,,,,,,,,
,Screen_6,canvas.Screen,0_2_0_5,,skipped,1,81246,,,81122,,81246,2021-10-26T12:51:05.533Z,81249.18,1635252578,full,ni_sequenzen,NI_Sequenzen,,,,,,,,,,,,,,
,Sequence,flow.Sequence,0_2_0,,completion,1,79177,79178.3,79178.52,81122,1943.479999999996,81247,2021-10-26T12:51:05.533Z,81249.18,1635252578,full,ni_sequenzen,NI_Sequenzen,,,,,,,,,,,,,,
,Screen_1,canvas.Screen,0_2_1_0,cont,response,2,81249,81249,81249.18,87841,6591.820000000007,87845,2021-10-26T12:51:12.132Z,87850.74,1635252578,full,ni_sequenzen,NI_Sequenzen,,,,,,,,,,,,,,
,Screen_2,canvas.Screen,0_2_1_1,cont,response,2,87851,87850.56,87850.74,94747,6896.259999999995,94758,2021-10-26T12:51:19.044Z,94762.66,1635252578,full,ni_sequenzen,NI_Sequenzen,,,,,,,,,,,,,,
,Screen_3,canvas.Screen,0_2_1_2,cont,response,2,94762,94762.4,94762.66,106372,11609.339999999997,106382,2021-10-26T12:51:30.668Z,106392.02,1635252578,full,ni_sequenzen,NI_Sequenzen,,,,,,,,,,,,,,
,Screen_4,canvas.Screen,0_2_1_3,cont,response,2,106386,106385.8,106392.02,111215,4822.979999999996,111228,2021-10-26T12:51:35.514Z,111231.26,1635252578,full,ni_sequenzen,NI_Sequenzen,,,,,,,,,,,,,,
,Screen_5,canvas.Screen,0_2_1_4,cont,response,2,111231,111231.08,111231.26,115857,4625.740000000005,115861,2021-10-26T12:51:40.147Z,115863.2,1635252578,full,ni_sequenzen,NI_Sequenzen,,,,,,,,,,,,,,
,Screen_6,canvas.Screen,0_2_1_5,cont,response,2,115863,115863,115863.2,125560,9696.800000000003,125573,2021-10-26T12:51:49.859Z,125942.42,1635252578,full,ni_sequenzen,NI_Sequenzen,,,,,,,,,,,,,,
,Sequence,flow.Sequence,0_2_1,,completion,2,81247,81249,81249.18,125560,44310.82000000001,125574,2021-10-26T12:51:49.860Z,125942.42,1635252578,full,ni_sequenzen,NI_Sequenzen,,,,,,,,,,,,,,
,Screen_1,canvas.Screen,0_2_2_0,,skipped,3,125578,,,125578,,125578,2021-10-26T12:51:49.864Z,125942.42,1635252578,full,ni_sequenzen,NI_Sequenzen,,,,,,,,,,,,,,
,Screen_2,canvas.Screen,0_2_2_1,,skipped,3,125580,,,125578,,125580,2021-10-26T12:51:49.866Z,125942.42,1635252578,full,ni_sequenzen,NI_Sequenzen,,,,,,,,,,,,,,
,Screen_3,canvas.Screen,0_2_2_2,,skipped,3,125582,,,125578,,125582,2021-10-26T12:51:49.868Z,125942.42,1635252578,full,ni_sequenzen,NI_Sequenzen,,,,,,,,,,,,,,
,Screen_4,canvas.Screen,0_2_2_3,,skipped,3,125584,,,125578,,125584,2021-10-26T12:51:49.871Z,125942.42,1635252578,full,ni_sequenzen,NI_Sequenzen,,,,,,,,,,,,,,
,Screen_5,canvas.Screen,0_2_2_4,,skipped,3,125588,,,125578,,125588,2021-10-26T12:51:49.873Z,125942.42,1635252578,full,ni_sequenzen,NI_Sequenzen,,,,,,,,,,,,,,
,Screen_6,canvas.Screen,0_2_2_5,,skipped,3,125590,,,125578,,125590,2021-10-26T12:51:49.875Z,125942.42,1635252578,full,ni_sequenzen,NI_Sequenzen,,,,,,,,,,,,,,
,Sequence,flow.Sequence,0_2_2,,completion,3,125575,,,125578,,125590,2021-10-26T12:51:49.876Z,125942.42,1635252578,full,ni_sequenzen,NI_Sequenzen,,,,,,,,,,,,,,
,Screen_1,canvas.Screen,0_2_3_0,,skipped,4,125592,,,125592,,125592,2021-10-26T12:51:49.879Z,125942.42,1635252578,full,ni_sequenzen,NI_Sequenzen,,,,,,,,,,,,,,
,Screen_2,canvas.Screen,0_2_3_1,,skipped,4,125594,,,125592,,125594,2021-10-26T12:51:49.881Z,125942.42,1635252578,full,ni_sequenzen,NI_Sequenzen,,,,,,,,,,,,,,
,Screen_3,canvas.Screen,0_2_3_2,,skipped,4,125597,,,125592,,125597,2021-10-26T12:51:49.883Z,125942.42,1635252578,full,ni_sequenzen,NI_Sequenzen,,,,,,,,,,,,,,
,Screen_4,canvas.Screen,0_2_3_3,,skipped,4,125599,,,125592,,125599,2021-10-26T12:51:49.885Z,125942.42,1635252578,full,ni_sequenzen,NI_Sequenzen,,,,,,,,,,,,,,
,Screen_5,canvas.Screen,0_2_3_4,,skipped,4,125602,,,125592,,125602,2021-10-26T12:51:49.887Z,125942.42,1635252578,full,ni_sequenzen,NI_Sequenzen,,,,,,,,,,,,,,
,Screen_6,canvas.Screen,0_2_3_5,,skipped,4,125604,,,125592,,125604,2021-10-26T12:51:49.890Z,125942.42,1635252578,full,ni_sequenzen,NI_Sequenzen,,,,,,,,,,,,,,
,Sequence,flow.Sequence,0_2_3,,completion,4,125591,,,125592,,125604,2021-10-26T12:51:49.891Z,125942.42,1635252578,full,ni_sequenzen,NI_Sequenzen,,,,,,,,,,,,,,
,Screen_1,canvas.Screen,0_2_4_0,,skipped,5,125606,,,125606,,125606,2021-10-26T12:51:49.893Z,125942.42,1635252578,full,ni_sequenzen,NI_Sequenzen,,,,,,,,,,,,,,
,Screen_2,canvas.Screen,0_2_4_1,,skipped,5,125608,,,125606,,125608,2021-10-26T12:51:49.894Z,125942.42,1635252578,full,ni_sequenzen,NI_Sequenzen,,,,,,,,,,,,,,
,Screen_3,canvas.Screen,0_2_4_2,,skipped,5,125610,,,125606,,125610,2021-10-26T12:51:49.896Z,125942.42,1635252578,full,ni_sequenzen,NI_Sequenzen,,,,,,,,,,,,,,
,Screen_4,canvas.Screen,0_2_4_3,,skipped,5,125612,,,125606,,125612,2021-10-26T12:51:49.898Z,125942.42,1635252578,full,ni_sequenzen,NI_Sequenzen,,,,,,,,,,,,,,
,Screen_5,canvas.Screen,0_2_4_4,,skipped,5,125614,,,125606,,125614,2021-10-26T12:51:49.900Z,125942.42,1635252578,full,ni_sequenzen,NI_Sequenzen,,,,,,,,,,,,,,
,Screen_6,canvas.Screen,0_2_4_5,,skipped,5,125616,,,125606,,125616,2021-10-26T12:51:49.902Z,125942.42,1635252578,full,ni_sequenzen,NI_Sequenzen,,,,,,,,,,,,,,
,Sequence,flow.Sequence,0_2_4,,completion,5,125605,,,125606,,125616,2021-10-26T12:51:49.902Z,125942.42,1635252578,full,ni_sequenzen,NI_Sequenzen,,,,,,,,,,,,,,
,Screen_1,canvas.Screen,0_2_5_0,,skipped,6,125618,,,125618,,125618,2021-10-26T12:51:49.905Z,125942.42,1635252578,full,ni_sequenzen,NI_Sequenzen,,,,,,,,,,,,,,
,Screen_2,canvas.Screen,0_2_5_1,,skipped,6,125621,,,125618,,125621,2021-10-26T12:51:49.906Z,125942.42,1635252578,full,ni_sequenzen,NI_Sequenzen,,,,,,,,,,,,,,
,Screen_3,canvas.Screen,0_2_5_2,,skipped,6,125623,,,125618,,125623,2021-10-26T12:51:49.910Z,125942.42,1635252578,full,ni_sequenzen,NI_Sequenzen,,,,,,,,,,,,,,
,Screen_4,canvas.Screen,0_2_5_3,,skipped,6,125625,,,125618,,125625,2021-10-26T12:51:49.912Z,125942.42,1635252578,full,ni_sequenzen,NI_Sequenzen,,,,,,,,,,,,,,
,Screen_5,canvas.Screen,0_2_5_4,,skipped,6,125628,,,125618,,125628,2021-10-26T12:51:49.914Z,125942.42,1635252578,full,ni_sequenzen,NI_Sequenzen,,,,,,,,,,,,,,
,Screen_6,canvas.Screen,0_2_5_5,,skipped,6,125631,,,125618,,125631,2021-10-26T12:51:49.917Z,125942.42,1635252578,full,ni_sequenzen,NI_Sequenzen,,,,,,,,,,,,,,
,Sequence,flow.Sequence,0_2_5,,completion,6,125617,,,125618,,125631,2021-10-26T12:51:49.918Z,125942.42,1635252578,full,ni_sequenzen,NI_Sequenzen,,,,,,,,,,,,,,
,Screen_1,canvas.Screen,0_2_6_0,,skipped,7,125634,,,125634,,125634,2021-10-26T12:51:49.920Z,125942.42,1635252578,full,ni_sequenzen,NI_Sequenzen,,,,,,,,,,,,,,
,Screen_2,canvas.Screen,0_2_6_1,,skipped,7,125636,,,125634,,125636,2021-10-26T12:51:49.922Z,125942.42,1635252578,full,ni_sequenzen,NI_Sequenzen,,,,,,,,,,,,,,
,Screen_3,canvas.Screen,0_2_6_2,,skipped,7,125637,,,125634,,125637,2021-10-26T12:51:49.924Z,125942.42,1635252578,full,ni_sequenzen,NI_Sequenzen,,,,,,,,,,,,,,
,Screen_4,canvas.Screen,0_2_6_3,,skipped,7,125639,,,125634,,125639,2021-10-26T12:51:49.925Z,125942.42,1635252578,full,ni_sequenzen,NI_Sequenzen,,,,,,,,,,,,,,
,Screen_5,canvas.Screen,0_2_6_4,,skipped,7,125640,,,125634,,125640,2021-10-26T12:51:49.927Z,125942.42,1635252578,full,ni_sequenzen,NI_Sequenzen,,,,,,,,,,,,,,
,Screen_6,canvas.Screen,0_2_6_5,,skipped,7,125643,,,125634,,125643,2021-10-26T12:51:49.929Z,125942.42,1635252578,full,ni_sequenzen,NI_Sequenzen,,,,,,,,,,,,,,
,Sequence,flow.Sequence,0_2_6,,completion,7,125632,,,125634,,125643,2021-10-26T12:51:49.929Z,125942.42,1635252578,full,ni_sequenzen,NI_Sequenzen,,,,,,,,,,,,,,
,Screen_1,canvas.Screen,0_2_7_0,,skipped,8,125646,,,125646,,125646,2021-10-26T12:51:49.932Z,125942.42,1635252578,full,ni_sequenzen,NI_Sequenzen,,,,,,,,,,,,,,
,Screen_2,canvas.Screen,0_2_7_1,,skipped,8,125647,,,125646,,125647,2021-10-26T12:51:49.933Z,125942.42,1635252578,full,ni_sequenzen,NI_Sequenzen,,,,,,,,,,,,,,
,Screen_3,canvas.Screen,0_2_7_2,,skipped,8,125649,,,125646,,125649,2021-10-26T12:51:49.935Z,125942.42,1635252578,full,ni_sequenzen,NI_Sequenzen,,,,,,,,,,,,,,
,Screen_4,canvas.Screen,0_2_7_3,,skipped,8,125650,,,125646,,125650,2021-10-26T12:51:49.937Z,125942.42,1635252578,full,ni_sequenzen,NI_Sequenzen,,,,,,,,,,,,,,
,Screen_5,canvas.Screen,0_2_7_4,,skipped,8,125653,,,125646,,125653,2021-10-26T12:51:49.938Z,125942.42,1635252578,full,ni_sequenzen,NI_Sequenzen,,,,,,,,,,,,,,
,Screen_6,canvas.Screen,0_2_7_5,,skipped,8,125655,,,125646,,125655,2021-10-26T12:51:49.940Z,125942.42,1635252578,full,ni_sequenzen,NI_Sequenzen,,,,,,,,,,,,,,
,Sequence,flow.Sequence,0_2_7,,completion,8,125644,,,125646,,125655,2021-10-26T12:51:49.941Z,125942.42,1635252578,full,ni_sequenzen,NI_Sequenzen,,,,,,,,,,,,,,
,Screen_1,canvas.Screen,0_2_8_0,,skipped,9,125657,,,125657,,125657,2021-10-26T12:51:49.943Z,125942.42,1635252578,full,ni_sequenzen,NI_Sequenzen,,,,,,,,,,,,,,
,Screen_2,canvas.Screen,0_2_8_1,,skipped,9,125658,,,125657,,125658,2021-10-26T12:51:49.945Z,125942.42,1635252578,full,ni_sequenzen,NI_Sequenzen,,,,,,,,,,,,,,
,Screen_3,canvas.Screen,0_2_8_2,,skipped,9,125659,,,125657,,125659,2021-10-26T12:51:49.946Z,125942.42,1635252578,full,ni_sequenzen,NI_Sequenzen,,,,,,,,,,,,,,
,Screen_4,canvas.Screen,0_2_8_3,,skipped,9,125661,,,125657,,125661,2021-10-26T12:51:49.948Z,125942.42,1635252578,full,ni_sequenzen,NI_Sequenzen,,,,,,,,,,,,,,
,Screen_5,canvas.Screen,0_2_8_4,,skipped,9,125664,,,125657,,125664,2021-10-26T12:51:49.950Z,125942.42,1635252578,full,ni_sequenzen,NI_Sequenzen,,,,,,,,,,,,,,
,Screen_6,canvas.Screen,0_2_8_5,,skipped,9,125666,,,125657,,125666,2021-10-26T12:51:49.952Z,125942.42,1635252578,full,ni_sequenzen,NI_Sequenzen,,,,,,,,,,,,,,
,Sequence,flow.Sequence,0_2_8,,completion,9,125656,,,125657,,125667,2021-10-26T12:51:49.952Z,125942.42,1635252578,full,ni_sequenzen,NI_Sequenzen,,,,,,,,,,,,,,
,Screen_1,canvas.Screen,0_2_9_0,,skipped,10,125670,,,125670,,125670,2021-10-26T12:51:49.956Z,125942.42,1635252578,full,ni_sequenzen,NI_Sequenzen,,,,,,,,,,,,,,
,Screen_2,canvas.Screen,0_2_9_1,,skipped,10,125671,,,125670,,125671,2021-10-26T12:51:49.958Z,125942.42,1635252578,full,ni_sequenzen,NI_Sequenzen,,,,,,,,,,,,,,
,Screen_3,canvas.Screen,0_2_9_2,,skipped,10,125673,,,125670,,125673,2021-10-26T12:51:49.959Z,125942.42,1635252578,full,ni_sequenzen,NI_Sequenzen,,,,,,,,,,,,,,
,Screen_4,canvas.Screen,0_2_9_3,,skipped,10,125675,,,125670,,125675,2021-10-26T12:51:49.961Z,125942.42,1635252578,full,ni_sequenzen,NI_Sequenzen,,,,,,,,,,,,,,
,Screen_5,canvas.Screen,0_2_9_4,,skipped,10,125677,,,125670,,125677,2021-10-26T12:51:49.963Z,125942.42,1635252578,full,ni_sequenzen,NI_Sequenzen,,,,,,,,,,,,,,
,Screen_6,canvas.Screen,0_2_9_5,,skipped,10,125678,,,125670,,125679,2021-10-26T12:51:49.964Z,125942.42,1635252578,full,ni_sequenzen,NI_Sequenzen,,,,,,,,,,,,,,
,Sequence,flow.Sequence,0_2_9,,completion,10,125668,,,125670,,125679,2021-10-26T12:51:49.965Z,125942.42,1635252578,full,ni_sequenzen,NI_Sequenzen,,,,,,,,,,,,,,
,Screen_1,canvas.Screen,0_2_10_0,,skipped,11,125682,,,125682,,125682,2021-10-26T12:51:49.968Z,125942.42,1635252578,full,ni_sequenzen,NI_Sequenzen,,,,,,,,,,,,,,
,Screen_2,canvas.Screen,0_2_10_1,,skipped,11,125684,,,125682,,125684,2021-10-26T12:51:49.970Z,125942.42,1635252578,full,ni_sequenzen,NI_Sequenzen,,,,,,,,,,,,,,
,Screen_3,canvas.Screen,0_2_10_2,,skipped,11,125686,,,125682,,125686,2021-10-26T12:51:49.972Z,125942.42,1635252578,full,ni_sequenzen,NI_Sequenzen,,,,,,,,,,,,,,
,Screen_4,canvas.Screen,0_2_10_3,,skipped,11,125688,,,125682,,125688,2021-10-26T12:51:49.974Z,125942.42,1635252578,full,ni_sequenzen,NI_Sequenzen,,,,,,,,,,,,,,
,Screen_5,canvas.Screen,0_2_10_4,,skipped,11,125690,,,125682,,125690,2021-10-26T12:51:49.976Z,125942.42,1635252578,full,ni_sequenzen,NI_Sequenzen,,,,,,,,,,,,,,
,Screen_6,canvas.Screen,0_2_10_5,,skipped,11,125690,,,125682,,125691,2021-10-26T12:51:49.977Z,125942.42,1635252578,full,ni_sequenzen,NI_Sequenzen,,,,,,,,,,,,,,
,Sequence,flow.Sequence,0_2_10,,completion,11,125680,,,125682,,125692,2021-10-26T12:51:49.978Z,125942.42,1635252578,full,ni_sequenzen,NI_Sequenzen,,,,,,,,,,,,,,
,Screen_1,canvas.Screen,0_2_11_0,,skipped,12,125694,,,125694,,125694,2021-10-26T12:51:49.980Z,125942.42,1635252578,full,ni_sequenzen,NI_Sequenzen,,,,,,,,,,,,,,
,Screen_2,canvas.Screen,0_2_11_1,,skipped,12,125695,,,125694,,125695,2021-10-26T12:51:49.982Z,125942.42,1635252578,full,ni_sequenzen,NI_Sequenzen,,,,,,,,,,,,,,
,Screen_3,canvas.Screen,0_2_11_2,,skipped,12,125697,,,125694,,125697,2021-10-26T12:51:49.983Z,125942.42,1635252578,full,ni_sequenzen,NI_Sequenzen,,,,,,,,,,,,,,
,Screen_4,canvas.Screen,0_2_11_3,,skipped,12,125698,,,125694,,125698,2021-10-26T12:51:49.984Z,125942.42,1635252578,full,ni_sequenzen,NI_Sequenzen,,,,,,,,,,,,,,
,Screen_5,canvas.Screen,0_2_11_4,,skipped,12,125701,,,125694,,125701,2021-10-26T12:51:49.987Z,125942.42,1635252578,full,ni_sequenzen,NI_Sequenzen,,,,,,,,,,,,,,
,Screen_6,canvas.Screen,0_2_11_5,,skipped,12,125702,,,125694,,125703,2021-10-26T12:51:49.989Z,125942.42,1635252578,full,ni_sequenzen,NI_Sequenzen,,,,,,,,,,,,,,
,Sequence,flow.Sequence,0_2_11,,completion,12,125692,,,125694,,125703,2021-10-26T12:51:49.989Z,125942.42,1635252578,full,ni_sequenzen,NI_Sequenzen,,,,,,,,,,,,,,
,Screen_1,canvas.Screen,0_2_12_0,,skipped,13,125705,,,125705,,125705,2021-10-26T12:51:49.991Z,125942.42,1635252578,full,ni_sequenzen,NI_Sequenzen,,,,,,,,,,,,,,
,Screen_2,canvas.Screen,0_2_12_1,,skipped,13,125706,,,125705,,125706,2021-10-26T12:51:49.993Z,125942.42,1635252578,full,ni_sequenzen,NI_Sequenzen,,,,,,,,,,,,,,
,Screen_3,canvas.Screen,0_2_12_2,,skipped,13,125708,,,125705,,125708,2021-10-26T12:51:49.995Z,125942.42,1635252578,full,ni_sequenzen,NI_Sequenzen,,,,,,,,,,,,,,
,Screen_4,canvas.Screen,0_2_12_3,,skipped,13,125710,,,125705,,125710,2021-10-26T12:51:49.996Z,125942.42,1635252578,full,ni_sequenzen,NI_Sequenzen,,,,,,,,,,,,,,
,Screen_5,canvas.Screen,0_2_12_4,,skipped,13,125712,,,125705,,125712,2021-10-26T12:51:49.998Z,125942.42,1635252578,full,ni_sequenzen,NI_Sequenzen,,,,,,,,,,,,,,
,Screen_6,canvas.Screen,0_2_12_5,,skipped,13,125713,,,125705,,125713,2021-10-26T12:51:49.999Z,125942.42,1635252578,full,ni_sequenzen,NI_Sequenzen,,,,,,,,,,,,,,
,Sequence,flow.Sequence,0_2_12,,completion,13,125703,,,125705,,125713,2021-10-26T12:51:49.999Z,125942.42,1635252578,full,ni_sequenzen,NI_Sequenzen,,,,,,,,,,,,,,
,Screen_1,canvas.Screen,0_2_13_0,,skipped,14,125716,,,125716,,125716,2021-10-26T12:51:50.002Z,125942.42,1635252578,full,ni_sequenzen,NI_Sequenzen,,,,,,,,,,,,,,
,Screen_2,canvas.Screen,0_2_13_1,,skipped,14,125718,,,125716,,125718,2021-10-26T12:51:50.003Z,125942.42,1635252578,full,ni_sequenzen,NI_Sequenzen,,,,,,,,,,,,,,
,Screen_3,canvas.Screen,0_2_13_2,,skipped,14,125719,,,125716,,125719,2021-10-26T12:51:50.005Z,125942.42,1635252578,full,ni_sequenzen,NI_Sequenzen,,,,,,,,,,,,,,
,Screen_4,canvas.Screen,0_2_13_3,,skipped,14,125721,,,125716,,125721,2021-10-26T12:51:50.007Z,125942.42,1635252578,full,ni_sequenzen,NI_Sequenzen,,,,,,,,,,,,,,
,Screen_5,canvas.Screen,0_2_13_4,,skipped,14,125722,,,125716,,125722,2021-10-26T12:51:50.009Z,125942.42,1635252578,full,ni_sequenzen,NI_Sequenzen,,,,,,,,,,,,,,
,Screen_6,canvas.Screen,0_2_13_5,,skipped,14,125724,,,125716,,125724,2021-10-26T12:51:50.010Z,125942.42,1635252578,full,ni_sequenzen,NI_Sequenzen,,,,,,,,,,,,,,
,Sequence,flow.Sequence,0_2_13,,completion,14,125714,,,125716,,125724,2021-10-26T12:51:50.010Z,125942.42,1635252578,full,ni_sequenzen,NI_Sequenzen,,,,,,,,,,,,,,
,Screen_1,canvas.Screen,0_2_14_0,,skipped,15,125726,,,125726,,125726,2021-10-26T12:51:50.013Z,125942.42,1635252578,full,ni_sequenzen,NI_Sequenzen,,,,,,,,,,,,,,
,Screen_2,canvas.Screen,0_2_14_1,,skipped,15,125728,,,125726,,125728,2021-10-26T12:51:50.014Z,125942.42,1635252578,full,ni_sequenzen,NI_Sequenzen,,,,,,,,,,,,,,
,Screen_3,canvas.Screen,0_2_14_2,,skipped,15,125729,,,125726,,125729,2021-10-26T12:51:50.016Z,125942.42,1635252578,full,ni_sequenzen,NI_Sequenzen,,,,,,,,,,,,,,
,Screen_4,canvas.Screen,0_2_14_3,,skipped,15,125731,,,125726,,125731,2021-10-26T12:51:50.017Z,125942.42,1635252578,full,ni_sequenzen,NI_Sequenzen,,,,,,,,,,,,,,
,Screen_5,canvas.Screen,0_2_14_4,,skipped,15,125732,,,125726,,125733,2021-10-26T12:51:50.019Z,125942.42,1635252578,full,ni_sequenzen,NI_Sequenzen,,,,,,,,,,,,,,
,Screen_6,canvas.Screen,0_2_14_5,,skipped,15,125734,,,125726,,125735,2021-10-26T12:51:50.021Z,125942.42,1635252578,full,ni_sequenzen,NI_Sequenzen,,,,,,,,,,,,,,
,Sequence,flow.Sequence,0_2_14,,completion,15,125725,,,125726,,125735,2021-10-26T12:51:50.021Z,125942.42,1635252578,full,ni_sequenzen,NI_Sequenzen,,,,,,,,,,,,,,
,Screen_1,canvas.Screen,0_2_15_0,,skipped,16,125737,,,125737,,125737,2021-10-26T12:51:50.023Z,125942.42,1635252578,full,ni_sequenzen,NI_Sequenzen,,,,,,,,,,,,,,
,Screen_2,canvas.Screen,0_2_15_1,,skipped,16,125738,,,125737,,125739,2021-10-26T12:51:50.025Z,125942.42,1635252578,full,ni_sequenzen,NI_Sequenzen,,,,,,,,,,,,,,
,Screen_3,canvas.Screen,0_2_15_2,,skipped,16,125741,,,125737,,125741,2021-10-26T12:51:50.028Z,125942.42,1635252578,full,ni_sequenzen,NI_Sequenzen,,,,,,,,,,,,,,
,Screen_4,canvas.Screen,0_2_15_3,,skipped,16,125742,,,125737,,125742,2021-10-26T12:51:50.028Z,125942.42,1635252578,full,ni_sequenzen,NI_Sequenzen,,,,,,,,,,,,,,
,Screen_5,canvas.Screen,0_2_15_4,,skipped,16,125744,,,125737,,125744,2021-10-26T12:51:50.030Z,125942.42,1635252578,full,ni_sequenzen,NI_Sequenzen,,,,,,,,,,,,,,
,Screen_6,canvas.Screen,0_2_15_5,,skipped,16,125745,,,125737,,125745,2021-10-26T12:51:50.031Z,125942.42,1635252578,full,ni_sequenzen,NI_Sequenzen,,,,,,,,,,,,,,
,Sequence,flow.Sequence,0_2_15,,completion,16,125735,,,125737,,125746,2021-10-26T12:51:50.032Z,125942.42,1635252578,full,ni_sequenzen,NI_Sequenzen,,,,,,,,,,,,,,
,Screen_1,canvas.Screen,0_2_16_0,,skipped,17,125748,,,125748,,125748,2021-10-26T12:51:50.035Z,125942.42,1635252578,full,ni_sequenzen,NI_Sequenzen,,,,,,,,,,,,,,
,Screen_2,canvas.Screen,0_2_16_1,,skipped,17,125750,,,125748,,125750,2021-10-26T12:51:50.036Z,125942.42,1635252578,full,ni_sequenzen,NI_Sequenzen,,,,,,,,,,,,,,
,Screen_3,canvas.Screen,0_2_16_2,,skipped,17,125752,,,125748,,125752,2021-10-26T12:51:50.037Z,125942.42,1635252578,full,ni_sequenzen,NI_Sequenzen,,,,,,,,,,,,,,
,Screen_4,canvas.Screen,0_2_16_3,,skipped,17,125753,,,125748,,125753,2021-10-26T12:51:50.040Z,125942.42,1635252578,full,ni_sequenzen,NI_Sequenzen,,,,,,,,,,,,,,
,Screen_5,canvas.Screen,0_2_16_4,,skipped,17,125755,,,125748,,125755,2021-10-26T12:51:50.041Z,125942.42,1635252578,full,ni_sequenzen,NI_Sequenzen,,,,,,,,,,,,,,
,Screen_6,canvas.Screen,0_2_16_5,,skipped,17,125757,,,125748,,125757,2021-10-26T12:51:50.042Z,125942.42,1635252578,full,ni_sequenzen,NI_Sequenzen,,,,,,,,,,,,,,
,Sequence,flow.Sequence,0_2_16,,completion,17,125746,,,125748,,125757,2021-10-26T12:51:50.043Z,125942.42,1635252578,full,ni_sequenzen,NI_Sequenzen,,,,,,,,,,,,,,
,Screen_1,canvas.Screen,0_2_17_0,,skipped,18,125759,,,125759,,125759,2021-10-26T12:51:50.045Z,125942.42,1635252578,full,ni_sequenzen,NI_Sequenzen,,,,,,,,,,,,,,
,Screen_2,canvas.Screen,0_2_17_1,,skipped,18,125761,,,125759,,125761,2021-10-26T12:51:50.047Z,125942.42,1635252578,full,ni_sequenzen,NI_Sequenzen,,,,,,,,,,,,,,
,Screen_3,canvas.Screen,0_2_17_2,,skipped,18,125762,,,125759,,125762,2021-10-26T12:51:50.049Z,125942.42,1635252578,full,ni_sequenzen,NI_Sequenzen,,,,,,,,,,,,,,
,Screen_4,canvas.Screen,0_2_17_3,,skipped,18,125764,,,125759,,125764,2021-10-26T12:51:50.050Z,125942.42,1635252578,full,ni_sequenzen,NI_Sequenzen,,,,,,,,,,,,,,
,Screen_5,canvas.Screen,0_2_17_4,,skipped,18,125766,,,125759,,125766,2021-10-26T12:51:50.052Z,125942.42,1635252578,full,ni_sequenzen,NI_Sequenzen,,,,,,,,,,,,,,
,Screen_6,canvas.Screen,0_2_17_5,,skipped,18,125767,,,125759,,125767,2021-10-26T12:51:50.053Z,125942.42,1635252578,full,ni_sequenzen,NI_Sequenzen,,,,,,,,,,,,,,
,Sequence,flow.Sequence,0_2_17,,completion,18,125757,,,125759,,125767,2021-10-26T12:51:50.053Z,125942.42,1635252578,full,ni_sequenzen,NI_Sequenzen,,,,,,,,,,,,,,
,Screen_1,canvas.Screen,0_2_18_0,,skipped,19,125769,,,125769,,125769,2021-10-26T12:51:50.056Z,125942.42,1635252578,full,ni_sequenzen,NI_Sequenzen,,,,,,,,,,,,,,
,Screen_2,canvas.Screen,0_2_18_1,,skipped,19,125771,,,125769,,125771,2021-10-26T12:51:50.057Z,125942.42,1635252578,full,ni_sequenzen,NI_Sequenzen,,,,,,,,,,,,,,
,Screen_3,canvas.Screen,0_2_18_2,,skipped,19,125773,,,125769,,125773,2021-10-26T12:51:50.059Z,125942.42,1635252578,full,ni_sequenzen,NI_Sequenzen,,,,,,,,,,,,,,
,Screen_4,canvas.Screen,0_2_18_3,,skipped,19,125774,,,125769,,125774,2021-10-26T12:51:50.061Z,125942.42,1635252578,full,ni_sequenzen,NI_Sequenzen,,,,,,,,,,,,,,
,Screen_5,canvas.Screen,0_2_18_4,,skipped,19,125776,,,125769,,125776,2021-10-26T12:51:50.062Z,125942.42,1635252578,full,ni_sequenzen,NI_Sequenzen,,,,,,,,,,,,,,
,Screen_6,canvas.Screen,0_2_18_5,,skipped,19,125777,,,125769,,125777,2021-10-26T12:51:50.063Z,125942.42,1635252578,full,ni_sequenzen,NI_Sequenzen,,,,,,,,,,,,,,
,Sequence,flow.Sequence,0_2_18,,completion,19,125768,,,125769,,125777,2021-10-26T12:51:50.063Z,125942.42,1635252578,full,ni_sequenzen,NI_Sequenzen,,,,,,,,,,,,,,
,Screen_1,canvas.Screen,0_2_19_0,,skipped,20,125779,,,125779,,125779,2021-10-26T12:51:50.066Z,125942.42,1635252578,full,ni_sequenzen,NI_Sequenzen,,,,,,,,,,,,,,
,Screen_2,canvas.Screen,0_2_19_1,,skipped,20,125781,,,125779,,125781,2021-10-26T12:51:50.068Z,125942.42,1635252578,full,ni_sequenzen,NI_Sequenzen,,,,,,,,,,,,,,
,Screen_3,canvas.Screen,0_2_19_2,,skipped,20,125783,,,125779,,125783,2021-10-26T12:51:50.069Z,125942.42,1635252578,full,ni_sequenzen,NI_Sequenzen,,,,,,,,,,,,,,
,Screen_4,canvas.Screen,0_2_19_3,,skipped,20,125784,,,125779,,125784,2021-10-26T12:51:50.070Z,125942.42,1635252578,full,ni_sequenzen,NI_Sequenzen,,,,,,,,,,,,,,
,Screen_5,canvas.Screen,0_2_19_4,,skipped,20,125786,,,125779,,125786,2021-10-26T12:51:50.072Z,125942.42,1635252578,full,ni_sequenzen,NI_Sequenzen,,,,,,,,,,,,,,
,Screen_6,canvas.Screen,0_2_19_5,,skipped,20,125787,,,125779,,125787,2021-10-26T12:51:50.073Z,125942.42,1635252578,full,ni_sequenzen,NI_Sequenzen,,,,,,,,,,,,,,
,Sequence,flow.Sequence,0_2_19,,completion,20,125778,,,125779,,125787,2021-10-26T12:51:50.073Z,125942.42,1635252578,full,ni_sequenzen,NI_Sequenzen,,,,,,,,,,,,,,
,Screen_1,canvas.Screen,0_2_20_0,,skipped,21,125789,,,125789,,125789,2021-10-26T12:51:50.075Z,125942.42,1635252578,full,ni_sequenzen,NI_Sequenzen,,,,,,,,,,,,,,
,Screen_2,canvas.Screen,0_2_20_1,,skipped,21,125791,,,125789,,125791,2021-10-26T12:51:50.077Z,125942.42,1635252578,full,ni_sequenzen,NI_Sequenzen,,,,,,,,,,,,,,
,Screen_3,canvas.Screen,0_2_20_2,,skipped,21,125793,,,125789,,125793,2021-10-26T12:51:50.079Z,125942.42,1635252578,full,ni_sequenzen,NI_Sequenzen,,,,,,,,,,,,,,
,Screen_4,canvas.Screen,0_2_20_3,,skipped,21,125794,,,125789,,125794,2021-10-26T12:51:50.080Z,125942.42,1635252578,full,ni_sequenzen,NI_Sequenzen,,,,,,,,,,,,,,
,Screen_5,canvas.Screen,0_2_20_4,,skipped,21,125795,,,125789,,125795,2021-10-26T12:51:50.081Z,125942.42,1635252578,full,ni_sequenzen,NI_Sequenzen,,,,,,,,,,,,,,
,Screen_6,canvas.Screen,0_2_20_5,,skipped,21,125797,,,125789,,125797,2021-10-26T12:51:50.083Z,125942.42,1635252578,full,ni_sequenzen,NI_Sequenzen,,,,,,,,,,,,,,
,Sequence,flow.Sequence,0_2_20,,completion,21,125788,,,125789,,125797,2021-10-26T12:51:50.083Z,125942.42,1635252578,full,ni_sequenzen,NI_Sequenzen,,,,,,,,,,,,,,
,Screen_1,canvas.Screen,0_2_21_0,,skipped,22,125799,,,125799,,125799,2021-10-26T12:51:50.085Z,125942.42,1635252578,full,ni_sequenzen,NI_Sequenzen,,,,,,,,,,,,,,
,Screen_2,canvas.Screen,0_2_21_1,,skipped,22,125800,,,125799,,125800,2021-10-26T12:51:50.087Z,125942.42,1635252578,full,ni_sequenzen,NI_Sequenzen,,,,,,,,,,,,,,
,Screen_3,canvas.Screen,0_2_21_2,,skipped,22,125802,,,125799,,125802,2021-10-26T12:51:50.088Z,125942.42,1635252578,full,ni_sequenzen,NI_Sequenzen,,,,,,,,,,,,,,
,Screen_4,canvas.Screen,0_2_21_3,,skipped,22,125803,,,125799,,125803,2021-10-26T12:51:50.090Z,125942.42,1635252578,full,ni_sequenzen,NI_Sequenzen,,,,,,,,,,,,,,
,Screen_5,canvas.Screen,0_2_21_4,,skipped,22,125805,,,125799,,125805,2021-10-26T12:51:50.091Z,125942.42,1635252578,full,ni_sequenzen,NI_Sequenzen,,,,,,,,,,,,,,
,Screen_6,canvas.Screen,0_2_21_5,,skipped,22,125807,,,125799,,125807,2021-10-26T12:51:50.092Z,125942.42,1635252578,full,ni_sequenzen,NI_Sequenzen,,,,,,,,,,,,,,
,Sequence,flow.Sequence,0_2_21,,completion,22,125798,,,125799,,125807,2021-10-26T12:51:50.093Z,125942.42,1635252578,full,ni_sequenzen,NI_Sequenzen,,,,,,,,,,,,,,
,Screen_1,canvas.Screen,0_2_22_0,,skipped,23,125809,,,125809,,125809,2021-10-26T12:51:50.095Z,125942.42,1635252578,full,ni_sequenzen,NI_Sequenzen,,,,,,,,,,,,,,
,Screen_2,canvas.Screen,0_2_22_1,,skipped,23,125810,,,125809,,125810,2021-10-26T12:51:50.096Z,125942.42,1635252578,full,ni_sequenzen,NI_Sequenzen,,,,,,,,,,,,,,
,Screen_3,canvas.Screen,0_2_22_2,,skipped,23,125811,,,125809,,125811,2021-10-26T12:51:50.098Z,125942.42,1635252578,full,ni_sequenzen,NI_Sequenzen,,,,,,,,,,,,,,
,Screen_4,canvas.Screen,0_2_22_3,,skipped,23,125814,,,125809,,125814,2021-10-26T12:51:50.099Z,125942.42,1635252578,full,ni_sequenzen,NI_Sequenzen,,,,,,,,,,,,,,
,Screen_5,canvas.Screen,0_2_22_4,,skipped,23,125815,,,125809,,125815,2021-10-26T12:51:50.100Z,125942.42,1635252578,full,ni_sequenzen,NI_Sequenzen,,,,,,,,,,,,,,
,Screen_6,canvas.Screen,0_2_22_5,,skipped,23,125816,,,125809,,125816,2021-10-26T12:51:50.102Z,125942.42,1635252578,full,ni_sequenzen,NI_Sequenzen,,,,,,,,,,,,,,
,Sequence,flow.Sequence,0_2_22,,completion,23,125808,,,125809,,125817,2021-10-26T12:51:50.103Z,125942.42,1635252578,full,ni_sequenzen,NI_Sequenzen,,,,,,,,,,,,,,
,Screen_1,canvas.Screen,0_2_23_0,,skipped,24,125818,,,125818,,125818,2021-10-26T12:51:50.105Z,125942.42,1635252578,full,ni_sequenzen,NI_Sequenzen,,,,,,,,,,,,,,
,Screen_2,canvas.Screen,0_2_23_1,,skipped,24,125820,,,125818,,125820,2021-10-26T12:51:50.106Z,125942.42,1635252578,full,ni_sequenzen,NI_Sequenzen,,,,,,,,,,,,,,
,Screen_3,canvas.Screen,0_2_23_2,,skipped,24,125822,,,125818,,125822,2021-10-26T12:51:50.107Z,125942.42,1635252578,full,ni_sequenzen,NI_Sequenzen,,,,,,,,,,,,,,
,Screen_4,canvas.Screen,0_2_23_3,,skipped,24,125823,,,125818,,125823,2021-10-26T12:51:50.109Z,125942.42,1635252578,full,ni_sequenzen,NI_Sequenzen,,,,,,,,,,,,,,
,Screen_5,canvas.Screen,0_2_23_4,,skipped,24,125826,,,125818,,125826,2021-10-26T12:51:50.113Z,125942.42,1635252578,full,ni_sequenzen,NI_Sequenzen,,,,,,,,,,,,,,
,Screen_6,canvas.Screen,0_2_23_5,,skipped,24,125828,,,125818,,125828,2021-10-26T12:51:50.113Z,125942.42,1635252578,full,ni_sequenzen,NI_Sequenzen,,,,,,,,,,,,,,
,Sequence,flow.Sequence,0_2_23,,completion,24,125817,,,125818,,125828,2021-10-26T12:51:50.114Z,125942.42,1635252578,full,ni_sequenzen,NI_Sequenzen,,,,,,,,,,,,,,
,Screen_1,canvas.Screen,0_2_24_0,,skipped,25,125830,,,125830,,125830,2021-10-26T12:51:50.116Z,125942.42,1635252578,full,ni_sequenzen,NI_Sequenzen,,,,,,,,,,,,,,
,Screen_2,canvas.Screen,0_2_24_1,,skipped,25,125831,,,125830,,125831,2021-10-26T12:51:50.117Z,125942.42,1635252578,full,ni_sequenzen,NI_Sequenzen,,,,,,,,,,,,,,
,Screen_3,canvas.Screen,0_2_24_2,,skipped,25,125832,,,125830,,125833,2021-10-26T12:51:50.119Z,125942.42,1635252578,full,ni_sequenzen,NI_Sequenzen,,,,,,,,,,,,,,
,Screen_4,canvas.Screen,0_2_24_3,,skipped,25,125834,,,125830,,125834,2021-10-26T12:51:50.120Z,125942.42,1635252578,full,ni_sequenzen,NI_Sequenzen,,,,,,,,,,,,,,
,Screen_5,canvas.Screen,0_2_24_4,,skipped,25,125835,,,125830,,125835,2021-10-26T12:51:50.122Z,125942.42,1635252578,full,ni_sequenzen,NI_Sequenzen,,,,,,,,,,,,,,
,Screen_6,canvas.Screen,0_2_24_5,,skipped,25,125836,,,125830,,125836,2021-10-26T12:51:50.123Z,125942.42,1635252578,full,ni_sequenzen,NI_Sequenzen,,,,,,,,,,,,,,
,Sequence,flow.Sequence,0_2_24,,completion,25,125828,,,125830,,125837,2021-10-26T12:51:50.123Z,125942.42,1635252578,full,ni_sequenzen,NI_Sequenzen,,,,,,,,,,,,,,
,Screen_1,canvas.Screen,0_2_25_0,,skipped,26,125839,,,125839,,125839,2021-10-26T12:51:50.125Z,125942.42,1635252578,full,ni_sequenzen,NI_Sequenzen,,,,,,,,,,,,,,
,Screen_2,canvas.Screen,0_2_25_1,,skipped,26,125840,,,125839,,125840,2021-10-26T12:51:50.126Z,125942.42,1635252578,full,ni_sequenzen,NI_Sequenzen,,,,,,,,,,,,,,
,Screen_3,canvas.Screen,0_2_25_2,,skipped,26,125842,,,125839,,125842,2021-10-26T12:51:50.127Z,125942.42,1635252578,full,ni_sequenzen,NI_Sequenzen,,,,,,,,,,,,,,
,Screen_4,canvas.Screen,0_2_25_3,,skipped,26,125843,,,125839,,125843,2021-10-26T12:51:50.129Z,125942.42,1635252578,full,ni_sequenzen,NI_Sequenzen,,,,,,,,,,,,,,
,Screen_5,canvas.Screen,0_2_25_4,,skipped,26,125844,,,125839,,125844,2021-10-26T12:51:50.131Z,125942.42,1635252578,full,ni_sequenzen,NI_Sequenzen,,,,,,,,,,,,,,
,Screen_6,canvas.Screen,0_2_25_5,,skipped,26,125846,,,125839,,125846,2021-10-26T12:51:50.132Z,125942.42,1635252578,full,ni_sequenzen,NI_Sequenzen,,,,,,,,,,,,,,
,Sequence,flow.Sequence,0_2_25,,completion,26,125837,,,125839,,125846,2021-10-26T12:51:50.133Z,125942.42,1635252578,full,ni_sequenzen,NI_Sequenzen,,,,,,,,,,,,,,
,Screen_1,canvas.Screen,0_2_26_0,,skipped,27,125847,,,125847,,125847,2021-10-26T12:51:50.134Z,125942.42,1635252578,full,ni_sequenzen,NI_Sequenzen,,,,,,,,,,,,,,
,Screen_2,canvas.Screen,0_2_26_1,,skipped,27,125850,,,125847,,125850,2021-10-26T12:51:50.136Z,125942.42,1635252578,full,ni_sequenzen,NI_Sequenzen,,,,,,,,,,,,,,
,Screen_3,canvas.Screen,0_2_26_2,,skipped,27,125851,,,125847,,125851,2021-10-26T12:51:50.137Z,125942.42,1635252578,full,ni_sequenzen,NI_Sequenzen,,,,,,,,,,,,,,
,Screen_4,canvas.Screen,0_2_26_3,,skipped,27,125852,,,125847,,125852,2021-10-26T12:51:50.138Z,125942.42,1635252578,full,ni_sequenzen,NI_Sequenzen,,,,,,,,,,,,,,
,Screen_5,canvas.Screen,0_2_26_4,,skipped,27,125855,,,125847,,125856,2021-10-26T12:51:50.142Z,125942.42,1635252578,full,ni_sequenzen,NI_Sequenzen,,,,,,,,,,,,,,
,Screen_6,canvas.Screen,0_2_26_5,,skipped,27,125858,,,125847,,125858,2021-10-26T12:51:50.144Z,125942.42,1635252578,full,ni_sequenzen,NI_Sequenzen,,,,,,,,,,,,,,
,Sequence,flow.Sequence,0_2_26,,completion,27,125846,,,125847,,125858,2021-10-26T12:51:50.144Z,125942.42,1635252578,full,ni_sequenzen,NI_Sequenzen,,,,,,,,,,,,,,
,Screen_1,canvas.Screen,0_2_27_0,,skipped,28,125860,,,125860,,125860,2021-10-26T12:51:50.146Z,125942.42,1635252578,full,ni_sequenzen,NI_Sequenzen,,,,,,,,,,,,,,
,Screen_2,canvas.Screen,0_2_27_1,,skipped,28,125862,,,125860,,125862,2021-10-26T12:51:50.147Z,125942.42,1635252578,full,ni_sequenzen,NI_Sequenzen,,,,,,,,,,,,,,
,Screen_3,canvas.Screen,0_2_27_2,,skipped,28,125863,,,125860,,125863,2021-10-26T12:51:50.149Z,125942.42,1635252578,full,ni_sequenzen,NI_Sequenzen,,,,,,,,,,,,,,
,Screen_4,canvas.Screen,0_2_27_3,,skipped,28,125865,,,125860,,125865,2021-10-26T12:51:50.150Z,125942.42,1635252578,full,ni_sequenzen,NI_Sequenzen,,,,,,,,,,,,,,
,Screen_5,canvas.Screen,0_2_27_4,,skipped,28,125866,,,125860,,125866,2021-10-26T12:51:50.152Z,125942.42,1635252578,full,ni_sequenzen,NI_Sequenzen,,,,,,,,,,,,,,
,Screen_6,canvas.Screen,0_2_27_5,,skipped,28,125867,,,125860,,125867,2021-10-26T12:51:50.153Z,125942.42,1635252578,full,ni_sequenzen,NI_Sequenzen,,,,,,,,,,,,,,
,Sequence,flow.Sequence,0_2_27,,completion,28,125859,,,125860,,125867,2021-10-26T12:51:50.154Z,125942.42,1635252578,full,ni_sequenzen,NI_Sequenzen,,,,,,,,,,,,,,
,Screen_1,canvas.Screen,0_2_28_0,,skipped,29,125869,,,125869,,125869,2021-10-26T12:51:50.156Z,125942.42,1635252578,full,ni_sequenzen,NI_Sequenzen,,,,,,,,,,,,,,
,Screen_2,canvas.Screen,0_2_28_1,,skipped,29,125871,,,125869,,125871,2021-10-26T12:51:50.157Z,125942.42,1635252578,full,ni_sequenzen,NI_Sequenzen,,,,,,,,,,,,,,
,Screen_3,canvas.Screen,0_2_28_2,,skipped,29,125873,,,125869,,125873,2021-10-26T12:51:50.159Z,125942.42,1635252578,full,ni_sequenzen,NI_Sequenzen,,,,,,,,,,,,,,
,Screen_4,canvas.Screen,0_2_28_3,,skipped,29,125875,,,125869,,125875,2021-10-26T12:51:50.162Z,125942.42,1635252578,full,ni_sequenzen,NI_Sequenzen,,,,,,,,,,,,,,
,Screen_5,canvas.Screen,0_2_28_4,,skipped,29,125876,,,125869,,125876,2021-10-26T12:51:50.163Z,125942.42,1635252578,full,ni_sequenzen,NI_Sequenzen,,,,,,,,,,,,,,
,Screen_6,canvas.Screen,0_2_28_5,,skipped,29,125878,,,125869,,125878,2021-10-26T12:51:50.164Z,125942.42,1635252578,full,ni_sequenzen,NI_Sequenzen,,,,,,,,,,,,,,
,Sequence,flow.Sequence,0_2_28,,completion,29,125868,,,125869,,125878,2021-10-26T12:51:50.164Z,125942.42,1635252578,full,ni_sequenzen,NI_Sequenzen,,,,,,,,,,,,,,
,Screen_1,canvas.Screen,0_2_29_0,,skipped,30,125879,,,125879,,125879,2021-10-26T12:51:50.166Z,125942.42,1635252578,full,ni_sequenzen,NI_Sequenzen,,,,,,,,,,,,,,
,Screen_2,canvas.Screen,0_2_29_1,,skipped,30,125881,,,125879,,125881,2021-10-26T12:51:50.167Z,125942.42,1635252578,full,ni_sequenzen,NI_Sequenzen,,,,,,,,,,,,,,
,Screen_3,canvas.Screen,0_2_29_2,,skipped,30,125883,,,125879,,125883,2021-10-26T12:51:50.168Z,125942.42,1635252578,full,ni_sequenzen,NI_Sequenzen,,,,,,,,,,,,,,
,Screen_4,canvas.Screen,0_2_29_3,,skipped,30,125884,,,125879,,125884,2021-10-26T12:51:50.170Z,125942.42,1635252578,full,ni_sequenzen,NI_Sequenzen,,,,,,,,,,,,,,
,Screen_5,canvas.Screen,0_2_29_4,,skipped,30,125886,,,125879,,125886,2021-10-26T12:51:50.171Z,125942.42,1635252578,full,ni_sequenzen,NI_Sequenzen,,,,,,,,,,,,,,
,Screen_6,canvas.Screen,0_2_29_5,,skipped,30,125887,,,125879,,125887,2021-10-26T12:51:50.173Z,125942.42,1635252578,full,ni_sequenzen,NI_Sequenzen,,,,,,,,,,,,,,
,Sequence,flow.Sequence,0_2_29,,completion,30,125878,,,125879,,125887,2021-10-26T12:51:50.173Z,125942.42,1635252578,full,ni_sequenzen,NI_Sequenzen,,,,,,,,,,,,,,
,Instructions_II,flow.Loop,0_2,,completion,,79176,79178.3,79178.52,125879,46700.479999999996,125887,2021-10-26T12:51:50.173Z,125942.42,1635252578,full,ni_sequenzen,NI_Sequenzen,,,,,,,,,,,,,,
,Move,canvas.Screen,0_3_0_0_0_0,right,response,,125932,125931.54,125942.42,137529,11586.580000000002,137543,2021-10-26T12:52:01.830Z,137566.24,1635252578,full,ni_sequenzen,NI_Sequenzen,1,0,,,,,,,,,,,,
,Move,canvas.Screen,0_3_0_0_0_1,down,response,,137566,137566.02,137566.24,138732,1165.7600000000093,138744,2021-10-26T12:52:03.029Z,138764.22,1635252578,full,ni_sequenzen,NI_Sequenzen,2,0,,,,,,,,,,,,
,Move,canvas.Screen,0_3_0_0_0_2,down,response,,138764,138763.88,138764.22,140216,1451.7799999999988,140220,2021-10-26T12:52:04.507Z,140230.98,1635252578,full,ni_sequenzen,NI_Sequenzen,3,0,,,,,,,,,,,,
,Move,canvas.Screen,0_3_0_0_0_3,right,response,,140231,140230.8,140230.98,141888,1657.0199999999895,141892,2021-10-26T12:52:06.179Z,141978.98,1635252578,full,ni_sequenzen,NI_Sequenzen,4,0,,,,,,,,,,,,
,Move,canvas.Screen,0_3_0_0_0_4,-999,skipped,,141901,,,141888,,141901,2021-10-26T12:52:06.187Z,141978.98,1635252578,full,ni_sequenzen,NI_Sequenzen,5,0,,,,,,,,,,,,
,Move,canvas.Screen,0_3_0_0_0_5,-999,skipped,,141909,,,141888,,141909,2021-10-26T12:52:06.195Z,141978.98,1635252578,full,ni_sequenzen,NI_Sequenzen,6,0,,,,,,,,,,,,
,Move,canvas.Screen,0_3_0_0_0_6,-999,skipped,,141916,,,141888,,141916,2021-10-26T12:52:06.202Z,141978.98,1635252578,full,ni_sequenzen,NI_Sequenzen,7,0,,,,,,,,,,,,
,Move,canvas.Screen,0_3_0_0_0_7,-999,skipped,,141923,,,141888,,141923,2021-10-26T12:52:06.209Z,141978.98,1635252578,full,ni_sequenzen,NI_Sequenzen,8,0,,,,,,,,,,,,
,Move,canvas.Screen,0_3_0_0_0_8,-999,skipped,,141930,,,141888,,141930,2021-10-26T12:52:06.217Z,141978.98,1635252578,full,ni_sequenzen,NI_Sequenzen,9,0,,,,,,,,,,,,
,Move,canvas.Screen,0_3_0_0_0_9,-999,skipped,,141937,,,141888,,141937,2021-10-26T12:52:06.224Z,141978.98,1635252578,full,ni_sequenzen,NI_Sequenzen,10,0,,,,,,,,,,,,
,Move,canvas.Screen,0_3_0_0_0_10,-999,skipped,,141944,,,141888,,141944,2021-10-26T12:52:06.230Z,141978.98,1635252578,full,ni_sequenzen,NI_Sequenzen,11,0,,,,,,,,,,,,
,Move,canvas.Screen,0_3_0_0_0_11,-999,skipped,,141950,,,141888,,141950,2021-10-26T12:52:06.237Z,141978.98,1635252578,full,ni_sequenzen,NI_Sequenzen,12,0,,,,,,,,,,,,
,Move,canvas.Screen,0_3_0_0_0_12,-999,skipped,,141960,,,141888,,141960,2021-10-26T12:52:06.246Z,141978.98,1635252578,full,ni_sequenzen,NI_Sequenzen,13,0,,,,,,,,,,,,
,Move,canvas.Screen,0_3_0_0_0_13,-999,skipped,,141967,,,141888,,141967,2021-10-26T12:52:06.253Z,141978.98,1635252578,full,ni_sequenzen,NI_Sequenzen,14,0,,,,,,,,,,,,
,Move,canvas.Screen,0_3_0_0_0_14,-999,skipped,,141973,,,141888,,141973,2021-10-26T12:52:06.260Z,141978.98,1635252578,full,ni_sequenzen,NI_Sequenzen,15,0,,,,,,,,,,,,
,Loop,flow.Loop,0_3_0_0_0,-999,completion,,125924,125931.54,125942.42,141888,15945.580000000002,141973,2021-10-26T12:52:06.260Z,141978.98,1635252578,full,ni_sequenzen,NI_Sequenzen,,0,,,,,,,,,,,,
,Feedback,canvas.Screen,0_3_0_0_1,,timeout,,141979,141978.7,141978.98,145959.7,4022.859999999986,145960,2021-10-26T12:52:10.247Z,146001.84,1635252578,full,ni_sequenzen,NI_Sequenzen,,0,,,,,,,,,,,,
,Trial,flow.Sequence,0_3_0_0,,completion,,125914,125931.54,125942.42,145959.7,20017.280000000013,145961,2021-10-26T12:52:10.247Z,146009.68,1635252578,full,ni_sequenzen,NI_Sequenzen,,0,,,,,,,,,,,,
,Move,canvas.Screen,0_3_0_1_0_0,down,response,,146002,146001.84,146009.68,157418,11408.320000000007,157422,2021-10-26T12:52:21.708Z,157434.3,1635252578,full,ni_sequenzen,NI_Sequenzen,1,1,,,,,,,,,,,,
,Move,canvas.Screen,0_3_0_1_0_1,right,response,,157434,157433.82,157434.3,158731,1296.7000000000116,158740,2021-10-26T12:52:23.026Z,158748.88,1635252578,full,ni_sequenzen,NI_Sequenzen,2,1,,,,,,,,,,,,
,Move,canvas.Screen,0_3_0_1_0_2,right,response,,158749,158748.68,158748.88,159607,858.1199999999953,159621,2021-10-26T12:52:23.907Z,159629.7,1635252578,full,ni_sequenzen,NI_Sequenzen,3,1,,,,,,,,,,,,
,Move,canvas.Screen,0_3_0_1_0_3,down,response,,159630,159629.48,159629.7,160341,711.2999999999884,160356,2021-10-26T12:52:24.643Z,160432.58,1635252578,full,ni_sequenzen,NI_Sequenzen,4,1,,,,,,,,,,,,
,Move,canvas.Screen,0_3_0_1_0_4,-999,skipped,,160363,,,160341,,160364,2021-10-26T12:52:24.650Z,160432.58,1635252578,full,ni_sequenzen,NI_Sequenzen,5,1,,,,,,,,,,,,
,Move,canvas.Screen,0_3_0_1_0_5,-999,skipped,,160370,,,160341,,160370,2021-10-26T12:52:24.656Z,160432.58,1635252578,full,ni_sequenzen,NI_Sequenzen,6,1,,,,,,,,,,,,
,Move,canvas.Screen,0_3_0_1_0_6,-999,skipped,,160377,,,160341,,160377,2021-10-26T12:52:24.664Z,160432.58,1635252578,full,ni_sequenzen,NI_Sequenzen,7,1,,,,,,,,,,,,
,Move,canvas.Screen,0_3_0_1_0_7,-999,skipped,,160383,,,160341,,160384,2021-10-26T12:52:24.670Z,160432.58,1635252578,full,ni_sequenzen,NI_Sequenzen,8,1,,,,,,,,,,,,
,Move,canvas.Screen,0_3_0_1_0_8,-999,skipped,,160390,,,160341,,160390,2021-10-26T12:52:24.676Z,160432.58,1635252578,full,ni_sequenzen,NI_Sequenzen,9,1,,,,,,,,,,,,
,Move,canvas.Screen,0_3_0_1_0_9,-999,skipped,,160396,,,160341,,160396,2021-10-26T12:52:24.683Z,160432.58,1635252578,full,ni_sequenzen,NI_Sequenzen,10,1,,,,,,,,,,,,
,Move,canvas.Screen,0_3_0_1_0_10,-999,skipped,,160402,,,160341,,160402,2021-10-26T12:52:24.689Z,160432.58,1635252578,full,ni_sequenzen,NI_Sequenzen,11,1,,,,,,,,,,,,
,Move,canvas.Screen,0_3_0_1_0_11,-999,skipped,,160409,,,160341,,160409,2021-10-26T12:52:24.694Z,160432.58,1635252578,full,ni_sequenzen,NI_Sequenzen,12,1,,,,,,,,,,,,
,Move,canvas.Screen,0_3_0_1_0_12,-999,skipped,,160415,,,160341,,160415,2021-10-26T12:52:24.702Z,160432.58,1635252578,full,ni_sequenzen,NI_Sequenzen,13,1,,,,,,,,,,,,
,Move,canvas.Screen,0_3_0_1_0_13,-999,skipped,,160421,,,160341,,160421,2021-10-26T12:52:24.708Z,160432.58,1635252578,full,ni_sequenzen,NI_Sequenzen,14,1,,,,,,,,,,,,
,Move,canvas.Screen,0_3_0_1_0_14,-999,skipped,,160427,,,160341,,160427,2021-10-26T12:52:24.714Z,160432.58,1635252578,full,ni_sequenzen,NI_Sequenzen,15,1,,,,,,,,,,,,
,Loop,flow.Loop,0_3_0_1_0,-999,completion,,145990,146001.84,146009.68,160341,14331.320000000007,160428,2021-10-26T12:52:24.714Z,160432.58,1635252578,full,ni_sequenzen,NI_Sequenzen,,1,,,,,,,,,,,,
,Feedback,canvas.Screen,0_3_0_1_1,,timeout,,160432,160432.34,160432.58,164410.26,4006.2000000000116,164411,2021-10-26T12:52:28.697Z,164438.78,1635252578,full,ni_sequenzen,NI_Sequenzen,,1,,,,,,,,,,,,
,Trial,flow.Sequence,0_3_0_1,,completion,,145962,146001.84,146009.68,164410.26,18400.580000000016,164411,2021-10-26T12:52:28.698Z,164443.58,1635252578,full,ni_sequenzen,NI_Sequenzen,,1,,,,,,,,,,,,
,Move,canvas.Screen,0_3_0_2_0_0,down,response,,164439,164438.78,164443.58,173591,9147.420000000013,173607,2021-10-26T12:52:37.894Z,173627.72,1635252578,full,ni_sequenzen,NI_Sequenzen,1,2,,,,,,,,,,,,
,Move,canvas.Screen,0_3_0_2_0_1,right,response,,173625,173625.16,173627.72,174044,416.27999999999884,174061,2021-10-26T12:52:38.347Z,174078.22,1635252578,full,ni_sequenzen,NI_Sequenzen,2,2,,,,,,,,,,,,
,Move,canvas.Screen,0_3_0_2_0_2,right,response,,174078,174077.74,174078.22,174419,340.77999999999884,174437,2021-10-26T12:52:38.723Z,174449.54,1635252578,full,ni_sequenzen,NI_Sequenzen,3,2,,,,,,,,,,,,
,Move,canvas.Screen,0_3_0_2_0_3,down,response,,174449,174449.2,174449.54,174746,296.45999999999185,174759,2021-10-26T12:52:39.045Z,174859.08,1635252578,full,ni_sequenzen,NI_Sequenzen,4,2,,,,,,,,,,,,
,Move,canvas.Screen,0_3_0_2_0_4,-999,skipped,,174781,,,174746,,174781,2021-10-26T12:52:39.067Z,174859.08,1635252578,full,ni_sequenzen,NI_Sequenzen,5,2,,,,,,,,,,,,
,Move,canvas.Screen,0_3_0_2_0_5,-999,skipped,,174790,,,174746,,174791,2021-10-26T12:52:39.077Z,174859.08,1635252578,full,ni_sequenzen,NI_Sequenzen,6,2,,,,,,,,,,,,
,Move,canvas.Screen,0_3_0_2_0_6,-999,skipped,,174799,,,174746,,174799,2021-10-26T12:52:39.085Z,174859.08,1635252578,full,ni_sequenzen,NI_Sequenzen,7,2,,,,,,,,,,,,
,Move,canvas.Screen,0_3_0_2_0_7,-999,skipped,,174808,,,174746,,174808,2021-10-26T12:52:39.094Z,174859.08,1635252578,full,ni_sequenzen,NI_Sequenzen,8,2,,,,,,,,,,,,
,Move,canvas.Screen,0_3_0_2_0_8,-999,skipped,,174816,,,174746,,174816,2021-10-26T12:52:39.102Z,174859.08,1635252578,full,ni_sequenzen,NI_Sequenzen,9,2,,,,,,,,,,,,
,Move,canvas.Screen,0_3_0_2_0_9,-999,skipped,,174822,,,174746,,174822,2021-10-26T12:52:39.109Z,174859.08,1635252578,full,ni_sequenzen,NI_Sequenzen,10,2,,,,,,,,,,,,
,Move,canvas.Screen,0_3_0_2_0_10,-999,skipped,,174828,,,174746,,174828,2021-10-26T12:52:39.115Z,174859.08,1635252578,full,ni_sequenzen,NI_Sequenzen,11,2,,,,,,,,,,,,
,Move,canvas.Screen,0_3_0_2_0_11,-999,skipped,,174834,,,174746,,174834,2021-10-26T12:52:39.121Z,174859.08,1635252578,full,ni_sequenzen,NI_Sequenzen,12,2,,,,,,,,,,,,
,Move,canvas.Screen,0_3_0_2_0_12,-999,skipped,,174841,,,174746,,174841,2021-10-26T12:52:39.127Z,174859.08,1635252578,full,ni_sequenzen,NI_Sequenzen,13,2,,,,,,,,,,,,
,Move,canvas.Screen,0_3_0_2_0_13,-999,skipped,,174847,,,174746,,174847,2021-10-26T12:52:39.133Z,174859.08,1635252578,full,ni_sequenzen,NI_Sequenzen,14,2,,,,,,,,,,,,
,Move,canvas.Screen,0_3_0_2_0_14,-999,skipped,,174853,,,174746,,174854,2021-10-26T12:52:39.140Z,174859.08,1635252578,full,ni_sequenzen,NI_Sequenzen,15,2,,,,,,,,,,,,
,Loop,flow.Loop,0_3_0_2_0,-999,completion,,164432,164438.78,164443.58,174746,10302.420000000013,174854,2021-10-26T12:52:39.140Z,174859.08,1635252578,full,ni_sequenzen,NI_Sequenzen,,2,,,,,,,,,,,,
,Feedback,canvas.Screen,0_3_0_2_1,,timeout,,174858,174858.84,174859.08,178844.02,4028.320000000007,178845,2021-10-26T12:52:43.131Z,178887.4,1635252578,full,ni_sequenzen,NI_Sequenzen,,2,,,,,,,,,,,,
,Trial,flow.Sequence,0_3_0_2,,completion,,164412,164438.78,164443.58,178844.02,14400.440000000002,178846,2021-10-26T12:52:43.132Z,178894.02,1635252578,full,ni_sequenzen,NI_Sequenzen,,2,,,,,,,,,,,,
,Move,canvas.Screen,0_3_0_3_0_0,down,response,,178887,178887.4,178894.02,181997,3102.9800000000105,182015,2021-10-26T12:52:46.302Z,182038.6,1635252578,full,ni_sequenzen,NI_Sequenzen,1,3,,,,,,,,,,,,
,Move,canvas.Screen,0_3_0_3_0_1,right,response,,182038,182038,182038.6,182341,302.3999999999942,182358,2021-10-26T12:52:46.646Z,182379.28,1635252578,full,ni_sequenzen,NI_Sequenzen,2,3,,,,,,,,,,,,
,Move,canvas.Screen,0_3_0_3_0_2,right,response,,182378,182378.66,182379.28,182669,289.72000000000116,182678,2021-10-26T12:52:46.965Z,182695.9,1635252578,full,ni_sequenzen,NI_Sequenzen,3,3,,,,,,,,,,,,
,Move,canvas.Screen,0_3_0_3_0_3,down,response,,182695,182695.58,182695.9,182903,207.10000000000582,182911,2021-10-26T12:52:47.197Z,183005.6,1635252578,full,ni_sequenzen,NI_Sequenzen,4,3,,,,,,,,,,,,
,Move,canvas.Screen,0_3_0_3_0_4,-999,skipped,,182929,,,182903,,182929,2021-10-26T12:52:47.216Z,183005.6,1635252578,full,ni_sequenzen,NI_Sequenzen,5,3,,,,,,,,,,,,
,Move,canvas.Screen,0_3_0_3_0_5,-999,skipped,,182944,,,182903,,182944,2021-10-26T12:52:47.231Z,183005.6,1635252578,full,ni_sequenzen,NI_Sequenzen,6,3,,,,,,,,,,,,
,Move,canvas.Screen,0_3_0_3_0_6,-999,skipped,,182950,,,182903,,182950,2021-10-26T12:52:47.237Z,183005.6,1635252578,full,ni_sequenzen,NI_Sequenzen,7,3,,,,,,,,,,,,
,Move,canvas.Screen,0_3_0_3_0_7,-999,skipped,,182956,,,182903,,182956,2021-10-26T12:52:47.242Z,183005.6,1635252578,full,ni_sequenzen,NI_Sequenzen,8,3,,,,,,,,,,,,
,Move,canvas.Screen,0_3_0_3_0_8,-999,skipped,,182961,,,182903,,182961,2021-10-26T12:52:47.248Z,183005.6,1635252578,full,ni_sequenzen,NI_Sequenzen,9,3,,,,,,,,,,,,
,Move,canvas.Screen,0_3_0_3_0_9,-999,skipped,,182968,,,182903,,182968,2021-10-26T12:52:47.254Z,183005.6,1635252578,full,ni_sequenzen,NI_Sequenzen,10,3,,,,,,,,,,,,
,Move,canvas.Screen,0_3_0_3_0_10,-999,skipped,,182974,,,182903,,182974,2021-10-26T12:52:47.260Z,183005.6,1635252578,full,ni_sequenzen,NI_Sequenzen,11,3,,,,,,,,,,,,
,Move,canvas.Screen,0_3_0_3_0_11,-999,skipped,,182980,,,182903,,182980,2021-10-26T12:52:47.266Z,183005.6,1635252578,full,ni_sequenzen,NI_Sequenzen,12,3,,,,,,,,,,,,
,Move,canvas.Screen,0_3_0_3_0_12,-999,skipped,,182986,,,182903,,182987,2021-10-26T12:52:47.273Z,183005.6,1635252578,full,ni_sequenzen,NI_Sequenzen,13,3,,,,,,,,,,,,
,Move,canvas.Screen,0_3_0_3_0_13,-999,skipped,,182993,,,182903,,182993,2021-10-26T12:52:47.280Z,183005.6,1635252578,full,ni_sequenzen,NI_Sequenzen,14,3,,,,,,,,,,,,
,Move,canvas.Screen,0_3_0_3_0_14,-999,skipped,,183000,,,182903,,183000,2021-10-26T12:52:47.286Z,183005.6,1635252578,full,ni_sequenzen,NI_Sequenzen,15,3,,,,,,,,,,,,
,Loop,flow.Loop,0_3_0_3_0,-999,completion,,178871,178887.4,178894.02,182903,4008.9800000000105,183000,2021-10-26T12:52:47.286Z,183005.6,1635252578,full,ni_sequenzen,NI_Sequenzen,,3,,,,,,,,,,,,
,Feedback,canvas.Screen,0_3_0_3_1,,timeout,,183006,183005.36,183005.6,186994.22,4024.079999999987,186995,2021-10-26T12:52:51.282Z,187029.68,1635252578,full,ni_sequenzen,NI_Sequenzen,,3,,,,,,,,,,,,
,Trial,flow.Sequence,0_3_0_3,,completion,,178847,178887.4,178894.02,186994.22,8100.200000000012,186996,2021-10-26T12:52:51.282Z,187044.22,1635252578,full,ni_sequenzen,NI_Sequenzen,,3,,,,,,,,,,,,
,Move,canvas.Screen,0_3_0_4_0_0,down,response,,187030,187029.68,187044.22,189199,2154.779999999999,189208,2021-10-26T12:52:53.493Z,189226.72,1635252578,full,ni_sequenzen,NI_Sequenzen,1,4,,,,,,,,,,,,
,Move,canvas.Screen,0_3_0_4_0_1,left,response,,189226,189226.34,189226.72,189919,692.2799999999988,189927,2021-10-26T12:52:54.213Z,189946.28,1635252578,full,ni_sequenzen,NI_Sequenzen,2,4,,,,,,,,,,,,
,Move,canvas.Screen,0_3_0_4_0_2,left,response,,189946,189945.9,189946.28,190435,488.72000000000116,190449,2021-10-26T12:52:54.736Z,190481.06,1635252578,full,ni_sequenzen,NI_Sequenzen,3,4,,,,,,,,,,,,
,Move,canvas.Screen,0_3_0_4_0_3,down,response,,190480,190479.8,190481.06,191340,858.9400000000023,191358,2021-10-26T12:52:55.645Z,191479.72,1635252578,full,ni_sequenzen,NI_Sequenzen,4,4,,,,,,,,,,,,
,Move,canvas.Screen,0_3_0_4_0_4,-999,skipped,,191386,,,191340,,191386,2021-10-26T12:52:55.673Z,191479.72,1635252578,full,ni_sequenzen,NI_Sequenzen,5,4,,,,,,,,,,,,
,Move,canvas.Screen,0_3_0_4_0_5,-999,skipped,,191407,,,191340,,191407,2021-10-26T12:52:55.693Z,191479.72,1635252578,full,ni_sequenzen,NI_Sequenzen,6,4,,,,,,,,,,,,
,Move,canvas.Screen,0_3_0_4_0_6,-999,skipped,,191415,,,191340,,191416,2021-10-26T12:52:55.702Z,191479.72,1635252578,full,ni_sequenzen,NI_Sequenzen,7,4,,,,,,,,,,,,
,Move,canvas.Screen,0_3_0_4_0_7,-999,skipped,,191423,,,191340,,191423,2021-10-26T12:52:55.710Z,191479.72,1635252578,full,ni_sequenzen,NI_Sequenzen,8,4,,,,,,,,,,,,
,Move,canvas.Screen,0_3_0_4_0_8,-999,skipped,,191430,,,191340,,191431,2021-10-26T12:52:55.717Z,191479.72,1635252578,full,ni_sequenzen,NI_Sequenzen,9,4,,,,,,,,,,,,
,Move,canvas.Screen,0_3_0_4_0_9,-999,skipped,,191438,,,191340,,191438,2021-10-26T12:52:55.724Z,191479.72,1635252578,full,ni_sequenzen,NI_Sequenzen,10,4,,,,,,,,,,,,
,Move,canvas.Screen,0_3_0_4_0_10,-999,skipped,,191445,,,191340,,191445,2021-10-26T12:52:55.731Z,191479.72,1635252578,full,ni_sequenzen,NI_Sequenzen,11,4,,,,,,,,,,,,
,Move,canvas.Screen,0_3_0_4_0_11,-999,skipped,,191451,,,191340,,191451,2021-10-26T12:52:55.738Z,191479.72,1635252578,full,ni_sequenzen,NI_Sequenzen,12,4,,,,,,,,,,,,
,Move,canvas.Screen,0_3_0_4_0_12,-999,skipped,,191458,,,191340,,191459,2021-10-26T12:52:55.745Z,191479.72,1635252578,full,ni_sequenzen,NI_Sequenzen,13,4,,,,,,,,,,,,
,Move,canvas.Screen,0_3_0_4_0_13,-999,skipped,,191465,,,191340,,191465,2021-10-26T12:52:55.752Z,191479.72,1635252578,full,ni_sequenzen,NI_Sequenzen,14,4,,,,,,,,,,,,
,Move,canvas.Screen,0_3_0_4_0_14,-999,skipped,,191473,,,191340,,191473,2021-10-26T12:52:55.760Z,191479.72,1635252578,full,ni_sequenzen,NI_Sequenzen,15,4,,,,,,,,,,,,
,Loop,flow.Loop,0_3_0_4_0,-999,completion,,187020,187029.68,187044.22,191340,4295.779999999999,191473,2021-10-26T12:52:55.760Z,191479.72,1635252578,full,ni_sequenzen,NI_Sequenzen,,4,,,,,,,,,,,,
,Feedback,canvas.Screen,0_3_0_4_1,,timeout,,191480,191479.44,191479.72,195461.2,4029.6600000000035,195463,2021-10-26T12:52:59.749Z,195509.38,1635252578,full,ni_sequenzen,NI_Sequenzen,,4,,,,,,,,,,,,
,Trial,flow.Sequence,0_3_0_4,,completion,,186997,187029.68,187044.22,195461.2,8416.98000000001,195463,2021-10-26T12:52:59.749Z,195511.2,1635252578,full,ni_sequenzen,NI_Sequenzen,,4,,,,,,,,,,,,
,Move,canvas.Screen,0_3_0_5_0_0,left,response,,195510,195509.38,195511.2,201450,5938.799999999988,201464,2021-10-26T12:53:05.750Z,201483.54,1635252578,full,ni_sequenzen,NI_Sequenzen,1,5,,,,,,,,,,,,
,Move,canvas.Screen,0_3_0_5_0_1,down,response,,201483,201483.32,201483.54,201794,310.45999999999185,201804,2021-10-26T12:53:06.091Z,201813.42,1635252578,full,ni_sequenzen,NI_Sequenzen,2,5,,,,,,,,,,,,
,Move,canvas.Screen,0_3_0_5_0_2,down,response,,201813,201813.22,201813.42,202122,308.5799999999872,202132,2021-10-26T12:53:06.419Z,202139.68,1635252578,full,ni_sequenzen,NI_Sequenzen,3,5,,,,,,,,,,,,
,Move,canvas.Screen,0_3_0_5_0_3,left,response,,202139,202139.44,202139.68,203872,1732.320000000007,203876,2021-10-26T12:53:08.163Z,203965.3,1635252578,full,ni_sequenzen,NI_Sequenzen,4,5,,,,,,,,,,,,
,Move,canvas.Screen,0_3_0_5_0_4,-999,skipped,,203885,,,203872,,203885,2021-10-26T12:53:08.172Z,203965.3,1635252578,full,ni_sequenzen,NI_Sequenzen,5,5,,,,,,,,,,,,
,Move,canvas.Screen,0_3_0_5_0_5,-999,skipped,,203892,,,203872,,203892,2021-10-26T12:53:08.178Z,203965.3,1635252578,full,ni_sequenzen,NI_Sequenzen,6,5,,,,,,,,,,,,
,Move,canvas.Screen,0_3_0_5_0_6,-999,skipped,,203898,,,203872,,203898,2021-10-26T12:53:08.185Z,203965.3,1635252578,full,ni_sequenzen,NI_Sequenzen,7,5,,,,,,,,,,,,
,Move,canvas.Screen,0_3_0_5_0_7,-999,skipped,,203905,,,203872,,203905,2021-10-26T12:53:08.191Z,203965.3,1635252578,full,ni_sequenzen,NI_Sequenzen,8,5,,,,,,,,,,,,
,Move,canvas.Screen,0_3_0_5_0_8,-999,skipped,,203913,,,203872,,203913,2021-10-26T12:53:08.199Z,203965.3,1635252578,full,ni_sequenzen,NI_Sequenzen,9,5,,,,,,,,,,,,
,Move,canvas.Screen,0_3_0_5_0_9,-999,skipped,,203922,,,203872,,203922,2021-10-26T12:53:08.208Z,203965.3,1635252578,full,ni_sequenzen,NI_Sequenzen,10,5,,,,,,,,,,,,
,Move,canvas.Screen,0_3_0_5_0_10,-999,skipped,,203930,,,203872,,203930,2021-10-26T12:53:08.216Z,203965.3,1635252578,full,ni_sequenzen,NI_Sequenzen,11,5,,,,,,,,,,,,
,Move,canvas.Screen,0_3_0_5_0_11,-999,skipped,,203937,,,203872,,203937,2021-10-26T12:53:08.223Z,203965.3,1635252578,full,ni_sequenzen,NI_Sequenzen,12,5,,,,,,,,,,,,
,Move,canvas.Screen,0_3_0_5_0_12,-999,skipped,,203944,,,203872,,203944,2021-10-26T12:53:08.230Z,203965.3,1635252578,full,ni_sequenzen,NI_Sequenzen,13,5,,,,,,,,,,,,
,Move,canvas.Screen,0_3_0_5_0_13,-999,skipped,,203952,,,203872,,203952,2021-10-26T12:53:08.238Z,203965.3,1635252578,full,ni_sequenzen,NI_Sequenzen,14,5,,,,,,,,,,,,
,Move,canvas.Screen,0_3_0_5_0_14,-999,skipped,,203959,,,203872,,203959,2021-10-26T12:53:08.244Z,203965.3,1635252578,full,ni_sequenzen,NI_Sequenzen,15,5,,,,,,,,,,,,
,Loop,flow.Loop,0_3_0_5_0,-999,completion,,195499,195509.38,195511.2,203872,8360.799999999988,203959,2021-10-26T12:53:08.245Z,203965.3,1635252578,full,ni_sequenzen,NI_Sequenzen,,5,,,,,,,,,,,,
,Feedback,canvas.Screen,0_3_0_5_1,,timeout,,203965,203965.04,203965.3,207944.92,3999.2000000000116,207945,2021-10-26T12:53:12.232Z,207964.5,1635252578,full,ni_sequenzen,NI_Sequenzen,,5,,,,,,,,,,,,
,Trial,flow.Sequence,0_3_0_5,,completion,,195465,195509.38,195511.2,207944.92,12433.720000000001,207945,2021-10-26T12:53:12.232Z,207978.24,1635252578,full,ni_sequenzen,NI_Sequenzen,,5,,,,,,,,,,,,
,Move,canvas.Screen,0_3_0_6_0_0,down,response,,207965,207964.5,207978.24,210544,2565.7600000000093,210548,2021-10-26T12:53:14.835Z,210557.14,1635252578,full,ni_sequenzen,NI_Sequenzen,1,6,,,,,,,,,,,,
,Move,canvas.Screen,0_3_0_6_0_1,right,response,,210557,210556.94,210557.14,210856,298.85999999998603,210869,2021-10-26T12:53:15.155Z,210878.1,1635252578,full,ni_sequenzen,NI_Sequenzen,2,6,,,,,,,,,,,,
,Move,canvas.Screen,0_3_0_6_0_2,right,response,,210878,210877.82,210878.1,211216,337.8999999999942,211222,2021-10-26T12:53:15.509Z,211245,1635252578,full,ni_sequenzen,NI_Sequenzen,3,6,,,,,,,,,,,,
,Move,canvas.Screen,0_3_0_6_0_3,down,response,,211240,211240.54,211245,211590,345,211598,2021-10-26T12:53:15.884Z,211699.72,1635252578,full,ni_sequenzen,NI_Sequenzen,4,6,,,,,,,,,,,,
,Move,canvas.Screen,0_3_0_6_0_4,-999,skipped,,211617,,,211590,,211617,2021-10-26T12:53:15.903Z,211699.72,1635252578,full,ni_sequenzen,NI_Sequenzen,5,6,,,,,,,,,,,,
,Move,canvas.Screen,0_3_0_6_0_5,-999,skipped,,211628,,,211590,,211628,2021-10-26T12:53:15.915Z,211699.72,1635252578,full,ni_sequenzen,NI_Sequenzen,6,6,,,,,,,,,,,,
,Move,canvas.Screen,0_3_0_6_0_6,-999,skipped,,211637,,,211590,,211637,2021-10-26T12:53:15.923Z,211699.72,1635252578,full,ni_sequenzen,NI_Sequenzen,7,6,,,,,,,,,,,,
,Move,canvas.Screen,0_3_0_6_0_7,-999,skipped,,211645,,,211590,,211645,2021-10-26T12:53:15.932Z,211699.72,1635252578,full,ni_sequenzen,NI_Sequenzen,8,6,,,,,,,,,,,,
,Move,canvas.Screen,0_3_0_6_0_8,-999,skipped,,211653,,,211590,,211653,2021-10-26T12:53:15.939Z,211699.72,1635252578,full,ni_sequenzen,NI_Sequenzen,9,6,,,,,,,,,,,,
,Move,canvas.Screen,0_3_0_6_0_9,-999,skipped,,211659,,,211590,,211659,2021-10-26T12:53:15.946Z,211699.72,1635252578,full,ni_sequenzen,NI_Sequenzen,10,6,,,,,,,,,,,,
,Move,canvas.Screen,0_3_0_6_0_10,-999,skipped,,211667,,,211590,,211667,2021-10-26T12:53:15.953Z,211699.72,1635252578,full,ni_sequenzen,NI_Sequenzen,11,6,,,,,,,,,,,,
,Move,canvas.Screen,0_3_0_6_0_11,-999,skipped,,211673,,,211590,,211673,2021-10-26T12:53:15.960Z,211699.72,1635252578,full,ni_sequenzen,NI_Sequenzen,12,6,,,,,,,,,,,,
,Move,canvas.Screen,0_3_0_6_0_12,-999,skipped,,211680,,,211590,,211680,2021-10-26T12:53:15.966Z,211699.72,1635252578,full,ni_sequenzen,NI_Sequenzen,13,6,,,,,,,,,,,,
,Move,canvas.Screen,0_3_0_6_0_13,-999,skipped,,211686,,,211590,,211686,2021-10-26T12:53:15.973Z,211699.72,1635252578,full,ni_sequenzen,NI_Sequenzen,14,6,,,,,,,,,,,,
,Move,canvas.Screen,0_3_0_6_0_14,-999,skipped,,211693,,,211590,,211694,2021-10-26T12:53:15.980Z,211699.72,1635252578,full,ni_sequenzen,NI_Sequenzen,15,6,,,,,,,,,,,,
,Loop,flow.Loop,0_3_0_6_0,-999,completion,,207958,207964.5,207978.24,211590,3611.7600000000093,211694,2021-10-26T12:53:15.980Z,211699.72,1635252578,full,ni_sequenzen,NI_Sequenzen,,6,,,,,,,,,,,,
,Feedback,canvas.Screen,0_3_0_6_1,,timeout,,211699,211699.48,211699.72,215678.44,4003.3800000000047,215680,2021-10-26T12:53:19.965Z,215703.1,1635252578,full,ni_sequenzen,NI_Sequenzen,,6,,,,,,,,,,,,
,Trial,flow.Sequence,0_3_0_6,,completion,,207946,207964.5,207978.24,215678.44,7700.200000000012,215680,2021-10-26T12:53:19.966Z,215711.78,1635252578,full,ni_sequenzen,NI_Sequenzen,,6,,,,,,,,,,,,
,Move,canvas.Screen,0_3_0_7_0_0,right,response,,215703,215703.1,215711.78,221466,5754.220000000001,221469,2021-10-26T12:53:25.755Z,221478.64,1635252578,full,ni_sequenzen,NI_Sequenzen,1,7,,,,,,,,,,,,
,Move,canvas.Screen,0_3_0_7_0_1,down,response,,221477,221476.46,221478.64,222137,658.359999999986,222150,2021-10-26T12:53:26.437Z,222174.5,1635252578,full,ni_sequenzen,NI_Sequenzen,2,7,,,,,,,,,,,,
,Move,canvas.Screen,0_3_0_7_0_2,down,response,,222172,222172.3,222174.5,222809,634.5,222822,2021-10-26T12:53:27.109Z,222839.86,1635252578,full,ni_sequenzen,NI_Sequenzen,3,7,,,,,,,,,,,,
,Move,canvas.Screen,0_3_0_7_0_3,right,response,,222839,222839.5,222839.86,223246,406.14000000001397,223262,2021-10-26T12:53:27.548Z,223353.84,1635252578,full,ni_sequenzen,NI_Sequenzen,4,7,,,,,,,,,,,,
,Move,canvas.Screen,0_3_0_7_0_4,-999,skipped,,223279,,,223246,,223281,2021-10-26T12:53:27.567Z,223353.84,1635252578,full,ni_sequenzen,NI_Sequenzen,5,7,,,,,,,,,,,,
,Move,canvas.Screen,0_3_0_7_0_5,-999,skipped,,223295,,,223246,,223295,2021-10-26T12:53:27.581Z,223353.84,1635252578,full,ni_sequenzen,NI_Sequenzen,6,7,,,,,,,,,,,,
,Move,canvas.Screen,0_3_0_7_0_6,-999,skipped,,223300,,,223246,,223300,2021-10-26T12:53:27.587Z,223353.84,1635252578,full,ni_sequenzen,NI_Sequenzen,7,7,,,,,,,,,,,,
,Move,canvas.Screen,0_3_0_7_0_7,-999,skipped,,223306,,,223246,,223306,2021-10-26T12:53:27.593Z,223353.84,1635252578,full,ni_sequenzen,NI_Sequenzen,8,7,,,,,,,,,,,,
,Move,canvas.Screen,0_3_0_7_0_8,-999,skipped,,223312,,,223246,,223312,2021-10-26T12:53:27.598Z,223353.84,1635252578,full,ni_sequenzen,NI_Sequenzen,9,7,,,,,,,,,,,,
,Move,canvas.Screen,0_3_0_7_0_9,-999,skipped,,223318,,,223246,,223318,2021-10-26T12:53:27.604Z,223353.84,1635252578,full,ni_sequenzen,NI_Sequenzen,10,7,,,,,,,,,,,,
,Move,canvas.Screen,0_3_0_7_0_10,-999,skipped,,223325,,,223246,,223325,2021-10-26T12:53:27.611Z,223353.84,1635252578,full,ni_sequenzen,NI_Sequenzen,11,7,,,,,,,,,,,,
,Move,canvas.Screen,0_3_0_7_0_11,-999,skipped,,223331,,,223246,,223331,2021-10-26T12:53:27.617Z,223353.84,1635252578,full,ni_sequenzen,NI_Sequenzen,12,7,,,,,,,,,,,,
,Move,canvas.Screen,0_3_0_7_0_12,-999,skipped,,223336,,,223246,,223336,2021-10-26T12:53:27.622Z,223353.84,1635252578,full,ni_sequenzen,NI_Sequenzen,13,7,,,,,,,,,,,,
,Move,canvas.Screen,0_3_0_7_0_13,-999,skipped,,223342,,,223246,,223342,2021-10-26T12:53:27.629Z,223353.84,1635252578,full,ni_sequenzen,NI_Sequenzen,14,7,,,,,,,,,,,,
,Move,canvas.Screen,0_3_0_7_0_14,-999,skipped,,223349,,,223246,,223349,2021-10-26T12:53:27.635Z,223353.84,1635252578,full,ni_sequenzen,NI_Sequenzen,15,7,,,,,,,,,,,,
,Loop,flow.Loop,0_3_0_7_0,-999,completion,,215694,215703.1,215711.78,223246,7534.220000000001,223349,2021-10-26T12:53:27.635Z,223353.84,1635252578,full,ni_sequenzen,NI_Sequenzen,,7,,,,,,,,,,,,
,Feedback,canvas.Screen,0_3_0_7_1,,timeout,,223353,223353.58,223353.84,227328.88,4014.3399999999965,227330,2021-10-26T12:53:31.616Z,227368.18,1635252578,full,ni_sequenzen,NI_Sequenzen,,7,,,,,,,,,,,,
,Trial,flow.Sequence,0_3_0_7,,completion,,215681,215703.1,215711.78,227328.88,11617.100000000006,227331,2021-10-26T12:53:31.617Z,227378.88,1635252578,full,ni_sequenzen,NI_Sequenzen,,7,,,,,,,,,,,,
,Move,canvas.Screen,0_3_0_8_0_0,down,response,,227368,227368.18,227378.88,234544,7165.119999999995,234549,2021-10-26T12:53:38.835Z,234562.34,1635252578,full,ni_sequenzen,NI_Sequenzen,1,8,,,,,,,,,,,,
,Move,canvas.Screen,0_3_0_8_0_1,left,response,,234560,234559.94,234562.34,237779,3216.6600000000035,237789,2021-10-26T12:53:42.075Z,237799.74,1635252578,full,ni_sequenzen,NI_Sequenzen,2,8,,,,,,,,,,,,
,Move,canvas.Screen,0_3_0_8_0_2,down,response,,237799,237799.46,237799.74,238449,649.2600000000093,238452,2021-10-26T12:53:42.739Z,238463.76,1635252578,full,ni_sequenzen,NI_Sequenzen,3,8,,,,,,,,,,,,
,Move,canvas.Screen,0_3_0_8_0_3,left,response,,238463,238463.44,238463.76,238841,377.2399999999907,238847,2021-10-26T12:53:43.134Z,238941.32,1635252578,full,ni_sequenzen,NI_Sequenzen,4,8,,,,,,,,,,,,
,Move,canvas.Screen,0_3_0_8_0_4,-999,skipped,,238865,,,238841,,238865,2021-10-26T12:53:43.152Z,238941.32,1635252578,full,ni_sequenzen,NI_Sequenzen,5,8,,,,,,,,,,,,
,Move,canvas.Screen,0_3_0_8_0_5,-999,skipped,,238875,,,238841,,238875,2021-10-26T12:53:43.161Z,238941.32,1635252578,full,ni_sequenzen,NI_Sequenzen,6,8,,,,,,,,,,,,
,Move,canvas.Screen,0_3_0_8_0_6,-999,skipped,,238884,,,238841,,238884,2021-10-26T12:53:43.171Z,238941.32,1635252578,full,ni_sequenzen,NI_Sequenzen,7,8,,,,,,,,,,,,
,Move,canvas.Screen,0_3_0_8_0_7,-999,skipped,,238893,,,238841,,238893,2021-10-26T12:53:43.180Z,238941.32,1635252578,full,ni_sequenzen,NI_Sequenzen,8,8,,,,,,,,,,,,
,Move,canvas.Screen,0_3_0_8_0_8,-999,skipped,,238900,,,238841,,238900,2021-10-26T12:53:43.186Z,238941.32,1635252578,full,ni_sequenzen,NI_Sequenzen,9,8,,,,,,,,,,,,
,Move,canvas.Screen,0_3_0_8_0_9,-999,skipped,,238906,,,238841,,238906,2021-10-26T12:53:43.192Z,238941.32,1635252578,full,ni_sequenzen,NI_Sequenzen,10,8,,,,,,,,,,,,
,Move,canvas.Screen,0_3_0_8_0_10,-999,skipped,,238912,,,238841,,238912,2021-10-26T12:53:43.198Z,238941.32,1635252578,full,ni_sequenzen,NI_Sequenzen,11,8,,,,,,,,,,,,
,Move,canvas.Screen,0_3_0_8_0_11,-999,skipped,,238917,,,238841,,238917,2021-10-26T12:53:43.205Z,238941.32,1635252578,full,ni_sequenzen,NI_Sequenzen,12,8,,,,,,,,,,,,
,Move,canvas.Screen,0_3_0_8_0_12,-999,skipped,,238923,,,238841,,238923,2021-10-26T12:53:43.210Z,238941.32,1635252578,full,ni_sequenzen,NI_Sequenzen,13,8,,,,,,,,,,,,
,Move,canvas.Screen,0_3_0_8_0_13,-999,skipped,,238929,,,238841,,238930,2021-10-26T12:53:43.216Z,238941.32,1635252578,full,ni_sequenzen,NI_Sequenzen,14,8,,,,,,,,,,,,
,Move,canvas.Screen,0_3_0_8_0_14,-999,skipped,,238935,,,238841,,238935,2021-10-26T12:53:43.222Z,238941.32,1635252578,full,ni_sequenzen,NI_Sequenzen,15,8,,,,,,,,,,,,
,Loop,flow.Loop,0_3_0_8_0,-999,completion,,227351,227368.18,227378.88,238841,11462.119999999995,238936,2021-10-26T12:53:43.222Z,238941.32,1635252578,full,ni_sequenzen,NI_Sequenzen,,8,,,,,,,,,,,,
,Feedback,canvas.Screen,0_3_0_8_1,,timeout,,238941,238941.14,238941.32,242929.32,4028.0599999999977,242930,2021-10-26T12:53:47.217Z,242969.38,1635252578,full,ni_sequenzen,NI_Sequenzen,,8,,,,,,,,,,,,
,Trial,flow.Sequence,0_3_0_8,,completion,,227332,227368.18,227378.88,242929.32,15550.440000000002,242931,2021-10-26T12:53:47.217Z,242979.3,1635252578,full,ni_sequenzen,NI_Sequenzen,,8,,,,,,,,,,,,
,Move,canvas.Screen,0_3_0_9_0_0,down,response,,242970,242969.38,242979.3,252794,9814.700000000012,252808,2021-10-26T12:53:57.094Z,252829.74,1635252578,full,ni_sequenzen,NI_Sequenzen,1,9,,,,,,,,,,,,
,Move,canvas.Screen,0_3_0_9_0_1,right,response,,252826,252826.34,252829.74,253107,277.2600000000093,253111,2021-10-26T12:53:57.397Z,253129.76,1635252578,full,ni_sequenzen,NI_Sequenzen,2,9,,,,,,,,,,,,
,Move,canvas.Screen,0_3_0_9_0_2,down,response,,253127,253127.3,253129.76,253450,320.2399999999907,253463,2021-10-26T12:53:57.749Z,253479.8,1635252578,full,ni_sequenzen,NI_Sequenzen,3,9,,,,,,,,,,,,
,Move,canvas.Screen,0_3_0_9_0_3,right,response,,253480,253479.46,253479.8,253794,314.20000000001164,253808,2021-10-26T12:53:58.094Z,253897.86,1635252578,full,ni_sequenzen,NI_Sequenzen,4,9,,,,,,,,,,,,
,Move,canvas.Screen,0_3_0_9_0_4,-999,skipped,,253825,,,253794,,253825,2021-10-26T12:53:58.112Z,253897.86,1635252578,full,ni_sequenzen,NI_Sequenzen,5,9,,,,,,,,,,,,
,Move,canvas.Screen,0_3_0_9_0_5,-999,skipped,,253837,,,253794,,253837,2021-10-26T12:53:58.123Z,253897.86,1635252578,full,ni_sequenzen,NI_Sequenzen,6,9,,,,,,,,,,,,
,Move,canvas.Screen,0_3_0_9_0_6,-999,skipped,,253842,,,253794,,253843,2021-10-26T12:53:58.129Z,253897.86,1635252578,full,ni_sequenzen,NI_Sequenzen,7,9,,,,,,,,,,,,
,Move,canvas.Screen,0_3_0_9_0_7,-999,skipped,,253849,,,253794,,253849,2021-10-26T12:53:58.135Z,253897.86,1635252578,full,ni_sequenzen,NI_Sequenzen,8,9,,,,,,,,,,,,
,Move,canvas.Screen,0_3_0_9_0_8,-999,skipped,,253854,,,253794,,253854,2021-10-26T12:53:58.141Z,253897.86,1635252578,full,ni_sequenzen,NI_Sequenzen,9,9,,,,,,,,,,,,
,Move,canvas.Screen,0_3_0_9_0_9,-999,skipped,,253862,,,253794,,253862,2021-10-26T12:53:58.148Z,253897.86,1635252578,full,ni_sequenzen,NI_Sequenzen,10,9,,,,,,,,,,,,
,Move,canvas.Screen,0_3_0_9_0_10,-999,skipped,,253868,,,253794,,253868,2021-10-26T12:53:58.154Z,253897.86,1635252578,full,ni_sequenzen,NI_Sequenzen,11,9,,,,,,,,,,,,
,Move,canvas.Screen,0_3_0_9_0_11,-999,skipped,,253873,,,253794,,253873,2021-10-26T12:53:58.160Z,253897.86,1635252578,full,ni_sequenzen,NI_Sequenzen,12,9,,,,,,,,,,,,
,Move,canvas.Screen,0_3_0_9_0_12,-999,skipped,,253880,,,253794,,253880,2021-10-26T12:53:58.166Z,253897.86,1635252578,full,ni_sequenzen,NI_Sequenzen,13,9,,,,,,,,,,,,
,Move,canvas.Screen,0_3_0_9_0_13,-999,skipped,,253887,,,253794,,253887,2021-10-26T12:53:58.173Z,253897.86,1635252578,full,ni_sequenzen,NI_Sequenzen,14,9,,,,,,,,,,,,
,Move,canvas.Screen,0_3_0_9_0_14,-999,skipped,,253893,,,253794,,253893,2021-10-26T12:53:58.179Z,253897.86,1635252578,full,ni_sequenzen,NI_Sequenzen,15,9,,,,,,,,,,,,
,Loop,flow.Loop,0_3_0_9_0,-999,completion,,242952,242969.38,242979.3,253794,10814.700000000012,253893,2021-10-26T12:53:58.179Z,253897.86,1635252578,full,ni_sequenzen,NI_Sequenzen,,9,,,,,,,,,,,,
,Feedback,canvas.Screen,0_3_0_9_1,,timeout,,253898,253897.66,253897.86,257879.76,4048.820000000007,257881,2021-10-26T12:54:02.167Z,257946.68,1635252578,full,ni_sequenzen,NI_Sequenzen,,9,,,,,,,,,,,,
,Trial,flow.Sequence,0_3_0_9,,completion,,242932,242969.38,242979.3,257879.76,14900.460000000021,257881,2021-10-26T12:54:02.167Z,257946.86,1635252578,full,ni_sequenzen,NI_Sequenzen,,9,,,,,,,,,,,,
,Block,flow.Loop,0_3_0,,completion,,125914,125931.54,125942.42,257879.76,131937.34000000003,257881,2021-10-26T12:54:02.167Z,257946.86,1635252578,full,ni_sequenzen,NI_Sequenzen,,,,,,,,,,,,,,
,Training_II,flow.Sequence,0_3,,completion,,125887,125931.54,125942.42,257879.76,131937.34000000003,257881,2021-10-26T12:54:02.167Z,257946.86,1635252578,full,ni_sequenzen,NI_Sequenzen,,,,,,,,,,,,,,
,Screen_1,canvas.Screen,0_4_0_0,cont,response,1,257947,257946.68,257946.86,264449,6502.140000000014,264456,2021-10-26T12:54:08.742Z,264479.9,1635252578,full,ni_sequenzen,NI_Sequenzen,,,,,,,,,,,,,,
,Screen_2,canvas.Screen,0_4_0_1,cont,response,1,264462,264462.46,264479.9,279512,15032.099999999977,279526,2021-10-26T12:54:23.812Z,279600.3,1635252578,full,ni_sequenzen,NI_Sequenzen,,,,,,,,,,,,,,
,Screen_3,canvas.Screen,0_4_0_2,cont,response,1,279599,279599.9,279600.3,288278,8677.700000000012,288285,2021-10-26T12:54:32.571Z,288480.82,1635252578,full,ni_sequenzen,NI_Sequenzen,,,,,,,,,,,,,,
,Sequence,flow.Sequence,0_4_0,,completion,1,257908,257946.68,257946.86,288278,30331.140000000014,288285,2021-10-26T12:54:32.571Z,288480.82,1635252578,full,ni_sequenzen,NI_Sequenzen,,,,,,,,,,,,,,
,Screen_1,canvas.Screen,0_4_1_0,,skipped,2,288288,,,288288,,288288,2021-10-26T12:54:32.574Z,288480.82,1635252578,full,ni_sequenzen,NI_Sequenzen,,,,,,,,,,,,,,
,Screen_2,canvas.Screen,0_4_1_1,,skipped,2,288290,,,288288,,288290,2021-10-26T12:54:32.576Z,288480.82,1635252578,full,ni_sequenzen,NI_Sequenzen,,,,,,,,,,,,,,
,Screen_3,canvas.Screen,0_4_1_2,,skipped,2,288291,,,288288,,288292,2021-10-26T12:54:32.578Z,288480.82,1635252578,full,ni_sequenzen,NI_Sequenzen,,,,,,,,,,,,,,
,Sequence,flow.Sequence,0_4_1,,completion,2,288286,,,288288,,288292,2021-10-26T12:54:32.578Z,288480.82,1635252578,full,ni_sequenzen,NI_Sequenzen,,,,,,,,,,,,,,
,Screen_1,canvas.Screen,0_4_2_0,,skipped,3,288293,,,288293,,288293,2021-10-26T12:54:32.580Z,288480.82,1635252578,full,ni_sequenzen,NI_Sequenzen,,,,,,,,,,,,,,
,Screen_2,canvas.Screen,0_4_2_1,,skipped,3,288295,,,288293,,288296,2021-10-26T12:54:32.581Z,288480.82,1635252578,full,ni_sequenzen,NI_Sequenzen,,,,,,,,,,,,,,
,Screen_3,canvas.Screen,0_4_2_2,,skipped,3,288297,,,288293,,288297,2021-10-26T12:54:32.583Z,288480.82,1635252578,full,ni_sequenzen,NI_Sequenzen,,,,,,,,,,,,,,
,Sequence,flow.Sequence,0_4_2,,completion,3,288292,,,288293,,288297,2021-10-26T12:54:32.583Z,288480.82,1635252578,full,ni_sequenzen,NI_Sequenzen,,,,,,,,,,,,,,
,Screen_1,canvas.Screen,0_4_3_0,,skipped,4,288299,,,288299,,288299,2021-10-26T12:54:32.585Z,288480.82,1635252578,full,ni_sequenzen,NI_Sequenzen,,,,,,,,,,,,,,
,Screen_2,canvas.Screen,0_4_3_1,,skipped,4,288300,,,288299,,288300,2021-10-26T12:54:32.586Z,288480.82,1635252578,full,ni_sequenzen,NI_Sequenzen,,,,,,,,,,,,,,
,Screen_3,canvas.Screen,0_4_3_2,,skipped,4,288302,,,288299,,288302,2021-10-26T12:54:32.588Z,288480.82,1635252578,full,ni_sequenzen,NI_Sequenzen,,,,,,,,,,,,,,
,Sequence,flow.Sequence,0_4_3,,completion,4,288298,,,288299,,288303,2021-10-26T12:54:32.588Z,288480.82,1635252578,full,ni_sequenzen,NI_Sequenzen,,,,,,,,,,,,,,
,Screen_1,canvas.Screen,0_4_4_0,,skipped,5,288305,,,288305,,288305,2021-10-26T12:54:32.591Z,288480.82,1635252578,full,ni_sequenzen,NI_Sequenzen,,,,,,,,,,,,,,
,Screen_2,canvas.Screen,0_4_4_1,,skipped,5,288306,,,288305,,288306,2021-10-26T12:54:32.592Z,288480.82,1635252578,full,ni_sequenzen,NI_Sequenzen,,,,,,,,,,,,,,
,Screen_3,canvas.Screen,0_4_4_2,,skipped,5,288307,,,288305,,288307,2021-10-26T12:54:32.594Z,288480.82,1635252578,full,ni_sequenzen,NI_Sequenzen,,,,,,,,,,,,,,
,Sequence,flow.Sequence,0_4_4,,completion,5,288303,,,288305,,288308,2021-10-26T12:54:32.594Z,288480.82,1635252578,full,ni_sequenzen,NI_Sequenzen,,,,,,,,,,,,,,
,Screen_1,canvas.Screen,0_4_5_0,,skipped,6,288310,,,288310,,288310,2021-10-26T12:54:32.596Z,288480.82,1635252578,full,ni_sequenzen,NI_Sequenzen,,,,,,,,,,,,,,
,Screen_2,canvas.Screen,0_4_5_1,,skipped,6,288311,,,288310,,288311,2021-10-26T12:54:32.597Z,288480.82,1635252578,full,ni_sequenzen,NI_Sequenzen,,,,,,,,,,,,,,
,Screen_3,canvas.Screen,0_4_5_2,,skipped,6,288312,,,288310,,288312,2021-10-26T12:54:32.599Z,288480.82,1635252578,full,ni_sequenzen,NI_Sequenzen,,,,,,,,,,,,,,
,Sequence,flow.Sequence,0_4_5,,completion,6,288309,,,288310,,288312,2021-10-26T12:54:32.599Z,288480.82,1635252578,full,ni_sequenzen,NI_Sequenzen,,,,,,,,,,,,,,
,Screen_1,canvas.Screen,0_4_6_0,,skipped,7,288314,,,288314,,288314,2021-10-26T12:54:32.601Z,288480.82,1635252578,full,ni_sequenzen,NI_Sequenzen,,,,,,,,,,,,,,
,Screen_2,canvas.Screen,0_4_6_1,,skipped,7,288316,,,288314,,288316,2021-10-26T12:54:32.602Z,288480.82,1635252578,full,ni_sequenzen,NI_Sequenzen,,,,,,,,,,,,,,
,Screen_3,canvas.Screen,0_4_6_2,,skipped,7,288318,,,288314,,288318,2021-10-26T12:54:32.603Z,288480.82,1635252578,full,ni_sequenzen,NI_Sequenzen,,,,,,,,,,,,,,
,Sequence,flow.Sequence,0_4_6,,completion,7,288313,,,288314,,288318,2021-10-26T12:54:32.604Z,288480.82,1635252578,full,ni_sequenzen,NI_Sequenzen,,,,,,,,,,,,,,
,Screen_1,canvas.Screen,0_4_7_0,,skipped,8,288319,,,288319,,288319,2021-10-26T12:54:32.605Z,288480.82,1635252578,full,ni_sequenzen,NI_Sequenzen,,,,,,,,,,,,,,
,Screen_2,canvas.Screen,0_4_7_1,,skipped,8,288320,,,288319,,288321,2021-10-26T12:54:32.607Z,288480.82,1635252578,full,ni_sequenzen,NI_Sequenzen,,,,,,,,,,,,,,
,Screen_3,canvas.Screen,0_4_7_2,,skipped,8,288322,,,288319,,288322,2021-10-26T12:54:32.608Z,288480.82,1635252578,full,ni_sequenzen,NI_Sequenzen,,,,,,,,,,,,,,
,Sequence,flow.Sequence,0_4_7,,completion,8,288318,,,288319,,288322,2021-10-26T12:54:32.609Z,288480.82,1635252578,full,ni_sequenzen,NI_Sequenzen,,,,,,,,,,,,,,
,Screen_1,canvas.Screen,0_4_8_0,,skipped,9,288325,,,288325,,288325,2021-10-26T12:54:32.610Z,288480.82,1635252578,full,ni_sequenzen,NI_Sequenzen,,,,,,,,,,,,,,
,Screen_2,canvas.Screen,0_4_8_1,,skipped,9,288326,,,288325,,288326,2021-10-26T12:54:32.612Z,288480.82,1635252578,full,ni_sequenzen,NI_Sequenzen,,,,,,,,,,,,,,
,Screen_3,canvas.Screen,0_4_8_2,,skipped,9,288328,,,288325,,288328,2021-10-26T12:54:32.613Z,288480.82,1635252578,full,ni_sequenzen,NI_Sequenzen,,,,,,,,,,,,,,
,Sequence,flow.Sequence,0_4_8,,completion,9,288324,,,288325,,288328,2021-10-26T12:54:32.613Z,288480.82,1635252578,full,ni_sequenzen,NI_Sequenzen,,,,,,,,,,,,,,
,Screen_1,canvas.Screen,0_4_9_0,,skipped,10,288330,,,288330,,288330,2021-10-26T12:54:32.616Z,288480.82,1635252578,full,ni_sequenzen,NI_Sequenzen,,,,,,,,,,,,,,
,Screen_2,canvas.Screen,0_4_9_1,,skipped,10,288331,,,288330,,288331,2021-10-26T12:54:32.617Z,288480.82,1635252578,full,ni_sequenzen,NI_Sequenzen,,,,,,,,,,,,,,
,Screen_3,canvas.Screen,0_4_9_2,,skipped,10,288332,,,288330,,288332,2021-10-26T12:54:32.618Z,288480.82,1635252578,full,ni_sequenzen,NI_Sequenzen,,,,,,,,,,,,,,
,Sequence,flow.Sequence,0_4_9,,completion,10,288328,,,288330,,288333,2021-10-26T12:54:32.618Z,288480.82,1635252578,full,ni_sequenzen,NI_Sequenzen,,,,,,,,,,,,,,
,Screen_1,canvas.Screen,0_4_10_0,,skipped,11,288335,,,288335,,288335,2021-10-26T12:54:32.621Z,288480.82,1635252578,full,ni_sequenzen,NI_Sequenzen,,,,,,,,,,,,,,
,Screen_2,canvas.Screen,0_4_10_1,,skipped,11,288336,,,288335,,288336,2021-10-26T12:54:32.623Z,288480.82,1635252578,full,ni_sequenzen,NI_Sequenzen,,,,,,,,,,,,,,
,Screen_3,canvas.Screen,0_4_10_2,,skipped,11,288338,,,288335,,288338,2021-10-26T12:54:32.625Z,288480.82,1635252578,full,ni_sequenzen,NI_Sequenzen,,,,,,,,,,,,,,
,Sequence,flow.Sequence,0_4_10,,completion,11,288333,,,288335,,288338,2021-10-26T12:54:32.625Z,288480.82,1635252578,full,ni_sequenzen,NI_Sequenzen,,,,,,,,,,,,,,
,Screen_1,canvas.Screen,0_4_11_0,,skipped,12,288340,,,288340,,288340,2021-10-26T12:54:32.626Z,288480.82,1635252578,full,ni_sequenzen,NI_Sequenzen,,,,,,,,,,,,,,
,Screen_2,canvas.Screen,0_4_11_1,,skipped,12,288341,,,288340,,288341,2021-10-26T12:54:32.628Z,288480.82,1635252578,full,ni_sequenzen,NI_Sequenzen,,,,,,,,,,,,,,
,Screen_3,canvas.Screen,0_4_11_2,,skipped,12,288343,,,288340,,288343,2021-10-26T12:54:32.629Z,288480.82,1635252578,full,ni_sequenzen,NI_Sequenzen,,,,,,,,,,,,,,
,Sequence,flow.Sequence,0_4_11,,completion,12,288339,,,288340,,288343,2021-10-26T12:54:32.629Z,288480.82,1635252578,full,ni_sequenzen,NI_Sequenzen,,,,,,,,,,,,,,
,Screen_1,canvas.Screen,0_4_12_0,,skipped,13,288344,,,288344,,288345,2021-10-26T12:54:32.631Z,288480.82,1635252578,full,ni_sequenzen,NI_Sequenzen,,,,,,,,,,,,,,
,Screen_2,canvas.Screen,0_4_12_1,,skipped,13,288346,,,288344,,288346,2021-10-26T12:54:32.632Z,288480.82,1635252578,full,ni_sequenzen,NI_Sequenzen,,,,,,,,,,,,,,
,Screen_3,canvas.Screen,0_4_12_2,,skipped,13,288348,,,288344,,288349,2021-10-26T12:54:32.634Z,288480.82,1635252578,full,ni_sequenzen,NI_Sequenzen,,,,,,,,,,,,,,
,Sequence,flow.Sequence,0_4_12,,completion,13,288343,,,288344,,288349,2021-10-26T12:54:32.635Z,288480.82,1635252578,full,ni_sequenzen,NI_Sequenzen,,,,,,,,,,,,,,
,Screen_1,canvas.Screen,0_4_13_0,,skipped,14,288351,,,288351,,288351,2021-10-26T12:54:32.637Z,288480.82,1635252578,full,ni_sequenzen,NI_Sequenzen,,,,,,,,,,,,,,
,Screen_2,canvas.Screen,0_4_13_1,,skipped,14,288352,,,288351,,288352,2021-10-26T12:54:32.638Z,288480.82,1635252578,full,ni_sequenzen,NI_Sequenzen,,,,,,,,,,,,,,
,Screen_3,canvas.Screen,0_4_13_2,,skipped,14,288353,,,288351,,288353,2021-10-26T12:54:32.640Z,288480.82,1635252578,full,ni_sequenzen,NI_Sequenzen,,,,,,,,,,,,,,
,Sequence,flow.Sequence,0_4_13,,completion,14,288349,,,288351,,288353,2021-10-26T12:54:32.640Z,288480.82,1635252578,full,ni_sequenzen,NI_Sequenzen,,,,,,,,,,,,,,
,Screen_1,canvas.Screen,0_4_14_0,,skipped,15,288356,,,288356,,288356,2021-10-26T12:54:32.642Z,288480.82,1635252578,full,ni_sequenzen,NI_Sequenzen,,,,,,,,,,,,,,
,Screen_2,canvas.Screen,0_4_14_1,,skipped,15,288357,,,288356,,288358,2021-10-26T12:54:32.643Z,288480.82,1635252578,full,ni_sequenzen,NI_Sequenzen,,,,,,,,,,,,,,
,Screen_3,canvas.Screen,0_4_14_2,,skipped,15,288359,,,288356,,288359,2021-10-26T12:54:32.645Z,288480.82,1635252578,full,ni_sequenzen,NI_Sequenzen,,,,,,,,,,,,,,
,Sequence,flow.Sequence,0_4_14,,completion,15,288354,,,288356,,288359,2021-10-26T12:54:32.645Z,288480.82,1635252578,full,ni_sequenzen,NI_Sequenzen,,,,,,,,,,,,,,
,Screen_1,canvas.Screen,0_4_15_0,,skipped,16,288362,,,288362,,288362,2021-10-26T12:54:32.648Z,288480.82,1635252578,full,ni_sequenzen,NI_Sequenzen,,,,,,,,,,,,,,
,Screen_2,canvas.Screen,0_4_15_1,,skipped,16,288363,,,288362,,288363,2021-10-26T12:54:32.650Z,288480.82,1635252578,full,ni_sequenzen,NI_Sequenzen,,,,,,,,,,,,,,
,Screen_3,canvas.Screen,0_4_15_2,,skipped,16,288365,,,288362,,288365,2021-10-26T12:54:32.652Z,288480.82,1635252578,full,ni_sequenzen,NI_Sequenzen,,,,,,,,,,,,,,
,Sequence,flow.Sequence,0_4_15,,completion,16,288360,,,288362,,288365,2021-10-26T12:54:32.652Z,288480.82,1635252578,full,ni_sequenzen,NI_Sequenzen,,,,,,,,,,,,,,
,Screen_1,canvas.Screen,0_4_16_0,,skipped,17,288367,,,288367,,288367,2021-10-26T12:54:32.654Z,288480.82,1635252578,full,ni_sequenzen,NI_Sequenzen,,,,,,,,,,,,,,
,Screen_2,canvas.Screen,0_4_16_1,,skipped,17,288369,,,288367,,288369,2021-10-26T12:54:32.655Z,288480.82,1635252578,full,ni_sequenzen,NI_Sequenzen,,,,,,,,,,,,,,
,Screen_3,canvas.Screen,0_4_16_2,,skipped,17,288370,,,288367,,288370,2021-10-26T12:54:32.657Z,288480.82,1635252578,full,ni_sequenzen,NI_Sequenzen,,,,,,,,,,,,,,
,Sequence,flow.Sequence,0_4_16,,completion,17,288366,,,288367,,288370,2021-10-26T12:54:32.657Z,288480.82,1635252578,full,ni_sequenzen,NI_Sequenzen,,,,,,,,,,,,,,
