meta,sender,sender_type,sender_id,response,ended_on,instrCount,time_run,time_render,time_show,time_end,duration,time_commit,timestamp,time_switch,openLabId,type,task,project,move,trialN,blockN_Train,blockN,moveCount,currPP,points,movesTrial,visitedFields,diff,reward,Strategie,Zweck,Probleme
[object Object],Screen_1,canvas.Screen,0_0_0_0,cont,response,1,1658.8999998569489,1652.805,1719.32,11333.899999856949,9614.57999985695,11337.799999952316,2021-10-31T20:21:58.997Z,11499.717,1635711700,full,ni_sequenzen,NI_Sequenzen,,,,,,,,,,,,,,
,Screen_2,canvas.Screen,0_0_0_1,cont,response,1,11492.700000047684,11483.056,11499.717,31533.39999985695,20033.68299985695,31534.299999952316,2021-10-31T20:22:19.193Z,31677.043,1635711700,full,ni_sequenzen,NI_Sequenzen,,,,,,,,,,,,,,
,Screen_3,canvas.Screen,0_0_0_2,cont,response,1,31660,31660.131,31677.043,41629.89999985695,9952.856999856947,41630.89999985695,2021-10-31T20:22:29.290Z,41640.738,1635711700,full,ni_sequenzen,NI_Sequenzen,,,,,,,,,,,,,,
,Screen_4,canvas.Screen,0_0_0_3,cont,response,1,41636.5,41623.798,41640.738,46085.39999985695,4444.661999856951,46086.5,2021-10-31T20:22:33.746Z,46455.997,1635711700,full,ni_sequenzen,NI_Sequenzen,,,,,,,,,,,,,,
,Sequence,flow.Sequence,0_0_0,,completion,1,1554.2000000476837,1652.805,1719.32,46085.39999985695,44366.07999985695,46090.299999952316,2021-10-31T20:22:33.750Z,46455.997,1635711700,full,ni_sequenzen,NI_Sequenzen,,,,,,,,,,,,,,
,Screen_1,canvas.Screen,0_0_1_0,,skipped,2,46095.700000047684,,,46095.700000047684,,46096,2021-10-31T20:22:33.756Z,46455.997,1635711700,full,ni_sequenzen,NI_Sequenzen,,,,,,,,,,,,,,
,Screen_2,canvas.Screen,0_0_1_1,,skipped,2,46099.299999952316,,,46095.700000047684,,46099.59999990463,2021-10-31T20:22:33.759Z,46455.997,1635711700,full,ni_sequenzen,NI_Sequenzen,,,,,,,,,,,,,,
,Screen_3,canvas.Screen,0_0_1_2,,skipped,2,46102.59999990463,,,46095.700000047684,,46102.799999952316,2021-10-31T20:22:33.762Z,46455.997,1635711700,full,ni_sequenzen,NI_Sequenzen,,,,,,,,,,,,,,
,Screen_4,canvas.Screen,0_0_1_3,,skipped,2,46105.59999990463,,,46095.700000047684,,46106.200000047684,2021-10-31T20:22:33.766Z,46455.997,1635711700,full,ni_sequenzen,NI_Sequenzen,,,,,,,,,,,,,,
,Sequence,flow.Sequence,0_0_1,,completion,2,46092.5,,,46095.700000047684,,46106.59999990463,2021-10-31T20:22:33.766Z,46455.997,1635711700,full,ni_sequenzen,NI_Sequenzen,,,,,,,,,,,,,,
,Screen_1,canvas.Screen,0_0_2_0,,skipped,3,46109.700000047684,,,46109.700000047684,,46109.89999985695,2021-10-31T20:22:33.770Z,46455.997,1635711700,full,ni_sequenzen,NI_Sequenzen,,,,,,,,,,,,,,
,Screen_2,canvas.Screen,0_0_2_1,,skipped,3,46112.09999990463,,,46109.700000047684,,46112.700000047684,2021-10-31T20:22:33.772Z,46455.997,1635711700,full,ni_sequenzen,NI_Sequenzen,,,,,,,,,,,,,,
,Screen_3,canvas.Screen,0_0_2_2,,skipped,3,46115.299999952316,,,46109.700000047684,,46115.59999990463,2021-10-31T20:22:33.775Z,46455.997,1635711700,full,ni_sequenzen,NI_Sequenzen,,,,,,,,,,,,,,
,Screen_4,canvas.Screen,0_0_2_3,,skipped,3,46117.89999985695,,,46109.700000047684,,46118.09999990463,2021-10-31T20:22:33.778Z,46455.997,1635711700,full,ni_sequenzen,NI_Sequenzen,,,,,,,,,,,,,,
,Sequence,flow.Sequence,0_0_2,,completion,3,46107.59999990463,,,46109.700000047684,,46118.39999985695,2021-10-31T20:22:33.778Z,46455.997,1635711700,full,ni_sequenzen,NI_Sequenzen,,,,,,,,,,,,,,
,Screen_1,canvas.Screen,0_0_3_0,,skipped,4,46121.299999952316,,,46121.39999985695,,46121.5,2021-10-31T20:22:33.781Z,46455.997,1635711700,full,ni_sequenzen,NI_Sequenzen,,,,,,,,,,,,,,
,Screen_2,canvas.Screen,0_0_3_1,,skipped,4,46123.59999990463,,,46121.39999985695,,46123.89999985695,2021-10-31T20:22:33.784Z,46455.997,1635711700,full,ni_sequenzen,NI_Sequenzen,,,,,,,,,,,,,,
,Screen_3,canvas.Screen,0_0_3_2,,skipped,4,46126.39999985695,,,46121.39999985695,,46126.59999990463,2021-10-31T20:22:33.786Z,46455.997,1635711700,full,ni_sequenzen,NI_Sequenzen,,,,,,,,,,,,,,
,Screen_4,canvas.Screen,0_0_3_3,,skipped,4,46129.09999990463,,,46121.39999985695,,46129.39999985695,2021-10-31T20:22:33.789Z,46455.997,1635711700,full,ni_sequenzen,NI_Sequenzen,,,,,,,,,,,,,,
,Sequence,flow.Sequence,0_0_3,,completion,4,46119.39999985695,,,46121.39999985695,,46129.700000047684,2021-10-31T20:22:33.789Z,46455.997,1635711700,full,ni_sequenzen,NI_Sequenzen,,,,,,,,,,,,,,
,Screen_1,canvas.Screen,0_0_4_0,,skipped,5,46132.39999985695,,,46132.39999985695,,46132.59999990463,2021-10-31T20:22:33.792Z,46455.997,1635711700,full,ni_sequenzen,NI_Sequenzen,,,,,,,,,,,,,,
,Screen_2,canvas.Screen,0_0_4_1,,skipped,5,46136.200000047684,,,46132.39999985695,,46136.39999985695,2021-10-31T20:22:33.796Z,46455.997,1635711700,full,ni_sequenzen,NI_Sequenzen,,,,,,,,,,,,,,
,Screen_3,canvas.Screen,0_0_4_2,,skipped,5,46138.700000047684,,,46132.39999985695,,46138.89999985695,2021-10-31T20:22:33.799Z,46455.997,1635711700,full,ni_sequenzen,NI_Sequenzen,,,,,,,,,,,,,,
,Screen_4,canvas.Screen,0_0_4_3,,skipped,5,46141.09999990463,,,46132.39999985695,,46141.299999952316,2021-10-31T20:22:33.801Z,46455.997,1635711700,full,ni_sequenzen,NI_Sequenzen,,,,,,,,,,,,,,
,Sequence,flow.Sequence,0_0_4,,completion,5,46130.59999990463,,,46132.39999985695,,46141.59999990463,2021-10-31T20:22:33.801Z,46455.997,1635711700,full,ni_sequenzen,NI_Sequenzen,,,,,,,,,,,,,,
,Screen_1,canvas.Screen,0_0_5_0,,skipped,6,46145.09999990463,,,46145.09999990463,,46145.299999952316,2021-10-31T20:22:33.805Z,46455.997,1635711700,full,ni_sequenzen,NI_Sequenzen,,,,,,,,,,,,,,
,Screen_2,canvas.Screen,0_0_5_1,,skipped,6,46147.39999985695,,,46145.09999990463,,46147.59999990463,2021-10-31T20:22:33.807Z,46455.997,1635711700,full,ni_sequenzen,NI_Sequenzen,,,,,,,,,,,,,,
,Screen_3,canvas.Screen,0_0_5_2,,skipped,6,46150.09999990463,,,46145.09999990463,,46150.299999952316,2021-10-31T20:22:33.810Z,46455.997,1635711700,full,ni_sequenzen,NI_Sequenzen,,,,,,,,,,,,,,
,Screen_4,canvas.Screen,0_0_5_3,,skipped,6,46152.59999990463,,,46145.09999990463,,46152.700000047684,2021-10-31T20:22:33.812Z,46455.997,1635711700,full,ni_sequenzen,NI_Sequenzen,,,,,,,,,,,,,,
,Sequence,flow.Sequence,0_0_5,,completion,6,46142.5,,,46145.09999990463,,46153,2021-10-31T20:22:33.813Z,46455.997,1635711700,full,ni_sequenzen,NI_Sequenzen,,,,,,,,,,,,,,
,Screen_1,canvas.Screen,0_0_6_0,,skipped,7,46155.799999952316,,,46155.799999952316,,46156,2021-10-31T20:22:33.816Z,46455.997,1635711700,full,ni_sequenzen,NI_Sequenzen,,,,,,,,,,,,,,
,Screen_2,canvas.Screen,0_0_6_1,,skipped,7,46158,,,46155.799999952316,,46158.299999952316,2021-10-31T20:22:33.818Z,46455.997,1635711700,full,ni_sequenzen,NI_Sequenzen,,,,,,,,,,,,,,
,Screen_3,canvas.Screen,0_0_6_2,,skipped,7,46160.799999952316,,,46155.799999952316,,46161,2021-10-31T20:22:33.821Z,46455.997,1635711700,full,ni_sequenzen,NI_Sequenzen,,,,,,,,,,,,,,
,Screen_4,canvas.Screen,0_0_6_3,,skipped,7,46163.200000047684,,,46155.799999952316,,46163.5,2021-10-31T20:22:33.823Z,46455.997,1635711700,full,ni_sequenzen,NI_Sequenzen,,,,,,,,,,,,,,
,Sequence,flow.Sequence,0_0_6,,completion,7,46154,,,46155.799999952316,,46164,2021-10-31T20:22:33.824Z,46455.997,1635711700,full,ni_sequenzen,NI_Sequenzen,,,,,,,,,,,,,,
,Screen_1,canvas.Screen,0_0_7_0,,skipped,8,46167.5,,,46167.5,,46167.700000047684,2021-10-31T20:22:33.827Z,46455.997,1635711700,full,ni_sequenzen,NI_Sequenzen,,,,,,,,,,,,,,
,Screen_2,canvas.Screen,0_0_7_1,,skipped,8,46170.39999985695,,,46167.5,,46170.59999990463,2021-10-31T20:22:33.830Z,46455.997,1635711700,full,ni_sequenzen,NI_Sequenzen,,,,,,,,,,,,,,
,Screen_3,canvas.Screen,0_0_7_2,,skipped,8,46175.700000047684,,,46167.5,,46176,2021-10-31T20:22:33.836Z,46455.997,1635711700,full,ni_sequenzen,NI_Sequenzen,,,,,,,,,,,,,,
,Screen_4,canvas.Screen,0_0_7_3,,skipped,8,46178.5,,,46167.5,,46178.59999990463,2021-10-31T20:22:33.838Z,46455.997,1635711700,full,ni_sequenzen,NI_Sequenzen,,,,,,,,,,,,,,
,Sequence,flow.Sequence,0_0_7,,completion,8,46165.200000047684,,,46167.5,,46178.89999985695,2021-10-31T20:22:33.839Z,46455.997,1635711700,full,ni_sequenzen,NI_Sequenzen,,,,,,,,,,,,,,
,Screen_1,canvas.Screen,0_0_8_0,,skipped,9,46181.700000047684,,,46181.700000047684,,46181.89999985695,2021-10-31T20:22:33.842Z,46455.997,1635711700,full,ni_sequenzen,NI_Sequenzen,,,,,,,,,,,,,,
,Screen_2,canvas.Screen,0_0_8_1,,skipped,9,46183.89999985695,,,46181.700000047684,,46184.200000047684,2021-10-31T20:22:33.844Z,46455.997,1635711700,full,ni_sequenzen,NI_Sequenzen,,,,,,,,,,,,,,
,Screen_3,canvas.Screen,0_0_8_2,,skipped,9,46186.39999985695,,,46181.700000047684,,46186.5,2021-10-31T20:22:33.846Z,46455.997,1635711700,full,ni_sequenzen,NI_Sequenzen,,,,,,,,,,,,,,
,Screen_4,canvas.Screen,0_0_8_3,,skipped,9,46188.799999952316,,,46181.700000047684,,46189,2021-10-31T20:22:33.849Z,46455.997,1635711700,full,ni_sequenzen,NI_Sequenzen,,,,,,,,,,,,,,
,Sequence,flow.Sequence,0_0_8,,completion,9,46179.799999952316,,,46181.700000047684,,46189.299999952316,2021-10-31T20:22:33.849Z,46455.997,1635711700,full,ni_sequenzen,NI_Sequenzen,,,,,,,,,,,,,,
,Screen_1,canvas.Screen,0_0_9_0,,skipped,10,46193,,,46193.09999990463,,46193.299999952316,2021-10-31T20:22:33.853Z,46455.997,1635711700,full,ni_sequenzen,NI_Sequenzen,,,,,,,,,,,,,,
,Screen_2,canvas.Screen,0_0_9_1,,skipped,10,46195.299999952316,,,46193.09999990463,,46195.5,2021-10-31T20:22:33.855Z,46455.997,1635711700,full,ni_sequenzen,NI_Sequenzen,,,,,,,,,,,,,,
,Screen_3,canvas.Screen,0_0_9_2,,skipped,10,46198,,,46193.09999990463,,46198.200000047684,2021-10-31T20:22:33.858Z,46455.997,1635711700,full,ni_sequenzen,NI_Sequenzen,,,,,,,,,,,,,,
,Screen_4,canvas.Screen,0_0_9_3,,skipped,10,46200.39999985695,,,46193.09999990463,,46200.59999990463,2021-10-31T20:22:33.860Z,46455.997,1635711700,full,ni_sequenzen,NI_Sequenzen,,,,,,,,,,,,,,
,Sequence,flow.Sequence,0_0_9,,completion,10,46190.59999990463,,,46193.09999990463,,46201,2021-10-31T20:22:33.861Z,46455.997,1635711700,full,ni_sequenzen,NI_Sequenzen,,,,,,,,,,,,,,
,Screen_1,canvas.Screen,0_0_10_0,,skipped,11,46204,,,46204,,46204.200000047684,2021-10-31T20:22:33.864Z,46455.997,1635711700,full,ni_sequenzen,NI_Sequenzen,,,,,,,,,,,,,,
,Screen_2,canvas.Screen,0_0_10_1,,skipped,11,46206.39999985695,,,46204,,46206.700000047684,2021-10-31T20:22:33.866Z,46455.997,1635711700,full,ni_sequenzen,NI_Sequenzen,,,,,,,,,,,,,,
,Screen_3,canvas.Screen,0_0_10_2,,skipped,11,46208.89999985695,,,46204,,46209.200000047684,2021-10-31T20:22:33.869Z,46455.997,1635711700,full,ni_sequenzen,NI_Sequenzen,,,,,,,,,,,,,,
,Screen_4,canvas.Screen,0_0_10_3,,skipped,11,46212.700000047684,,,46204,,46212.89999985695,2021-10-31T20:22:33.873Z,46455.997,1635711700,full,ni_sequenzen,NI_Sequenzen,,,,,,,,,,,,,,
,Sequence,flow.Sequence,0_0_10,,completion,11,46202.09999990463,,,46204,,46213.200000047684,2021-10-31T20:22:33.873Z,46455.997,1635711700,full,ni_sequenzen,NI_Sequenzen,,,,,,,,,,,,,,
,Screen_1,canvas.Screen,0_0_11_0,,skipped,12,46216,,,46216.09999990463,,46216.200000047684,2021-10-31T20:22:33.876Z,46455.997,1635711700,full,ni_sequenzen,NI_Sequenzen,,,,,,,,,,,,,,
,Screen_2,canvas.Screen,0_0_11_1,,skipped,12,46220.799999952316,,,46216.09999990463,,46221.09999990463,2021-10-31T20:22:33.881Z,46455.997,1635711700,full,ni_sequenzen,NI_Sequenzen,,,,,,,,,,,,,,
,Screen_3,canvas.Screen,0_0_11_2,,skipped,12,46224.200000047684,,,46216.09999990463,,46224.39999985695,2021-10-31T20:22:33.884Z,46455.997,1635711700,full,ni_sequenzen,NI_Sequenzen,,,,,,,,,,,,,,
,Screen_4,canvas.Screen,0_0_11_3,,skipped,12,46226.59999990463,,,46216.09999990463,,46226.799999952316,2021-10-31T20:22:33.886Z,46455.997,1635711700,full,ni_sequenzen,NI_Sequenzen,,,,,,,,,,,,,,
,Sequence,flow.Sequence,0_0_11,,completion,12,46214,,,46216.09999990463,,46227.09999990463,2021-10-31T20:22:33.887Z,46455.997,1635711700,full,ni_sequenzen,NI_Sequenzen,,,,,,,,,,,,,,
,Screen_1,canvas.Screen,0_0_12_0,,skipped,13,46230.09999990463,,,46230.09999990463,,46230.39999985695,2021-10-31T20:22:33.890Z,46455.997,1635711700,full,ni_sequenzen,NI_Sequenzen,,,,,,,,,,,,,,
,Screen_2,canvas.Screen,0_0_12_1,,skipped,13,46232.39999985695,,,46230.09999990463,,46232.59999990463,2021-10-31T20:22:33.892Z,46455.997,1635711700,full,ni_sequenzen,NI_Sequenzen,,,,,,,,,,,,,,
,Screen_3,canvas.Screen,0_0_12_2,,skipped,13,46234.700000047684,,,46230.09999990463,,46235,2021-10-31T20:22:33.895Z,46455.997,1635711700,full,ni_sequenzen,NI_Sequenzen,,,,,,,,,,,,,,
,Screen_4,canvas.Screen,0_0_12_3,,skipped,13,46237.200000047684,,,46230.09999990463,,46237.5,2021-10-31T20:22:33.897Z,46455.997,1635711700,full,ni_sequenzen,NI_Sequenzen,,,,,,,,,,,,,,
,Sequence,flow.Sequence,0_0_12,,completion,13,46227.89999985695,,,46230.09999990463,,46238,2021-10-31T20:22:33.898Z,46455.997,1635711700,full,ni_sequenzen,NI_Sequenzen,,,,,,,,,,,,,,
,Screen_1,canvas.Screen,0_0_13_0,,skipped,14,46240.59999990463,,,46240.59999990463,,46240.799999952316,2021-10-31T20:22:33.900Z,46455.997,1635711700,full,ni_sequenzen,NI_Sequenzen,,,,,,,,,,,,,,
,Screen_2,canvas.Screen,0_0_13_1,,skipped,14,46242.799999952316,,,46240.59999990463,,46243.09999990463,2021-10-31T20:22:33.903Z,46455.997,1635711700,full,ni_sequenzen,NI_Sequenzen,,,,,,,,,,,,,,
,Screen_3,canvas.Screen,0_0_13_2,,skipped,14,46245.799999952316,,,46240.59999990463,,46246,2021-10-31T20:22:33.906Z,46455.997,1635711700,full,ni_sequenzen,NI_Sequenzen,,,,,,,,,,,,,,
,Screen_4,canvas.Screen,0_0_13_3,,skipped,14,46248.299999952316,,,46240.59999990463,,46248.39999985695,2021-10-31T20:22:33.908Z,46455.997,1635711700,full,ni_sequenzen,NI_Sequenzen,,,,,,,,,,,,,,
,Sequence,flow.Sequence,0_0_13,,completion,14,46238.799999952316,,,46240.59999990463,,46248.700000047684,2021-10-31T20:22:33.908Z,46455.997,1635711700,full,ni_sequenzen,NI_Sequenzen,,,,,,,,,,,,,,
,Screen_1,canvas.Screen,0_0_14_0,,skipped,15,46251.39999985695,,,46251.39999985695,,46251.59999990463,2021-10-31T20:22:33.911Z,46455.997,1635711700,full,ni_sequenzen,NI_Sequenzen,,,,,,,,,,,,,,
,Screen_2,canvas.Screen,0_0_14_1,,skipped,15,46255.299999952316,,,46251.39999985695,,46255.5,2021-10-31T20:22:33.915Z,46455.997,1635711700,full,ni_sequenzen,NI_Sequenzen,,,,,,,,,,,,,,
,Screen_3,canvas.Screen,0_0_14_2,,skipped,15,46257.700000047684,,,46251.39999985695,,46257.89999985695,2021-10-31T20:22:33.918Z,46455.997,1635711700,full,ni_sequenzen,NI_Sequenzen,,,,,,,,,,,,,,
,Screen_4,canvas.Screen,0_0_14_3,,skipped,15,46260.09999990463,,,46251.39999985695,,46260.299999952316,2021-10-31T20:22:33.920Z,46455.997,1635711700,full,ni_sequenzen,NI_Sequenzen,,,,,,,,,,,,,,
,Sequence,flow.Sequence,0_0_14,,completion,15,46249.59999990463,,,46251.39999985695,,46260.799999952316,2021-10-31T20:22:33.920Z,46455.997,1635711700,full,ni_sequenzen,NI_Sequenzen,,,,,,,,,,,,,,
,Screen_1,canvas.Screen,0_0_15_0,,skipped,16,46263.5,,,46263.59999990463,,46263.799999952316,2021-10-31T20:22:33.923Z,46455.997,1635711700,full,ni_sequenzen,NI_Sequenzen,,,,,,,,,,,,,,
,Screen_2,canvas.Screen,0_0_15_1,,skipped,16,46265.799999952316,,,46263.59999990463,,46266.09999990463,2021-10-31T20:22:33.926Z,46455.997,1635711700,full,ni_sequenzen,NI_Sequenzen,,,,,,,,,,,,,,
,Screen_3,canvas.Screen,0_0_15_2,,skipped,16,46268.299999952316,,,46263.59999990463,,46268.39999985695,2021-10-31T20:22:33.928Z,46455.997,1635711700,full,ni_sequenzen,NI_Sequenzen,,,,,,,,,,,,,,
,Screen_4,canvas.Screen,0_0_15_3,,skipped,16,46273.59999990463,,,46263.59999990463,,46273.799999952316,2021-10-31T20:22:33.933Z,46455.997,1635711700,full,ni_sequenzen,NI_Sequenzen,,,,,,,,,,,,,,
,Sequence,flow.Sequence,0_0_15,,completion,16,46261.700000047684,,,46263.59999990463,,46274.09999990463,2021-10-31T20:22:33.934Z,46455.997,1635711700,full,ni_sequenzen,NI_Sequenzen,,,,,,,,,,,,,,
,Screen_1,canvas.Screen,0_0_16_0,,skipped,17,46277.39999985695,,,46277.39999985695,,46277.59999990463,2021-10-31T20:22:33.937Z,46455.997,1635711700,full,ni_sequenzen,NI_Sequenzen,,,,,,,,,,,,,,
,Screen_2,canvas.Screen,0_0_16_1,,skipped,17,46279.59999990463,,,46277.39999985695,,46279.700000047684,2021-10-31T20:22:33.939Z,46455.997,1635711700,full,ni_sequenzen,NI_Sequenzen,,,,,,,,,,,,,,
,Screen_3,canvas.Screen,0_0_16_2,,skipped,17,46282,,,46277.39999985695,,46282.200000047684,2021-10-31T20:22:33.942Z,46455.997,1635711700,full,ni_sequenzen,NI_Sequenzen,,,,,,,,,,,,,,
,Screen_4,canvas.Screen,0_0_16_3,,skipped,17,46284.59999990463,,,46277.39999985695,,46285.09999990463,2021-10-31T20:22:33.945Z,46455.997,1635711700,full,ni_sequenzen,NI_Sequenzen,,,,,,,,,,,,,,
,Sequence,flow.Sequence,0_0_16,,completion,17,46275,,,46277.39999985695,,46285.5,2021-10-31T20:22:33.945Z,46455.997,1635711700,full,ni_sequenzen,NI_Sequenzen,,,,,,,,,,,,,,
,Screen_1,canvas.Screen,0_0_17_0,,skipped,18,46288.09999990463,,,46288.200000047684,,46288.299999952316,2021-10-31T20:22:33.948Z,46455.997,1635711700,full,ni_sequenzen,NI_Sequenzen,,,,,,,,,,,,,,
,Screen_2,canvas.Screen,0_0_17_1,,skipped,18,46290.200000047684,,,46288.200000047684,,46290.5,2021-10-31T20:22:33.950Z,46455.997,1635711700,full,ni_sequenzen,NI_Sequenzen,,,,,,,,,,,,,,
,Screen_3,canvas.Screen,0_0_17_2,,skipped,18,46292.5,,,46288.200000047684,,46292.700000047684,2021-10-31T20:22:33.952Z,46455.997,1635711700,full,ni_sequenzen,NI_Sequenzen,,,,,,,,,,,,,,
,Screen_4,canvas.Screen,0_0_17_3,,skipped,18,46296.200000047684,,,46288.200000047684,,46296.39999985695,2021-10-31T20:22:33.956Z,46455.997,1635711700,full,ni_sequenzen,NI_Sequenzen,,,,,,,,,,,,,,
,Sequence,flow.Sequence,0_0_17,,completion,18,46286.299999952316,,,46288.200000047684,,46296.59999990463,2021-10-31T20:22:33.956Z,46455.997,1635711700,full,ni_sequenzen,NI_Sequenzen,,,,,,,,,,,,,,
,Screen_1,canvas.Screen,0_0_18_0,,skipped,19,46299.299999952316,,,46299.299999952316,,46299.39999985695,2021-10-31T20:22:33.959Z,46455.997,1635711700,full,ni_sequenzen,NI_Sequenzen,,,,,,,,,,,,,,
,Screen_2,canvas.Screen,0_0_18_1,,skipped,19,46301.89999985695,,,46299.299999952316,,46302,2021-10-31T20:22:33.962Z,46455.997,1635711700,full,ni_sequenzen,NI_Sequenzen,,,,,,,,,,,,,,
,Screen_3,canvas.Screen,0_0_18_2,,skipped,19,46304.09999990463,,,46299.299999952316,,46304.299999952316,2021-10-31T20:22:33.964Z,46455.997,1635711700,full,ni_sequenzen,NI_Sequenzen,,,,,,,,,,,,,,
,Screen_4,canvas.Screen,0_0_18_3,,skipped,19,46306.5,,,46299.299999952316,,46306.700000047684,2021-10-31T20:22:33.966Z,46455.997,1635711700,full,ni_sequenzen,NI_Sequenzen,,,,,,,,,,,,,,
,Sequence,flow.Sequence,0_0_18,,completion,19,46297.5,,,46299.299999952316,,46307,2021-10-31T20:22:33.967Z,46455.997,1635711700,full,ni_sequenzen,NI_Sequenzen,,,,,,,,,,,,,,
,Screen_1,canvas.Screen,0_0_19_0,,skipped,20,46309.5,,,46309.5,,46309.700000047684,2021-10-31T20:22:33.969Z,46455.997,1635711700,full,ni_sequenzen,NI_Sequenzen,,,,,,,,,,,,,,
,Screen_2,canvas.Screen,0_0_19_1,,skipped,20,46311.59999990463,,,46309.5,,46311.799999952316,2021-10-31T20:22:33.972Z,46455.997,1635711700,full,ni_sequenzen,NI_Sequenzen,,,,,,,,,,,,,,
,Screen_3,canvas.Screen,0_0_19_2,,skipped,20,46313.89999985695,,,46309.5,,46314.200000047684,2021-10-31T20:22:33.974Z,46455.997,1635711700,full,ni_sequenzen,NI_Sequenzen,,,,,,,,,,,,,,
,Screen_4,canvas.Screen,0_0_19_3,,skipped,20,46316.700000047684,,,46309.5,,46316.89999985695,2021-10-31T20:22:33.977Z,46455.997,1635711700,full,ni_sequenzen,NI_Sequenzen,,,,,,,,,,,,,,
,Sequence,flow.Sequence,0_0_19,,completion,20,46307.799999952316,,,46309.5,,46317.200000047684,2021-10-31T20:22:33.977Z,46455.997,1635711700,full,ni_sequenzen,NI_Sequenzen,,,,,,,,,,,,,,
,Instructions_I,flow.Loop,0_0,,completion,,1551.3999998569489,1652.805,1719.32,46309.5,44590.18,46317.5,2021-10-31T20:22:33.977Z,46455.997,1635711700,full,ni_sequenzen,NI_Sequenzen,,,,,,,,,,,,,,
,Move,canvas.Screen,0_1_0_0,left,response,,46446.299999952316,46439.108,46455.997,47293.39999985695,837.4029998569458,47294.39999985695,2021-10-31T20:22:34.954Z,47305.756,1635711700,full,ni_sequenzen,NI_Sequenzen,1,,,,,,,,,,,,,
,Move,canvas.Screen,0_1_0_1,down,response,,47299.5,47289.036,47305.756,48557.39999985695,1251.6439998569476,48558.799999952316,2021-10-31T20:22:36.219Z,48588.706,1635711700,full,ni_sequenzen,NI_Sequenzen,2,,,,,,,,,,,,,
,Move,canvas.Screen,0_1_0_2,right,response,,48565.200000047684,48555.294,48588.706,49565.39999985695,976.6939998569505,49566.39999985695,2021-10-31T20:22:37.226Z,49571.707,1635711700,full,ni_sequenzen,NI_Sequenzen,3,,,,,,,,,,,,,
,Move,canvas.Screen,0_1_0_3,left,response,,49570,49555.045,49571.707,50109.59999990463,537.8929999046304,50110.39999985695,2021-10-31T20:22:37.770Z,50121.58,1635711700,full,ni_sequenzen,NI_Sequenzen,4,,,,,,,,,,,,,
,Move,canvas.Screen,0_1_0_4,right,response,,50113.5,50104.865,50121.58,50661.39999985695,539.8199998569471,50662.200000047684,2021-10-31T20:22:38.322Z,50688.072,1635711700,full,ni_sequenzen,NI_Sequenzen,5,,,,,,,,,,,,,
,Move,canvas.Screen,0_1_0_5,down,response,,50665.5,50654.743,50688.072,52421.89999985695,1733.8279998569487,52422.89999985695,2021-10-31T20:22:40.083Z,52437.585,1635711700,full,ni_sequenzen,NI_Sequenzen,6,,,,,,,,,,,,,
,Move,canvas.Screen,0_1_0_6,down,response,,52426.5,52420.805,52437.585,53005.39999985695,567.8149998569497,53006.299999952316,2021-10-31T20:22:40.666Z,53020.699,1635711700,full,ni_sequenzen,NI_Sequenzen,7,,,,,,,,,,,,,
,Move,canvas.Screen,0_1_0_7,down,response,,53009.700000047684,53004.037,53020.699,53549.299999952316,528.6009999523158,53550.299999952316,2021-10-31T20:22:41.210Z,53587.385,1635711700,full,ni_sequenzen,NI_Sequenzen,8,,,,,,,,,,,,,
,Move,canvas.Screen,0_1_0_8,left,response,,53553.59999990463,53570.513,53587.385,54101.5,514.114999999998,54102.799999952316,2021-10-31T20:22:41.762Z,54120.396,1635711700,full,ni_sequenzen,NI_Sequenzen,9,,,,,,,,,,,,,
,Move,canvas.Screen,0_1_0_9,down,response,,54106.799999952316,54103.709,54120.396,54925.5,805.1039999999994,54926.299999952316,2021-10-31T20:22:42.586Z,54936.809,1635711700,full,ni_sequenzen,NI_Sequenzen,10,,,,,,,,,,,,,
,Move,canvas.Screen,0_1_0_10,right,response,,54929.5,54920.124,54936.809,55566.09999990463,629.2909999046315,55567,2021-10-31T20:22:43.227Z,55586.629,1635711700,full,ni_sequenzen,NI_Sequenzen,11,,,,,,,,,,,,,
,Move,canvas.Screen,0_1_0_11,right,response,,55570.200000047684,55569.909,55586.629,56109.39999985695,522.770999856948,56110.39999985695,2021-10-31T20:22:43.770Z,56119.788,1635711700,full,ni_sequenzen,NI_Sequenzen,12,,,,,,,,,,,,,
,Move,canvas.Screen,0_1_0_12,down,response,,56114.59999990463,56103.139,56119.788,56485.5,365.71199999999953,56486.299999952316,2021-10-31T20:22:44.146Z,56503.005,1635711700,full,ni_sequenzen,NI_Sequenzen,13,,,,,,,,,,,,,
,Move,canvas.Screen,0_1_0_13,left,response,,56490.799999952316,56486.327,56503.005,56917.299999952316,414.2949999523189,56918.200000047684,2021-10-31T20:22:44.578Z,56936.238,1635711700,full,ni_sequenzen,NI_Sequenzen,14,,,,,,,,,,,,,
,Move,canvas.Screen,0_1_0_14,right,response,,56921.799999952316,56919.563,56936.238,57509.39999985695,573.1619998569513,57510.39999985695,2021-10-31T20:22:45.170Z,57519.367,1635711700,full,ni_sequenzen,NI_Sequenzen,15,,,,,,,,,,,,,
,Move,canvas.Screen,0_1_0_15,down,response,,57514.799999952316,57502.686,57519.367,58565.5,1046.1330000000016,58566.39999985695,2021-10-31T20:22:46.226Z,58585.688,1635711700,full,ni_sequenzen,NI_Sequenzen,16,,,,,,,,,,,,,
,Move,canvas.Screen,0_1_0_16,down,response,,58571.09999990463,58569.011,58585.688,58925.5,339.8119999999981,58926.39999985695,2021-10-31T20:22:46.586Z,58935.576,1635711700,full,ni_sequenzen,NI_Sequenzen,17,,,,,,,,,,,,,
,Move,canvas.Screen,0_1_0_17,down,response,,58929.89999985695,58918.96,58935.576,59191.299999952316,255.72399995231535,59192.200000047684,2021-10-31T20:22:46.852Z,59202.344,1635711700,full,ni_sequenzen,NI_Sequenzen,18,,,,,,,,,,,,,
,Move,canvas.Screen,0_1_0_18,left,response,,59195.5,59185.532,59202.344,59693.5,491.1560000000027,59694.5,2021-10-31T20:22:47.354Z,59718.701,1635711700,full,ni_sequenzen,NI_Sequenzen,19,,,,,,,,,,,,,
,Move,canvas.Screen,0_1_0_19,right,response,,59698.799999952316,59685.43,59718.701,60157.39999985695,438.6989998569479,60158.39999985695,2021-10-31T20:22:47.818Z,60168.912,1635711700,full,ni_sequenzen,NI_Sequenzen,20,,,,,,,,,,,,,
,Move,canvas.Screen,0_1_0_20,left,response,,60162.59999990463,60151.9,60168.912,61629.299999952316,1460.3879999523197,61630.09999990463,2021-10-31T20:22:49.290Z,61666.613,1635711700,full,ni_sequenzen,NI_Sequenzen,21,,,,,,,,,,,,,
,Move,canvas.Screen,0_1_0_21,down,response,,61633.5,61618.098,61666.613,62205.39999985695,538.7869998569513,62206.299999952316,2021-10-31T20:22:49.866Z,62217.947,1635711700,full,ni_sequenzen,NI_Sequenzen,22,,,,,,,,,,,,,
,Move,canvas.Screen,0_1_0_22,down,response,,62209.700000047684,62201.28,62217.947,62573.89999985695,355.95299985694874,62574.799999952316,2021-10-31T20:22:50.234Z,62584.526,1635711700,full,ni_sequenzen,NI_Sequenzen,23,,,,,,,,,,,,,
,Move,canvas.Screen,0_1_0_23,down,response,,62578.799999952316,62567.835,62584.526,62789.299999952316,204.77399995231826,62790.200000047684,2021-10-31T20:22:50.450Z,62801.181,1635711700,full,ni_sequenzen,NI_Sequenzen,24,,,,,,,,,,,,,
,Move,canvas.Screen,0_1_0_24,right,response,,62793.799999952316,62784.485,62801.181,63269.5,468.31900000000314,63270.39999985695,2021-10-31T20:22:50.930Z,63284.348,1635711700,full,ni_sequenzen,NI_Sequenzen,25,,,,,,,,,,,,,
,Move,canvas.Screen,0_1_0_25,right,response,,63274,63267.646,63284.348,64237.39999985695,953.0519998569507,64238.39999985695,2021-10-31T20:22:51.898Z,64250.709,1635711700,full,ni_sequenzen,NI_Sequenzen,26,,,,,,,,,,,,,
,Move,canvas.Screen,0_1_0_26,right,response,,64243.5,64234.015,64250.709,64629.5,378.79099999999744,64630.39999985695,2021-10-31T20:22:52.290Z,64650.6,1635711700,full,ni_sequenzen,NI_Sequenzen,27,,,,,,,,,,,,,
,Move,canvas.Screen,0_1_0_27,left,response,,64633.59999990463,64633.905,64650.6,65327.799999952316,677.1999999523177,65328.700000047684,2021-10-31T20:22:52.988Z,65350.381,1635711700,full,ni_sequenzen,NI_Sequenzen,28,,,,,,,,,,,,,
,Move,canvas.Screen,0_1_0_28,down,response,,65332.09999990463,65317.053,65350.381,66485.5,1135.1189999999988,66486.5,2021-10-31T20:22:54.146Z,66500.068,1635711700,full,ni_sequenzen,NI_Sequenzen,29,,,,,,,,,,,,,
,Move,canvas.Screen,0_1_0_29,down,response,,66490.5,66483.284,66500.068,66805.39999985695,305.33199985694955,66806.29999995232,2021-10-31T20:22:54.466Z,66899.899,1635711700,full,ni_sequenzen,NI_Sequenzen,30,,,,,,,,,,,,,
,Loop,flow.Loop,0_1_0,-999,completion,,46341.09999990463,46439.108,46455.997,66805.39999985695,20349.402999856946,66806.59999990463,2021-10-31T20:22:54.466Z,66899.899,1635711700,full,ni_sequenzen,NI_Sequenzen,,,,,,,,,,,,,,
,Training_I,flow.Sequence,0_1,,completion,,46318.59999990463,46439.108,46455.997,66805.39999985695,20349.402999856946,66806.79999995232,2021-10-31T20:22:54.466Z,66899.899,1635711700,full,ni_sequenzen,NI_Sequenzen,,,,,,,,,,,,,,
,Screen_1,canvas.Screen,0_2_0_0,cont,response,1,66896,66883.229,66899.899,73349.79999995232,6449.900999952311,73351.09999990463,2021-10-31T20:23:01.011Z,73497.954,1635711700,full,ni_sequenzen,NI_Sequenzen,,,,,,,,,,,,,,
,Screen_2,canvas.Screen,0_2_0_1,cont,response,1,73475.5,73464.355,73497.954,81957.39999985695,8459.445999856951,81958.29999995232,2021-10-31T20:23:09.618Z,81978.845,1635711700,full,ni_sequenzen,NI_Sequenzen,,,,,,,,,,,,,,
,Screen_3,canvas.Screen,0_2_0_2,cont,response,1,81964,81961.761,81978.845,90589.79999995232,8610.954999952315,90590.59999990463,2021-10-31T20:23:18.250Z,90676.28,1635711700,full,ni_sequenzen,NI_Sequenzen,,,,,,,,,,,,,,
,Screen_4,canvas.Screen,0_2_0_3,cont,response,1,90664.20000004768,90659.153,90676.28,98005.39999985695,7329.11999985695,98006.20000004768,2021-10-31T20:23:25.666Z,98024.019,1635711700,full,ni_sequenzen,NI_Sequenzen,,,,,,,,,,,,,,
,Screen_5,canvas.Screen,0_2_0_4,cont,response,1,98011.09999990463,98007.035,98024.019,105077.79999995232,7053.780999952316,105078.59999990463,2021-10-31T20:23:32.726Z,105205.339,1635711700,full,ni_sequenzen,NI_Sequenzen,,,,,,,,,,,,,,
,Screen_6,canvas.Screen,0_2_0_5,cont,response,1,105193.5,105188.259,105205.339,111942.20000004768,6736.8610000476765,111943,2021-10-31T20:23:39.590Z,112469.731,1635711700,full,ni_sequenzen,NI_Sequenzen,,,,,,,,,,,,,,
,Sequence,flow.Sequence,0_2_0,,completion,1,66892.59999990463,66883.229,66899.899,111942.20000004768,45042.30100004768,111945.09999990463,2021-10-31T20:23:39.592Z,112469.731,1635711700,full,ni_sequenzen,NI_Sequenzen,,,,,,,,,,,,,,
,Screen_1,canvas.Screen,0_2_1_0,,skipped,2,111950.59999990463,,,111950.59999990463,,111950.79999995232,2021-10-31T20:23:39.598Z,112469.731,1635711700,full,ni_sequenzen,NI_Sequenzen,,,,,,,,,,,,,,
,Screen_2,canvas.Screen,0_2_1_1,,skipped,2,111953.20000004768,,,111950.59999990463,,111953.5,2021-10-31T20:23:39.601Z,112469.731,1635711700,full,ni_sequenzen,NI_Sequenzen,,,,,,,,,,,,,,
,Screen_3,canvas.Screen,0_2_1_2,,skipped,2,111956.29999995232,,,111950.59999990463,,111956.59999990463,2021-10-31T20:23:39.604Z,112469.731,1635711700,full,ni_sequenzen,NI_Sequenzen,,,,,,,,,,,,,,
,Screen_4,canvas.Screen,0_2_1_3,,skipped,2,111959,,,111950.59999990463,,111959.20000004768,2021-10-31T20:23:39.606Z,112469.731,1635711700,full,ni_sequenzen,NI_Sequenzen,,,,,,,,,,,,,,
,Screen_5,canvas.Screen,0_2_1_4,,skipped,2,111961.59999990463,,,111950.59999990463,,111961.89999985695,2021-10-31T20:23:39.609Z,112469.731,1635711700,full,ni_sequenzen,NI_Sequenzen,,,,,,,,,,,,,,
,Screen_6,canvas.Screen,0_2_1_5,,skipped,2,111964.5,,,111950.59999990463,,111964.59999990463,2021-10-31T20:23:39.612Z,112469.731,1635711700,full,ni_sequenzen,NI_Sequenzen,,,,,,,,,,,,,,
,Sequence,flow.Sequence,0_2_1,,completion,2,111947.79999995232,,,111950.59999990463,,111965.09999990463,2021-10-31T20:23:39.612Z,112469.731,1635711700,full,ni_sequenzen,NI_Sequenzen,,,,,,,,,,,,,,
,Screen_1,canvas.Screen,0_2_2_0,,skipped,3,111967.79999995232,,,111967.79999995232,,111968.09999990463,2021-10-31T20:23:39.615Z,112469.731,1635711700,full,ni_sequenzen,NI_Sequenzen,,,,,,,,,,,,,,
,Screen_2,canvas.Screen,0_2_2_1,,skipped,3,111970.70000004768,,,111967.79999995232,,111971,2021-10-31T20:23:39.618Z,112469.731,1635711700,full,ni_sequenzen,NI_Sequenzen,,,,,,,,,,,,,,
,Screen_3,canvas.Screen,0_2_2_2,,skipped,3,111973.29999995232,,,111967.79999995232,,111973.5,2021-10-31T20:23:39.621Z,112469.731,1635711700,full,ni_sequenzen,NI_Sequenzen,,,,,,,,,,,,,,
,Screen_4,canvas.Screen,0_2_2_3,,skipped,3,111977.09999990463,,,111967.79999995232,,111977.29999995232,2021-10-31T20:23:39.624Z,112469.731,1635711700,full,ni_sequenzen,NI_Sequenzen,,,,,,,,,,,,,,
,Screen_5,canvas.Screen,0_2_2_4,,skipped,3,111979.29999995232,,,111967.79999995232,,111979.59999990463,2021-10-31T20:23:39.627Z,112469.731,1635711700,full,ni_sequenzen,NI_Sequenzen,,,,,,,,,,,,,,
,Screen_6,canvas.Screen,0_2_2_5,,skipped,3,111981.5,,,111967.79999995232,,111981.70000004768,2021-10-31T20:23:39.629Z,112469.731,1635711700,full,ni_sequenzen,NI_Sequenzen,,,,,,,,,,,,,,
,Sequence,flow.Sequence,0_2_2,,completion,3,111966,,,111967.79999995232,,111982,2021-10-31T20:23:39.629Z,112469.731,1635711700,full,ni_sequenzen,NI_Sequenzen,,,,,,,,,,,,,,
,Screen_1,canvas.Screen,0_2_3_0,,skipped,4,111984.79999995232,,,111984.79999995232,,111984.89999985695,2021-10-31T20:23:39.632Z,112469.731,1635711700,full,ni_sequenzen,NI_Sequenzen,,,,,,,,,,,,,,
,Screen_2,canvas.Screen,0_2_3_1,,skipped,4,111987.20000004768,,,111984.79999995232,,111987.39999985695,2021-10-31T20:23:39.635Z,112469.731,1635711700,full,ni_sequenzen,NI_Sequenzen,,,,,,,,,,,,,,
,Screen_3,canvas.Screen,0_2_3_2,,skipped,4,111989.5,,,111984.79999995232,,111989.70000004768,2021-10-31T20:23:39.637Z,112469.731,1635711700,full,ni_sequenzen,NI_Sequenzen,,,,,,,,,,,,,,
,Screen_4,canvas.Screen,0_2_3_3,,skipped,4,111991.70000004768,,,111984.79999995232,,111991.89999985695,2021-10-31T20:23:39.639Z,112469.731,1635711700,full,ni_sequenzen,NI_Sequenzen,,,,,,,,,,,,,,
,Screen_5,canvas.Screen,0_2_3_4,,skipped,4,111993.79999995232,,,111984.79999995232,,111994,2021-10-31T20:23:39.641Z,112469.731,1635711700,full,ni_sequenzen,NI_Sequenzen,,,,,,,,,,,,,,
,Screen_6,canvas.Screen,0_2_3_5,,skipped,4,111996.09999990463,,,111984.79999995232,,111996.20000004768,2021-10-31T20:23:39.643Z,112469.731,1635711700,full,ni_sequenzen,NI_Sequenzen,,,,,,,,,,,,,,
,Sequence,flow.Sequence,0_2_3,,completion,4,111982.89999985695,,,111984.79999995232,,111996.59999990463,2021-10-31T20:23:39.644Z,112469.731,1635711700,full,ni_sequenzen,NI_Sequenzen,,,,,,,,,,,,,,
,Screen_1,canvas.Screen,0_2_4_0,,skipped,5,111999.09999990463,,,111999.09999990463,,111999.29999995232,2021-10-31T20:23:39.647Z,112469.731,1635711700,full,ni_sequenzen,NI_Sequenzen,,,,,,,,,,,,,,
,Screen_2,canvas.Screen,0_2_4_1,,skipped,5,112001.29999995232,,,111999.09999990463,,112001.70000004768,2021-10-31T20:23:39.649Z,112469.731,1635711700,full,ni_sequenzen,NI_Sequenzen,,,,,,,,,,,,,,
,Screen_3,canvas.Screen,0_2_4_2,,skipped,5,112003.89999985695,,,111999.09999990463,,112004.20000004768,2021-10-31T20:23:39.651Z,112469.731,1635711700,full,ni_sequenzen,NI_Sequenzen,,,,,,,,,,,,,,
,Screen_4,canvas.Screen,0_2_4_3,,skipped,5,112006.5,,,111999.09999990463,,112006.59999990463,2021-10-31T20:23:39.654Z,112469.731,1635711700,full,ni_sequenzen,NI_Sequenzen,,,,,,,,,,,,,,
,Screen_5,canvas.Screen,0_2_4_4,,skipped,5,112008.70000004768,,,111999.09999990463,,112008.89999985695,2021-10-31T20:23:39.656Z,112469.731,1635711700,full,ni_sequenzen,NI_Sequenzen,,,,,,,,,,,,,,
,Screen_6,canvas.Screen,0_2_4_5,,skipped,5,112010.89999985695,,,111999.09999990463,,112011.09999990463,2021-10-31T20:23:39.658Z,112469.731,1635711700,full,ni_sequenzen,NI_Sequenzen,,,,,,,,,,,,,,
,Sequence,flow.Sequence,0_2_4,,completion,5,111997.39999985695,,,111999.09999990463,,112011.5,2021-10-31T20:23:39.659Z,112469.731,1635711700,full,ni_sequenzen,NI_Sequenzen,,,,,,,,,,,,,,
,Screen_1,canvas.Screen,0_2_5_0,,skipped,6,112015.79999995232,,,112015.79999995232,,112016,2021-10-31T20:23:39.663Z,112469.731,1635711700,full,ni_sequenzen,NI_Sequenzen,,,,,,,,,,,,,,
,Screen_2,canvas.Screen,0_2_5_1,,skipped,6,112017.89999985695,,,112015.79999995232,,112018.39999985695,2021-10-31T20:23:39.666Z,112469.731,1635711700,full,ni_sequenzen,NI_Sequenzen,,,,,,,,,,,,,,
,Screen_3,canvas.Screen,0_2_5_2,,skipped,6,112020.59999990463,,,112015.79999995232,,112020.79999995232,2021-10-31T20:23:39.668Z,112469.731,1635711700,full,ni_sequenzen,NI_Sequenzen,,,,,,,,,,,,,,
,Screen_4,canvas.Screen,0_2_5_3,,skipped,6,112022.79999995232,,,112015.79999995232,,112023.09999990463,2021-10-31T20:23:39.670Z,112469.731,1635711700,full,ni_sequenzen,NI_Sequenzen,,,,,,,,,,,,,,
,Screen_5,canvas.Screen,0_2_5_4,,skipped,6,112025.39999985695,,,112015.79999995232,,112025.5,2021-10-31T20:23:39.673Z,112469.731,1635711700,full,ni_sequenzen,NI_Sequenzen,,,,,,,,,,,,,,
,Screen_6,canvas.Screen,0_2_5_5,,skipped,6,112027.39999985695,,,112015.79999995232,,112027.70000004768,2021-10-31T20:23:39.675Z,112469.731,1635711700,full,ni_sequenzen,NI_Sequenzen,,,,,,,,,,,,,,
,Sequence,flow.Sequence,0_2_5,,completion,6,112012.29999995232,,,112015.79999995232,,112028,2021-10-31T20:23:39.675Z,112469.731,1635711700,full,ni_sequenzen,NI_Sequenzen,,,,,,,,,,,,,,
,Screen_1,canvas.Screen,0_2_6_0,,skipped,7,112030.70000004768,,,112030.70000004768,,112030.89999985695,2021-10-31T20:23:39.678Z,112469.731,1635711700,full,ni_sequenzen,NI_Sequenzen,,,,,,,,,,,,,,
,Screen_2,canvas.Screen,0_2_6_1,,skipped,7,112032.79999995232,,,112030.70000004768,,112033,2021-10-31T20:23:39.680Z,112469.731,1635711700,full,ni_sequenzen,NI_Sequenzen,,,,,,,,,,,,,,
,Screen_3,canvas.Screen,0_2_6_2,,skipped,7,112035.39999985695,,,112030.70000004768,,112035.70000004768,2021-10-31T20:23:39.683Z,112469.731,1635711700,full,ni_sequenzen,NI_Sequenzen,,,,,,,,,,,,,,
,Screen_4,canvas.Screen,0_2_6_3,,skipped,7,112037.59999990463,,,112030.70000004768,,112037.89999985695,2021-10-31T20:23:39.685Z,112469.731,1635711700,full,ni_sequenzen,NI_Sequenzen,,,,,,,,,,,,,,
,Screen_5,canvas.Screen,0_2_6_4,,skipped,7,112039.89999985695,,,112030.70000004768,,112040,2021-10-31T20:23:39.687Z,112469.731,1635711700,full,ni_sequenzen,NI_Sequenzen,,,,,,,,,,,,,,
,Screen_6,canvas.Screen,0_2_6_5,,skipped,7,112042,,,112030.70000004768,,112042.29999995232,2021-10-31T20:23:39.689Z,112469.731,1635711700,full,ni_sequenzen,NI_Sequenzen,,,,,,,,,,,,,,
,Sequence,flow.Sequence,0_2_6,,completion,7,112028.89999985695,,,112030.70000004768,,112042.5,2021-10-31T20:23:39.690Z,112469.731,1635711700,full,ni_sequenzen,NI_Sequenzen,,,,,,,,,,,,,,
,Screen_1,canvas.Screen,0_2_7_0,,skipped,8,112045.70000004768,,,112045.70000004768,,112046,2021-10-31T20:23:39.693Z,112469.731,1635711700,full,ni_sequenzen,NI_Sequenzen,,,,,,,,,,,,,,
,Screen_2,canvas.Screen,0_2_7_1,,skipped,8,112049.89999985695,,,112045.70000004768,,112050.09999990463,2021-10-31T20:23:39.697Z,112469.731,1635711700,full,ni_sequenzen,NI_Sequenzen,,,,,,,,,,,,,,
,Screen_3,canvas.Screen,0_2_7_2,,skipped,8,112052.20000004768,,,112045.70000004768,,112052.39999985695,2021-10-31T20:23:39.700Z,112469.731,1635711700,full,ni_sequenzen,NI_Sequenzen,,,,,,,,,,,,,,
,Screen_4,canvas.Screen,0_2_7_3,,skipped,8,112054.5,,,112045.70000004768,,112054.59999990463,2021-10-31T20:23:39.702Z,112469.731,1635711700,full,ni_sequenzen,NI_Sequenzen,,,,,,,,,,,,,,
,Screen_5,canvas.Screen,0_2_7_4,,skipped,8,112056.70000004768,,,112045.70000004768,,112056.79999995232,2021-10-31T20:23:39.704Z,112469.731,1635711700,full,ni_sequenzen,NI_Sequenzen,,,,,,,,,,,,,,
,Screen_6,canvas.Screen,0_2_7_5,,skipped,8,112058.89999985695,,,112045.70000004768,,112059.09999990463,2021-10-31T20:23:39.706Z,112469.731,1635711700,full,ni_sequenzen,NI_Sequenzen,,,,,,,,,,,,,,
,Sequence,flow.Sequence,0_2_7,,completion,8,112043.39999985695,,,112045.70000004768,,112059.39999985695,2021-10-31T20:23:39.707Z,112469.731,1635711700,full,ni_sequenzen,NI_Sequenzen,,,,,,,,,,,,,,
,Screen_1,canvas.Screen,0_2_8_0,,skipped,9,112062,,,112062,,112062.20000004768,2021-10-31T20:23:39.709Z,112469.731,1635711700,full,ni_sequenzen,NI_Sequenzen,,,,,,,,,,,,,,
,Screen_2,canvas.Screen,0_2_8_1,,skipped,9,112064.20000004768,,,112062,,112064.5,2021-10-31T20:23:39.712Z,112469.731,1635711700,full,ni_sequenzen,NI_Sequenzen,,,,,,,,,,,,,,
,Screen_3,canvas.Screen,0_2_8_2,,skipped,9,112066.89999985695,,,112062,,112067.09999990463,2021-10-31T20:23:39.714Z,112469.731,1635711700,full,ni_sequenzen,NI_Sequenzen,,,,,,,,,,,,,,
,Screen_4,canvas.Screen,0_2_8_3,,skipped,9,112069,,,112062,,112069.20000004768,2021-10-31T20:23:39.716Z,112469.731,1635711700,full,ni_sequenzen,NI_Sequenzen,,,,,,,,,,,,,,
,Screen_5,canvas.Screen,0_2_8_4,,skipped,9,112071.29999995232,,,112062,,112071.39999985695,2021-10-31T20:23:39.719Z,112469.731,1635711700,full,ni_sequenzen,NI_Sequenzen,,,,,,,,,,,,,,
,Screen_6,canvas.Screen,0_2_8_5,,skipped,9,112073.39999985695,,,112062,,112073.59999990463,2021-10-31T20:23:39.721Z,112469.731,1635711700,full,ni_sequenzen,NI_Sequenzen,,,,,,,,,,,,,,
,Sequence,flow.Sequence,0_2_8,,completion,9,112060.20000004768,,,112062,,112074,2021-10-31T20:23:39.721Z,112469.731,1635711700,full,ni_sequenzen,NI_Sequenzen,,,,,,,,,,,,,,
,Screen_1,canvas.Screen,0_2_9_0,,skipped,10,112076.89999985695,,,112076.89999985695,,112077.09999990463,2021-10-31T20:23:39.724Z,112469.731,1635711700,full,ni_sequenzen,NI_Sequenzen,,,,,,,,,,,,,,
,Screen_2,canvas.Screen,0_2_9_1,,skipped,10,112079.09999990463,,,112076.89999985695,,112079.20000004768,2021-10-31T20:23:39.726Z,112469.731,1635711700,full,ni_sequenzen,NI_Sequenzen,,,,,,,,,,,,,,
,Screen_3,canvas.Screen,0_2_9_2,,skipped,10,112082.89999985695,,,112076.89999985695,,112083.39999985695,2021-10-31T20:23:39.731Z,112469.731,1635711700,full,ni_sequenzen,NI_Sequenzen,,,,,,,,,,,,,,
,Screen_4,canvas.Screen,0_2_9_3,,skipped,10,112086.39999985695,,,112076.89999985695,,112086.79999995232,2021-10-31T20:23:39.734Z,112469.731,1635711700,full,ni_sequenzen,NI_Sequenzen,,,,,,,,,,,,,,
,Screen_5,canvas.Screen,0_2_9_4,,skipped,10,112088.79999995232,,,112076.89999985695,,112089,2021-10-31T20:23:39.736Z,112469.731,1635711700,full,ni_sequenzen,NI_Sequenzen,,,,,,,,,,,,,,
,Screen_6,canvas.Screen,0_2_9_5,,skipped,10,112091.29999995232,,,112076.89999985695,,112091.5,2021-10-31T20:23:39.739Z,112469.731,1635711700,full,ni_sequenzen,NI_Sequenzen,,,,,,,,,,,,,,
,Sequence,flow.Sequence,0_2_9,,completion,10,112074.79999995232,,,112076.89999985695,,112091.79999995232,2021-10-31T20:23:39.739Z,112469.731,1635711700,full,ni_sequenzen,NI_Sequenzen,,,,,,,,,,,,,,
,Screen_1,canvas.Screen,0_2_10_0,,skipped,11,112094.39999985695,,,112094.39999985695,,112094.70000004768,2021-10-31T20:23:39.742Z,112469.731,1635711700,full,ni_sequenzen,NI_Sequenzen,,,,,,,,,,,,,,
,Screen_2,canvas.Screen,0_2_10_1,,skipped,11,112097.5,,,112094.39999985695,,112097.59999990463,2021-10-31T20:23:39.745Z,112469.731,1635711700,full,ni_sequenzen,NI_Sequenzen,,,,,,,,,,,,,,
,Screen_3,canvas.Screen,0_2_10_2,,skipped,11,112099.59999990463,,,112094.39999985695,,112099.89999985695,2021-10-31T20:23:39.747Z,112469.731,1635711700,full,ni_sequenzen,NI_Sequenzen,,,,,,,,,,,,,,
,Screen_4,canvas.Screen,0_2_10_3,,skipped,11,112101.79999995232,,,112094.39999985695,,112102,2021-10-31T20:23:39.749Z,112469.731,1635711700,full,ni_sequenzen,NI_Sequenzen,,,,,,,,,,,,,,
,Screen_5,canvas.Screen,0_2_10_4,,skipped,11,112104.20000004768,,,112094.39999985695,,112104.39999985695,2021-10-31T20:23:39.752Z,112469.731,1635711700,full,ni_sequenzen,NI_Sequenzen,,,,,,,,,,,,,,
,Screen_6,canvas.Screen,0_2_10_5,,skipped,11,112106.59999990463,,,112094.39999985695,,112106.89999985695,2021-10-31T20:23:39.754Z,112469.731,1635711700,full,ni_sequenzen,NI_Sequenzen,,,,,,,,,,,,,,
,Sequence,flow.Sequence,0_2_10,,completion,11,112092.70000004768,,,112094.39999985695,,112107.29999995232,2021-10-31T20:23:39.754Z,112469.731,1635711700,full,ni_sequenzen,NI_Sequenzen,,,,,,,,,,,,,,
,Screen_1,canvas.Screen,0_2_11_0,,skipped,12,112110.29999995232,,,112110.29999995232,,112110.5,2021-10-31T20:23:39.758Z,112469.731,1635711700,full,ni_sequenzen,NI_Sequenzen,,,,,,,,,,,,,,
,Screen_2,canvas.Screen,0_2_11_1,,skipped,12,112112.79999995232,,,112110.29999995232,,112113,2021-10-31T20:23:39.760Z,112469.731,1635711700,full,ni_sequenzen,NI_Sequenzen,,,,,,,,,,,,,,
,Screen_3,canvas.Screen,0_2_11_2,,skipped,12,112115.09999990463,,,112110.29999995232,,112115.29999995232,2021-10-31T20:23:39.762Z,112469.731,1635711700,full,ni_sequenzen,NI_Sequenzen,,,,,,,,,,,,,,
,Screen_4,canvas.Screen,0_2_11_3,,skipped,12,112117.29999995232,,,112110.29999995232,,112117.5,2021-10-31T20:23:39.765Z,112469.731,1635711700,full,ni_sequenzen,NI_Sequenzen,,,,,,,,,,,,,,
,Screen_5,canvas.Screen,0_2_11_4,,skipped,12,112120.79999995232,,,112110.29999995232,,112121,2021-10-31T20:23:39.768Z,112469.731,1635711700,full,ni_sequenzen,NI_Sequenzen,,,,,,,,,,,,,,
,Screen_6,canvas.Screen,0_2_11_5,,skipped,12,112123.09999990463,,,112110.29999995232,,112123.29999995232,2021-10-31T20:23:39.770Z,112469.731,1635711700,full,ni_sequenzen,NI_Sequenzen,,,,,,,,,,,,,,
,Sequence,flow.Sequence,0_2_11,,completion,12,112108.39999985695,,,112110.29999995232,,112123.59999990463,2021-10-31T20:23:39.771Z,112469.731,1635711700,full,ni_sequenzen,NI_Sequenzen,,,,,,,,,,,,,,
,Screen_1,canvas.Screen,0_2_12_0,,skipped,13,112126.5,,,112126.5,,112126.79999995232,2021-10-31T20:23:39.774Z,112469.731,1635711700,full,ni_sequenzen,NI_Sequenzen,,,,,,,,,,,,,,
,Screen_2,canvas.Screen,0_2_12_1,,skipped,13,112128.89999985695,,,112126.5,,112129,2021-10-31T20:23:39.776Z,112469.731,1635711700,full,ni_sequenzen,NI_Sequenzen,,,,,,,,,,,,,,
,Screen_3,canvas.Screen,0_2_12_2,,skipped,13,112131.09999990463,,,112126.5,,112131.39999985695,2021-10-31T20:23:39.779Z,112469.731,1635711700,full,ni_sequenzen,NI_Sequenzen,,,,,,,,,,,,,,
,Screen_4,canvas.Screen,0_2_12_3,,skipped,13,112133.29999995232,,,112126.5,,112133.5,2021-10-31T20:23:39.781Z,112469.731,1635711700,full,ni_sequenzen,NI_Sequenzen,,,,,,,,,,,,,,
,Screen_5,canvas.Screen,0_2_12_4,,skipped,13,112135.59999990463,,,112126.5,,112135.79999995232,2021-10-31T20:23:39.783Z,112469.731,1635711700,full,ni_sequenzen,NI_Sequenzen,,,,,,,,,,,,,,
,Screen_6,canvas.Screen,0_2_12_5,,skipped,13,112137.79999995232,,,112126.5,,112138,2021-10-31T20:23:39.785Z,112469.731,1635711700,full,ni_sequenzen,NI_Sequenzen,,,,,,,,,,,,,,
,Sequence,flow.Sequence,0_2_12,,completion,13,112124.5,,,112126.5,,112138.29999995232,2021-10-31T20:23:39.785Z,112469.731,1635711700,full,ni_sequenzen,NI_Sequenzen,,,,,,,,,,,,,,
,Screen_1,canvas.Screen,0_2_13_0,,skipped,14,112140.89999985695,,,112140.89999985695,,112141.09999990463,2021-10-31T20:23:39.788Z,112469.731,1635711700,full,ni_sequenzen,NI_Sequenzen,,,,,,,,,,,,,,
,Screen_2,canvas.Screen,0_2_13_1,,skipped,14,112143.09999990463,,,112140.89999985695,,112143.39999985695,2021-10-31T20:23:39.791Z,112469.731,1635711700,full,ni_sequenzen,NI_Sequenzen,,,,,,,,,,,,,,
,Screen_3,canvas.Screen,0_2_13_2,,skipped,14,112145.29999995232,,,112140.89999985695,,112145.59999990463,2021-10-31T20:23:39.793Z,112469.731,1635711700,full,ni_sequenzen,NI_Sequenzen,,,,,,,,,,,,,,
,Screen_4,canvas.Screen,0_2_13_3,,skipped,14,112147.39999985695,,,112140.89999985695,,112147.59999990463,2021-10-31T20:23:39.795Z,112469.731,1635711700,full,ni_sequenzen,NI_Sequenzen,,,,,,,,,,,,,,
,Screen_5,canvas.Screen,0_2_13_4,,skipped,14,112149.59999990463,,,112140.89999985695,,112149.79999995232,2021-10-31T20:23:39.797Z,112469.731,1635711700,full,ni_sequenzen,NI_Sequenzen,,,,,,,,,,,,,,
,Screen_6,canvas.Screen,0_2_13_5,,skipped,14,112153.20000004768,,,112140.89999985695,,112153.39999985695,2021-10-31T20:23:39.801Z,112469.731,1635711700,full,ni_sequenzen,NI_Sequenzen,,,,,,,,,,,,,,
,Sequence,flow.Sequence,0_2_13,,completion,14,112139.20000004768,,,112140.89999985695,,112153.59999990463,2021-10-31T20:23:39.801Z,112469.731,1635711700,full,ni_sequenzen,NI_Sequenzen,,,,,,,,,,,,,,
,Screen_1,canvas.Screen,0_2_14_0,,skipped,15,112156.59999990463,,,112156.59999990463,,112156.79999995232,2021-10-31T20:23:39.804Z,112469.731,1635711700,full,ni_sequenzen,NI_Sequenzen,,,,,,,,,,,,,,
,Screen_2,canvas.Screen,0_2_14_1,,skipped,15,112158.89999985695,,,112156.59999990463,,112159.20000004768,2021-10-31T20:23:39.806Z,112469.731,1635711700,full,ni_sequenzen,NI_Sequenzen,,,,,,,,,,,,,,
,Screen_3,canvas.Screen,0_2_14_2,,skipped,15,112161,,,112156.59999990463,,112161.20000004768,2021-10-31T20:23:39.808Z,112469.731,1635711700,full,ni_sequenzen,NI_Sequenzen,,,,,,,,,,,,,,
,Screen_4,canvas.Screen,0_2_14_3,,skipped,15,112163.5,,,112156.59999990463,,112163.79999995232,2021-10-31T20:23:39.811Z,112469.731,1635711700,full,ni_sequenzen,NI_Sequenzen,,,,,,,,,,,,,,
,Screen_5,canvas.Screen,0_2_14_4,,skipped,15,112165.70000004768,,,112156.59999990463,,112166,2021-10-31T20:23:39.813Z,112469.731,1635711700,full,ni_sequenzen,NI_Sequenzen,,,,,,,,,,,,,,
,Screen_6,canvas.Screen,0_2_14_5,,skipped,15,112167.89999985695,,,112156.59999990463,,112168.20000004768,2021-10-31T20:23:39.815Z,112469.731,1635711700,full,ni_sequenzen,NI_Sequenzen,,,,,,,,,,,,,,
,Sequence,flow.Sequence,0_2_14,,completion,15,112154.5,,,112156.59999990463,,112168.5,2021-10-31T20:23:39.816Z,112469.731,1635711700,full,ni_sequenzen,NI_Sequenzen,,,,,,,,,,,,,,
,Screen_1,canvas.Screen,0_2_15_0,,skipped,16,112171.09999990463,,,112171.29999995232,,112171.5,2021-10-31T20:23:39.819Z,112469.731,1635711700,full,ni_sequenzen,NI_Sequenzen,,,,,,,,,,,,,,
,Screen_2,canvas.Screen,0_2_15_1,,skipped,16,112173.89999985695,,,112171.29999995232,,112174.09999990463,2021-10-31T20:23:39.821Z,112469.731,1635711700,full,ni_sequenzen,NI_Sequenzen,,,,,,,,,,,,,,
,Screen_3,canvas.Screen,0_2_15_2,,skipped,16,112176.29999995232,,,112171.29999995232,,112176.70000004768,2021-10-31T20:23:39.824Z,112469.731,1635711700,full,ni_sequenzen,NI_Sequenzen,,,,,,,,,,,,,,
,Screen_4,canvas.Screen,0_2_15_3,,skipped,16,112179.09999990463,,,112171.29999995232,,112179.29999995232,2021-10-31T20:23:39.826Z,112469.731,1635711700,full,ni_sequenzen,NI_Sequenzen,,,,,,,,,,,,,,
,Screen_5,canvas.Screen,0_2_15_4,,skipped,16,112181.29999995232,,,112171.29999995232,,112181.5,2021-10-31T20:23:39.829Z,112469.731,1635711700,full,ni_sequenzen,NI_Sequenzen,,,,,,,,,,,,,,
,Screen_6,canvas.Screen,0_2_15_5,,skipped,16,112183.5,,,112171.29999995232,,112183.70000004768,2021-10-31T20:23:39.831Z,112469.731,1635711700,full,ni_sequenzen,NI_Sequenzen,,,,,,,,,,,,,,
,Sequence,flow.Sequence,0_2_15,,completion,16,112169.39999985695,,,112171.29999995232,,112184,2021-10-31T20:23:39.831Z,112469.731,1635711700,full,ni_sequenzen,NI_Sequenzen,,,,,,,,,,,,,,
,Screen_1,canvas.Screen,0_2_16_0,,skipped,17,112187.89999985695,,,112188,,112188.20000004768,2021-10-31T20:23:39.835Z,112469.731,1635711700,full,ni_sequenzen,NI_Sequenzen,,,,,,,,,,,,,,
,Screen_2,canvas.Screen,0_2_16_1,,skipped,17,112190.20000004768,,,112188,,112190.5,2021-10-31T20:23:39.838Z,112469.731,1635711700,full,ni_sequenzen,NI_Sequenzen,,,,,,,,,,,,,,
,Screen_3,canvas.Screen,0_2_16_2,,skipped,17,112192.39999985695,,,112188,,112192.5,2021-10-31T20:23:39.840Z,112469.731,1635711700,full,ni_sequenzen,NI_Sequenzen,,,,,,,,,,,,,,
,Screen_4,canvas.Screen,0_2_16_3,,skipped,17,112194.39999985695,,,112188,,112194.59999990463,2021-10-31T20:23:39.842Z,112469.731,1635711700,full,ni_sequenzen,NI_Sequenzen,,,,,,,,,,,,,,
,Screen_5,canvas.Screen,0_2_16_4,,skipped,17,112196.70000004768,,,112188,,112196.89999985695,2021-10-31T20:23:39.844Z,112469.731,1635711700,full,ni_sequenzen,NI_Sequenzen,,,,,,,,,,,,,,
,Screen_6,canvas.Screen,0_2_16_5,,skipped,17,112198.89999985695,,,112188,,112199.09999990463,2021-10-31T20:23:39.846Z,112469.731,1635711700,full,ni_sequenzen,NI_Sequenzen,,,,,,,,,,,,,,
,Sequence,flow.Sequence,0_2_16,,completion,17,112184.79999995232,,,112188,,112199.39999985695,2021-10-31T20:23:39.847Z,112469.731,1635711700,full,ni_sequenzen,NI_Sequenzen,,,,,,,,,,,,,,
,Screen_1,canvas.Screen,0_2_17_0,,skipped,18,112202,,,112202.09999990463,,112202.29999995232,2021-10-31T20:23:39.849Z,112469.731,1635711700,full,ni_sequenzen,NI_Sequenzen,,,,,,,,,,,,,,
,Screen_2,canvas.Screen,0_2_17_1,,skipped,18,112204.5,,,112202.09999990463,,112204.70000004768,2021-10-31T20:23:39.852Z,112469.731,1635711700,full,ni_sequenzen,NI_Sequenzen,,,,,,,,,,,,,,
,Screen_3,canvas.Screen,0_2_17_2,,skipped,18,112206.70000004768,,,112202.09999990463,,112206.89999985695,2021-10-31T20:23:39.854Z,112469.731,1635711700,full,ni_sequenzen,NI_Sequenzen,,,,,,,,,,,,,,
,Screen_4,canvas.Screen,0_2_17_3,,skipped,18,112208.79999995232,,,112202.09999990463,,112209.09999990463,2021-10-31T20:23:39.856Z,112469.731,1635711700,full,ni_sequenzen,NI_Sequenzen,,,,,,,,,,,,,,
,Screen_5,canvas.Screen,0_2_17_4,,skipped,18,112211,,,112202.09999990463,,112211.20000004768,2021-10-31T20:23:39.858Z,112469.731,1635711700,full,ni_sequenzen,NI_Sequenzen,,,,,,,,,,,,,,
,Screen_6,canvas.Screen,0_2_17_5,,skipped,18,112213.20000004768,,,112202.09999990463,,112213.39999985695,2021-10-31T20:23:39.861Z,112469.731,1635711700,full,ni_sequenzen,NI_Sequenzen,,,,,,,,,,,,,,
,Sequence,flow.Sequence,0_2_17,,completion,18,112200.20000004768,,,112202.09999990463,,112213.70000004768,2021-10-31T20:23:39.861Z,112469.731,1635711700,full,ni_sequenzen,NI_Sequenzen,,,,,,,,,,,,,,
,Screen_1,canvas.Screen,0_2_18_0,,skipped,19,112216.39999985695,,,112216.39999985695,,112216.59999990463,2021-10-31T20:23:39.864Z,112469.731,1635711700,full,ni_sequenzen,NI_Sequenzen,,,,,,,,,,,,,,
,Screen_2,canvas.Screen,0_2_18_1,,skipped,19,112220.09999990463,,,112216.39999985695,,112220.29999995232,2021-10-31T20:23:39.868Z,112469.731,1635711700,full,ni_sequenzen,NI_Sequenzen,,,,,,,,,,,,,,
,Screen_3,canvas.Screen,0_2_18_2,,skipped,19,112222.20000004768,,,112216.39999985695,,112222.5,2021-10-31T20:23:39.870Z,112469.731,1635711700,full,ni_sequenzen,NI_Sequenzen,,,,,,,,,,,,,,
,Screen_4,canvas.Screen,0_2_18_3,,skipped,19,112224.39999985695,,,112216.39999985695,,112224.59999990463,2021-10-31T20:23:39.872Z,112469.731,1635711700,full,ni_sequenzen,NI_Sequenzen,,,,,,,,,,,,,,
,Screen_5,canvas.Screen,0_2_18_4,,skipped,19,112226.5,,,112216.39999985695,,112226.70000004768,2021-10-31T20:23:39.874Z,112469.731,1635711700,full,ni_sequenzen,NI_Sequenzen,,,,,,,,,,,,,,
,Screen_6,canvas.Screen,0_2_18_5,,skipped,19,112228.70000004768,,,112216.39999985695,,112229,2021-10-31T20:23:39.876Z,112469.731,1635711700,full,ni_sequenzen,NI_Sequenzen,,,,,,,,,,,,,,
,Sequence,flow.Sequence,0_2_18,,completion,19,112214.5,,,112216.39999985695,,112229.29999995232,2021-10-31T20:23:39.876Z,112469.731,1635711700,full,ni_sequenzen,NI_Sequenzen,,,,,,,,,,,,,,
,Screen_1,canvas.Screen,0_2_19_0,,skipped,20,112231.89999985695,,,112231.89999985695,,112232.20000004768,2021-10-31T20:23:39.879Z,112469.731,1635711700,full,ni_sequenzen,NI_Sequenzen,,,,,,,,,,,,,,
,Screen_2,canvas.Screen,0_2_19_1,,skipped,20,112234.20000004768,,,112231.89999985695,,112234.5,2021-10-31T20:23:39.882Z,112469.731,1635711700,full,ni_sequenzen,NI_Sequenzen,,,,,,,,,,,,,,
,Screen_3,canvas.Screen,0_2_19_2,,skipped,20,112236.89999985695,,,112231.89999985695,,112237.09999990463,2021-10-31T20:23:39.884Z,112469.731,1635711700,full,ni_sequenzen,NI_Sequenzen,,,,,,,,,,,,,,
,Screen_4,canvas.Screen,0_2_19_3,,skipped,20,112239.09999990463,,,112231.89999985695,,112239.29999995232,2021-10-31T20:23:39.886Z,112469.731,1635711700,full,ni_sequenzen,NI_Sequenzen,,,,,,,,,,,,,,
,Screen_5,canvas.Screen,0_2_19_4,,skipped,20,112241.29999995232,,,112231.89999985695,,112241.5,2021-10-31T20:23:39.889Z,112469.731,1635711700,full,ni_sequenzen,NI_Sequenzen,,,,,,,,,,,,,,
,Screen_6,canvas.Screen,0_2_19_5,,skipped,20,112243.5,,,112231.89999985695,,112243.59999990463,2021-10-31T20:23:39.891Z,112469.731,1635711700,full,ni_sequenzen,NI_Sequenzen,,,,,,,,,,,,,,
,Sequence,flow.Sequence,0_2_19,,completion,20,112230.09999990463,,,112231.89999985695,,112243.89999985695,2021-10-31T20:23:39.891Z,112469.731,1635711700,full,ni_sequenzen,NI_Sequenzen,,,,,,,,,,,,,,
,Screen_1,canvas.Screen,0_2_20_0,,skipped,21,112246.5,,,112246.5,,112246.70000004768,2021-10-31T20:23:39.894Z,112469.731,1635711700,full,ni_sequenzen,NI_Sequenzen,,,,,,,,,,,,,,
,Screen_2,canvas.Screen,0_2_20_1,,skipped,21,112248.70000004768,,,112246.5,,112248.89999985695,2021-10-31T20:23:39.896Z,112469.731,1635711700,full,ni_sequenzen,NI_Sequenzen,,,,,,,,,,,,,,
,Screen_3,canvas.Screen,0_2_20_2,,skipped,21,112251.20000004768,,,112246.5,,112251.39999985695,2021-10-31T20:23:39.899Z,112469.731,1635711700,full,ni_sequenzen,NI_Sequenzen,,,,,,,,,,,,,,
,Screen_4,canvas.Screen,0_2_20_3,,skipped,21,112254.70000004768,,,112246.5,,112254.89999985695,2021-10-31T20:23:39.902Z,112469.731,1635711700,full,ni_sequenzen,NI_Sequenzen,,,,,,,,,,,,,,
,Screen_5,canvas.Screen,0_2_20_4,,skipped,21,112256.89999985695,,,112246.5,,112257.09999990463,2021-10-31T20:23:39.904Z,112469.731,1635711700,full,ni_sequenzen,NI_Sequenzen,,,,,,,,,,,,,,
,Screen_6,canvas.Screen,0_2_20_5,,skipped,21,112259.09999990463,,,112246.5,,112259.39999985695,2021-10-31T20:23:39.907Z,112469.731,1635711700,full,ni_sequenzen,NI_Sequenzen,,,,,,,,,,,,,,
,Sequence,flow.Sequence,0_2_20,,completion,21,112244.79999995232,,,112246.5,,112259.59999990463,2021-10-31T20:23:39.907Z,112469.731,1635711700,full,ni_sequenzen,NI_Sequenzen,,,,,,,,,,,,,,
,Screen_1,canvas.Screen,0_2_21_0,,skipped,22,112262.39999985695,,,112262.39999985695,,112262.70000004768,2021-10-31T20:23:39.910Z,112469.731,1635711700,full,ni_sequenzen,NI_Sequenzen,,,,,,,,,,,,,,
,Screen_2,canvas.Screen,0_2_21_1,,skipped,22,112264.59999990463,,,112262.39999985695,,112264.79999995232,2021-10-31T20:23:39.912Z,112469.731,1635711700,full,ni_sequenzen,NI_Sequenzen,,,,,,,,,,,,,,
,Screen_3,canvas.Screen,0_2_21_2,,skipped,22,112267.20000004768,,,112262.39999985695,,112267.29999995232,2021-10-31T20:23:39.915Z,112469.731,1635711700,full,ni_sequenzen,NI_Sequenzen,,,,,,,,,,,,,,
,Screen_4,canvas.Screen,0_2_21_3,,skipped,22,112269.29999995232,,,112262.39999985695,,112269.5,2021-10-31T20:23:39.917Z,112469.731,1635711700,full,ni_sequenzen,NI_Sequenzen,,,,,,,,,,,,,,
,Screen_5,canvas.Screen,0_2_21_4,,skipped,22,112271.5,,,112262.39999985695,,112271.70000004768,2021-10-31T20:23:39.919Z,112469.731,1635711700,full,ni_sequenzen,NI_Sequenzen,,,,,,,,,,,,,,
,Screen_6,canvas.Screen,0_2_21_5,,skipped,22,112274.79999995232,,,112262.39999985695,,112275.09999990463,2021-10-31T20:23:39.922Z,112469.731,1635711700,full,ni_sequenzen,NI_Sequenzen,,,,,,,,,,,,,,
,Sequence,flow.Sequence,0_2_21,,completion,22,112260.5,,,112262.39999985695,,112275.39999985695,2021-10-31T20:23:39.923Z,112469.731,1635711700,full,ni_sequenzen,NI_Sequenzen,,,,,,,,,,,,,,
,Screen_1,canvas.Screen,0_2_22_0,,skipped,23,112278.70000004768,,,112278.70000004768,,112278.79999995232,2021-10-31T20:23:39.926Z,112469.731,1635711700,full,ni_sequenzen,NI_Sequenzen,,,,,,,,,,,,,,
,Screen_2,canvas.Screen,0_2_22_1,,skipped,23,112281.29999995232,,,112278.70000004768,,112282.09999990463,2021-10-31T20:23:39.929Z,112469.731,1635711700,full,ni_sequenzen,NI_Sequenzen,,,,,,,,,,,,,,
,Screen_3,canvas.Screen,0_2_22_2,,skipped,23,112284.59999990463,,,112278.70000004768,,112284.79999995232,2021-10-31T20:23:39.932Z,112469.731,1635711700,full,ni_sequenzen,NI_Sequenzen,,,,,,,,,,,,,,
,Screen_4,canvas.Screen,0_2_22_3,,skipped,23,112286.79999995232,,,112278.70000004768,,112287.09999990463,2021-10-31T20:23:39.934Z,112469.731,1635711700,full,ni_sequenzen,NI_Sequenzen,,,,,,,,,,,,,,
,Screen_5,canvas.Screen,0_2_22_4,,skipped,23,112289.09999990463,,,112278.70000004768,,112289.39999985695,2021-10-31T20:23:39.937Z,112469.731,1635711700,full,ni_sequenzen,NI_Sequenzen,,,,,,,,,,,,,,
,Screen_6,canvas.Screen,0_2_22_5,,skipped,23,112292.5,,,112278.70000004768,,112292.70000004768,2021-10-31T20:23:39.940Z,112469.731,1635711700,full,ni_sequenzen,NI_Sequenzen,,,,,,,,,,,,,,
,Sequence,flow.Sequence,0_2_22,,completion,23,112276.39999985695,,,112278.70000004768,,112293,2021-10-31T20:23:39.940Z,112469.731,1635711700,full,ni_sequenzen,NI_Sequenzen,,,,,,,,,,,,,,
,Screen_1,canvas.Screen,0_2_23_0,,skipped,24,112295.59999990463,,,112295.59999990463,,112295.79999995232,2021-10-31T20:23:39.943Z,112469.731,1635711700,full,ni_sequenzen,NI_Sequenzen,,,,,,,,,,,,,,
,Screen_2,canvas.Screen,0_2_23_1,,skipped,24,112297.89999985695,,,112295.59999990463,,112298.09999990463,2021-10-31T20:23:39.945Z,112469.731,1635711700,full,ni_sequenzen,NI_Sequenzen,,,,,,,,,,,,,,
,Screen_3,canvas.Screen,0_2_23_2,,skipped,24,112300.09999990463,,,112295.59999990463,,112300.29999995232,2021-10-31T20:23:39.948Z,112469.731,1635711700,full,ni_sequenzen,NI_Sequenzen,,,,,,,,,,,,,,
,Screen_4,canvas.Screen,0_2_23_3,,skipped,24,112302.29999995232,,,112295.59999990463,,112302.5,2021-10-31T20:23:39.950Z,112469.731,1635711700,full,ni_sequenzen,NI_Sequenzen,,,,,,,,,,,,,,
,Screen_5,canvas.Screen,0_2_23_4,,skipped,24,112304.5,,,112295.59999990463,,112304.70000004768,2021-10-31T20:23:39.952Z,112469.731,1635711700,full,ni_sequenzen,NI_Sequenzen,,,,,,,,,,,,,,
,Screen_6,canvas.Screen,0_2_23_5,,skipped,24,112306.59999990463,,,112295.59999990463,,112306.79999995232,2021-10-31T20:23:39.954Z,112469.731,1635711700,full,ni_sequenzen,NI_Sequenzen,,,,,,,,,,,,,,
,Sequence,flow.Sequence,0_2_23,,completion,24,112293.89999985695,,,112295.59999990463,,112307.09999990463,2021-10-31T20:23:39.954Z,112469.731,1635711700,full,ni_sequenzen,NI_Sequenzen,,,,,,,,,,,,,,
,Screen_1,canvas.Screen,0_2_24_0,,skipped,25,112309.70000004768,,,112309.70000004768,,112309.89999985695,2021-10-31T20:23:39.957Z,112469.731,1635711700,full,ni_sequenzen,NI_Sequenzen,,,,,,,,,,,,,,
,Screen_2,canvas.Screen,0_2_24_1,,skipped,25,112311.89999985695,,,112309.70000004768,,112312,2021-10-31T20:23:39.959Z,112469.731,1635711700,full,ni_sequenzen,NI_Sequenzen,,,,,,,,,,,,,,
,Screen_3,canvas.Screen,0_2_24_2,,skipped,25,112314.5,,,112309.70000004768,,112314.70000004768,2021-10-31T20:23:39.962Z,112469.731,1635711700,full,ni_sequenzen,NI_Sequenzen,,,,,,,,,,,,,,
,Screen_4,canvas.Screen,0_2_24_3,,skipped,25,112316.70000004768,,,112309.70000004768,,112316.89999985695,2021-10-31T20:23:39.964Z,112469.731,1635711700,full,ni_sequenzen,NI_Sequenzen,,,,,,,,,,,,,,
,Screen_5,canvas.Screen,0_2_24_4,,skipped,25,112318.89999985695,,,112309.70000004768,,112319.09999990463,2021-10-31T20:23:39.966Z,112469.731,1635711700,full,ni_sequenzen,NI_Sequenzen,,,,,,,,,,,,,,
,Screen_6,canvas.Screen,0_2_24_5,,skipped,25,112321,,,112309.70000004768,,112321.29999995232,2021-10-31T20:23:39.968Z,112469.731,1635711700,full,ni_sequenzen,NI_Sequenzen,,,,,,,,,,,,,,
,Sequence,flow.Sequence,0_2_24,,completion,25,112307.89999985695,,,112309.70000004768,,112321.59999990463,2021-10-31T20:23:39.969Z,112469.731,1635711700,full,ni_sequenzen,NI_Sequenzen,,,,,,,,,,,,,,
,Screen_1,canvas.Screen,0_2_25_0,,skipped,26,112324.09999990463,,,112324.20000004768,,112324.29999995232,2021-10-31T20:23:39.972Z,112469.731,1635711700,full,ni_sequenzen,NI_Sequenzen,,,,,,,,,,,,,,
,Screen_2,canvas.Screen,0_2_25_1,,skipped,26,112327.5,,,112324.20000004768,,112327.79999995232,2021-10-31T20:23:39.975Z,112469.731,1635711700,full,ni_sequenzen,NI_Sequenzen,,,,,,,,,,,,,,
,Screen_3,canvas.Screen,0_2_25_2,,skipped,26,112329.79999995232,,,112324.20000004768,,112330,2021-10-31T20:23:39.977Z,112469.731,1635711700,full,ni_sequenzen,NI_Sequenzen,,,,,,,,,,,,,,
,Screen_4,canvas.Screen,0_2_25_3,,skipped,26,112332,,,112324.20000004768,,112332.20000004768,2021-10-31T20:23:39.979Z,112469.731,1635711700,full,ni_sequenzen,NI_Sequenzen,,,,,,,,,,,,,,
,Screen_5,canvas.Screen,0_2_25_4,,skipped,26,112334.20000004768,,,112324.20000004768,,112334.39999985695,2021-10-31T20:23:39.982Z,112469.731,1635711700,full,ni_sequenzen,NI_Sequenzen,,,,,,,,,,,,,,
,Screen_6,canvas.Screen,0_2_25_5,,skipped,26,112336.39999985695,,,112324.20000004768,,112336.59999990463,2021-10-31T20:23:39.984Z,112469.731,1635711700,full,ni_sequenzen,NI_Sequenzen,,,,,,,,,,,,,,
,Sequence,flow.Sequence,0_2_25,,completion,26,112322.29999995232,,,112324.20000004768,,112336.79999995232,2021-10-31T20:23:39.984Z,112469.731,1635711700,full,ni_sequenzen,NI_Sequenzen,,,,,,,,,,,,,,
,Screen_1,canvas.Screen,0_2_26_0,,skipped,27,112339.5,,,112339.5,,112339.59999990463,2021-10-31T20:23:39.987Z,112469.731,1635711700,full,ni_sequenzen,NI_Sequenzen,,,,,,,,,,,,,,
,Screen_2,canvas.Screen,0_2_26_1,,skipped,27,112341.70000004768,,,112339.5,,112341.89999985695,2021-10-31T20:23:39.989Z,112469.731,1635711700,full,ni_sequenzen,NI_Sequenzen,,,,,,,,,,,,,,
,Screen_3,canvas.Screen,0_2_26_2,,skipped,27,112344.20000004768,,,112339.5,,112344.59999990463,2021-10-31T20:23:39.992Z,112469.731,1635711700,full,ni_sequenzen,NI_Sequenzen,,,,,,,,,,,,,,
,Screen_4,canvas.Screen,0_2_26_3,,skipped,27,112347.09999990463,,,112339.5,,112347.29999995232,2021-10-31T20:23:39.995Z,112469.731,1635711700,full,ni_sequenzen,NI_Sequenzen,,,,,,,,,,,,,,
,Screen_5,canvas.Screen,0_2_26_4,,skipped,27,112349.39999985695,,,112339.5,,112349.59999990463,2021-10-31T20:23:39.997Z,112469.731,1635711700,full,ni_sequenzen,NI_Sequenzen,,,,,,,,,,,,,,
,Screen_6,canvas.Screen,0_2_26_5,,skipped,27,112351.59999990463,,,112339.5,,112351.79999995232,2021-10-31T20:23:39.999Z,112469.731,1635711700,full,ni_sequenzen,NI_Sequenzen,,,,,,,,,,,,,,
,Sequence,flow.Sequence,0_2_26,,completion,27,112337.70000004768,,,112339.5,,112352.09999990463,2021-10-31T20:23:39.999Z,112469.731,1635711700,full,ni_sequenzen,NI_Sequenzen,,,,,,,,,,,,,,
,Screen_1,canvas.Screen,0_2_27_0,,skipped,28,112354.70000004768,,,112354.70000004768,,112355,2021-10-31T20:23:40.002Z,112469.731,1635711700,full,ni_sequenzen,NI_Sequenzen,,,,,,,,,,,,,,
,Screen_2,canvas.Screen,0_2_27_1,,skipped,28,112356.89999985695,,,112354.70000004768,,112357.09999990463,2021-10-31T20:23:40.004Z,112469.731,1635711700,full,ni_sequenzen,NI_Sequenzen,,,,,,,,,,,,,,
,Screen_3,canvas.Screen,0_2_27_2,,skipped,28,112359,,,112354.70000004768,,112359.29999995232,2021-10-31T20:23:40.006Z,112469.731,1635711700,full,ni_sequenzen,NI_Sequenzen,,,,,,,,,,,,,,
,Screen_4,canvas.Screen,0_2_27_3,,skipped,28,112361.59999990463,,,112354.70000004768,,112361.79999995232,2021-10-31T20:23:40.009Z,112469.731,1635711700,full,ni_sequenzen,NI_Sequenzen,,,,,,,,,,,,,,
,Screen_5,canvas.Screen,0_2_27_4,,skipped,28,112363.70000004768,,,112354.70000004768,,112363.89999985695,2021-10-31T20:23:40.011Z,112469.731,1635711700,full,ni_sequenzen,NI_Sequenzen,,,,,,,,,,,,,,
,Screen_6,canvas.Screen,0_2_27_5,,skipped,28,112367,,,112354.70000004768,,112367.20000004768,2021-10-31T20:23:40.014Z,112469.731,1635711700,full,ni_sequenzen,NI_Sequenzen,,,,,,,,,,,,,,
,Sequence,flow.Sequence,0_2_27,,completion,28,112353,,,112354.70000004768,,112367.5,2021-10-31T20:23:40.015Z,112469.731,1635711700,full,ni_sequenzen,NI_Sequenzen,,,,,,,,,,,,,,
,Screen_1,canvas.Screen,0_2_28_0,,skipped,29,112370.20000004768,,,112370.20000004768,,112370.39999985695,2021-10-31T20:23:40.018Z,112469.731,1635711700,full,ni_sequenzen,NI_Sequenzen,,,,,,,,,,,,,,
,Screen_2,canvas.Screen,0_2_28_1,,skipped,29,112372.29999995232,,,112370.20000004768,,112372.59999990463,2021-10-31T20:23:40.020Z,112469.731,1635711700,full,ni_sequenzen,NI_Sequenzen,,,,,,,,,,,,,,
,Screen_3,canvas.Screen,0_2_28_2,,skipped,29,112374.5,,,112370.20000004768,,112374.70000004768,2021-10-31T20:23:40.022Z,112469.731,1635711700,full,ni_sequenzen,NI_Sequenzen,,,,,,,,,,,,,,
,Screen_4,canvas.Screen,0_2_28_3,,skipped,29,112377.09999990463,,,112370.20000004768,,112377.29999995232,2021-10-31T20:23:40.024Z,112469.731,1635711700,full,ni_sequenzen,NI_Sequenzen,,,,,,,,,,,,,,
,Screen_5,canvas.Screen,0_2_28_4,,skipped,29,112379.29999995232,,,112370.20000004768,,112379.5,2021-10-31T20:23:40.027Z,112469.731,1635711700,full,ni_sequenzen,NI_Sequenzen,,,,,,,,,,,,,,
,Screen_6,canvas.Screen,0_2_28_5,,skipped,29,112381.39999985695,,,112370.20000004768,,112381.70000004768,2021-10-31T20:23:40.029Z,112469.731,1635711700,full,ni_sequenzen,NI_Sequenzen,,,,,,,,,,,,,,
,Sequence,flow.Sequence,0_2_28,,completion,29,112368.29999995232,,,112370.20000004768,,112381.89999985695,2021-10-31T20:23:40.029Z,112469.731,1635711700,full,ni_sequenzen,NI_Sequenzen,,,,,,,,,,,,,,
,Screen_1,canvas.Screen,0_2_29_0,,skipped,30,112384.89999985695,,,112384.89999985695,,112385.09999990463,2021-10-31T20:23:40.032Z,112469.731,1635711700,full,ni_sequenzen,NI_Sequenzen,,,,,,,,,,,,,,
,Screen_2,canvas.Screen,0_2_29_1,,skipped,30,112387.09999990463,,,112384.89999985695,,112387.39999985695,2021-10-31T20:23:40.035Z,112469.731,1635711700,full,ni_sequenzen,NI_Sequenzen,,,,,,,,,,,,,,
,Screen_3,canvas.Screen,0_2_29_2,,skipped,30,112389.20000004768,,,112384.89999985695,,112389.5,2021-10-31T20:23:40.037Z,112469.731,1635711700,full,ni_sequenzen,NI_Sequenzen,,,,,,,,,,,,,,
,Screen_4,canvas.Screen,0_2_29_3,,skipped,30,112391.70000004768,,,112384.89999985695,,112391.79999995232,2021-10-31T20:23:40.039Z,112469.731,1635711700,full,ni_sequenzen,NI_Sequenzen,,,,,,,,,,,,,,
,Screen_5,canvas.Screen,0_2_29_4,,skipped,30,112393.89999985695,,,112384.89999985695,,112394,2021-10-31T20:23:40.041Z,112469.731,1635711700,full,ni_sequenzen,NI_Sequenzen,,,,,,,,,,,,,,
,Screen_6,canvas.Screen,0_2_29_5,,skipped,30,112396,,,112384.89999985695,,112396.29999995232,2021-10-31T20:23:40.043Z,112469.731,1635711700,full,ni_sequenzen,NI_Sequenzen,,,,,,,,,,,,,,
,Sequence,flow.Sequence,0_2_29,,completion,30,112382.70000004768,,,112384.89999985695,,112396.5,2021-10-31T20:23:40.044Z,112469.731,1635711700,full,ni_sequenzen,NI_Sequenzen,,,,,,,,,,,,,,
,Instructions_II,flow.Loop,0_2,,completion,,66891.29999995232,66883.229,66899.899,112384.89999985695,45485.000999856944,112396.70000004768,2021-10-31T20:23:40.044Z,112469.731,1635711700,full,ni_sequenzen,NI_Sequenzen,,,,,,,,,,,,,,
,Move,canvas.Screen,0_3_0_0_0_0,left,response,,112462.5,112452.834,112469.731,114981.5,2511.7690000000002,114982.39999985695,2021-10-31T20:23:42.630Z,115002.305,1635711700,full,ni_sequenzen,NI_Sequenzen,1,0,,,,,,,,,,,,
,Move,canvas.Screen,0_3_0_0_0_1,right,response,,114995.5,114985.513,115002.305,116077.89999985695,1075.5949998569558,116078.79999995232,2021-10-31T20:23:43.726Z,116117.473,1635711700,full,ni_sequenzen,NI_Sequenzen,2,0,,,,,,,,,,,,
,Move,canvas.Screen,0_3_0_0_0_2,down,response,,116084.39999985695,116068.591,116117.473,117608.70000004768,1491.2270000476856,117609.59999990463,2021-10-31T20:23:45.257Z,117618.209,1635711700,full,ni_sequenzen,NI_Sequenzen,3,0,,,,,,,,,,,,
,Move,canvas.Screen,0_3_0_0_0_3,down,response,,117614.59999990463,117601.445,117618.209,119109.5,1491.2909999999974,119110.29999995232,2021-10-31T20:23:46.758Z,119134.395,1635711700,full,ni_sequenzen,NI_Sequenzen,4,0,,,,,,,,,,,,
,Move,canvas.Screen,0_3_0_0_0_4,right,response,,119114.89999985695,119101.019,119134.395,122141.39999985695,3007.004999856945,122142.39999985695,2021-10-31T20:23:49.790Z,122216.814,1635711700,full,ni_sequenzen,NI_Sequenzen,5,0,,,,,,,,,,,,
,Move,canvas.Screen,0_3_0_0_0_5,-999,skipped,,122147.5,,,122141.39999985695,,122147.70000004768,2021-10-31T20:23:49.795Z,122216.814,1635711700,full,ni_sequenzen,NI_Sequenzen,6,0,,,,,,,,,,,,
,Move,canvas.Screen,0_3_0_0_0_6,-999,skipped,,122154.09999990463,,,122141.39999985695,,122154.29999995232,2021-10-31T20:23:49.801Z,122216.814,1635711700,full,ni_sequenzen,NI_Sequenzen,7,0,,,,,,,,,,,,
,Move,canvas.Screen,0_3_0_0_0_7,-999,skipped,,122159.89999985695,,,122141.39999985695,,122160.20000004768,2021-10-31T20:23:49.807Z,122216.814,1635711700,full,ni_sequenzen,NI_Sequenzen,8,0,,,,,,,,,,,,
,Move,canvas.Screen,0_3_0_0_0_8,-999,skipped,,122165.5,,,122141.39999985695,,122165.70000004768,2021-10-31T20:23:49.813Z,122216.814,1635711700,full,ni_sequenzen,NI_Sequenzen,9,0,,,,,,,,,,,,
,Move,canvas.Screen,0_3_0_0_0_9,-999,skipped,,122172.20000004768,,,122141.39999985695,,122172.29999995232,2021-10-31T20:23:49.820Z,122216.814,1635711700,full,ni_sequenzen,NI_Sequenzen,10,0,,,,,,,,,,,,
,Move,canvas.Screen,0_3_0_0_0_10,-999,skipped,,122177.39999985695,,,122141.39999985695,,122177.59999990463,2021-10-31T20:23:49.825Z,122216.814,1635711700,full,ni_sequenzen,NI_Sequenzen,11,0,,,,,,,,,,,,
,Move,canvas.Screen,0_3_0_0_0_11,-999,skipped,,122183.29999995232,,,122141.39999985695,,122183.39999985695,2021-10-31T20:23:49.831Z,122216.814,1635711700,full,ni_sequenzen,NI_Sequenzen,12,0,,,,,,,,,,,,
,Move,canvas.Screen,0_3_0_0_0_12,-999,skipped,,122189.89999985695,,,122141.39999985695,,122190.09999990463,2021-10-31T20:23:49.837Z,122216.814,1635711700,full,ni_sequenzen,NI_Sequenzen,13,0,,,,,,,,,,,,
,Move,canvas.Screen,0_3_0_0_0_13,-999,skipped,,122196.5,,,122141.39999985695,,122196.70000004768,2021-10-31T20:23:49.844Z,122216.814,1635711700,full,ni_sequenzen,NI_Sequenzen,14,0,,,,,,,,,,,,
,Move,canvas.Screen,0_3_0_0_0_14,-999,skipped,,122203.79999995232,,,122141.39999985695,,122204,2021-10-31T20:23:49.851Z,122216.814,1635711700,full,ni_sequenzen,NI_Sequenzen,15,0,,,,,,,,,,,,
,Loop,flow.Loop,0_3_0_0_0,-999,completion,,112449.70000004768,112452.834,112469.731,122141.39999985695,9671.668999856949,122204.29999995232,2021-10-31T20:23:49.851Z,122216.814,1635711700,full,ni_sequenzen,NI_Sequenzen,,0,,,,,,,,,,,,
,Feedback,canvas.Screen,0_3_0_0_1,,timeout,,122210.39999985695,122200.057,122216.814,126199.004,3998.8570000000036,126200.29999995232,2021-10-31T20:23:53.848Z,126215.671,1635711700,full,ni_sequenzen,NI_Sequenzen,,0,,,,,,,,,,,,
,Trial,flow.Sequence,0_3_0_0,,completion,,112427.39999985695,112452.834,112469.731,126199.004,13729.273000000001,126200.5,2021-10-31T20:23:53.848Z,126248.977,1635711700,full,ni_sequenzen,NI_Sequenzen,,0,,,,,,,,,,,,
,Move,canvas.Screen,0_3_0_1_0_0,down,response,,126224.09999990463,126215.671,126248.977,126277.70000004768,28.723000047684764,126278.70000004768,2021-10-31T20:23:53.926Z,126315.619,1635711700,full,ni_sequenzen,NI_Sequenzen,1,1,,,,,,,,,,,,
,Move,canvas.Screen,0_3_0_1_0_1,left,response,,126285.39999985695,126298.975,126315.619,127853.39999985695,1537.7809998569428,127854.39999985695,2021-10-31T20:23:55.502Z,127865.126,1635711700,full,ni_sequenzen,NI_Sequenzen,2,1,,,,,,,,,,,,
,Move,canvas.Screen,0_3_0_1_0_2,down,response,,127860.09999990463,127848.45,127865.126,129069.29999995232,1204.1739999523124,129090.59999990463,2021-10-31T20:23:56.738Z,129098.075,1635711700,full,ni_sequenzen,NI_Sequenzen,3,1,,,,,,,,,,,,
,Move,canvas.Screen,0_3_0_1_0_3,right,response,,129096.59999990463,129081.382,129098.075,130229.5,1131.425000000003,130230.39999985695,2021-10-31T20:23:57.878Z,130247.796,1635711700,full,ni_sequenzen,NI_Sequenzen,4,1,,,,,,,,,,,,
,Move,canvas.Screen,0_3_0_1_0_4,left,response,,130235.29999995232,130231.087,130247.796,130869.5,621.7039999999979,130870.39999985695,2021-10-31T20:23:58.518Z,130947.575,1635711700,full,ni_sequenzen,NI_Sequenzen,5,1,,,,,,,,,,,,
,Move,canvas.Screen,0_3_0_1_0_5,-999,skipped,,130875.5,,,130869.5,,130875.70000004768,2021-10-31T20:23:58.523Z,130947.575,1635711700,full,ni_sequenzen,NI_Sequenzen,6,1,,,,,,,,,,,,
,Move,canvas.Screen,0_3_0_1_0_6,-999,skipped,,130881.89999985695,,,130869.5,,130882.09999990463,2021-10-31T20:23:58.529Z,130947.575,1635711700,full,ni_sequenzen,NI_Sequenzen,7,1,,,,,,,,,,,,
,Move,canvas.Screen,0_3_0_1_0_7,-999,skipped,,130887.59999990463,,,130869.5,,130887.79999995232,2021-10-31T20:23:58.535Z,130947.575,1635711700,full,ni_sequenzen,NI_Sequenzen,8,1,,,,,,,,,,,,
,Move,canvas.Screen,0_3_0_1_0_8,-999,skipped,,130893.20000004768,,,130869.5,,130893.39999985695,2021-10-31T20:23:58.541Z,130947.575,1635711700,full,ni_sequenzen,NI_Sequenzen,9,1,,,,,,,,,,,,
,Move,canvas.Screen,0_3_0_1_0_9,-999,skipped,,130899.39999985695,,,130869.5,,130899.59999990463,2021-10-31T20:23:58.547Z,130947.575,1635711700,full,ni_sequenzen,NI_Sequenzen,10,1,,,,,,,,,,,,
,Move,canvas.Screen,0_3_0_1_0_10,-999,skipped,,130905.70000004768,,,130869.5,,130905.89999985695,2021-10-31T20:23:58.553Z,130947.575,1635711700,full,ni_sequenzen,NI_Sequenzen,11,1,,,,,,,,,,,,
,Move,canvas.Screen,0_3_0_1_0_11,-999,skipped,,130911.09999990463,,,130869.5,,130911.29999995232,2021-10-31T20:23:58.559Z,130947.575,1635711700,full,ni_sequenzen,NI_Sequenzen,12,1,,,,,,,,,,,,
,Move,canvas.Screen,0_3_0_1_0_12,-999,skipped,,130916,,,130869.5,,130916.29999995232,2021-10-31T20:23:58.563Z,130947.575,1635711700,full,ni_sequenzen,NI_Sequenzen,13,1,,,,,,,,,,,,
,Move,canvas.Screen,0_3_0_1_0_13,-999,skipped,,130922.09999990463,,,130869.5,,130922.59999990463,2021-10-31T20:23:58.570Z,130947.575,1635711700,full,ni_sequenzen,NI_Sequenzen,14,1,,,,,,,,,,,,
,Move,canvas.Screen,0_3_0_1_0_14,-999,skipped,,130928.20000004768,,,130869.5,,130928.5,2021-10-31T20:23:58.576Z,130947.575,1635711700,full,ni_sequenzen,NI_Sequenzen,15,1,,,,,,,,,,,,
,Loop,flow.Loop,0_3_0_1_0,-999,completion,,126218.5,126215.671,126248.977,130869.5,4620.523000000001,130928.79999995232,2021-10-31T20:23:58.576Z,130947.575,1635711700,full,ni_sequenzen,NI_Sequenzen,,1,,,,,,,,,,,,
,Feedback,canvas.Screen,0_3_0_1_1,,timeout,,130933.29999995232,130930.872,130947.575,134929.756,3998.815000000017,134930.59999990463,2021-10-31T20:24:02.578Z,134946.39,1635711700,full,ni_sequenzen,NI_Sequenzen,,1,,,,,,,,,,,,
,Trial,flow.Sequence,0_3_0_1,,completion,,126201,126215.671,126248.977,134929.756,8680.778999999995,134930.79999995232,2021-10-31T20:24:02.578Z,134963.081,1635711700,full,ni_sequenzen,NI_Sequenzen,,1,,,,,,,,,,,,
,Move,canvas.Screen,0_3_0_2_0_0,right,response,,134959.5,134946.39,134963.081,134997.39999985695,34.318999856943265,134998.70000004768,2021-10-31T20:24:02.646Z,135029.691,1635711700,full,ni_sequenzen,NI_Sequenzen,1,2,,,,,,,,,,,,
,Move,canvas.Screen,0_3_0_2_0_1,down,response,,135005.09999990463,135013.07,135029.691,136173.5,1143.8090000000084,136174.39999985695,2021-10-31T20:24:03.822Z,136196.038,1635711700,full,ni_sequenzen,NI_Sequenzen,2,2,,,,,,,,,,,,
,Move,canvas.Screen,0_3_0_2_0_2,down,response,,136180,136179.315,136196.038,136941.79999995232,745.7619999523158,136942.70000004768,2021-10-31T20:24:04.590Z,136962.458,1635711700,full,ni_sequenzen,NI_Sequenzen,3,2,,,,,,,,,,,,
,Move,canvas.Screen,0_3_0_2_0_3,right,response,,136948.20000004768,136945.807,136962.458,138125.5,1163.0419999999867,138126.29999995232,2021-10-31T20:24:05.774Z,138195.376,1635711700,full,ni_sequenzen,NI_Sequenzen,4,2,,,,,,,,,,,,
,Move,canvas.Screen,0_3_0_2_0_4,-999,skipped,,138131,,,138125.5,,138131.20000004768,2021-10-31T20:24:05.778Z,138195.376,1635711700,full,ni_sequenzen,NI_Sequenzen,5,2,,,,,,,,,,,,
,Move,canvas.Screen,0_3_0_2_0_5,-999,skipped,,138135.79999995232,,,138125.5,,138136,2021-10-31T20:24:05.783Z,138195.376,1635711700,full,ni_sequenzen,NI_Sequenzen,6,2,,,,,,,,,,,,
,Move,canvas.Screen,0_3_0_2_0_6,-999,skipped,,138142.09999990463,,,138125.5,,138142.29999995232,2021-10-31T20:24:05.790Z,138195.376,1635711700,full,ni_sequenzen,NI_Sequenzen,7,2,,,,,,,,,,,,
,Move,canvas.Screen,0_3_0_2_0_7,-999,skipped,,138147,,,138125.5,,138147.29999995232,2021-10-31T20:24:05.794Z,138195.376,1635711700,full,ni_sequenzen,NI_Sequenzen,8,2,,,,,,,,,,,,
,Move,canvas.Screen,0_3_0_2_0_8,-999,skipped,,138152,,,138125.5,,138152.20000004768,2021-10-31T20:24:05.799Z,138195.376,1635711700,full,ni_sequenzen,NI_Sequenzen,9,2,,,,,,,,,,,,
,Move,canvas.Screen,0_3_0_2_0_9,-999,skipped,,138158.5,,,138125.5,,138158.79999995232,2021-10-31T20:24:05.806Z,138195.376,1635711700,full,ni_sequenzen,NI_Sequenzen,10,2,,,,,,,,,,,,
,Move,canvas.Screen,0_3_0_2_0_10,-999,skipped,,138163.59999990463,,,138125.5,,138163.79999995232,2021-10-31T20:24:05.811Z,138195.376,1635711700,full,ni_sequenzen,NI_Sequenzen,11,2,,,,,,,,,,,,
,Move,canvas.Screen,0_3_0_2_0_11,-999,skipped,,138169.20000004768,,,138125.5,,138169.39999985695,2021-10-31T20:24:05.817Z,138195.376,1635711700,full,ni_sequenzen,NI_Sequenzen,12,2,,,,,,,,,,,,
,Move,canvas.Screen,0_3_0_2_0_12,-999,skipped,,138174.39999985695,,,138125.5,,138174.59999990463,2021-10-31T20:24:05.822Z,138195.376,1635711700,full,ni_sequenzen,NI_Sequenzen,13,2,,,,,,,,,,,,
,Move,canvas.Screen,0_3_0_2_0_13,-999,skipped,,138180.29999995232,,,138125.5,,138180.59999990463,2021-10-31T20:24:05.828Z,138195.376,1635711700,full,ni_sequenzen,NI_Sequenzen,14,2,,,,,,,,,,,,
,Move,canvas.Screen,0_3_0_2_0_14,-999,skipped,,138186.39999985695,,,138125.5,,138186.5,2021-10-31T20:24:05.834Z,138195.376,1635711700,full,ni_sequenzen,NI_Sequenzen,15,2,,,,,,,,,,,,
,Loop,flow.Loop,0_3_0_2_0,-999,completion,,134950.5,134946.39,134963.081,138125.5,3162.4189999999944,138186.89999985695,2021-10-31T20:24:05.834Z,138195.376,1635711700,full,ni_sequenzen,NI_Sequenzen,,2,,,,,,,,,,,,
,Feedback,canvas.Screen,0_3_0_2_1,,timeout,,138191.09999990463,138178.761,138195.376,142177.558,3998.828999999998,142178.39999985695,2021-10-31T20:24:09.826Z,142194.205,1635711700,full,ni_sequenzen,NI_Sequenzen,,2,,,,,,,,,,,,
,Trial,flow.Sequence,0_3_0_2,,completion,,134931.29999995232,134946.39,134963.081,142177.558,7214.476999999984,142178.70000004768,2021-10-31T20:24:09.826Z,142227.543,1635711700,full,ni_sequenzen,NI_Sequenzen,,2,,,,,,,,,,,,
,Move,canvas.Screen,0_3_0_3_0_0,left,response,,142206.5,142194.205,142227.543,145623.5,3395.956999999995,145624.29999995232,2021-10-31T20:24:13.272Z,145643.238,1635711700,full,ni_sequenzen,NI_Sequenzen,1,3,,,,,,,,,,,,
,Move,canvas.Screen,0_3_0_3_0_1,down,response,,145630.09999990463,145626.413,145643.238,146157.39999985695,514.1619998569367,146158.29999995232,2021-10-31T20:24:13.805Z,146176.354,1635711700,full,ni_sequenzen,NI_Sequenzen,2,3,,,,,,,,,,,,
,Move,canvas.Screen,0_3_0_3_0_2,down,response,,146164.29999995232,146159.718,146176.354,146557.5,381.1460000000079,146558.39999985695,2021-10-31T20:24:14.206Z,146576.252,1635711700,full,ni_sequenzen,NI_Sequenzen,3,3,,,,,,,,,,,,
,Move,canvas.Screen,0_3_0_3_0_3,left,response,,146563.29999995232,146559.604,146576.252,147757.79999995232,1181.5479999523086,147758.70000004768,2021-10-31T20:24:15.406Z,147825.901,1635711700,full,ni_sequenzen,NI_Sequenzen,4,3,,,,,,,,,,,,
,Move,canvas.Screen,0_3_0_3_0_4,-999,skipped,,147764.79999995232,,,147757.79999995232,,147765.09999990463,2021-10-31T20:24:15.412Z,147825.901,1635711700,full,ni_sequenzen,NI_Sequenzen,5,3,,,,,,,,,,,,
,Move,canvas.Screen,0_3_0_3_0_5,-999,skipped,,147770.5,,,147757.79999995232,,147770.70000004768,2021-10-31T20:24:15.418Z,147825.901,1635711700,full,ni_sequenzen,NI_Sequenzen,6,3,,,,,,,,,,,,
,Move,canvas.Screen,0_3_0_3_0_6,-999,skipped,,147775.59999990463,,,147757.79999995232,,147775.79999995232,2021-10-31T20:24:15.423Z,147825.901,1635711700,full,ni_sequenzen,NI_Sequenzen,7,3,,,,,,,,,,,,
,Move,canvas.Screen,0_3_0_3_0_7,-999,skipped,,147781.70000004768,,,147757.79999995232,,147782,2021-10-31T20:24:15.429Z,147825.901,1635711700,full,ni_sequenzen,NI_Sequenzen,8,3,,,,,,,,,,,,
,Move,canvas.Screen,0_3_0_3_0_8,-999,skipped,,147787.09999990463,,,147757.79999995232,,147787.29999995232,2021-10-31T20:24:15.435Z,147825.901,1635711700,full,ni_sequenzen,NI_Sequenzen,9,3,,,,,,,,,,,,
,Move,canvas.Screen,0_3_0_3_0_9,-999,skipped,,147792.20000004768,,,147757.79999995232,,147792.39999985695,2021-10-31T20:24:15.440Z,147825.901,1635711700,full,ni_sequenzen,NI_Sequenzen,10,3,,,,,,,,,,,,
,Move,canvas.Screen,0_3_0_3_0_10,-999,skipped,,147798.5,,,147757.79999995232,,147798.70000004768,2021-10-31T20:24:15.446Z,147825.901,1635711700,full,ni_sequenzen,NI_Sequenzen,11,3,,,,,,,,,,,,
,Move,canvas.Screen,0_3_0_3_0_11,-999,skipped,,147803.59999990463,,,147757.79999995232,,147803.79999995232,2021-10-31T20:24:15.451Z,147825.901,1635711700,full,ni_sequenzen,NI_Sequenzen,12,3,,,,,,,,,,,,
,Move,canvas.Screen,0_3_0_3_0_12,-999,skipped,,147808.5,,,147757.79999995232,,147808.70000004768,2021-10-31T20:24:15.456Z,147825.901,1635711700,full,ni_sequenzen,NI_Sequenzen,13,3,,,,,,,,,,,,
,Move,canvas.Screen,0_3_0_3_0_13,-999,skipped,,147814.5,,,147757.79999995232,,147814.70000004768,2021-10-31T20:24:15.462Z,147825.901,1635711700,full,ni_sequenzen,NI_Sequenzen,14,3,,,,,,,,,,,,
,Move,canvas.Screen,0_3_0_3_0_14,-999,skipped,,147819.5,,,147757.79999995232,,147819.70000004768,2021-10-31T20:24:15.467Z,147825.901,1635711700,full,ni_sequenzen,NI_Sequenzen,15,3,,,,,,,,,,,,
,Loop,flow.Loop,0_3_0_3_0,-999,completion,,142201.29999995232,142194.205,142227.543,147757.79999995232,5530.256999952311,147819.89999985695,2021-10-31T20:24:15.467Z,147825.901,1635711700,full,ni_sequenzen,NI_Sequenzen,,3,,,,,,,,,,,,
,Feedback,canvas.Screen,0_3_0_3_1,,timeout,,147824,147809.196,147825.901,151808.066,3998.8059999999823,151808.89999985695,2021-10-31T20:24:19.456Z,151824.707,1635711700,full,ni_sequenzen,NI_Sequenzen,,3,,,,,,,,,,,,
,Trial,flow.Sequence,0_3_0_3,,completion,,142179.20000004768,142194.205,142227.543,151808.066,9580.522999999986,151809.09999990463,2021-10-31T20:24:19.456Z,151841.404,1635711700,full,ni_sequenzen,NI_Sequenzen,,3,,,,,,,,,,,,
,Move,canvas.Screen,0_3_0_4_0_0,down,response,,151833.70000004768,151824.707,151841.404,153237.5,1396.0959999999905,153238.59999990463,2021-10-31T20:24:20.886Z,153257.635,1635711700,full,ni_sequenzen,NI_Sequenzen,1,4,,,,,,,,,,,,
,Move,canvas.Screen,0_3_0_4_0_1,left,response,,153243.59999990463,153240.893,153257.635,153645.39999985695,387.76499985693954,153646.29999995232,2021-10-31T20:24:21.294Z,153657.509,1635711700,full,ni_sequenzen,NI_Sequenzen,2,4,,,,,,,,,,,,
,Move,canvas.Screen,0_3_0_4_0_2,right,response,,153652.29999995232,153640.841,153657.509,154509.5,851.9910000000091,154510.39999985695,2021-10-31T20:24:22.158Z,154523.886,1635711700,full,ni_sequenzen,NI_Sequenzen,3,4,,,,,,,,,,,,
,Move,canvas.Screen,0_3_0_4_0_3,down,response,,154515.29999995232,154507.229,154523.886,156045.29999995232,1521.4139999523177,156046.20000004768,2021-10-31T20:24:23.693Z,156073.441,1635711700,full,ni_sequenzen,NI_Sequenzen,4,4,,,,,,,,,,,,
,Move,canvas.Screen,0_3_0_4_0_4,left,response,,156051.29999995232,156040.109,156073.441,156581.5,508.0590000000084,156582.39999985695,2021-10-31T20:24:24.230Z,156656.65,1635711700,full,ni_sequenzen,NI_Sequenzen,5,4,,,,,,,,,,,,
,Move,canvas.Screen,0_3_0_4_0_5,-999,skipped,,156587.79999995232,,,156581.5,,156588.09999990463,2021-10-31T20:24:24.235Z,156656.65,1635711700,full,ni_sequenzen,NI_Sequenzen,6,4,,,,,,,,,,,,
,Move,canvas.Screen,0_3_0_4_0_6,-999,skipped,,156593.79999995232,,,156581.5,,156594.09999990463,2021-10-31T20:24:24.241Z,156656.65,1635711700,full,ni_sequenzen,NI_Sequenzen,7,4,,,,,,,,,,,,
,Move,canvas.Screen,0_3_0_4_0_7,-999,skipped,,156599.09999990463,,,156581.5,,156599.29999995232,2021-10-31T20:24:24.247Z,156656.65,1635711700,full,ni_sequenzen,NI_Sequenzen,8,4,,,,,,,,,,,,
,Move,canvas.Screen,0_3_0_4_0_8,-999,skipped,,156605.09999990463,,,156581.5,,156605.29999995232,2021-10-31T20:24:24.253Z,156656.65,1635711700,full,ni_sequenzen,NI_Sequenzen,9,4,,,,,,,,,,,,
,Move,canvas.Screen,0_3_0_4_0_9,-999,skipped,,156610.29999995232,,,156581.5,,156610.5,2021-10-31T20:24:24.258Z,156656.65,1635711700,full,ni_sequenzen,NI_Sequenzen,10,4,,,,,,,,,,,,
,Move,canvas.Screen,0_3_0_4_0_10,-999,skipped,,156616.29999995232,,,156581.5,,156616.5,2021-10-31T20:24:24.264Z,156656.65,1635711700,full,ni_sequenzen,NI_Sequenzen,11,4,,,,,,,,,,,,
,Move,canvas.Screen,0_3_0_4_0_11,-999,skipped,,156622.20000004768,,,156581.5,,156622.39999985695,2021-10-31T20:24:24.270Z,156656.65,1635711700,full,ni_sequenzen,NI_Sequenzen,12,4,,,,,,,,,,,,
,Move,canvas.Screen,0_3_0_4_0_12,-999,skipped,,156627.59999990463,,,156581.5,,156627.79999995232,2021-10-31T20:24:24.275Z,156656.65,1635711700,full,ni_sequenzen,NI_Sequenzen,13,4,,,,,,,,,,,,
,Move,canvas.Screen,0_3_0_4_0_13,-999,skipped,,156632.59999990463,,,156581.5,,156632.79999995232,2021-10-31T20:24:24.280Z,156656.65,1635711700,full,ni_sequenzen,NI_Sequenzen,14,4,,,,,,,,,,,,
,Move,canvas.Screen,0_3_0_4_0_14,-999,skipped,,156637.59999990463,,,156581.5,,156637.79999995232,2021-10-31T20:24:24.285Z,156656.65,1635711700,full,ni_sequenzen,NI_Sequenzen,15,4,,,,,,,,,,,,
,Loop,flow.Loop,0_3_0_4_0,-999,completion,,151827.89999985695,151824.707,151841.404,156581.5,4740.09599999999,156638.09999990463,2021-10-31T20:24:24.285Z,156656.65,1635711700,full,ni_sequenzen,NI_Sequenzen,,4,,,,,,,,,,,,
,Feedback,canvas.Screen,0_3_0_4_1,,timeout,,156643.29999995232,156639.915,156656.65,160638.759,3998.717000000004,160639.59999990463,2021-10-31T20:24:28.287Z,160655.367,1635711700,full,ni_sequenzen,NI_Sequenzen,,4,,,,,,,,,,,,
,Trial,flow.Sequence,0_3_0_4,,completion,,151809.59999990463,151824.707,151841.404,160638.759,8797.354999999981,160639.79999995232,2021-10-31T20:24:28.287Z,160688.734,1635711700,full,ni_sequenzen,NI_Sequenzen,,4,,,,,,,,,,,,
,Move,canvas.Screen,0_3_0_5_0_0,left,response,,160665.39999985695,160655.367,160688.734,162541.89999985695,1853.165999856952,162542.89999985695,2021-10-31T20:24:30.190Z,162554.812,1635711700,full,ni_sequenzen,NI_Sequenzen,1,5,,,,,,,,,,,,
,Move,canvas.Screen,0_3_0_5_0_1,down,response,,162548.59999990463,162538.115,162554.812,162933.5,378.68799999999464,162934.5,2021-10-31T20:24:30.582Z,162954.759,1635711700,full,ni_sequenzen,NI_Sequenzen,2,5,,,,,,,,,,,,
,Move,canvas.Screen,0_3_0_5_0_2,down,response,,162939.59999990463,162938.05,162954.759,163301.59999990463,346.84099990464165,163302.39999985695,2021-10-31T20:24:30.950Z,163321.288,1635711700,full,ni_sequenzen,NI_Sequenzen,3,5,,,,,,,,,,,,
,Move,canvas.Screen,0_3_0_5_0_3,left,response,,163307.39999985695,163304.613,163321.288,163797.29999995232,476.0119999523158,163798.29999995232,2021-10-31T20:24:31.446Z,163871.098,1635711700,full,ni_sequenzen,NI_Sequenzen,4,5,,,,,,,,,,,,
,Move,canvas.Screen,0_3_0_5_0_4,-999,skipped,,163804.70000004768,,,163797.29999995232,,163804.89999985695,2021-10-31T20:24:31.452Z,163871.098,1635711700,full,ni_sequenzen,NI_Sequenzen,5,5,,,,,,,,,,,,
,Move,canvas.Screen,0_3_0_5_0_5,-999,skipped,,163810,,,163797.29999995232,,163810.20000004768,2021-10-31T20:24:31.457Z,163871.098,1635711700,full,ni_sequenzen,NI_Sequenzen,6,5,,,,,,,,,,,,
,Move,canvas.Screen,0_3_0_5_0_6,-999,skipped,,163815.20000004768,,,163797.29999995232,,163815.39999985695,2021-10-31T20:24:31.463Z,163871.098,1635711700,full,ni_sequenzen,NI_Sequenzen,7,5,,,,,,,,,,,,
,Move,canvas.Screen,0_3_0_5_0_7,-999,skipped,,163821.29999995232,,,163797.29999995232,,163821.5,2021-10-31T20:24:31.469Z,163871.098,1635711700,full,ni_sequenzen,NI_Sequenzen,8,5,,,,,,,,,,,,
,Move,canvas.Screen,0_3_0_5_0_8,-999,skipped,,163826.89999985695,,,163797.29999995232,,163827,2021-10-31T20:24:31.474Z,163871.098,1635711700,full,ni_sequenzen,NI_Sequenzen,9,5,,,,,,,,,,,,
,Move,canvas.Screen,0_3_0_5_0_9,-999,skipped,,163831.89999985695,,,163797.29999995232,,163832.09999990463,2021-10-31T20:24:31.479Z,163871.098,1635711700,full,ni_sequenzen,NI_Sequenzen,10,5,,,,,,,,,,,,
,Move,canvas.Screen,0_3_0_5_0_10,-999,skipped,,163838.09999990463,,,163797.29999995232,,163838.29999995232,2021-10-31T20:24:31.486Z,163871.098,1635711700,full,ni_sequenzen,NI_Sequenzen,11,5,,,,,,,,,,,,
,Move,canvas.Screen,0_3_0_5_0_11,-999,skipped,,163843.59999990463,,,163797.29999995232,,163843.89999985695,2021-10-31T20:24:31.491Z,163871.098,1635711700,full,ni_sequenzen,NI_Sequenzen,12,5,,,,,,,,,,,,
,Move,canvas.Screen,0_3_0_5_0_12,-999,skipped,,163848.79999995232,,,163797.29999995232,,163848.89999985695,2021-10-31T20:24:31.496Z,163871.098,1635711700,full,ni_sequenzen,NI_Sequenzen,13,5,,,,,,,,,,,,
,Move,canvas.Screen,0_3_0_5_0_13,-999,skipped,,163853.89999985695,,,163797.29999995232,,163854,2021-10-31T20:24:31.501Z,163871.098,1635711700,full,ni_sequenzen,NI_Sequenzen,14,5,,,,,,,,,,,,
,Move,canvas.Screen,0_3_0_5_0_14,-999,skipped,,163860.09999990463,,,163797.29999995232,,163860.39999985695,2021-10-31T20:24:31.508Z,163871.098,1635711700,full,ni_sequenzen,NI_Sequenzen,15,5,,,,,,,,,,,,
,Loop,flow.Loop,0_3_0_5_0,-999,completion,,160658,160655.367,160688.734,163797.29999995232,3108.5659999523195,163860.70000004768,2021-10-31T20:24:31.508Z,163871.098,1635711700,full,ni_sequenzen,NI_Sequenzen,,5,,,,,,,,,,,,
,Feedback,canvas.Screen,0_3_0_5_1,,timeout,,163864.89999985695,163854.431,163871.098,167853.286,3998.8399999999965,167854.09999990463,2021-10-31T20:24:35.514Z,167869.938,1635711700,full,ni_sequenzen,NI_Sequenzen,,5,,,,,,,,,,,,
,Trial,flow.Sequence,0_3_0_5,,completion,,160640.20000004768,160655.367,160688.734,167853.286,7164.551999999996,167854.20000004768,2021-10-31T20:24:35.514Z,167886.582,1635711700,full,ni_sequenzen,NI_Sequenzen,,5,,,,,,,,,,,,
,Move,canvas.Screen,0_3_0_6_0_0,right,response,,167881.09999990463,167869.938,167886.582,170317.39999985695,2430.817999856954,170318.20000004768,2021-10-31T20:24:37.978Z,170335.848,1635711700,full,ni_sequenzen,NI_Sequenzen,1,6,,,,,,,,,,,,
,Move,canvas.Screen,0_3_0_6_0_1,down,response,,170323.59999990463,170319.122,170335.848,170677.59999990463,341.75199990463443,170678.5,2021-10-31T20:24:38.338Z,170685.766,1635711700,full,ni_sequenzen,NI_Sequenzen,2,6,,,,,,,,,,,,
,Move,canvas.Screen,0_3_0_6_0_2,down,response,,170684.20000004768,170669.116,170685.766,172797.89999985695,2112.1339998569456,172798.79999995232,2021-10-31T20:24:40.458Z,172818.633,1635711700,full,ni_sequenzen,NI_Sequenzen,3,6,,,,,,,,,,,,
,Move,canvas.Screen,0_3_0_6_0_3,right,response,,172804.20000004768,172801.727,172818.633,173117.39999985695,298.7669998569472,173118.39999985695,2021-10-31T20:24:40.778Z,173201.709,1635711700,full,ni_sequenzen,NI_Sequenzen,4,6,,,,,,,,,,,,
,Move,canvas.Screen,0_3_0_6_0_4,-999,skipped,,173123.39999985695,,,173117.39999985695,,173123.70000004768,2021-10-31T20:24:40.783Z,173201.709,1635711700,full,ni_sequenzen,NI_Sequenzen,5,6,,,,,,,,,,,,
,Move,canvas.Screen,0_3_0_6_0_5,-999,skipped,,173130.5,,,173117.39999985695,,173131,2021-10-31T20:24:40.790Z,173201.709,1635711700,full,ni_sequenzen,NI_Sequenzen,6,6,,,,,,,,,,,,
,Move,canvas.Screen,0_3_0_6_0_6,-999,skipped,,173136.20000004768,,,173117.39999985695,,173136.39999985695,2021-10-31T20:24:40.796Z,173201.709,1635711700,full,ni_sequenzen,NI_Sequenzen,7,6,,,,,,,,,,,,
,Move,canvas.Screen,0_3_0_6_0_7,-999,skipped,,173141.39999985695,,,173117.39999985695,,173141.70000004768,2021-10-31T20:24:40.801Z,173201.709,1635711700,full,ni_sequenzen,NI_Sequenzen,8,6,,,,,,,,,,,,
,Move,canvas.Screen,0_3_0_6_0_8,-999,skipped,,173147.59999990463,,,173117.39999985695,,173147.70000004768,2021-10-31T20:24:40.807Z,173201.709,1635711700,full,ni_sequenzen,NI_Sequenzen,9,6,,,,,,,,,,,,
,Move,canvas.Screen,0_3_0_6_0_9,-999,skipped,,173153.20000004768,,,173117.39999985695,,173153.39999985695,2021-10-31T20:24:40.813Z,173201.709,1635711700,full,ni_sequenzen,NI_Sequenzen,10,6,,,,,,,,,,,,
,Move,canvas.Screen,0_3_0_6_0_10,-999,skipped,,173158.29999995232,,,173117.39999985695,,173158.5,2021-10-31T20:24:40.818Z,173201.709,1635711700,full,ni_sequenzen,NI_Sequenzen,11,6,,,,,,,,,,,,
,Move,canvas.Screen,0_3_0_6_0_11,-999,skipped,,173163.39999985695,,,173117.39999985695,,173163.59999990463,2021-10-31T20:24:40.823Z,173201.709,1635711700,full,ni_sequenzen,NI_Sequenzen,12,6,,,,,,,,,,,,
,Move,canvas.Screen,0_3_0_6_0_12,-999,skipped,,173169.79999995232,,,173117.39999985695,,173170,2021-10-31T20:24:40.830Z,173201.709,1635711700,full,ni_sequenzen,NI_Sequenzen,13,6,,,,,,,,,,,,
,Move,canvas.Screen,0_3_0_6_0_13,-999,skipped,,173174.59999990463,,,173117.39999985695,,173174.79999995232,2021-10-31T20:24:40.834Z,173201.709,1635711700,full,ni_sequenzen,NI_Sequenzen,14,6,,,,,,,,,,,,
,Move,canvas.Screen,0_3_0_6_0_14,-999,skipped,,173179.59999990463,,,173117.39999985695,,173179.70000004768,2021-10-31T20:24:40.839Z,173201.709,1635711700,full,ni_sequenzen,NI_Sequenzen,15,6,,,,,,,,,,,,
,Loop,flow.Loop,0_3_0_6_0,-999,completion,,167876,167869.938,167886.582,173117.39999985695,5230.817999856954,173180.09999990463,2021-10-31T20:24:40.840Z,173201.709,1635711700,full,ni_sequenzen,NI_Sequenzen,,6,,,,,,,,,,,,
,Feedback,canvas.Screen,0_3_0_6_1,,timeout,,173185.39999985695,173185.028,173201.709,177183.819,3998.7639999999956,177184.59999990463,2021-10-31T20:24:44.844Z,177200.473,1635711700,full,ni_sequenzen,NI_Sequenzen,,6,,,,,,,,,,,,
,Trial,flow.Sequence,0_3_0_6,,completion,,167854.79999995232,167869.938,167886.582,177183.819,9297.236999999994,177184.79999995232,2021-10-31T20:24:44.844Z,177217.143,1635711700,full,ni_sequenzen,NI_Sequenzen,,6,,,,,,,,,,,,
,Move,canvas.Screen,0_3_0_7_0_0,down,response,,177211.39999985695,177200.473,177217.143,178989.5,1772.356999999989,178990.39999985695,2021-10-31T20:24:46.650Z,178999.956,1635711700,full,ni_sequenzen,NI_Sequenzen,1,7,,,,,,,,,,,,
,Move,canvas.Screen,0_3_0_7_0_1,left,response,,178998.09999990463,178983.211,178999.956,179477.39999985695,477.44399985694326,179478.20000004768,2021-10-31T20:24:47.138Z,179499.842,1635711700,full,ni_sequenzen,NI_Sequenzen,2,7,,,,,,,,,,,,
,Move,canvas.Screen,0_3_0_7_0_2,right,response,,179483.20000004768,179483.137,179499.842,179901.39999985695,401.55799985694466,179902.39999985695,2021-10-31T20:24:47.562Z,179916.375,1635711700,full,ni_sequenzen,NI_Sequenzen,3,7,,,,,,,,,,,,
,Move,canvas.Screen,0_3_0_7_0_3,right,response,,179909.09999990463,179899.701,179916.375,181853.39999985695,1937.0249998569489,181854.39999985695,2021-10-31T20:24:49.514Z,181932.545,1635711700,full,ni_sequenzen,NI_Sequenzen,4,7,,,,,,,,,,,,
,Move,canvas.Screen,0_3_0_7_0_4,-999,skipped,,181859.70000004768,,,181853.39999985695,,181860,2021-10-31T20:24:49.520Z,181932.545,1635711700,full,ni_sequenzen,NI_Sequenzen,5,7,,,,,,,,,,,,
,Move,canvas.Screen,0_3_0_7_0_5,-999,skipped,,181864.79999995232,,,181853.39999985695,,181865,2021-10-31T20:24:49.525Z,181932.545,1635711700,full,ni_sequenzen,NI_Sequenzen,6,7,,,,,,,,,,,,
,Move,canvas.Screen,0_3_0_7_0_6,-999,skipped,,181870.79999995232,,,181853.39999985695,,181870.89999985695,2021-10-31T20:24:49.531Z,181932.545,1635711700,full,ni_sequenzen,NI_Sequenzen,7,7,,,,,,,,,,,,
,Move,canvas.Screen,0_3_0_7_0_7,-999,skipped,,181876.5,,,181853.39999985695,,181876.70000004768,2021-10-31T20:24:49.536Z,181932.545,1635711700,full,ni_sequenzen,NI_Sequenzen,8,7,,,,,,,,,,,,
,Move,canvas.Screen,0_3_0_7_0_8,-999,skipped,,181881.59999990463,,,181853.39999985695,,181881.79999995232,2021-10-31T20:24:49.541Z,181932.545,1635711700,full,ni_sequenzen,NI_Sequenzen,9,7,,,,,,,,,,,,
,Move,canvas.Screen,0_3_0_7_0_9,-999,skipped,,181887.79999995232,,,181853.39999985695,,181888.09999990463,2021-10-31T20:24:49.548Z,181932.545,1635711700,full,ni_sequenzen,NI_Sequenzen,10,7,,,,,,,,,,,,
,Move,canvas.Screen,0_3_0_7_0_10,-999,skipped,,181893.59999990463,,,181853.39999985695,,181893.79999995232,2021-10-31T20:24:49.553Z,181932.545,1635711700,full,ni_sequenzen,NI_Sequenzen,11,7,,,,,,,,,,,,
,Move,canvas.Screen,0_3_0_7_0_11,-999,skipped,,181899.29999995232,,,181853.39999985695,,181899.39999985695,2021-10-31T20:24:49.559Z,181932.545,1635711700,full,ni_sequenzen,NI_Sequenzen,12,7,,,,,,,,,,,,
,Move,canvas.Screen,0_3_0_7_0_12,-999,skipped,,181904.5,,,181853.39999985695,,181904.70000004768,2021-10-31T20:24:49.564Z,181932.545,1635711700,full,ni_sequenzen,NI_Sequenzen,13,7,,,,,,,,,,,,
,Move,canvas.Screen,0_3_0_7_0_13,-999,skipped,,181910.5,,,181853.39999985695,,181910.70000004768,2021-10-31T20:24:49.570Z,181932.545,1635711700,full,ni_sequenzen,NI_Sequenzen,14,7,,,,,,,,,,,,
,Move,canvas.Screen,0_3_0_7_0_14,-999,skipped,,181915.5,,,181853.39999985695,,181915.70000004768,2021-10-31T20:24:49.575Z,181932.545,1635711700,full,ni_sequenzen,NI_Sequenzen,15,7,,,,,,,,,,,,
,Loop,flow.Loop,0_3_0_7_0,-999,completion,,177205.09999990463,177200.473,177217.143,181853.39999985695,4636.256999856938,181916.09999990463,2021-10-31T20:24:49.576Z,181932.545,1635711700,full,ni_sequenzen,NI_Sequenzen,,7,,,,,,,,,,,,
,Feedback,canvas.Screen,0_3_0_7_1,,timeout,,181920.5,181915.688,181932.545,185914.586,3998.7119999999995,185915.39999985695,2021-10-31T20:24:53.575Z,185931.257,1635711700,full,ni_sequenzen,NI_Sequenzen,,7,,,,,,,,,,,,
,Trial,flow.Sequence,0_3_0_7,,completion,,177185.29999995232,177200.473,177217.143,185914.586,8697.443,185915.70000004768,2021-10-31T20:24:53.575Z,185948.008,1635711700,full,ni_sequenzen,NI_Sequenzen,,7,,,,,,,,,,,,
,Move,canvas.Screen,0_3_0_8_0_0,right,response,,185941.5,185931.257,185948.008,187581.89999985695,1633.8919998569472,187582.79999995232,2021-10-31T20:24:55.242Z,187597.429,1635711700,full,ni_sequenzen,NI_Sequenzen,1,8,,,,,,,,,,,,
,Move,canvas.Screen,0_3_0_8_0_1,down,response,,187587.79999995232,187580.64,187597.429,189165.39999985695,1567.9709998569451,189166.29999995232,2021-10-31T20:24:56.826Z,189196.937,1635711700,full,ni_sequenzen,NI_Sequenzen,2,8,,,,,,,,,,,,
,Move,canvas.Screen,0_3_0_8_0_2,down,response,,189171.29999995232,189163.553,189196.937,189709.5,512.5629999999946,189710.39999985695,2021-10-31T20:24:57.370Z,189730.263,1635711700,full,ni_sequenzen,NI_Sequenzen,3,8,,,,,,,,,,,,
,Move,canvas.Screen,0_3_0_8_0_3,right,response,,189716.09999990463,189713.446,189730.263,190197.39999985695,467.13699985694257,190198.20000004768,2021-10-31T20:24:57.858Z,190280.228,1635711700,full,ni_sequenzen,NI_Sequenzen,4,8,,,,,,,,,,,,
,Move,canvas.Screen,0_3_0_8_0_4,-999,skipped,,190203.5,,,190197.39999985695,,190203.70000004768,2021-10-31T20:24:57.863Z,190280.228,1635711700,full,ni_sequenzen,NI_Sequenzen,5,8,,,,,,,,,,,,
,Move,canvas.Screen,0_3_0_8_0_5,-999,skipped,,190208.70000004768,,,190197.39999985695,,190208.89999985695,2021-10-31T20:24:57.868Z,190280.228,1635711700,full,ni_sequenzen,NI_Sequenzen,6,8,,,,,,,,,,,,
,Move,canvas.Screen,0_3_0_8_0_6,-999,skipped,,190214.79999995232,,,190197.39999985695,,190215,2021-10-31T20:24:57.875Z,190280.228,1635711700,full,ni_sequenzen,NI_Sequenzen,7,8,,,,,,,,,,,,
,Move,canvas.Screen,0_3_0_8_0_7,-999,skipped,,190220.29999995232,,,190197.39999985695,,190220.5,2021-10-31T20:24:57.880Z,190280.228,1635711700,full,ni_sequenzen,NI_Sequenzen,8,8,,,,,,,,,,,,
,Move,canvas.Screen,0_3_0_8_0_8,-999,skipped,,190225.29999995232,,,190197.39999985695,,190225.5,2021-10-31T20:24:57.885Z,190280.228,1635711700,full,ni_sequenzen,NI_Sequenzen,9,8,,,,,,,,,,,,
,Move,canvas.Screen,0_3_0_8_0_9,-999,skipped,,190232.29999995232,,,190197.39999985695,,190232.79999995232,2021-10-31T20:24:57.892Z,190280.228,1635711700,full,ni_sequenzen,NI_Sequenzen,10,8,,,,,,,,,,,,
,Move,canvas.Screen,0_3_0_8_0_10,-999,skipped,,190237.89999985695,,,190197.39999985695,,190238.09999990463,2021-10-31T20:24:57.898Z,190280.228,1635711700,full,ni_sequenzen,NI_Sequenzen,11,8,,,,,,,,,,,,
,Move,canvas.Screen,0_3_0_8_0_11,-999,skipped,,190243.20000004768,,,190197.39999985695,,190243.5,2021-10-31T20:24:57.903Z,190280.228,1635711700,full,ni_sequenzen,NI_Sequenzen,12,8,,,,,,,,,,,,
,Move,canvas.Screen,0_3_0_8_0_12,-999,skipped,,190249.39999985695,,,190197.39999985695,,190249.59999990463,2021-10-31T20:24:57.909Z,190280.228,1635711700,full,ni_sequenzen,NI_Sequenzen,13,8,,,,,,,,,,,,
