meta,sender,sender_type,sender_id,response,ended_on,instrCount,time_run,time_render,time_show,time_end,duration,time_commit,timestamp,time_switch,openLabId,type,task,project,move,trialN,blockN_Train,blockN,moveCount,currPP,points,movesTrial,visitedFields,diff,reward,Strategie,Zweck,Probleme
[object Object],Screen_1,canvas.Screen,0_0_0_0,cont,response,1,735,742.7,759.36,15453,14693.64,15468,2021-10-30T09:58:35.415Z,15600.26,1635587894,full,ni_sequenzen,NI_Sequenzen,,,,,,,,,,,,,,
,Screen_2,canvas.Screen,0_0_0_1,cont,response,1,15586,15585.66,15600.26,56843,41242.74,56859,2021-10-30T09:59:16.807Z,56941.56,1635587894,full,ni_sequenzen,NI_Sequenzen,,,,,,,,,,,,,,
,Screen_3,canvas.Screen,0_0_0_2,cont,response,1,56927,56927,56941.56,94515,37573.44,94538,2021-10-30T09:59:54.485Z,94551.84,1635587894,full,ni_sequenzen,NI_Sequenzen,,,,,,,,,,,,,,
,Screen_4,canvas.Screen,0_0_0_3,cont,response,1,94543,94542.68,94551.84,98562,4010.1600000000035,98571,2021-10-30T09:59:58.519Z,98765.88,1635587894,full,ni_sequenzen,NI_Sequenzen,,,,,,,,,,,,,,
,Sequence,flow.Sequence,0_0_0,,completion,1,683,742.7,759.36,98562,97802.64,98573,2021-10-30T09:59:58.520Z,98765.88,1635587894,full,ni_sequenzen,NI_Sequenzen,,,,,,,,,,,,,,
,Screen_1,canvas.Screen,0_0_1_0,,skipped,2,98578,,,98578,,98578,2021-10-30T09:59:58.525Z,98765.88,1635587894,full,ni_sequenzen,NI_Sequenzen,,,,,,,,,,,,,,
,Screen_2,canvas.Screen,0_0_1_1,,skipped,2,98579,,,98578,,98579,2021-10-30T09:59:58.527Z,98765.88,1635587894,full,ni_sequenzen,NI_Sequenzen,,,,,,,,,,,,,,
,Screen_3,canvas.Screen,0_0_1_2,,skipped,2,98581,,,98578,,98581,2021-10-30T09:59:58.528Z,98765.88,1635587894,full,ni_sequenzen,NI_Sequenzen,,,,,,,,,,,,,,
,Screen_4,canvas.Screen,0_0_1_3,,skipped,2,98582,,,98578,,98582,2021-10-30T09:59:58.530Z,98765.88,1635587894,full,ni_sequenzen,NI_Sequenzen,,,,,,,,,,,,,,
,Sequence,flow.Sequence,0_0_1,,completion,2,98575,,,98578,,98583,2021-10-30T09:59:58.530Z,98765.88,1635587894,full,ni_sequenzen,NI_Sequenzen,,,,,,,,,,,,,,
,Screen_1,canvas.Screen,0_0_2_0,,skipped,3,98584,,,98584,,98584,2021-10-30T09:59:58.532Z,98765.88,1635587894,full,ni_sequenzen,NI_Sequenzen,,,,,,,,,,,,,,
,Screen_2,canvas.Screen,0_0_2_1,,skipped,3,98586,,,98584,,98586,2021-10-30T09:59:58.533Z,98765.88,1635587894,full,ni_sequenzen,NI_Sequenzen,,,,,,,,,,,,,,
,Screen_3,canvas.Screen,0_0_2_2,,skipped,3,98587,,,98584,,98588,2021-10-30T09:59:58.534Z,98765.88,1635587894,full,ni_sequenzen,NI_Sequenzen,,,,,,,,,,,,,,
,Screen_4,canvas.Screen,0_0_2_3,,skipped,3,98589,,,98584,,98589,2021-10-30T09:59:58.536Z,98765.88,1635587894,full,ni_sequenzen,NI_Sequenzen,,,,,,,,,,,,,,
,Sequence,flow.Sequence,0_0_2,,completion,3,98583,,,98584,,98589,2021-10-30T09:59:58.536Z,98765.88,1635587894,full,ni_sequenzen,NI_Sequenzen,,,,,,,,,,,,,,
,Screen_1,canvas.Screen,0_0_3_0,,skipped,4,98590,,,98590,,98590,2021-10-30T09:59:58.537Z,98765.88,1635587894,full,ni_sequenzen,NI_Sequenzen,,,,,,,,,,,,,,
,Screen_2,canvas.Screen,0_0_3_1,,skipped,4,98591,,,98590,,98591,2021-10-30T09:59:58.538Z,98765.88,1635587894,full,ni_sequenzen,NI_Sequenzen,,,,,,,,,,,,,,
,Screen_3,canvas.Screen,0_0_3_2,,skipped,4,98592,,,98590,,98592,2021-10-30T09:59:58.539Z,98765.88,1635587894,full,ni_sequenzen,NI_Sequenzen,,,,,,,,,,,,,,
,Screen_4,canvas.Screen,0_0_3_3,,skipped,4,98593,,,98590,,98593,2021-10-30T09:59:58.541Z,98765.88,1635587894,full,ni_sequenzen,NI_Sequenzen,,,,,,,,,,,,,,
,Sequence,flow.Sequence,0_0_3,,completion,4,98589,,,98590,,98593,2021-10-30T09:59:58.541Z,98765.88,1635587894,full,ni_sequenzen,NI_Sequenzen,,,,,,,,,,,,,,
,Screen_1,canvas.Screen,0_0_4_0,,skipped,5,98595,,,98595,,98595,2021-10-30T09:59:58.543Z,98765.88,1635587894,full,ni_sequenzen,NI_Sequenzen,,,,,,,,,,,,,,
,Screen_2,canvas.Screen,0_0_4_1,,skipped,5,98596,,,98595,,98596,2021-10-30T09:59:58.544Z,98765.88,1635587894,full,ni_sequenzen,NI_Sequenzen,,,,,,,,,,,,,,
,Screen_3,canvas.Screen,0_0_4_2,,skipped,5,98597,,,98595,,98597,2021-10-30T09:59:58.545Z,98765.88,1635587894,full,ni_sequenzen,NI_Sequenzen,,,,,,,,,,,,,,
,Screen_4,canvas.Screen,0_0_4_3,,skipped,5,98599,,,98595,,98599,2021-10-30T09:59:58.546Z,98765.88,1635587894,full,ni_sequenzen,NI_Sequenzen,,,,,,,,,,,,,,
,Sequence,flow.Sequence,0_0_4,,completion,5,98594,,,98595,,98599,2021-10-30T09:59:58.546Z,98765.88,1635587894,full,ni_sequenzen,NI_Sequenzen,,,,,,,,,,,,,,
,Screen_1,canvas.Screen,0_0_5_0,,skipped,6,98601,,,98601,,98601,2021-10-30T09:59:58.548Z,98765.88,1635587894,full,ni_sequenzen,NI_Sequenzen,,,,,,,,,,,,,,
,Screen_2,canvas.Screen,0_0_5_1,,skipped,6,98602,,,98601,,98602,2021-10-30T09:59:58.549Z,98765.88,1635587894,full,ni_sequenzen,NI_Sequenzen,,,,,,,,,,,,,,
,Screen_3,canvas.Screen,0_0_5_2,,skipped,6,98603,,,98601,,98603,2021-10-30T09:59:58.550Z,98765.88,1635587894,full,ni_sequenzen,NI_Sequenzen,,,,,,,,,,,,,,
,Screen_4,canvas.Screen,0_0_5_3,,skipped,6,98603,,,98601,,98603,2021-10-30T09:59:58.551Z,98765.88,1635587894,full,ni_sequenzen,NI_Sequenzen,,,,,,,,,,,,,,
,Sequence,flow.Sequence,0_0_5,,completion,6,98600,,,98601,,98603,2021-10-30T09:59:58.551Z,98765.88,1635587894,full,ni_sequenzen,NI_Sequenzen,,,,,,,,,,,,,,
,Screen_1,canvas.Screen,0_0_6_0,,skipped,7,98605,,,98605,,98605,2021-10-30T09:59:58.553Z,98765.88,1635587894,full,ni_sequenzen,NI_Sequenzen,,,,,,,,,,,,,,
,Screen_2,canvas.Screen,0_0_6_1,,skipped,7,98606,,,98605,,98606,2021-10-30T09:59:58.554Z,98765.88,1635587894,full,ni_sequenzen,NI_Sequenzen,,,,,,,,,,,,,,
,Screen_3,canvas.Screen,0_0_6_2,,skipped,7,98607,,,98605,,98607,2021-10-30T09:59:58.555Z,98765.88,1635587894,full,ni_sequenzen,NI_Sequenzen,,,,,,,,,,,,,,
,Screen_4,canvas.Screen,0_0_6_3,,skipped,7,98608,,,98605,,98608,2021-10-30T09:59:58.556Z,98765.88,1635587894,full,ni_sequenzen,NI_Sequenzen,,,,,,,,,,,,,,
,Sequence,flow.Sequence,0_0_6,,completion,7,98604,,,98605,,98608,2021-10-30T09:59:58.556Z,98765.88,1635587894,full,ni_sequenzen,NI_Sequenzen,,,,,,,,,,,,,,
,Screen_1,canvas.Screen,0_0_7_0,,skipped,8,98609,,,98609,,98609,2021-10-30T09:59:58.557Z,98765.88,1635587894,full,ni_sequenzen,NI_Sequenzen,,,,,,,,,,,,,,
,Screen_2,canvas.Screen,0_0_7_1,,skipped,8,98610,,,98609,,98610,2021-10-30T09:59:58.558Z,98765.88,1635587894,full,ni_sequenzen,NI_Sequenzen,,,,,,,,,,,,,,
,Screen_3,canvas.Screen,0_0_7_2,,skipped,8,98611,,,98609,,98611,2021-10-30T09:59:58.559Z,98765.88,1635587894,full,ni_sequenzen,NI_Sequenzen,,,,,,,,,,,,,,
,Screen_4,canvas.Screen,0_0_7_3,,skipped,8,98613,,,98609,,98613,2021-10-30T09:59:58.560Z,98765.88,1635587894,full,ni_sequenzen,NI_Sequenzen,,,,,,,,,,,,,,
,Sequence,flow.Sequence,0_0_7,,completion,8,98609,,,98609,,98613,2021-10-30T09:59:58.560Z,98765.88,1635587894,full,ni_sequenzen,NI_Sequenzen,,,,,,,,,,,,,,
,Screen_1,canvas.Screen,0_0_8_0,,skipped,9,98615,,,98615,,98615,2021-10-30T09:59:58.563Z,98765.88,1635587894,full,ni_sequenzen,NI_Sequenzen,,,,,,,,,,,,,,
,Screen_2,canvas.Screen,0_0_8_1,,skipped,9,98616,,,98615,,98616,2021-10-30T09:59:58.563Z,98765.88,1635587894,full,ni_sequenzen,NI_Sequenzen,,,,,,,,,,,,,,
,Screen_3,canvas.Screen,0_0_8_2,,skipped,9,98617,,,98615,,98617,2021-10-30T09:59:58.564Z,98765.88,1635587894,full,ni_sequenzen,NI_Sequenzen,,,,,,,,,,,,,,
,Screen_4,canvas.Screen,0_0_8_3,,skipped,9,98618,,,98615,,98618,2021-10-30T09:59:58.566Z,98765.88,1635587894,full,ni_sequenzen,NI_Sequenzen,,,,,,,,,,,,,,
,Sequence,flow.Sequence,0_0_8,,completion,9,98613,,,98615,,98618,2021-10-30T09:59:58.566Z,98765.88,1635587894,full,ni_sequenzen,NI_Sequenzen,,,,,,,,,,,,,,
,Screen_1,canvas.Screen,0_0_9_0,,skipped,10,98619,,,98619,,98619,2021-10-30T09:59:58.567Z,98765.88,1635587894,full,ni_sequenzen,NI_Sequenzen,,,,,,,,,,,,,,
,Screen_2,canvas.Screen,0_0_9_1,,skipped,10,98620,,,98619,,98621,2021-10-30T09:59:58.568Z,98765.88,1635587894,full,ni_sequenzen,NI_Sequenzen,,,,,,,,,,,,,,
,Screen_3,canvas.Screen,0_0_9_2,,skipped,10,98621,,,98619,,98621,2021-10-30T09:59:58.569Z,98765.88,1635587894,full,ni_sequenzen,NI_Sequenzen,,,,,,,,,,,,,,
,Screen_4,canvas.Screen,0_0_9_3,,skipped,10,98622,,,98619,,98622,2021-10-30T09:59:58.570Z,98765.88,1635587894,full,ni_sequenzen,NI_Sequenzen,,,,,,,,,,,,,,
,Sequence,flow.Sequence,0_0_9,,completion,10,98619,,,98619,,98622,2021-10-30T09:59:58.570Z,98765.88,1635587894,full,ni_sequenzen,NI_Sequenzen,,,,,,,,,,,,,,
,Screen_1,canvas.Screen,0_0_10_0,,skipped,11,98624,,,98624,,98624,2021-10-30T09:59:58.571Z,98765.88,1635587894,full,ni_sequenzen,NI_Sequenzen,,,,,,,,,,,,,,
,Screen_2,canvas.Screen,0_0_10_1,,skipped,11,98625,,,98624,,98625,2021-10-30T09:59:58.572Z,98765.88,1635587894,full,ni_sequenzen,NI_Sequenzen,,,,,,,,,,,,,,
,Screen_3,canvas.Screen,0_0_10_2,,skipped,11,98626,,,98624,,98626,2021-10-30T09:59:58.573Z,98765.88,1635587894,full,ni_sequenzen,NI_Sequenzen,,,,,,,,,,,,,,
,Screen_4,canvas.Screen,0_0_10_3,,skipped,11,98626,,,98624,,98626,2021-10-30T09:59:58.574Z,98765.88,1635587894,full,ni_sequenzen,NI_Sequenzen,,,,,,,,,,,,,,
,Sequence,flow.Sequence,0_0_10,,completion,11,98623,,,98624,,98627,2021-10-30T09:59:58.574Z,98765.88,1635587894,full,ni_sequenzen,NI_Sequenzen,,,,,,,,,,,,,,
,Screen_1,canvas.Screen,0_0_11_0,,skipped,12,98629,,,98629,,98629,2021-10-30T09:59:58.577Z,98765.88,1635587894,full,ni_sequenzen,NI_Sequenzen,,,,,,,,,,,,,,
,Screen_2,canvas.Screen,0_0_11_1,,skipped,12,98631,,,98629,,98631,2021-10-30T09:59:58.579Z,98765.88,1635587894,full,ni_sequenzen,NI_Sequenzen,,,,,,,,,,,,,,
,Screen_3,canvas.Screen,0_0_11_2,,skipped,12,98633,,,98629,,98633,2021-10-30T09:59:58.580Z,98765.88,1635587894,full,ni_sequenzen,NI_Sequenzen,,,,,,,,,,,,,,
,Screen_4,canvas.Screen,0_0_11_3,,skipped,12,98634,,,98629,,98634,2021-10-30T09:59:58.581Z,98765.88,1635587894,full,ni_sequenzen,NI_Sequenzen,,,,,,,,,,,,,,
,Sequence,flow.Sequence,0_0_11,,completion,12,98627,,,98629,,98634,2021-10-30T09:59:58.581Z,98765.88,1635587894,full,ni_sequenzen,NI_Sequenzen,,,,,,,,,,,,,,
,Screen_1,canvas.Screen,0_0_12_0,,skipped,13,98635,,,98635,,98635,2021-10-30T09:59:58.582Z,98765.88,1635587894,full,ni_sequenzen,NI_Sequenzen,,,,,,,,,,,,,,
,Screen_2,canvas.Screen,0_0_12_1,,skipped,13,98636,,,98635,,98636,2021-10-30T09:59:58.583Z,98765.88,1635587894,full,ni_sequenzen,NI_Sequenzen,,,,,,,,,,,,,,
,Screen_3,canvas.Screen,0_0_12_2,,skipped,13,98637,,,98635,,98637,2021-10-30T09:59:58.584Z,98765.88,1635587894,full,ni_sequenzen,NI_Sequenzen,,,,,,,,,,,,,,
,Screen_4,canvas.Screen,0_0_12_3,,skipped,13,98638,,,98635,,98638,2021-10-30T09:59:58.585Z,98765.88,1635587894,full,ni_sequenzen,NI_Sequenzen,,,,,,,,,,,,,,
,Sequence,flow.Sequence,0_0_12,,completion,13,98634,,,98635,,98638,2021-10-30T09:59:58.585Z,98765.88,1635587894,full,ni_sequenzen,NI_Sequenzen,,,,,,,,,,,,,,
,Screen_1,canvas.Screen,0_0_13_0,,skipped,14,98639,,,98639,,98639,2021-10-30T09:59:58.586Z,98765.88,1635587894,full,ni_sequenzen,NI_Sequenzen,,,,,,,,,,,,,,
,Screen_2,canvas.Screen,0_0_13_1,,skipped,14,98640,,,98639,,98640,2021-10-30T09:59:58.588Z,98765.88,1635587894,full,ni_sequenzen,NI_Sequenzen,,,,,,,,,,,,,,
,Screen_3,canvas.Screen,0_0_13_2,,skipped,14,98641,,,98639,,98641,2021-10-30T09:59:58.589Z,98765.88,1635587894,full,ni_sequenzen,NI_Sequenzen,,,,,,,,,,,,,,
,Screen_4,canvas.Screen,0_0_13_3,,skipped,14,98642,,,98639,,98642,2021-10-30T09:59:58.590Z,98765.88,1635587894,full,ni_sequenzen,NI_Sequenzen,,,,,,,,,,,,,,
,Sequence,flow.Sequence,0_0_13,,completion,14,98638,,,98639,,98642,2021-10-30T09:59:58.590Z,98765.88,1635587894,full,ni_sequenzen,NI_Sequenzen,,,,,,,,,,,,,,
,Screen_1,canvas.Screen,0_0_14_0,,skipped,15,98644,,,98644,,98644,2021-10-30T09:59:58.591Z,98765.88,1635587894,full,ni_sequenzen,NI_Sequenzen,,,,,,,,,,,,,,
,Screen_2,canvas.Screen,0_0_14_1,,skipped,15,98644,,,98644,,98645,2021-10-30T09:59:58.592Z,98765.88,1635587894,full,ni_sequenzen,NI_Sequenzen,,,,,,,,,,,,,,
,Screen_3,canvas.Screen,0_0_14_2,,skipped,15,98645,,,98644,,98645,2021-10-30T09:59:58.593Z,98765.88,1635587894,full,ni_sequenzen,NI_Sequenzen,,,,,,,,,,,,,,
,Screen_4,canvas.Screen,0_0_14_3,,skipped,15,98647,,,98644,,98647,2021-10-30T09:59:58.594Z,98765.88,1635587894,full,ni_sequenzen,NI_Sequenzen,,,,,,,,,,,,,,
,Sequence,flow.Sequence,0_0_14,,completion,15,98643,,,98644,,98647,2021-10-30T09:59:58.594Z,98765.88,1635587894,full,ni_sequenzen,NI_Sequenzen,,,,,,,,,,,,,,
,Screen_1,canvas.Screen,0_0_15_0,,skipped,16,98648,,,98648,,98648,2021-10-30T09:59:58.595Z,98765.88,1635587894,full,ni_sequenzen,NI_Sequenzen,,,,,,,,,,,,,,
,Screen_2,canvas.Screen,0_0_15_1,,skipped,16,98649,,,98648,,98649,2021-10-30T09:59:58.596Z,98765.88,1635587894,full,ni_sequenzen,NI_Sequenzen,,,,,,,,,,,,,,
,Screen_3,canvas.Screen,0_0_15_2,,skipped,16,98650,,,98648,,98650,2021-10-30T09:59:58.597Z,98765.88,1635587894,full,ni_sequenzen,NI_Sequenzen,,,,,,,,,,,,,,
,Screen_4,canvas.Screen,0_0_15_3,,skipped,16,98651,,,98648,,98651,2021-10-30T09:59:58.598Z,98765.88,1635587894,full,ni_sequenzen,NI_Sequenzen,,,,,,,,,,,,,,
,Sequence,flow.Sequence,0_0_15,,completion,16,98647,,,98648,,98651,2021-10-30T09:59:58.598Z,98765.88,1635587894,full,ni_sequenzen,NI_Sequenzen,,,,,,,,,,,,,,
,Screen_1,canvas.Screen,0_0_16_0,,skipped,17,98653,,,98653,,98653,2021-10-30T09:59:58.600Z,98765.88,1635587894,full,ni_sequenzen,NI_Sequenzen,,,,,,,,,,,,,,
,Screen_2,canvas.Screen,0_0_16_1,,skipped,17,98654,,,98653,,98654,2021-10-30T09:59:58.601Z,98765.88,1635587894,full,ni_sequenzen,NI_Sequenzen,,,,,,,,,,,,,,
,Screen_3,canvas.Screen,0_0_16_2,,skipped,17,98655,,,98653,,98655,2021-10-30T09:59:58.602Z,98765.88,1635587894,full,ni_sequenzen,NI_Sequenzen,,,,,,,,,,,,,,
,Screen_4,canvas.Screen,0_0_16_3,,skipped,17,98655,,,98653,,98655,2021-10-30T09:59:58.602Z,98765.88,1635587894,full,ni_sequenzen,NI_Sequenzen,,,,,,,,,,,,,,
,Sequence,flow.Sequence,0_0_16,,completion,17,98651,,,98653,,98655,2021-10-30T09:59:58.602Z,98765.88,1635587894,full,ni_sequenzen,NI_Sequenzen,,,,,,,,,,,,,,
,Screen_1,canvas.Screen,0_0_17_0,,skipped,18,98657,,,98657,,98657,2021-10-30T09:59:58.604Z,98765.88,1635587894,full,ni_sequenzen,NI_Sequenzen,,,,,,,,,,,,,,
,Screen_2,canvas.Screen,0_0_17_1,,skipped,18,98657,,,98657,,98657,2021-10-30T09:59:58.604Z,98765.88,1635587894,full,ni_sequenzen,NI_Sequenzen,,,,,,,,,,,,,,
,Screen_3,canvas.Screen,0_0_17_2,,skipped,18,98658,,,98657,,98658,2021-10-30T09:59:58.605Z,98765.88,1635587894,full,ni_sequenzen,NI_Sequenzen,,,,,,,,,,,,,,
,Screen_4,canvas.Screen,0_0_17_3,,skipped,18,98659,,,98657,,98659,2021-10-30T09:59:58.607Z,98765.88,1635587894,full,ni_sequenzen,NI_Sequenzen,,,,,,,,,,,,,,
,Sequence,flow.Sequence,0_0_17,,completion,18,98656,,,98657,,98659,2021-10-30T09:59:58.607Z,98765.88,1635587894,full,ni_sequenzen,NI_Sequenzen,,,,,,,,,,,,,,
,Screen_1,canvas.Screen,0_0_18_0,,skipped,19,98660,,,98660,,98660,2021-10-30T09:59:58.608Z,98765.88,1635587894,full,ni_sequenzen,NI_Sequenzen,,,,,,,,,,,,,,
,Screen_2,canvas.Screen,0_0_18_1,,skipped,19,98660,,,98660,,98660,2021-10-30T09:59:58.608Z,98765.88,1635587894,full,ni_sequenzen,NI_Sequenzen,,,,,,,,,,,,,,
,Screen_3,canvas.Screen,0_0_18_2,,skipped,19,98661,,,98660,,98661,2021-10-30T09:59:58.609Z,98765.88,1635587894,full,ni_sequenzen,NI_Sequenzen,,,,,,,,,,,,,,
,Screen_4,canvas.Screen,0_0_18_3,,skipped,19,98662,,,98660,,98662,2021-10-30T09:59:58.610Z,98765.88,1635587894,full,ni_sequenzen,NI_Sequenzen,,,,,,,,,,,,,,
,Sequence,flow.Sequence,0_0_18,,completion,19,98659,,,98660,,98662,2021-10-30T09:59:58.610Z,98765.88,1635587894,full,ni_sequenzen,NI_Sequenzen,,,,,,,,,,,,,,
,Screen_1,canvas.Screen,0_0_19_0,,skipped,20,98663,,,98663,,98663,2021-10-30T09:59:58.611Z,98765.88,1635587894,full,ni_sequenzen,NI_Sequenzen,,,,,,,,,,,,,,
,Screen_2,canvas.Screen,0_0_19_1,,skipped,20,98664,,,98663,,98664,2021-10-30T09:59:58.612Z,98765.88,1635587894,full,ni_sequenzen,NI_Sequenzen,,,,,,,,,,,,,,
,Screen_3,canvas.Screen,0_0_19_2,,skipped,20,98666,,,98663,,98666,2021-10-30T09:59:58.613Z,98765.88,1635587894,full,ni_sequenzen,NI_Sequenzen,,,,,,,,,,,,,,
,Screen_4,canvas.Screen,0_0_19_3,,skipped,20,98667,,,98663,,98667,2021-10-30T09:59:58.614Z,98765.88,1635587894,full,ni_sequenzen,NI_Sequenzen,,,,,,,,,,,,,,
,Sequence,flow.Sequence,0_0_19,,completion,20,98663,,,98663,,98667,2021-10-30T09:59:58.614Z,98765.88,1635587894,full,ni_sequenzen,NI_Sequenzen,,,,,,,,,,,,,,
,Instructions_I,flow.Loop,0_0,,completion,,683,742.7,759.36,98663,97903.64,98667,2021-10-30T09:59:58.615Z,98765.88,1635587894,full,ni_sequenzen,NI_Sequenzen,,,,,,,,,,,,,,
,Move,canvas.Screen,0_1_0_0,left,response,,98751,98750.86,98765.88,100890,2124.1199999999953,100900,2021-10-30T10:00:00.848Z,100914.6,1635587894,full,ni_sequenzen,NI_Sequenzen,1,,,,,,,,,,,,,
,Move,canvas.Screen,0_1_0_1,right,response,,100906,100906.22,100914.6,101718,803.3999999999942,101736,2021-10-30T10:00:01.684Z,101747.48,1635587894,full,ni_sequenzen,NI_Sequenzen,2,,,,,,,,,,,,,
,Move,canvas.Screen,0_1_0_2,right,response,,101743,101743.06,101747.48,103062,1314.520000000004,103087,2021-10-30T10:00:03.035Z,103096.58,1635587894,full,ni_sequenzen,NI_Sequenzen,3,,,,,,,,,,,,,
,Move,canvas.Screen,0_1_0_3,down,response,,103093,103092.38,103096.58,104577,1480.4199999999983,104592,2021-10-30T10:00:04.540Z,104612.28,1635587894,full,ni_sequenzen,NI_Sequenzen,4,,,,,,,,,,,,,
,Move,canvas.Screen,0_1_0_4,down,response,,104598,104598.64,104612.28,104812,199.72000000000116,104830,2021-10-30T10:00:04.778Z,104862.16,1635587894,full,ni_sequenzen,NI_Sequenzen,5,,,,,,,,,,,,,
,Move,canvas.Screen,0_1_0_5,down,response,,104851,104851.42,104862.16,104999,136.8399999999965,105012,2021-10-30T10:00:04.959Z,105028.74,1635587894,full,ni_sequenzen,NI_Sequenzen,6,,,,,,,,,,,,,
,Move,canvas.Screen,0_1_0_6,down,response,,105019,105019.18,105028.74,105140,111.25999999999476,105159,2021-10-30T10:00:05.106Z,105178.68,1635587894,full,ni_sequenzen,NI_Sequenzen,7,,,,,,,,,,,,,
,Move,canvas.Screen,0_1_0_7,down,response,,105175,105174.82,105178.68,105296,117.32000000000698,105316,2021-10-30T10:00:05.264Z,105345.26,1635587894,full,ni_sequenzen,NI_Sequenzen,8,,,,,,,,,,,,,
,Move,canvas.Screen,0_1_0_8,right,response,,105330,105329.9,105345.26,106468,1122.7400000000052,106491,2021-10-30T10:00:06.439Z,106511.16,1635587894,full,ni_sequenzen,NI_Sequenzen,9,,,,,,,,,,,,,
,Move,canvas.Screen,0_1_0_9,right,response,,106498,106498.2,106511.16,106687,175.8399999999965,106696,2021-10-30T10:00:06.643Z,106711.06,1635587894,full,ni_sequenzen,NI_Sequenzen,10,,,,,,,,,,,,,
,Move,canvas.Screen,0_1_0_10,right,response,,106701,106701,106711.06,106890,178.94000000000233,106902,2021-10-30T10:00:06.850Z,106910.88,1635587894,full,ni_sequenzen,NI_Sequenzen,11,,,,,,,,,,,,,
,Move,canvas.Screen,0_1_0_11,left,response,,106908,106908.82,106910.88,107546,635.1199999999953,107567,2021-10-30T10:00:07.515Z,107577.14,1635587894,full,ni_sequenzen,NI_Sequenzen,12,,,,,,,,,,,,,
,Move,canvas.Screen,0_1_0_12,left,response,,107575,107574.34,107577.14,107735,157.86000000000058,107751,2021-10-30T10:00:07.699Z,107760.38,1635587894,full,ni_sequenzen,NI_Sequenzen,13,,,,,,,,,,,,,
,Move,canvas.Screen,0_1_0_13,left,response,,107760,107759.44,107760.38,107890,129.61999999999534,107898,2021-10-30T10:00:07.846Z,107910.3,1635587894,full,ni_sequenzen,NI_Sequenzen,14,,,,,,,,,,,,,
,Move,canvas.Screen,0_1_0_14,down,response,,107903,107902.66,107910.3,109046,1135.699999999997,109075,2021-10-30T10:00:09.023Z,109092.94,1635587894,full,ni_sequenzen,NI_Sequenzen,15,,,,,,,,,,,,,
,Move,canvas.Screen,0_1_0_15,left,response,,109081,109081.68,109092.94,110655,1562.0599999999977,110666,2021-10-30T10:00:10.615Z,110675.22,1635587894,full,ni_sequenzen,NI_Sequenzen,16,,,,,,,,,,,,,
,Move,canvas.Screen,0_1_0_16,left,response,,110673,110672.78,110675.22,111953,1277.7799999999988,111969,2021-10-30T10:00:11.918Z,111991.08,1635587894,full,ni_sequenzen,NI_Sequenzen,17,,,,,,,,,,,,,
,Move,canvas.Screen,0_1_0_17,left,response,,111974,111974.42,111991.08,112640,648.9199999999983,112653,2021-10-30T10:00:12.601Z,112674.08,1635587894,full,ni_sequenzen,NI_Sequenzen,18,,,,,,,,,,,,,
,Move,canvas.Screen,0_1_0_18,down,response,,112660,112660.14,112674.08,113578,903.9199999999983,113592,2021-10-30T10:00:13.539Z,113606.82,1635587894,full,ni_sequenzen,NI_Sequenzen,19,,,,,,,,,,,,,
,Move,canvas.Screen,0_1_0_19,down,response,,113596,113596.74,113606.82,113734,127.17999999999302,113765,2021-10-30T10:00:13.713Z,113790.06,1635587894,full,ni_sequenzen,NI_Sequenzen,20,,,,,,,,,,,,,
,Move,canvas.Screen,0_1_0_20,down,response,,113775,113775.08,113790.06,113905,114.94000000000233,113928,2021-10-30T10:00:13.876Z,113939.88,1635587894,full,ni_sequenzen,NI_Sequenzen,21,,,,,,,,,,,,,
,Move,canvas.Screen,0_1_0_21,right,response,,113938,113938.5,113939.88,114609,669.1199999999953,114636,2021-10-30T10:00:14.584Z,114656.2,1635587894,full,ni_sequenzen,NI_Sequenzen,22,,,,,,,,,,,,,
,Move,canvas.Screen,0_1_0_22,right,response,,114642,114642.26,114656.2,117827,3170.800000000003,117844,2021-10-30T10:00:17.792Z,117854.2,1635587894,full,ni_sequenzen,NI_Sequenzen,23,,,,,,,,,,,,,
,Move,canvas.Screen,0_1_0_23,left,response,,117851,117850.6,117854.2,118093,238.8000000000029,118114,2021-10-30T10:00:18.062Z,118137.38,1635587894,full,ni_sequenzen,NI_Sequenzen,24,,,,,,,,,,,,,
,Move,canvas.Screen,0_1_0_24,right,response,,118120,118120.66,118137.38,118234,96.61999999999534,118249,2021-10-30T10:00:18.196Z,118270.64,1635587894,full,ni_sequenzen,NI_Sequenzen,25,,,,,,,,,,,,,
,Move,canvas.Screen,0_1_0_25,left,response,,118256,118256.42,118270.64,118452,181.36000000000058,118459,2021-10-30T10:00:18.406Z,118470.42,1635587894,full,ni_sequenzen,NI_Sequenzen,26,,,,,,,,,,,,,
,Move,canvas.Screen,0_1_0_26,down,response,,118465,118464.88,118470.42,119328,857.5800000000017,119345,2021-10-30T10:00:19.293Z,119369.98,1635587894,full,ni_sequenzen,NI_Sequenzen,27,,,,,,,,,,,,,
,Move,canvas.Screen,0_1_0_27,down,response,,119355,119355.04,119369.98,119530,160.02000000000407,119548,2021-10-30T10:00:19.495Z,119569.88,1635587894,full,ni_sequenzen,NI_Sequenzen,28,,,,,,,,,,,,,
,Move,canvas.Screen,0_1_0_28,down,response,,119555,119555.02,119569.88,119687,117.11999999999534,119712,2021-10-30T10:00:19.660Z,119719.72,1635587894,full,ni_sequenzen,NI_Sequenzen,29,,,,,,,,,,,,,
,Move,canvas.Screen,0_1_0_29,down,response,,119719,119718.84,119719.72,119859,139.27999999999884,119881,2021-10-30T10:00:19.828Z,119919.56,1635587894,full,ni_sequenzen,NI_Sequenzen,30,,,,,,,,,,,,,
,Loop,flow.Loop,0_1_0,-999,completion,,98676,98750.86,98765.88,119859,21093.119999999995,119882,2021-10-30T10:00:19.829Z,119919.56,1635587894,full,ni_sequenzen,NI_Sequenzen,,,,,,,,,,,,,,
,Training_I,flow.Sequence,0_1,,completion,,98667,98750.86,98765.88,119859,21093.119999999995,119882,2021-10-30T10:00:19.829Z,119919.56,1635587894,full,ni_sequenzen,NI_Sequenzen,,,,,,,,,,,,,,
,Screen_1,canvas.Screen,0_2_0_0,cont,response,1,119915,119914.3,119919.56,133203,13283.440000000002,133229,2021-10-30T10:00:33.177Z,133344.7,1635587894,full,ni_sequenzen,NI_Sequenzen,,,,,,,,,,,,,,
,Screen_2,canvas.Screen,0_2_0_1,cont,response,1,133329,133328.64,133344.7,145547,12202.299999999988,145562,2021-10-30T10:00:45.510Z,145570.56,1635587894,full,ni_sequenzen,NI_Sequenzen,,,,,,,,,,,,,,
,Screen_3,canvas.Screen,0_2_0_2,cont,response,1,145563,145563.12,145570.56,156265,10694.440000000002,156287,2021-10-30T10:00:56.235Z,156363.9,1635587894,full,ni_sequenzen,NI_Sequenzen,,,,,,,,,,,,,,
,Screen_4,canvas.Screen,0_2_0_3,cont,response,1,156359,156358.66,156363.9,160687,4323.100000000006,160700,2021-10-30T10:01:00.647Z,160711.26,1635587894,full,ni_sequenzen,NI_Sequenzen,,,,,,,,,,,,,,
,Screen_5,canvas.Screen,0_2_0_4,cont,response,1,160704,160703.64,160711.26,167735,7023.739999999991,167745,2021-10-30T10:01:07.693Z,167840.16,1635587894,full,ni_sequenzen,NI_Sequenzen,,,,,,,,,,,,,,
,Screen_6,canvas.Screen,0_2_0_5,cont,response,1,167834,167833.64,167840.16,173999,6158.8399999999965,174024,2021-10-30T10:01:13.973Z,174236.26,1635587894,full,ni_sequenzen,NI_Sequenzen,,,,,,,,,,,,,,
,Sequence,flow.Sequence,0_2_0,,completion,1,119914,119914.3,119919.56,173999,54079.44,174025,2021-10-30T10:01:13.973Z,174236.26,1635587894,full,ni_sequenzen,NI_Sequenzen,,,,,,,,,,,,,,
,Screen_1,canvas.Screen,0_2_1_0,,skipped,2,174031,,,174031,,174031,2021-10-30T10:01:13.979Z,174236.26,1635587894,full,ni_sequenzen,NI_Sequenzen,,,,,,,,,,,,,,
,Screen_2,canvas.Screen,0_2_1_1,,skipped,2,174033,,,174031,,174033,2021-10-30T10:01:13.980Z,174236.26,1635587894,full,ni_sequenzen,NI_Sequenzen,,,,,,,,,,,,,,
,Screen_3,canvas.Screen,0_2_1_2,,skipped,2,174034,,,174031,,174034,2021-10-30T10:01:13.982Z,174236.26,1635587894,full,ni_sequenzen,NI_Sequenzen,,,,,,,,,,,,,,
,Screen_4,canvas.Screen,0_2_1_3,,skipped,2,174035,,,174031,,174035,2021-10-30T10:01:13.984Z,174236.26,1635587894,full,ni_sequenzen,NI_Sequenzen,,,,,,,,,,,,,,
,Screen_5,canvas.Screen,0_2_1_4,,skipped,2,174037,,,174031,,174037,2021-10-30T10:01:13.985Z,174236.26,1635587894,full,ni_sequenzen,NI_Sequenzen,,,,,,,,,,,,,,
,Screen_6,canvas.Screen,0_2_1_5,,skipped,2,174038,,,174031,,174039,2021-10-30T10:01:13.986Z,174236.26,1635587894,full,ni_sequenzen,NI_Sequenzen,,,,,,,,,,,,,,
,Sequence,flow.Sequence,0_2_1,,completion,2,174029,,,174031,,174039,2021-10-30T10:01:13.986Z,174236.26,1635587894,full,ni_sequenzen,NI_Sequenzen,,,,,,,,,,,,,,
,Screen_1,canvas.Screen,0_2_2_0,,skipped,3,174040,,,174040,,174040,2021-10-30T10:01:13.988Z,174236.26,1635587894,full,ni_sequenzen,NI_Sequenzen,,,,,,,,,,,,,,
,Screen_2,canvas.Screen,0_2_2_1,,skipped,3,174041,,,174040,,174042,2021-10-30T10:01:13.989Z,174236.26,1635587894,full,ni_sequenzen,NI_Sequenzen,,,,,,,,,,,,,,
,Screen_3,canvas.Screen,0_2_2_2,,skipped,3,174043,,,174040,,174043,2021-10-30T10:01:13.991Z,174236.26,1635587894,full,ni_sequenzen,NI_Sequenzen,,,,,,,,,,,,,,
,Screen_4,canvas.Screen,0_2_2_3,,skipped,3,174045,,,174040,,174045,2021-10-30T10:01:13.992Z,174236.26,1635587894,full,ni_sequenzen,NI_Sequenzen,,,,,,,,,,,,,,
,Screen_5,canvas.Screen,0_2_2_4,,skipped,3,174046,,,174040,,174046,2021-10-30T10:01:13.993Z,174236.26,1635587894,full,ni_sequenzen,NI_Sequenzen,,,,,,,,,,,,,,
,Screen_6,canvas.Screen,0_2_2_5,,skipped,3,174047,,,174040,,174047,2021-10-30T10:01:13.994Z,174236.26,1635587894,full,ni_sequenzen,NI_Sequenzen,,,,,,,,,,,,,,
,Sequence,flow.Sequence,0_2_2,,completion,3,174039,,,174040,,174047,2021-10-30T10:01:13.994Z,174236.26,1635587894,full,ni_sequenzen,NI_Sequenzen,,,,,,,,,,,,,,
,Screen_1,canvas.Screen,0_2_3_0,,skipped,4,174048,,,174048,,174048,2021-10-30T10:01:13.995Z,174236.26,1635587894,full,ni_sequenzen,NI_Sequenzen,,,,,,,,,,,,,,
,Screen_2,canvas.Screen,0_2_3_1,,skipped,4,174049,,,174048,,174049,2021-10-30T10:01:13.996Z,174236.26,1635587894,full,ni_sequenzen,NI_Sequenzen,,,,,,,,,,,,,,
,Screen_3,canvas.Screen,0_2_3_2,,skipped,4,174050,,,174048,,174050,2021-10-30T10:01:13.998Z,174236.26,1635587894,full,ni_sequenzen,NI_Sequenzen,,,,,,,,,,,,,,
,Screen_4,canvas.Screen,0_2_3_3,,skipped,4,174051,,,174048,,174051,2021-10-30T10:01:13.998Z,174236.26,1635587894,full,ni_sequenzen,NI_Sequenzen,,,,,,,,,,,,,,
,Screen_5,canvas.Screen,0_2_3_4,,skipped,4,174052,,,174048,,174052,2021-10-30T10:01:14.000Z,174236.26,1635587894,full,ni_sequenzen,NI_Sequenzen,,,,,,,,,,,,,,
,Screen_6,canvas.Screen,0_2_3_5,,skipped,4,174053,,,174048,,174053,2021-10-30T10:01:14.000Z,174236.26,1635587894,full,ni_sequenzen,NI_Sequenzen,,,,,,,,,,,,,,
,Sequence,flow.Sequence,0_2_3,,completion,4,174047,,,174048,,174053,2021-10-30T10:01:14.000Z,174236.26,1635587894,full,ni_sequenzen,NI_Sequenzen,,,,,,,,,,,,,,
,Screen_1,canvas.Screen,0_2_4_0,,skipped,5,174054,,,174054,,174054,2021-10-30T10:01:14.002Z,174236.26,1635587894,full,ni_sequenzen,NI_Sequenzen,,,,,,,,,,,,,,
,Screen_2,canvas.Screen,0_2_4_1,,skipped,5,174055,,,174054,,174055,2021-10-30T10:01:14.003Z,174236.26,1635587894,full,ni_sequenzen,NI_Sequenzen,,,,,,,,,,,,,,
,Screen_3,canvas.Screen,0_2_4_2,,skipped,5,174056,,,174054,,174056,2021-10-30T10:01:14.004Z,174236.26,1635587894,full,ni_sequenzen,NI_Sequenzen,,,,,,,,,,,,,,
,Screen_4,canvas.Screen,0_2_4_3,,skipped,5,174057,,,174054,,174057,2021-10-30T10:01:14.005Z,174236.26,1635587894,full,ni_sequenzen,NI_Sequenzen,,,,,,,,,,,,,,
,Screen_5,canvas.Screen,0_2_4_4,,skipped,5,174058,,,174054,,174058,2021-10-30T10:01:14.006Z,174236.26,1635587894,full,ni_sequenzen,NI_Sequenzen,,,,,,,,,,,,,,
,Screen_6,canvas.Screen,0_2_4_5,,skipped,5,174059,,,174054,,174059,2021-10-30T10:01:14.007Z,174236.26,1635587894,full,ni_sequenzen,NI_Sequenzen,,,,,,,,,,,,,,
,Sequence,flow.Sequence,0_2_4,,completion,5,174054,,,174054,,174060,2021-10-30T10:01:14.007Z,174236.26,1635587894,full,ni_sequenzen,NI_Sequenzen,,,,,,,,,,,,,,
,Screen_1,canvas.Screen,0_2_5_0,,skipped,6,174061,,,174061,,174061,2021-10-30T10:01:14.008Z,174236.26,1635587894,full,ni_sequenzen,NI_Sequenzen,,,,,,,,,,,,,,
,Screen_2,canvas.Screen,0_2_5_1,,skipped,6,174062,,,174061,,174062,2021-10-30T10:01:14.009Z,174236.26,1635587894,full,ni_sequenzen,NI_Sequenzen,,,,,,,,,,,,,,
,Screen_3,canvas.Screen,0_2_5_2,,skipped,6,174063,,,174061,,174063,2021-10-30T10:01:14.010Z,174236.26,1635587894,full,ni_sequenzen,NI_Sequenzen,,,,,,,,,,,,,,
,Screen_4,canvas.Screen,0_2_5_3,,skipped,6,174064,,,174061,,174064,2021-10-30T10:01:14.011Z,174236.26,1635587894,full,ni_sequenzen,NI_Sequenzen,,,,,,,,,,,,,,
,Screen_5,canvas.Screen,0_2_5_4,,skipped,6,174065,,,174061,,174065,2021-10-30T10:01:14.013Z,174236.26,1635587894,full,ni_sequenzen,NI_Sequenzen,,,,,,,,,,,,,,
,Screen_6,canvas.Screen,0_2_5_5,,skipped,6,174067,,,174061,,174067,2021-10-30T10:01:14.014Z,174236.26,1635587894,full,ni_sequenzen,NI_Sequenzen,,,,,,,,,,,,,,
,Sequence,flow.Sequence,0_2_5,,completion,6,174060,,,174061,,174067,2021-10-30T10:01:14.015Z,174236.26,1635587894,full,ni_sequenzen,NI_Sequenzen,,,,,,,,,,,,,,
,Screen_1,canvas.Screen,0_2_6_0,,skipped,7,174068,,,174068,,174068,2021-10-30T10:01:14.016Z,174236.26,1635587894,full,ni_sequenzen,NI_Sequenzen,,,,,,,,,,,,,,
,Screen_2,canvas.Screen,0_2_6_1,,skipped,7,174070,,,174068,,174070,2021-10-30T10:01:14.017Z,174236.26,1635587894,full,ni_sequenzen,NI_Sequenzen,,,,,,,,,,,,,,
,Screen_3,canvas.Screen,0_2_6_2,,skipped,7,174070,,,174068,,174070,2021-10-30T10:01:14.018Z,174236.26,1635587894,full,ni_sequenzen,NI_Sequenzen,,,,,,,,,,,,,,
,Screen_4,canvas.Screen,0_2_6_3,,skipped,7,174071,,,174068,,174071,2021-10-30T10:01:14.019Z,174236.26,1635587894,full,ni_sequenzen,NI_Sequenzen,,,,,,,,,,,,,,
,Screen_5,canvas.Screen,0_2_6_4,,skipped,7,174072,,,174068,,174073,2021-10-30T10:01:14.020Z,174236.26,1635587894,full,ni_sequenzen,NI_Sequenzen,,,,,,,,,,,,,,
,Screen_6,canvas.Screen,0_2_6_5,,skipped,7,174073,,,174068,,174073,2021-10-30T10:01:14.021Z,174236.26,1635587894,full,ni_sequenzen,NI_Sequenzen,,,,,,,,,,,,,,
,Sequence,flow.Sequence,0_2_6,,completion,7,174068,,,174068,,174074,2021-10-30T10:01:14.021Z,174236.26,1635587894,full,ni_sequenzen,NI_Sequenzen,,,,,,,,,,,,,,
,Screen_1,canvas.Screen,0_2_7_0,,skipped,8,174075,,,174075,,174075,2021-10-30T10:01:14.023Z,174236.26,1635587894,full,ni_sequenzen,NI_Sequenzen,,,,,,,,,,,,,,
,Screen_2,canvas.Screen,0_2_7_1,,skipped,8,174076,,,174075,,174076,2021-10-30T10:01:14.024Z,174236.26,1635587894,full,ni_sequenzen,NI_Sequenzen,,,,,,,,,,,,,,
,Screen_3,canvas.Screen,0_2_7_2,,skipped,8,174077,,,174075,,174077,2021-10-30T10:01:14.025Z,174236.26,1635587894,full,ni_sequenzen,NI_Sequenzen,,,,,,,,,,,,,,
,Screen_4,canvas.Screen,0_2_7_3,,skipped,8,174078,,,174075,,174078,2021-10-30T10:01:14.026Z,174236.26,1635587894,full,ni_sequenzen,NI_Sequenzen,,,,,,,,,,,,,,
,Screen_5,canvas.Screen,0_2_7_4,,skipped,8,174079,,,174075,,174079,2021-10-30T10:01:14.027Z,174236.26,1635587894,full,ni_sequenzen,NI_Sequenzen,,,,,,,,,,,,,,
,Screen_6,canvas.Screen,0_2_7_5,,skipped,8,174079,,,174075,,174079,2021-10-30T10:01:14.027Z,174236.26,1635587894,full,ni_sequenzen,NI_Sequenzen,,,,,,,,,,,,,,
,Sequence,flow.Sequence,0_2_7,,completion,8,174074,,,174075,,174080,2021-10-30T10:01:14.028Z,174236.26,1635587894,full,ni_sequenzen,NI_Sequenzen,,,,,,,,,,,,,,
,Screen_1,canvas.Screen,0_2_8_0,,skipped,9,174081,,,174081,,174081,2021-10-30T10:01:14.029Z,174236.26,1635587894,full,ni_sequenzen,NI_Sequenzen,,,,,,,,,,,,,,
,Screen_2,canvas.Screen,0_2_8_1,,skipped,9,174081,,,174081,,174081,2021-10-30T10:01:14.029Z,174236.26,1635587894,full,ni_sequenzen,NI_Sequenzen,,,,,,,,,,,,,,
,Screen_3,canvas.Screen,0_2_8_2,,skipped,9,174083,,,174081,,174083,2021-10-30T10:01:14.030Z,174236.26,1635587894,full,ni_sequenzen,NI_Sequenzen,,,,,,,,,,,,,,
,Screen_4,canvas.Screen,0_2_8_3,,skipped,9,174084,,,174081,,174084,2021-10-30T10:01:14.031Z,174236.26,1635587894,full,ni_sequenzen,NI_Sequenzen,,,,,,,,,,,,,,
,Screen_5,canvas.Screen,0_2_8_4,,skipped,9,174085,,,174081,,174085,2021-10-30T10:01:14.032Z,174236.26,1635587894,full,ni_sequenzen,NI_Sequenzen,,,,,,,,,,,,,,
,Screen_6,canvas.Screen,0_2_8_5,,skipped,9,174085,,,174081,,174086,2021-10-30T10:01:14.033Z,174236.26,1635587894,full,ni_sequenzen,NI_Sequenzen,,,,,,,,,,,,,,
,Sequence,flow.Sequence,0_2_8,,completion,9,174080,,,174081,,174086,2021-10-30T10:01:14.033Z,174236.26,1635587894,full,ni_sequenzen,NI_Sequenzen,,,,,,,,,,,,,,
,Screen_1,canvas.Screen,0_2_9_0,,skipped,10,174086,,,174086,,174086,2021-10-30T10:01:14.034Z,174236.26,1635587894,full,ni_sequenzen,NI_Sequenzen,,,,,,,,,,,,,,
,Screen_2,canvas.Screen,0_2_9_1,,skipped,10,174088,,,174086,,174088,2021-10-30T10:01:14.035Z,174236.26,1635587894,full,ni_sequenzen,NI_Sequenzen,,,,,,,,,,,,,,
,Screen_3,canvas.Screen,0_2_9_2,,skipped,10,174089,,,174086,,174089,2021-10-30T10:01:14.036Z,174236.26,1635587894,full,ni_sequenzen,NI_Sequenzen,,,,,,,,,,,,,,
,Screen_4,canvas.Screen,0_2_9_3,,skipped,10,174089,,,174086,,174089,2021-10-30T10:01:14.037Z,174236.26,1635587894,full,ni_sequenzen,NI_Sequenzen,,,,,,,,,,,,,,
,Screen_5,canvas.Screen,0_2_9_4,,skipped,10,174091,,,174086,,174091,2021-10-30T10:01:14.039Z,174236.26,1635587894,full,ni_sequenzen,NI_Sequenzen,,,,,,,,,,,,,,
,Screen_6,canvas.Screen,0_2_9_5,,skipped,10,174092,,,174086,,174092,2021-10-30T10:01:14.040Z,174236.26,1635587894,full,ni_sequenzen,NI_Sequenzen,,,,,,,,,,,,,,
,Sequence,flow.Sequence,0_2_9,,completion,10,174086,,,174086,,174092,2021-10-30T10:01:14.040Z,174236.26,1635587894,full,ni_sequenzen,NI_Sequenzen,,,,,,,,,,,,,,
,Screen_1,canvas.Screen,0_2_10_0,,skipped,11,174094,,,174094,,174094,2021-10-30T10:01:14.042Z,174236.26,1635587894,full,ni_sequenzen,NI_Sequenzen,,,,,,,,,,,,,,
,Screen_2,canvas.Screen,0_2_10_1,,skipped,11,174095,,,174094,,174095,2021-10-30T10:01:14.043Z,174236.26,1635587894,full,ni_sequenzen,NI_Sequenzen,,,,,,,,,,,,,,
,Screen_3,canvas.Screen,0_2_10_2,,skipped,11,174095,,,174094,,174095,2021-10-30T10:01:14.043Z,174236.26,1635587894,full,ni_sequenzen,NI_Sequenzen,,,,,,,,,,,,,,
,Screen_4,canvas.Screen,0_2_10_3,,skipped,11,174096,,,174094,,174096,2021-10-30T10:01:14.044Z,174236.26,1635587894,full,ni_sequenzen,NI_Sequenzen,,,,,,,,,,,,,,
,Screen_5,canvas.Screen,0_2_10_4,,skipped,11,174098,,,174094,,174098,2021-10-30T10:01:14.045Z,174236.26,1635587894,full,ni_sequenzen,NI_Sequenzen,,,,,,,,,,,,,,
,Screen_6,canvas.Screen,0_2_10_5,,skipped,11,174099,,,174094,,174099,2021-10-30T10:01:14.046Z,174236.26,1635587894,full,ni_sequenzen,NI_Sequenzen,,,,,,,,,,,,,,
,Sequence,flow.Sequence,0_2_10,,completion,11,174093,,,174094,,174099,2021-10-30T10:01:14.046Z,174236.26,1635587894,full,ni_sequenzen,NI_Sequenzen,,,,,,,,,,,,,,
,Screen_1,canvas.Screen,0_2_11_0,,skipped,12,174100,,,174100,,174100,2021-10-30T10:01:14.047Z,174236.26,1635587894,full,ni_sequenzen,NI_Sequenzen,,,,,,,,,,,,,,
,Screen_2,canvas.Screen,0_2_11_1,,skipped,12,174101,,,174100,,174101,2021-10-30T10:01:14.047Z,174236.26,1635587894,full,ni_sequenzen,NI_Sequenzen,,,,,,,,,,,,,,
,Screen_3,canvas.Screen,0_2_11_2,,skipped,12,174101,,,174100,,174101,2021-10-30T10:01:14.048Z,174236.26,1635587894,full,ni_sequenzen,NI_Sequenzen,,,,,,,,,,,,,,
,Screen_4,canvas.Screen,0_2_11_3,,skipped,12,174102,,,174100,,174102,2021-10-30T10:01:14.049Z,174236.26,1635587894,full,ni_sequenzen,NI_Sequenzen,,,,,,,,,,,,,,
,Screen_5,canvas.Screen,0_2_11_4,,skipped,12,174103,,,174100,,174103,2021-10-30T10:01:14.051Z,174236.26,1635587894,full,ni_sequenzen,NI_Sequenzen,,,,,,,,,,,,,,
,Screen_6,canvas.Screen,0_2_11_5,,skipped,12,174104,,,174100,,174104,2021-10-30T10:01:14.052Z,174236.26,1635587894,full,ni_sequenzen,NI_Sequenzen,,,,,,,,,,,,,,
,Sequence,flow.Sequence,0_2_11,,completion,12,174099,,,174100,,174104,2021-10-30T10:01:14.052Z,174236.26,1635587894,full,ni_sequenzen,NI_Sequenzen,,,,,,,,,,,,,,
,Screen_1,canvas.Screen,0_2_12_0,,skipped,13,174106,,,174106,,174106,2021-10-30T10:01:14.054Z,174236.26,1635587894,full,ni_sequenzen,NI_Sequenzen,,,,,,,,,,,,,,
,Screen_2,canvas.Screen,0_2_12_1,,skipped,13,174106,,,174106,,174107,2021-10-30T10:01:14.054Z,174236.26,1635587894,full,ni_sequenzen,NI_Sequenzen,,,,,,,,,,,,,,
,Screen_3,canvas.Screen,0_2_12_2,,skipped,13,174107,,,174106,,174107,2021-10-30T10:01:14.055Z,174236.26,1635587894,full,ni_sequenzen,NI_Sequenzen,,,,,,,,,,,,,,
,Screen_4,canvas.Screen,0_2_12_3,,skipped,13,174108,,,174106,,174108,2021-10-30T10:01:14.056Z,174236.26,1635587894,full,ni_sequenzen,NI_Sequenzen,,,,,,,,,,,,,,
,Screen_5,canvas.Screen,0_2_12_4,,skipped,13,174109,,,174106,,174109,2021-10-30T10:01:14.057Z,174236.26,1635587894,full,ni_sequenzen,NI_Sequenzen,,,,,,,,,,,,,,
,Screen_6,canvas.Screen,0_2_12_5,,skipped,13,174110,,,174106,,174110,2021-10-30T10:01:14.057Z,174236.26,1635587894,full,ni_sequenzen,NI_Sequenzen,,,,,,,,,,,,,,
,Sequence,flow.Sequence,0_2_12,,completion,13,174105,,,174106,,174110,2021-10-30T10:01:14.057Z,174236.26,1635587894,full,ni_sequenzen,NI_Sequenzen,,,,,,,,,,,,,,
,Screen_1,canvas.Screen,0_2_13_0,,skipped,14,174111,,,174111,,174111,2021-10-30T10:01:14.058Z,174236.26,1635587894,full,ni_sequenzen,NI_Sequenzen,,,,,,,,,,,,,,
,Screen_2,canvas.Screen,0_2_13_1,,skipped,14,174111,,,174111,,174111,2021-10-30T10:01:14.059Z,174236.26,1635587894,full,ni_sequenzen,NI_Sequenzen,,,,,,,,,,,,,,
,Screen_3,canvas.Screen,0_2_13_2,,skipped,14,174112,,,174111,,174112,2021-10-30T10:01:14.060Z,174236.26,1635587894,full,ni_sequenzen,NI_Sequenzen,,,,,,,,,,,,,,
,Screen_4,canvas.Screen,0_2_13_3,,skipped,14,174113,,,174111,,174113,2021-10-30T10:01:14.061Z,174236.26,1635587894,full,ni_sequenzen,NI_Sequenzen,,,,,,,,,,,,,,
,Screen_5,canvas.Screen,0_2_13_4,,skipped,14,174114,,,174111,,174114,2021-10-30T10:01:14.061Z,174236.26,1635587894,full,ni_sequenzen,NI_Sequenzen,,,,,,,,,,,,,,
,Screen_6,canvas.Screen,0_2_13_5,,skipped,14,174115,,,174111,,174115,2021-10-30T10:01:14.062Z,174236.26,1635587894,full,ni_sequenzen,NI_Sequenzen,,,,,,,,,,,,,,
,Sequence,flow.Sequence,0_2_13,,completion,14,174110,,,174111,,174115,2021-10-30T10:01:14.062Z,174236.26,1635587894,full,ni_sequenzen,NI_Sequenzen,,,,,,,,,,,,,,
,Screen_1,canvas.Screen,0_2_14_0,,skipped,15,174116,,,174116,,174116,2021-10-30T10:01:14.063Z,174236.26,1635587894,full,ni_sequenzen,NI_Sequenzen,,,,,,,,,,,,,,
,Screen_2,canvas.Screen,0_2_14_1,,skipped,15,174117,,,174116,,174117,2021-10-30T10:01:14.063Z,174236.26,1635587894,full,ni_sequenzen,NI_Sequenzen,,,,,,,,,,,,,,
,Screen_3,canvas.Screen,0_2_14_2,,skipped,15,174117,,,174116,,174117,2021-10-30T10:01:14.064Z,174236.26,1635587894,full,ni_sequenzen,NI_Sequenzen,,,,,,,,,,,,,,
,Screen_4,canvas.Screen,0_2_14_3,,skipped,15,174118,,,174116,,174118,2021-10-30T10:01:14.065Z,174236.26,1635587894,full,ni_sequenzen,NI_Sequenzen,,,,,,,,,,,,,,
,Screen_5,canvas.Screen,0_2_14_4,,skipped,15,174119,,,174116,,174119,2021-10-30T10:01:14.066Z,174236.26,1635587894,full,ni_sequenzen,NI_Sequenzen,,,,,,,,,,,,,,
,Screen_6,canvas.Screen,0_2_14_5,,skipped,15,174120,,,174116,,174120,2021-10-30T10:01:14.067Z,174236.26,1635587894,full,ni_sequenzen,NI_Sequenzen,,,,,,,,,,,,,,
,Sequence,flow.Sequence,0_2_14,,completion,15,174115,,,174116,,174120,2021-10-30T10:01:14.068Z,174236.26,1635587894,full,ni_sequenzen,NI_Sequenzen,,,,,,,,,,,,,,
,Screen_1,canvas.Screen,0_2_15_0,,skipped,16,174121,,,174121,,174121,2021-10-30T10:01:14.069Z,174236.26,1635587894,full,ni_sequenzen,NI_Sequenzen,,,,,,,,,,,,,,
,Screen_2,canvas.Screen,0_2_15_1,,skipped,16,174122,,,174121,,174122,2021-10-30T10:01:14.070Z,174236.26,1635587894,full,ni_sequenzen,NI_Sequenzen,,,,,,,,,,,,,,
,Screen_3,canvas.Screen,0_2_15_2,,skipped,16,174123,,,174121,,174123,2021-10-30T10:01:14.071Z,174236.26,1635587894,full,ni_sequenzen,NI_Sequenzen,,,,,,,,,,,,,,
,Screen_4,canvas.Screen,0_2_15_3,,skipped,16,174123,,,174121,,174123,2021-10-30T10:01:14.071Z,174236.26,1635587894,full,ni_sequenzen,NI_Sequenzen,,,,,,,,,,,,,,
,Screen_5,canvas.Screen,0_2_15_4,,skipped,16,174124,,,174121,,174125,2021-10-30T10:01:14.073Z,174236.26,1635587894,full,ni_sequenzen,NI_Sequenzen,,,,,,,,,,,,,,
,Screen_6,canvas.Screen,0_2_15_5,,skipped,16,174127,,,174121,,174127,2021-10-30T10:01:14.075Z,174236.26,1635587894,full,ni_sequenzen,NI_Sequenzen,,,,,,,,,,,,,,
,Sequence,flow.Sequence,0_2_15,,completion,16,174120,,,174121,,174127,2021-10-30T10:01:14.075Z,174236.26,1635587894,full,ni_sequenzen,NI_Sequenzen,,,,,,,,,,,,,,
,Screen_1,canvas.Screen,0_2_16_0,,skipped,17,174131,,,174131,,174131,2021-10-30T10:01:14.078Z,174236.26,1635587894,full,ni_sequenzen,NI_Sequenzen,,,,,,,,,,,,,,
,Screen_2,canvas.Screen,0_2_16_1,,skipped,17,174134,,,174131,,174134,2021-10-30T10:01:14.082Z,174236.26,1635587894,full,ni_sequenzen,NI_Sequenzen,,,,,,,,,,,,,,
,Screen_3,canvas.Screen,0_2_16_2,,skipped,17,174135,,,174131,,174136,2021-10-30T10:01:14.083Z,174236.26,1635587894,full,ni_sequenzen,NI_Sequenzen,,,,,,,,,,,,,,
,Screen_4,canvas.Screen,0_2_16_3,,skipped,17,174137,,,174131,,174137,2021-10-30T10:01:14.085Z,174236.26,1635587894,full,ni_sequenzen,NI_Sequenzen,,,,,,,,,,,,,,
,Screen_5,canvas.Screen,0_2_16_4,,skipped,17,174138,,,174131,,174139,2021-10-30T10:01:14.086Z,174236.26,1635587894,full,ni_sequenzen,NI_Sequenzen,,,,,,,,,,,,,,
,Screen_6,canvas.Screen,0_2_16_5,,skipped,17,174139,,,174131,,174139,2021-10-30T10:01:14.087Z,174236.26,1635587894,full,ni_sequenzen,NI_Sequenzen,,,,,,,,,,,,,,
,Sequence,flow.Sequence,0_2_16,,completion,17,174128,,,174131,,174139,2021-10-30T10:01:14.087Z,174236.26,1635587894,full,ni_sequenzen,NI_Sequenzen,,,,,,,,,,,,,,
,Screen_1,canvas.Screen,0_2_17_0,,skipped,18,174140,,,174140,,174140,2021-10-30T10:01:14.089Z,174236.26,1635587894,full,ni_sequenzen,NI_Sequenzen,,,,,,,,,,,,,,
,Screen_2,canvas.Screen,0_2_17_1,,skipped,18,174141,,,174140,,174141,2021-10-30T10:01:14.089Z,174236.26,1635587894,full,ni_sequenzen,NI_Sequenzen,,,,,,,,,,,,,,
,Screen_3,canvas.Screen,0_2_17_2,,skipped,18,174142,,,174140,,174142,2021-10-30T10:01:14.090Z,174236.26,1635587894,full,ni_sequenzen,NI_Sequenzen,,,,,,,,,,,,,,
,Screen_4,canvas.Screen,0_2_17_3,,skipped,18,174143,,,174140,,174143,2021-10-30T10:01:14.091Z,174236.26,1635587894,full,ni_sequenzen,NI_Sequenzen,,,,,,,,,,,,,,
,Screen_5,canvas.Screen,0_2_17_4,,skipped,18,174144,,,174140,,174144,2021-10-30T10:01:14.092Z,174236.26,1635587894,full,ni_sequenzen,NI_Sequenzen,,,,,,,,,,,,,,
,Screen_6,canvas.Screen,0_2_17_5,,skipped,18,174144,,,174140,,174144,2021-10-30T10:01:14.092Z,174236.26,1635587894,full,ni_sequenzen,NI_Sequenzen,,,,,,,,,,,,,,
,Sequence,flow.Sequence,0_2_17,,completion,18,174140,,,174140,,174146,2021-10-30T10:01:14.093Z,174236.26,1635587894,full,ni_sequenzen,NI_Sequenzen,,,,,,,,,,,,,,
,Screen_1,canvas.Screen,0_2_18_0,,skipped,19,174147,,,174147,,174147,2021-10-30T10:01:14.095Z,174236.26,1635587894,full,ni_sequenzen,NI_Sequenzen,,,,,,,,,,,,,,
,Screen_2,canvas.Screen,0_2_18_1,,skipped,19,174147,,,174147,,174147,2021-10-30T10:01:14.095Z,174236.26,1635587894,full,ni_sequenzen,NI_Sequenzen,,,,,,,,,,,,,,
,Screen_3,canvas.Screen,0_2_18_2,,skipped,19,174149,,,174147,,174149,2021-10-30T10:01:14.096Z,174236.26,1635587894,full,ni_sequenzen,NI_Sequenzen,,,,,,,,,,,,,,
,Screen_4,canvas.Screen,0_2_18_3,,skipped,19,174150,,,174147,,174150,2021-10-30T10:01:14.097Z,174236.26,1635587894,full,ni_sequenzen,NI_Sequenzen,,,,,,,,,,,,,,
,Screen_5,canvas.Screen,0_2_18_4,,skipped,19,174150,,,174147,,174150,2021-10-30T10:01:14.098Z,174236.26,1635587894,full,ni_sequenzen,NI_Sequenzen,,,,,,,,,,,,,,
,Screen_6,canvas.Screen,0_2_18_5,,skipped,19,174152,,,174147,,174152,2021-10-30T10:01:14.099Z,174236.26,1635587894,full,ni_sequenzen,NI_Sequenzen,,,,,,,,,,,,,,
,Sequence,flow.Sequence,0_2_18,,completion,19,174147,,,174147,,174152,2021-10-30T10:01:14.099Z,174236.26,1635587894,full,ni_sequenzen,NI_Sequenzen,,,,,,,,,,,,,,
,Screen_1,canvas.Screen,0_2_19_0,,skipped,20,174153,,,174153,,174153,2021-10-30T10:01:14.100Z,174236.26,1635587894,full,ni_sequenzen,NI_Sequenzen,,,,,,,,,,,,,,
,Screen_2,canvas.Screen,0_2_19_1,,skipped,20,174154,,,174153,,174154,2021-10-30T10:01:14.101Z,174236.26,1635587894,full,ni_sequenzen,NI_Sequenzen,,,,,,,,,,,,,,
,Screen_3,canvas.Screen,0_2_19_2,,skipped,20,174155,,,174153,,174155,2021-10-30T10:01:14.102Z,174236.26,1635587894,full,ni_sequenzen,NI_Sequenzen,,,,,,,,,,,,,,
,Screen_4,canvas.Screen,0_2_19_3,,skipped,20,174155,,,174153,,174155,2021-10-30T10:01:14.103Z,174236.26,1635587894,full,ni_sequenzen,NI_Sequenzen,,,,,,,,,,,,,,
,Screen_5,canvas.Screen,0_2_19_4,,skipped,20,174156,,,174153,,174156,2021-10-30T10:01:14.104Z,174236.26,1635587894,full,ni_sequenzen,NI_Sequenzen,,,,,,,,,,,,,,
,Screen_6,canvas.Screen,0_2_19_5,,skipped,20,174157,,,174153,,174157,2021-10-30T10:01:14.105Z,174236.26,1635587894,full,ni_sequenzen,NI_Sequenzen,,,,,,,,,,,,,,
,Sequence,flow.Sequence,0_2_19,,completion,20,174152,,,174153,,174157,2021-10-30T10:01:14.105Z,174236.26,1635587894,full,ni_sequenzen,NI_Sequenzen,,,,,,,,,,,,,,
,Screen_1,canvas.Screen,0_2_20_0,,skipped,21,174158,,,174158,,174158,2021-10-30T10:01:14.106Z,174236.26,1635587894,full,ni_sequenzen,NI_Sequenzen,,,,,,,,,,,,,,
,Screen_2,canvas.Screen,0_2_20_1,,skipped,21,174159,,,174158,,174159,2021-10-30T10:01:14.107Z,174236.26,1635587894,full,ni_sequenzen,NI_Sequenzen,,,,,,,,,,,,,,
,Screen_3,canvas.Screen,0_2_20_2,,skipped,21,174159,,,174158,,174160,2021-10-30T10:01:14.108Z,174236.26,1635587894,full,ni_sequenzen,NI_Sequenzen,,,,,,,,,,,,,,
,Screen_4,canvas.Screen,0_2_20_3,,skipped,21,174160,,,174158,,174160,2021-10-30T10:01:14.108Z,174236.26,1635587894,full,ni_sequenzen,NI_Sequenzen,,,,,,,,,,,,,,
,Screen_5,canvas.Screen,0_2_20_4,,skipped,21,174161,,,174158,,174161,2021-10-30T10:01:14.109Z,174236.26,1635587894,full,ni_sequenzen,NI_Sequenzen,,,,,,,,,,,,,,
,Screen_6,canvas.Screen,0_2_20_5,,skipped,21,174162,,,174158,,174162,2021-10-30T10:01:14.110Z,174236.26,1635587894,full,ni_sequenzen,NI_Sequenzen,,,,,,,,,,,,,,
,Sequence,flow.Sequence,0_2_20,,completion,21,174157,,,174158,,174163,2021-10-30T10:01:14.110Z,174236.26,1635587894,full,ni_sequenzen,NI_Sequenzen,,,,,,,,,,,,,,
,Screen_1,canvas.Screen,0_2_21_0,,skipped,22,174164,,,174164,,174164,2021-10-30T10:01:14.111Z,174236.26,1635587894,full,ni_sequenzen,NI_Sequenzen,,,,,,,,,,,,,,
,Screen_2,canvas.Screen,0_2_21_1,,skipped,22,174165,,,174164,,174165,2021-10-30T10:01:14.112Z,174236.26,1635587894,full,ni_sequenzen,NI_Sequenzen,,,,,,,,,,,,,,
,Screen_3,canvas.Screen,0_2_21_2,,skipped,22,174165,,,174164,,174165,2021-10-30T10:01:14.113Z,174236.26,1635587894,full,ni_sequenzen,NI_Sequenzen,,,,,,,,,,,,,,
,Screen_4,canvas.Screen,0_2_21_3,,skipped,22,174166,,,174164,,174166,2021-10-30T10:01:14.114Z,174236.26,1635587894,full,ni_sequenzen,NI_Sequenzen,,,,,,,,,,,,,,
,Screen_5,canvas.Screen,0_2_21_4,,skipped,22,174167,,,174164,,174167,2021-10-30T10:01:14.115Z,174236.26,1635587894,full,ni_sequenzen,NI_Sequenzen,,,,,,,,,,,,,,
,Screen_6,canvas.Screen,0_2_21_5,,skipped,22,174167,,,174164,,174167,2021-10-30T10:01:14.116Z,174236.26,1635587894,full,ni_sequenzen,NI_Sequenzen,,,,,,,,,,,,,,
,Sequence,flow.Sequence,0_2_21,,completion,22,174163,,,174164,,174167,2021-10-30T10:01:14.116Z,174236.26,1635587894,full,ni_sequenzen,NI_Sequenzen,,,,,,,,,,,,,,
,Screen_1,canvas.Screen,0_2_22_0,,skipped,23,174169,,,174169,,174169,2021-10-30T10:01:14.117Z,174236.26,1635587894,full,ni_sequenzen,NI_Sequenzen,,,,,,,,,,,,,,
,Screen_2,canvas.Screen,0_2_22_1,,skipped,23,174169,,,174169,,174169,2021-10-30T10:01:14.117Z,174236.26,1635587894,full,ni_sequenzen,NI_Sequenzen,,,,,,,,,,,,,,
,Screen_3,canvas.Screen,0_2_22_2,,skipped,23,174170,,,174169,,174170,2021-10-30T10:01:14.118Z,174236.26,1635587894,full,ni_sequenzen,NI_Sequenzen,,,,,,,,,,,,,,
,Screen_4,canvas.Screen,0_2_22_3,,skipped,23,174171,,,174169,,174171,2021-10-30T10:01:14.119Z,174236.26,1635587894,full,ni_sequenzen,NI_Sequenzen,,,,,,,,,,,,,,
,Screen_5,canvas.Screen,0_2_22_4,,skipped,23,174172,,,174169,,174172,2021-10-30T10:01:14.120Z,174236.26,1635587894,full,ni_sequenzen,NI_Sequenzen,,,,,,,,,,,,,,
,Screen_6,canvas.Screen,0_2_22_5,,skipped,23,174173,,,174169,,174173,2021-10-30T10:01:14.120Z,174236.26,1635587894,full,ni_sequenzen,NI_Sequenzen,,,,,,,,,,,,,,
,Sequence,flow.Sequence,0_2_22,,completion,23,174168,,,174169,,174173,2021-10-30T10:01:14.120Z,174236.26,1635587894,full,ni_sequenzen,NI_Sequenzen,,,,,,,,,,,,,,
,Screen_1,canvas.Screen,0_2_23_0,,skipped,24,174174,,,174174,,174174,2021-10-30T10:01:14.122Z,174236.26,1635587894,full,ni_sequenzen,NI_Sequenzen,,,,,,,,,,,,,,
,Screen_2,canvas.Screen,0_2_23_1,,skipped,24,174175,,,174174,,174175,2021-10-30T10:01:14.122Z,174236.26,1635587894,full,ni_sequenzen,NI_Sequenzen,,,,,,,,,,,,,,
,Screen_3,canvas.Screen,0_2_23_2,,skipped,24,174176,,,174174,,174176,2021-10-30T10:01:14.123Z,174236.26,1635587894,full,ni_sequenzen,NI_Sequenzen,,,,,,,,,,,,,,
,Screen_4,canvas.Screen,0_2_23_3,,skipped,24,174177,,,174174,,174177,2021-10-30T10:01:14.124Z,174236.26,1635587894,full,ni_sequenzen,NI_Sequenzen,,,,,,,,,,,,,,
,Screen_5,canvas.Screen,0_2_23_4,,skipped,24,174178,,,174174,,174178,2021-10-30T10:01:14.125Z,174236.26,1635587894,full,ni_sequenzen,NI_Sequenzen,,,,,,,,,,,,,,
,Screen_6,canvas.Screen,0_2_23_5,,skipped,24,174179,,,174174,,174179,2021-10-30T10:01:14.126Z,174236.26,1635587894,full,ni_sequenzen,NI_Sequenzen,,,,,,,,,,,,,,
,Sequence,flow.Sequence,0_2_23,,completion,24,174173,,,174174,,174179,2021-10-30T10:01:14.126Z,174236.26,1635587894,full,ni_sequenzen,NI_Sequenzen,,,,,,,,,,,,,,
,Screen_1,canvas.Screen,0_2_24_0,,skipped,25,174181,,,174181,,174181,2021-10-30T10:01:14.129Z,174236.26,1635587894,full,ni_sequenzen,NI_Sequenzen,,,,,,,,,,,,,,
,Screen_2,canvas.Screen,0_2_24_1,,skipped,25,174182,,,174181,,174182,2021-10-30T10:01:14.130Z,174236.26,1635587894,full,ni_sequenzen,NI_Sequenzen,,,,,,,,,,,,,,
,Screen_3,canvas.Screen,0_2_24_2,,skipped,25,174183,,,174181,,174183,2021-10-30T10:01:14.130Z,174236.26,1635587894,full,ni_sequenzen,NI_Sequenzen,,,,,,,,,,,,,,
,Screen_4,canvas.Screen,0_2_24_3,,skipped,25,174184,,,174181,,174184,2021-10-30T10:01:14.131Z,174236.26,1635587894,full,ni_sequenzen,NI_Sequenzen,,,,,,,,,,,,,,
,Screen_5,canvas.Screen,0_2_24_4,,skipped,25,174184,,,174181,,174184,2021-10-30T10:01:14.132Z,174236.26,1635587894,full,ni_sequenzen,NI_Sequenzen,,,,,,,,,,,,,,
,Screen_6,canvas.Screen,0_2_24_5,,skipped,25,174185,,,174181,,174185,2021-10-30T10:01:14.133Z,174236.26,1635587894,full,ni_sequenzen,NI_Sequenzen,,,,,,,,,,,,,,
,Sequence,flow.Sequence,0_2_24,,completion,25,174180,,,174181,,174185,2021-10-30T10:01:14.133Z,174236.26,1635587894,full,ni_sequenzen,NI_Sequenzen,,,,,,,,,,,,,,
,Screen_1,canvas.Screen,0_2_25_0,,skipped,26,174186,,,174186,,174186,2021-10-30T10:01:14.134Z,174236.26,1635587894,full,ni_sequenzen,NI_Sequenzen,,,,,,,,,,,,,,
,Screen_2,canvas.Screen,0_2_25_1,,skipped,26,174187,,,174186,,174187,2021-10-30T10:01:14.135Z,174236.26,1635587894,full,ni_sequenzen,NI_Sequenzen,,,,,,,,,,,,,,
,Screen_3,canvas.Screen,0_2_25_2,,skipped,26,174188,,,174186,,174188,2021-10-30T10:01:14.135Z,174236.26,1635587894,full,ni_sequenzen,NI_Sequenzen,,,,,,,,,,,,,,
,Screen_4,canvas.Screen,0_2_25_3,,skipped,26,174188,,,174186,,174188,2021-10-30T10:01:14.136Z,174236.26,1635587894,full,ni_sequenzen,NI_Sequenzen,,,,,,,,,,,,,,
,Screen_5,canvas.Screen,0_2_25_4,,skipped,26,174189,,,174186,,174189,2021-10-30T10:01:14.137Z,174236.26,1635587894,full,ni_sequenzen,NI_Sequenzen,,,,,,,,,,,,,,
,Screen_6,canvas.Screen,0_2_25_5,,skipped,26,174190,,,174186,,174190,2021-10-30T10:01:14.137Z,174236.26,1635587894,full,ni_sequenzen,NI_Sequenzen,,,,,,,,,,,,,,
,Sequence,flow.Sequence,0_2_25,,completion,26,174186,,,174186,,174190,2021-10-30T10:01:14.138Z,174236.26,1635587894,full,ni_sequenzen,NI_Sequenzen,,,,,,,,,,,,,,
,Screen_1,canvas.Screen,0_2_26_0,,skipped,27,174191,,,174191,,174191,2021-10-30T10:01:14.139Z,174236.26,1635587894,full,ni_sequenzen,NI_Sequenzen,,,,,,,,,,,,,,
,Screen_2,canvas.Screen,0_2_26_1,,skipped,27,174192,,,174191,,174192,2021-10-30T10:01:14.139Z,174236.26,1635587894,full,ni_sequenzen,NI_Sequenzen,,,,,,,,,,,,,,
,Screen_3,canvas.Screen,0_2_26_2,,skipped,27,174193,,,174191,,174193,2021-10-30T10:01:14.140Z,174236.26,1635587894,full,ni_sequenzen,NI_Sequenzen,,,,,,,,,,,,,,
,Screen_4,canvas.Screen,0_2_26_3,,skipped,27,174193,,,174191,,174193,2021-10-30T10:01:14.141Z,174236.26,1635587894,full,ni_sequenzen,NI_Sequenzen,,,,,,,,,,,,,,
,Screen_5,canvas.Screen,0_2_26_4,,skipped,27,174194,,,174191,,174194,2021-10-30T10:01:14.141Z,174236.26,1635587894,full,ni_sequenzen,NI_Sequenzen,,,,,,,,,,,,,,
,Screen_6,canvas.Screen,0_2_26_5,,skipped,27,174195,,,174191,,174195,2021-10-30T10:01:14.142Z,174236.26,1635587894,full,ni_sequenzen,NI_Sequenzen,,,,,,,,,,,,,,
,Sequence,flow.Sequence,0_2_26,,completion,27,174190,,,174191,,174195,2021-10-30T10:01:14.142Z,174236.26,1635587894,full,ni_sequenzen,NI_Sequenzen,,,,,,,,,,,,,,
,Screen_1,canvas.Screen,0_2_27_0,,skipped,28,174196,,,174196,,174196,2021-10-30T10:01:14.143Z,174236.26,1635587894,full,ni_sequenzen,NI_Sequenzen,,,,,,,,,,,,,,
,Screen_2,canvas.Screen,0_2_27_1,,skipped,28,174196,,,174196,,174196,2021-10-30T10:01:14.144Z,174236.26,1635587894,full,ni_sequenzen,NI_Sequenzen,,,,,,,,,,,,,,
,Screen_3,canvas.Screen,0_2_27_2,,skipped,28,174198,,,174196,,174198,2021-10-30T10:01:14.145Z,174236.26,1635587894,full,ni_sequenzen,NI_Sequenzen,,,,,,,,,,,,,,
,Screen_4,canvas.Screen,0_2_27_3,,skipped,28,174198,,,174196,,174198,2021-10-30T10:01:14.146Z,174236.26,1635587894,full,ni_sequenzen,NI_Sequenzen,,,,,,,,,,,,,,
,Screen_5,canvas.Screen,0_2_27_4,,skipped,28,174199,,,174196,,174199,2021-10-30T10:01:14.146Z,174236.26,1635587894,full,ni_sequenzen,NI_Sequenzen,,,,,,,,,,,,,,
,Screen_6,canvas.Screen,0_2_27_5,,skipped,28,174200,,,174196,,174200,2021-10-30T10:01:14.147Z,174236.26,1635587894,full,ni_sequenzen,NI_Sequenzen,,,,,,,,,,,,,,
,Sequence,flow.Sequence,0_2_27,,completion,28,174195,,,174196,,174200,2021-10-30T10:01:14.147Z,174236.26,1635587894,full,ni_sequenzen,NI_Sequenzen,,,,,,,,,,,,,,
,Screen_1,canvas.Screen,0_2_28_0,,skipped,29,174201,,,174201,,174201,2021-10-30T10:01:14.148Z,174236.26,1635587894,full,ni_sequenzen,NI_Sequenzen,,,,,,,,,,,,,,
,Screen_2,canvas.Screen,0_2_28_1,,skipped,29,174202,,,174201,,174202,2021-10-30T10:01:14.149Z,174236.26,1635587894,full,ni_sequenzen,NI_Sequenzen,,,,,,,,,,,,,,
,Screen_3,canvas.Screen,0_2_28_2,,skipped,29,174203,,,174201,,174203,2021-10-30T10:01:14.150Z,174236.26,1635587894,full,ni_sequenzen,NI_Sequenzen,,,,,,,,,,,,,,
,Screen_4,canvas.Screen,0_2_28_3,,skipped,29,174204,,,174201,,174204,2021-10-30T10:01:14.151Z,174236.26,1635587894,full,ni_sequenzen,NI_Sequenzen,,,,,,,,,,,,,,
,Screen_5,canvas.Screen,0_2_28_4,,skipped,29,174205,,,174201,,174205,2021-10-30T10:01:14.153Z,174236.26,1635587894,full,ni_sequenzen,NI_Sequenzen,,,,,,,,,,,,,,
,Screen_6,canvas.Screen,0_2_28_5,,skipped,29,174205,,,174201,,174205,2021-10-30T10:01:14.153Z,174236.26,1635587894,full,ni_sequenzen,NI_Sequenzen,,,,,,,,,,,,,,
,Sequence,flow.Sequence,0_2_28,,completion,29,174200,,,174201,,174206,2021-10-30T10:01:14.153Z,174236.26,1635587894,full,ni_sequenzen,NI_Sequenzen,,,,,,,,,,,,,,
,Screen_1,canvas.Screen,0_2_29_0,,skipped,30,174206,,,174206,,174207,2021-10-30T10:01:14.154Z,174236.26,1635587894,full,ni_sequenzen,NI_Sequenzen,,,,,,,,,,,,,,
,Screen_2,canvas.Screen,0_2_29_1,,skipped,30,174207,,,174206,,174207,2021-10-30T10:01:14.155Z,174236.26,1635587894,full,ni_sequenzen,NI_Sequenzen,,,,,,,,,,,,,,
,Screen_3,canvas.Screen,0_2_29_2,,skipped,30,174208,,,174206,,174208,2021-10-30T10:01:14.156Z,174236.26,1635587894,full,ni_sequenzen,NI_Sequenzen,,,,,,,,,,,,,,
,Screen_4,canvas.Screen,0_2_29_3,,skipped,30,174209,,,174206,,174209,2021-10-30T10:01:14.156Z,174236.26,1635587894,full,ni_sequenzen,NI_Sequenzen,,,,,,,,,,,,,,
,Screen_5,canvas.Screen,0_2_29_4,,skipped,30,174209,,,174206,,174209,2021-10-30T10:01:14.157Z,174236.26,1635587894,full,ni_sequenzen,NI_Sequenzen,,,,,,,,,,,,,,
,Screen_6,canvas.Screen,0_2_29_5,,skipped,30,174210,,,174206,,174210,2021-10-30T10:01:14.158Z,174236.26,1635587894,full,ni_sequenzen,NI_Sequenzen,,,,,,,,,,,,,,
,Sequence,flow.Sequence,0_2_29,,completion,30,174206,,,174206,,174210,2021-10-30T10:01:14.158Z,174236.26,1635587894,full,ni_sequenzen,NI_Sequenzen,,,,,,,,,,,,,,
,Instructions_II,flow.Loop,0_2,,completion,,119913,119914.3,119919.56,174206,54286.44,174211,2021-10-30T10:01:14.158Z,174236.26,1635587894,full,ni_sequenzen,NI_Sequenzen,,,,,,,,,,,,,,
,Move,canvas.Screen,0_3_0_0_0_0,left,response,,174235,174234.96,174236.26,187734,13497.73999999999,187746,2021-10-30T10:01:27.694Z,187761.26,1635587894,full,ni_sequenzen,NI_Sequenzen,1,0,,,,,,,,,,,,
,Move,canvas.Screen,0_3_0_0_0_1,down,response,,187760,187759.82,187761.26,192499,4737.739999999991,192517,2021-10-30T10:01:32.463Z,192525.04,1635587894,full,ni_sequenzen,NI_Sequenzen,2,0,,,,,,,,,,,,
,Move,canvas.Screen,0_3_0_0_0_2,down,response,,192523,192523.6,192525.04,193672,1146.9599999999919,193694,2021-10-30T10:01:33.642Z,193707.64,1635587894,full,ni_sequenzen,NI_Sequenzen,3,0,,,,,,,,,,,,
,Move,canvas.Screen,0_3_0_0_0_3,left,response,,193702,193701.58,193707.64,195874,2166.359999999986,195891,2021-10-30T10:01:35.839Z,195939.56,1635587894,full,ni_sequenzen,NI_Sequenzen,4,0,,,,,,,,,,,,
,Move,canvas.Screen,0_3_0_0_0_4,-999,skipped,,195897,,,195874,,195897,2021-10-30T10:01:35.846Z,195939.56,1635587894,full,ni_sequenzen,NI_Sequenzen,5,0,,,,,,,,,,,,
,Move,canvas.Screen,0_3_0_0_0_5,-999,skipped,,195902,,,195874,,195902,2021-10-30T10:01:35.849Z,195939.56,1635587894,full,ni_sequenzen,NI_Sequenzen,6,0,,,,,,,,,,,,
,Move,canvas.Screen,0_3_0_0_0_6,-999,skipped,,195905,,,195874,,195905,2021-10-30T10:01:35.853Z,195939.56,1635587894,full,ni_sequenzen,NI_Sequenzen,7,0,,,,,,,,,,,,
,Move,canvas.Screen,0_3_0_0_0_7,-999,skipped,,195909,,,195874,,195909,2021-10-30T10:01:35.856Z,195939.56,1635587894,full,ni_sequenzen,NI_Sequenzen,8,0,,,,,,,,,,,,
,Move,canvas.Screen,0_3_0_0_0_8,-999,skipped,,195912,,,195874,,195912,2021-10-30T10:01:35.859Z,195939.56,1635587894,full,ni_sequenzen,NI_Sequenzen,9,0,,,,,,,,,,,,
,Move,canvas.Screen,0_3_0_0_0_9,-999,skipped,,195915,,,195874,,195915,2021-10-30T10:01:35.863Z,195939.56,1635587894,full,ni_sequenzen,NI_Sequenzen,10,0,,,,,,,,,,,,
,Move,canvas.Screen,0_3_0_0_0_10,-999,skipped,,195919,,,195874,,195919,2021-10-30T10:01:35.866Z,195939.56,1635587894,full,ni_sequenzen,NI_Sequenzen,11,0,,,,,,,,,,,,
,Move,canvas.Screen,0_3_0_0_0_11,-999,skipped,,195922,,,195874,,195922,2021-10-30T10:01:35.870Z,195939.56,1635587894,full,ni_sequenzen,NI_Sequenzen,12,0,,,,,,,,,,,,
,Move,canvas.Screen,0_3_0_0_0_12,-999,skipped,,195925,,,195874,,195925,2021-10-30T10:01:35.873Z,195939.56,1635587894,full,ni_sequenzen,NI_Sequenzen,13,0,,,,,,,,,,,,
,Move,canvas.Screen,0_3_0_0_0_13,-999,skipped,,195929,,,195874,,195929,2021-10-30T10:01:35.876Z,195939.56,1635587894,full,ni_sequenzen,NI_Sequenzen,14,0,,,,,,,,,,,,
,Move,canvas.Screen,0_3_0_0_0_14,-999,skipped,,195932,,,195874,,195932,2021-10-30T10:01:35.880Z,195939.56,1635587894,full,ni_sequenzen,NI_Sequenzen,15,0,,,,,,,,,,,,
,Loop,flow.Loop,0_3_0_0_0,-999,completion,,174231,174234.96,174236.26,195874,21637.73999999999,195932,2021-10-30T10:01:35.880Z,195939.56,1635587894,full,ni_sequenzen,NI_Sequenzen,,0,,,,,,,,,,,,
,Feedback,canvas.Screen,0_3_0_0_1,,timeout,,195935,195934.72,195939.56,199920.64,3997.640000000014,199923,2021-10-30T10:01:39.871Z,199937.2,1635587894,full,ni_sequenzen,NI_Sequenzen,,0,,,,,,,,,,,,
,Trial,flow.Sequence,0_3_0_0,,completion,,174225,174234.96,174236.26,199920.64,25684.380000000005,199923,2021-10-30T10:01:39.871Z,199953.86,1635587894,full,ni_sequenzen,NI_Sequenzen,,0,,,,,,,,,,,,
,Move,canvas.Screen,0_3_0_1_0_0,right,response,,199934,199937.2,199953.86,215046,15092.140000000014,215069,2021-10-30T10:01:55.016Z,215077.82,1635587894,full,ni_sequenzen,NI_Sequenzen,1,1,,,,,,,,,,,,
,Move,canvas.Screen,0_3_0_1_0_1,down,response,,215076,215076,215077.82,216187,1109.179999999993,216199,2021-10-30T10:01:56.146Z,216210.54,1635587894,full,ni_sequenzen,NI_Sequenzen,2,1,,,,,,,,,,,,
,Move,canvas.Screen,0_3_0_1_0_2,right,response,,216207,216206.24,216210.54,217077,866.4599999999919,217102,2021-10-30T10:01:57.049Z,217109.92,1635587894,full,ni_sequenzen,NI_Sequenzen,3,1,,,,,,,,,,,,
,Move,canvas.Screen,0_3_0_1_0_3,down,response,,217108,217107.64,217109.92,218062,952.0799999999872,218093,2021-10-30T10:01:58.042Z,218159.28,1635587894,full,ni_sequenzen,NI_Sequenzen,4,1,,,,,,,,,,,,
,Move,canvas.Screen,0_3_0_1_0_4,-999,skipped,,218101,,,218062,,218101,2021-10-30T10:01:58.049Z,218159.28,1635587894,full,ni_sequenzen,NI_Sequenzen,5,1,,,,,,,,,,,,
,Move,canvas.Screen,0_3_0_1_0_5,-999,skipped,,218108,,,218062,,218108,2021-10-30T10:01:58.056Z,218159.28,1635587894,full,ni_sequenzen,NI_Sequenzen,6,1,,,,,,,,,,,,
,Move,canvas.Screen,0_3_0_1_0_6,-999,skipped,,218115,,,218062,,218115,2021-10-30T10:01:58.062Z,218159.28,1635587894,full,ni_sequenzen,NI_Sequenzen,7,1,,,,,,,,,,,,
,Move,canvas.Screen,0_3_0_1_0_7,-999,skipped,,218120,,,218062,,218120,2021-10-30T10:01:58.067Z,218159.28,1635587894,full,ni_sequenzen,NI_Sequenzen,8,1,,,,,,,,,,,,
,Move,canvas.Screen,0_3_0_1_0_8,-999,skipped,,218123,,,218062,,218123,2021-10-30T10:01:58.071Z,218159.28,1635587894,full,ni_sequenzen,NI_Sequenzen,9,1,,,,,,,,,,,,
,Move,canvas.Screen,0_3_0_1_0_9,-999,skipped,,218127,,,218062,,218127,2021-10-30T10:01:58.075Z,218159.28,1635587894,full,ni_sequenzen,NI_Sequenzen,10,1,,,,,,,,,,,,
,Move,canvas.Screen,0_3_0_1_0_10,-999,skipped,,218131,,,218062,,218131,2021-10-30T10:01:58.079Z,218159.28,1635587894,full,ni_sequenzen,NI_Sequenzen,11,1,,,,,,,,,,,,
,Move,canvas.Screen,0_3_0_1_0_11,-999,skipped,,218135,,,218062,,218135,2021-10-30T10:01:58.082Z,218159.28,1635587894,full,ni_sequenzen,NI_Sequenzen,12,1,,,,,,,,,,,,
,Move,canvas.Screen,0_3_0_1_0_12,-999,skipped,,218137,,,218062,,218137,2021-10-30T10:01:58.085Z,218159.28,1635587894,full,ni_sequenzen,NI_Sequenzen,13,1,,,,,,,,,,,,
,Move,canvas.Screen,0_3_0_1_0_13,-999,skipped,,218140,,,218062,,218140,2021-10-30T10:01:58.088Z,218159.28,1635587894,full,ni_sequenzen,NI_Sequenzen,14,1,,,,,,,,,,,,
,Move,canvas.Screen,0_3_0_1_0_14,-999,skipped,,218144,,,218062,,218144,2021-10-30T10:01:58.092Z,218159.28,1635587894,full,ni_sequenzen,NI_Sequenzen,15,1,,,,,,,,,,,,
,Loop,flow.Loop,0_3_0_1_0,-999,completion,,199930,199937.2,199953.86,218062,18108.140000000014,218144,2021-10-30T10:01:58.092Z,218159.28,1635587894,full,ni_sequenzen,NI_Sequenzen,,1,,,,,,,,,,,,
,Feedback,canvas.Screen,0_3_0_1_1,,timeout,,218147,218146.88,218159.28,222140.26,3997.5199999999895,222142,2021-10-30T10:02:02.089Z,222156.8,1635587894,full,ni_sequenzen,NI_Sequenzen,,1,,,,,,,,,,,,
,Trial,flow.Sequence,0_3_0_1,,completion,,199923,199937.2,199953.86,222140.26,22186.400000000023,222142,2021-10-30T10:02:02.089Z,222173.46,1635587894,full,ni_sequenzen,NI_Sequenzen,,1,,,,,,,,,,,,
,Move,canvas.Screen,0_3_0_2_0_0,down,response,,222152,222156.8,222173.46,231671,9497.540000000008,231685,2021-10-30T10:02:11.632Z,231701.02,1635587894,full,ni_sequenzen,NI_Sequenzen,1,2,,,,,,,,,,,,
,Move,canvas.Screen,0_3_0_2_0_1,left,response,,231691,231691.4,231701.02,232655,953.9800000000105,232661,2021-10-30T10:02:12.610Z,232683.74,1635587894,full,ni_sequenzen,NI_Sequenzen,2,2,,,,,,,,,,,,
,Move,canvas.Screen,0_3_0_2_0_2,down,response,,232668,232667.5,232683.74,234171,1487.2600000000093,234195,2021-10-30T10:02:14.143Z,234216.08,1635587894,full,ni_sequenzen,NI_Sequenzen,3,2,,,,,,,,,,,,
,Move,canvas.Screen,0_3_0_2_0_3,left,response,,234204,234203.82,234216.08,234562,345.9200000000128,234570,2021-10-30T10:02:14.518Z,234615.88,1635587894,full,ni_sequenzen,NI_Sequenzen,4,2,,,,,,,,,,,,
,Move,canvas.Screen,0_3_0_2_0_4,-999,skipped,,234578,,,234562,,234578,2021-10-30T10:02:14.525Z,234615.88,1635587894,full,ni_sequenzen,NI_Sequenzen,5,2,,,,,,,,,,,,
,Move,canvas.Screen,0_3_0_2_0_5,-999,skipped,,234581,,,234562,,234581,2021-10-30T10:02:14.529Z,234615.88,1635587894,full,ni_sequenzen,NI_Sequenzen,6,2,,,,,,,,,,,,
,Move,canvas.Screen,0_3_0_2_0_6,-999,skipped,,234584,,,234562,,234584,2021-10-30T10:02:14.532Z,234615.88,1635587894,full,ni_sequenzen,NI_Sequenzen,7,2,,,,,,,,,,,,
,Move,canvas.Screen,0_3_0_2_0_7,-999,skipped,,234587,,,234562,,234587,2021-10-30T10:02:14.535Z,234615.88,1635587894,full,ni_sequenzen,NI_Sequenzen,8,2,,,,,,,,,,,,
,Move,canvas.Screen,0_3_0_2_0_8,-999,skipped,,234590,,,234562,,234590,2021-10-30T10:02:14.538Z,234615.88,1635587894,full,ni_sequenzen,NI_Sequenzen,9,2,,,,,,,,,,,,
,Move,canvas.Screen,0_3_0_2_0_9,-999,skipped,,234594,,,234562,,234594,2021-10-30T10:02:14.541Z,234615.88,1635587894,full,ni_sequenzen,NI_Sequenzen,10,2,,,,,,,,,,,,
,Move,canvas.Screen,0_3_0_2_0_10,-999,skipped,,234596,,,234562,,234596,2021-10-30T10:02:14.544Z,234615.88,1635587894,full,ni_sequenzen,NI_Sequenzen,11,2,,,,,,,,,,,,
,Move,canvas.Screen,0_3_0_2_0_11,-999,skipped,,234600,,,234562,,234600,2021-10-30T10:02:14.548Z,234615.88,1635587894,full,ni_sequenzen,NI_Sequenzen,12,2,,,,,,,,,,,,
,Move,canvas.Screen,0_3_0_2_0_12,-999,skipped,,234603,,,234562,,234603,2021-10-30T10:02:14.551Z,234615.88,1635587894,full,ni_sequenzen,NI_Sequenzen,13,2,,,,,,,,,,,,
,Move,canvas.Screen,0_3_0_2_0_13,-999,skipped,,234606,,,234562,,234606,2021-10-30T10:02:14.554Z,234615.88,1635587894,full,ni_sequenzen,NI_Sequenzen,14,2,,,,,,,,,,,,
,Move,canvas.Screen,0_3_0_2_0_14,-999,skipped,,234609,,,234562,,234610,2021-10-30T10:02:14.558Z,234615.88,1635587894,full,ni_sequenzen,NI_Sequenzen,15,2,,,,,,,,,,,,
,Loop,flow.Loop,0_3_0_2_0,-999,completion,,222149,222156.8,222173.46,234562,12388.540000000008,234610,2021-10-30T10:02:14.558Z,234615.88,1635587894,full,ni_sequenzen,NI_Sequenzen,,2,,,,,,,,,,,,
,Feedback,canvas.Screen,0_3_0_2_1,,timeout,,234612,234612.12,234615.88,238596.9,3997.639999999985,238598,2021-10-30T10:02:18.546Z,238613.52,1635587894,full,ni_sequenzen,NI_Sequenzen,,2,,,,,,,,,,,,
,Trial,flow.Sequence,0_3_0_2,,completion,,222143,222156.8,222173.46,238596.9,16423.440000000002,238599,2021-10-30T10:02:18.546Z,238630.18,1635587894,full,ni_sequenzen,NI_Sequenzen,,2,,,,,,,,,,,,
,Move,canvas.Screen,0_3_0_3_0_0,down,response,,238609,238613.52,238630.18,244531,5900.820000000007,244557,2021-10-30T10:02:24.504Z,244576.44,1635587894,full,ni_sequenzen,NI_Sequenzen,1,3,,,,,,,,,,,,
,Move,canvas.Screen,0_3_0_3_0_1,down,response,,244561,244560.76,244576.44,245499,922.5599999999977,245516,2021-10-30T10:02:25.464Z,245525.84,1635587894,full,ni_sequenzen,NI_Sequenzen,2,3,,,,,,,,,,,,
,Move,canvas.Screen,0_3_0_3_0_2,right,response,,245524,245523.84,245525.84,247766,2240.1600000000035,247784,2021-10-30T10:02:27.731Z,247791.08,1635587894,full,ni_sequenzen,NI_Sequenzen,3,3,,,,,,,,,,,,
,Move,canvas.Screen,0_3_0_3_0_3,right,response,,247789,247789.38,247791.08,248640,848.9200000000128,248659,2021-10-30T10:02:28.606Z,248723.88,1635587894,full,ni_sequenzen,NI_Sequenzen,4,3,,,,,,,,,,,,
,Move,canvas.Screen,0_3_0_3_0_4,-999,skipped,,248671,,,248640,,248671,2021-10-30T10:02:28.619Z,248723.88,1635587894,full,ni_sequenzen,NI_Sequenzen,5,3,,,,,,,,,,,,
,Move,canvas.Screen,0_3_0_3_0_5,-999,skipped,,248677,,,248640,,248678,2021-10-30T10:02:28.626Z,248723.88,1635587894,full,ni_sequenzen,NI_Sequenzen,6,3,,,,,,,,,,,,
,Move,canvas.Screen,0_3_0_3_0_6,-999,skipped,,248683,,,248640,,248683,2021-10-30T10:02:28.630Z,248723.88,1635587894,full,ni_sequenzen,NI_Sequenzen,7,3,,,,,,,,,,,,
,Move,canvas.Screen,0_3_0_3_0_7,-999,skipped,,248689,,,248640,,248689,2021-10-30T10:02:28.637Z,248723.88,1635587894,full,ni_sequenzen,NI_Sequenzen,8,3,,,,,,,,,,,,
,Move,canvas.Screen,0_3_0_3_0_8,-999,skipped,,248694,,,248640,,248694,2021-10-30T10:02:28.641Z,248723.88,1635587894,full,ni_sequenzen,NI_Sequenzen,9,3,,,,,,,,,,,,
,Move,canvas.Screen,0_3_0_3_0_9,-999,skipped,,248697,,,248640,,248697,2021-10-30T10:02:28.645Z,248723.88,1635587894,full,ni_sequenzen,NI_Sequenzen,10,3,,,,,,,,,,,,
,Move,canvas.Screen,0_3_0_3_0_10,-999,skipped,,248701,,,248640,,248701,2021-10-30T10:02:28.648Z,248723.88,1635587894,full,ni_sequenzen,NI_Sequenzen,11,3,,,,,,,,,,,,
,Move,canvas.Screen,0_3_0_3_0_11,-999,skipped,,248705,,,248640,,248705,2021-10-30T10:02:28.653Z,248723.88,1635587894,full,ni_sequenzen,NI_Sequenzen,12,3,,,,,,,,,,,,
,Move,canvas.Screen,0_3_0_3_0_12,-999,skipped,,248709,,,248640,,248709,2021-10-30T10:02:28.656Z,248723.88,1635587894,full,ni_sequenzen,NI_Sequenzen,13,3,,,,,,,,,,,,
,Move,canvas.Screen,0_3_0_3_0_13,-999,skipped,,248712,,,248640,,248712,2021-10-30T10:02:28.660Z,248723.88,1635587894,full,ni_sequenzen,NI_Sequenzen,14,3,,,,,,,,,,,,
,Move,canvas.Screen,0_3_0_3_0_14,-999,skipped,,248715,,,248640,,248715,2021-10-30T10:02:28.664Z,248723.88,1635587894,full,ni_sequenzen,NI_Sequenzen,15,3,,,,,,,,,,,,
,Loop,flow.Loop,0_3_0_3_0,-999,completion,,238606,238613.52,238630.18,248640,10009.820000000007,248717,2021-10-30T10:02:28.664Z,248723.88,1635587894,full,ni_sequenzen,NI_Sequenzen,,3,,,,,,,,,,,,
,Feedback,canvas.Screen,0_3_0_3_1,,timeout,,248721,248720.36,248723.88,252704.86,4007.779999999999,252708,2021-10-30T10:02:32.655Z,252731.66,1635587894,full,ni_sequenzen,NI_Sequenzen,,3,,,,,,,,,,,,
,Trial,flow.Sequence,0_3_0_3,,completion,,238600,238613.52,238630.18,252704.86,14074.679999999993,252711,2021-10-30T10:02:32.658Z,252738.06,1635587894,full,ni_sequenzen,NI_Sequenzen,,3,,,,,,,,,,,,
,Move,canvas.Screen,0_3_0_4_0_0,left,response,,252731,252731.66,252738.06,257500,4761.940000000002,257524,2021-10-30T10:02:37.471Z,257535.16,1635587894,full,ni_sequenzen,NI_Sequenzen,1,4,,,,,,,,,,,,
,Move,canvas.Screen,0_3_0_4_0_1,down,response,,257535,257534.32,257535.16,258687,1151.8399999999965,258698,2021-10-30T10:02:38.646Z,258717.82,1635587894,full,ni_sequenzen,NI_Sequenzen,2,4,,,,,,,,,,,,
,Move,canvas.Screen,0_3_0_4_0_2,down,response,,258707,258707.32,258717.82,259125,407.179999999993,259152,2021-10-30T10:02:39.100Z,259167.46,1635587894,full,ni_sequenzen,NI_Sequenzen,3,4,,,,,,,,,,,,
,Move,canvas.Screen,0_3_0_4_0_3,left,response,,259161,259161.38,259167.46,259546,378.54000000000815,259566,2021-10-30T10:02:39.513Z,259617.18,1635587894,full,ni_sequenzen,NI_Sequenzen,4,4,,,,,,,,,,,,
,Move,canvas.Screen,0_3_0_4_0_4,-999,skipped,,259576,,,259546,,259577,2021-10-30T10:02:39.524Z,259617.18,1635587894,full,ni_sequenzen,NI_Sequenzen,5,4,,,,,,,,,,,,
,Move,canvas.Screen,0_3_0_4_0_5,-999,skipped,,259581,,,259546,,259581,2021-10-30T10:02:39.529Z,259617.18,1635587894,full,ni_sequenzen,NI_Sequenzen,6,4,,,,,,,,,,,,
,Move,canvas.Screen,0_3_0_4_0_6,-999,skipped,,259585,,,259546,,259585,2021-10-30T10:02:39.532Z,259617.18,1635587894,full,ni_sequenzen,NI_Sequenzen,7,4,,,,,,,,,,,,
,Move,canvas.Screen,0_3_0_4_0_7,-999,skipped,,259588,,,259546,,259588,2021-10-30T10:02:39.536Z,259617.18,1635587894,full,ni_sequenzen,NI_Sequenzen,8,4,,,,,,,,,,,,
,Move,canvas.Screen,0_3_0_4_0_8,-999,skipped,,259592,,,259546,,259592,2021-10-30T10:02:39.540Z,259617.18,1635587894,full,ni_sequenzen,NI_Sequenzen,9,4,,,,,,,,,,,,
,Move,canvas.Screen,0_3_0_4_0_9,-999,skipped,,259595,,,259546,,259595,2021-10-30T10:02:39.543Z,259617.18,1635587894,full,ni_sequenzen,NI_Sequenzen,10,4,,,,,,,,,,,,
,Move,canvas.Screen,0_3_0_4_0_10,-999,skipped,,259599,,,259546,,259599,2021-10-30T10:02:39.547Z,259617.18,1635587894,full,ni_sequenzen,NI_Sequenzen,11,4,,,,,,,,,,,,
,Move,canvas.Screen,0_3_0_4_0_11,-999,skipped,,259603,,,259546,,259603,2021-10-30T10:02:39.551Z,259617.18,1635587894,full,ni_sequenzen,NI_Sequenzen,12,4,,,,,,,,,,,,
,Move,canvas.Screen,0_3_0_4_0_12,-999,skipped,,259607,,,259546,,259607,2021-10-30T10:02:39.554Z,259617.18,1635587894,full,ni_sequenzen,NI_Sequenzen,13,4,,,,,,,,,,,,
,Move,canvas.Screen,0_3_0_4_0_13,-999,skipped,,259610,,,259546,,259610,2021-10-30T10:02:39.558Z,259617.18,1635587894,full,ni_sequenzen,NI_Sequenzen,14,4,,,,,,,,,,,,
,Move,canvas.Screen,0_3_0_4_0_14,-999,skipped,,259614,,,259546,,259614,2021-10-30T10:02:39.561Z,259617.18,1635587894,full,ni_sequenzen,NI_Sequenzen,15,4,,,,,,,,,,,,
,Loop,flow.Loop,0_3_0_4_0,-999,completion,,252725,252731.66,252738.06,259546,6807.940000000002,259614,2021-10-30T10:02:39.561Z,259617.18,1635587894,full,ni_sequenzen,NI_Sequenzen,,4,,,,,,,,,,,,
,Feedback,canvas.Screen,0_3_0_4_1,,timeout,,259617,259616.92,259617.18,263598.18,3997.5599999999977,263600,2021-10-30T10:02:43.547Z,263614.74,1635587894,full,ni_sequenzen,NI_Sequenzen,,4,,,,,,,,,,,,
,Trial,flow.Sequence,0_3_0_4,,completion,,252712,252731.66,252738.06,263598.18,10860.119999999995,263600,2021-10-30T10:02:43.547Z,263631.4,1635587894,full,ni_sequenzen,NI_Sequenzen,,4,,,,,,,,,,,,
,Move,canvas.Screen,0_3_0_5_0_0,down,response,,263614,263614.74,263631.4,264624,992.5999999999767,264641,2021-10-30T10:02:44.589Z,264664.1,1635587894,full,ni_sequenzen,NI_Sequenzen,1,5,,,,,,,,,,,,
,Move,canvas.Screen,0_3_0_5_0_1,right,response,,264648,264648.48,264664.1,266484,1819.9000000000233,266505,2021-10-30T10:02:46.453Z,266513.02,1635587894,full,ni_sequenzen,NI_Sequenzen,2,5,,,,,,,,,,,,
,Move,canvas.Screen,0_3_0_5_0_2,right,response,,266512,266512.46,266513.02,266952,438.9799999999814,266973,2021-10-30T10:02:46.921Z,266996.02,1635587894,full,ni_sequenzen,NI_Sequenzen,3,5,,,,,,,,,,,,
,Move,canvas.Screen,0_3_0_5_0_3,down,response,,266990,266990.38,266996.02,267375,378.9799999999814,267380,2021-10-30T10:02:47.328Z,267429.04,1635587894,full,ni_sequenzen,NI_Sequenzen,4,5,,,,,,,,,,,,
,Move,canvas.Screen,0_3_0_5_0_4,-999,skipped,,267389,,,267375,,267389,2021-10-30T10:02:47.336Z,267429.04,1635587894,full,ni_sequenzen,NI_Sequenzen,5,5,,,,,,,,,,,,
,Move,canvas.Screen,0_3_0_5_0_5,-999,skipped,,267393,,,267375,,267393,2021-10-30T10:02:47.340Z,267429.04,1635587894,full,ni_sequenzen,NI_Sequenzen,6,5,,,,,,,,,,,,
,Move,canvas.Screen,0_3_0_5_0_6,-999,skipped,,267397,,,267375,,267397,2021-10-30T10:02:47.344Z,267429.04,1635587894,full,ni_sequenzen,NI_Sequenzen,7,5,,,,,,,,,,,,
,Move,canvas.Screen,0_3_0_5_0_7,-999,skipped,,267400,,,267375,,267400,2021-10-30T10:02:47.348Z,267429.04,1635587894,full,ni_sequenzen,NI_Sequenzen,8,5,,,,,,,,,,,,
,Move,canvas.Screen,0_3_0_5_0_8,-999,skipped,,267404,,,267375,,267404,2021-10-30T10:02:47.351Z,267429.04,1635587894,full,ni_sequenzen,NI_Sequenzen,9,5,,,,,,,,,,,,
,Move,canvas.Screen,0_3_0_5_0_9,-999,skipped,,267407,,,267375,,267407,2021-10-30T10:02:47.354Z,267429.04,1635587894,full,ni_sequenzen,NI_Sequenzen,10,5,,,,,,,,,,,,
,Move,canvas.Screen,0_3_0_5_0_10,-999,skipped,,267410,,,267375,,267410,2021-10-30T10:02:47.358Z,267429.04,1635587894,full,ni_sequenzen,NI_Sequenzen,11,5,,,,,,,,,,,,
,Move,canvas.Screen,0_3_0_5_0_11,-999,skipped,,267414,,,267375,,267414,2021-10-30T10:02:47.361Z,267429.04,1635587894,full,ni_sequenzen,NI_Sequenzen,12,5,,,,,,,,,,,,
,Move,canvas.Screen,0_3_0_5_0_12,-999,skipped,,267416,,,267375,,267416,2021-10-30T10:02:47.364Z,267429.04,1635587894,full,ni_sequenzen,NI_Sequenzen,13,5,,,,,,,,,,,,
,Move,canvas.Screen,0_3_0_5_0_13,-999,skipped,,267419,,,267375,,267419,2021-10-30T10:02:47.367Z,267429.04,1635587894,full,ni_sequenzen,NI_Sequenzen,14,5,,,,,,,,,,,,
,Move,canvas.Screen,0_3_0_5_0_14,-999,skipped,,267423,,,267375,,267423,2021-10-30T10:02:47.371Z,267429.04,1635587894,full,ni_sequenzen,NI_Sequenzen,15,5,,,,,,,,,,,,
,Loop,flow.Loop,0_3_0_5_0,-999,completion,,263610,263614.74,263631.4,267375,3743.5999999999767,267423,2021-10-30T10:02:47.371Z,267429.04,1635587894,full,ni_sequenzen,NI_Sequenzen,,5,,,,,,,,,,,,
,Feedback,canvas.Screen,0_3_0_5_1,,timeout,,267425,267425.28,267429.04,271410.06,3997.679999999993,271411,2021-10-30T10:02:51.359Z,271426.72,1635587894,full,ni_sequenzen,NI_Sequenzen,,5,,,,,,,,,,,,
,Trial,flow.Sequence,0_3_0_5,,completion,,263602,263614.74,263631.4,271410.06,7778.659999999974,271412,2021-10-30T10:02:51.359Z,271443.32,1635587894,full,ni_sequenzen,NI_Sequenzen,,5,,,,,,,,,,,,
,Move,canvas.Screen,0_3_0_6_0_0,right,response,,271423,271426.72,271443.32,272719,1275.679999999993,272729,2021-10-30T10:02:52.676Z,272742.56,1635587894,full,ni_sequenzen,NI_Sequenzen,1,6,,,,,,,,,,,,
,Move,canvas.Screen,0_3_0_6_0_1,down,response,,272736,272735.84,272742.56,273625,882.4400000000023,273656,2021-10-30T10:02:53.603Z,273675.3,1635587894,full,ni_sequenzen,NI_Sequenzen,2,6,,,,,,,,,,,,
,Move,canvas.Screen,0_3_0_6_0_2,down,response,,273663,273663.06,273675.3,274390,714.7000000000116,274410,2021-10-30T10:02:54.357Z,274424.8,1635587894,full,ni_sequenzen,NI_Sequenzen,3,6,,,,,,,,,,,,
,Move,canvas.Screen,0_3_0_6_0_3,left,response,,274417,274417.16,274424.8,276562,2137.2000000000116,276578,2021-10-30T10:02:56.526Z,276590.14,1635587894,full,ni_sequenzen,NI_Sequenzen,4,6,,,,,,,,,,,,
,Move,canvas.Screen,0_3_0_6_0_4,right,response,,276585,276584.98,276590.14,278655,2064.859999999986,278664,2021-10-30T10:02:58.611Z,278705.48,1635587894,full,ni_sequenzen,NI_Sequenzen,5,6,,,,,,,,,,,,
,Move,canvas.Screen,0_3_0_6_0_5,-999,skipped,,278671,,,278655,,278671,2021-10-30T10:02:58.619Z,278705.48,1635587894,full,ni_sequenzen,NI_Sequenzen,6,6,,,,,,,,,,,,
,Move,canvas.Screen,0_3_0_6_0_6,-999,skipped,,278675,,,278655,,278675,2021-10-30T10:02:58.622Z,278705.48,1635587894,full,ni_sequenzen,NI_Sequenzen,7,6,,,,,,,,,,,,
,Move,canvas.Screen,0_3_0_6_0_7,-999,skipped,,278678,,,278655,,278678,2021-10-30T10:02:58.625Z,278705.48,1635587894,full,ni_sequenzen,NI_Sequenzen,8,6,,,,,,,,,,,,
,Move,canvas.Screen,0_3_0_6_0_8,-999,skipped,,278680,,,278655,,278680,2021-10-30T10:02:58.628Z,278705.48,1635587894,full,ni_sequenzen,NI_Sequenzen,9,6,,,,,,,,,,,,
,Move,canvas.Screen,0_3_0_6_0_9,-999,skipped,,278683,,,278655,,278683,2021-10-30T10:02:58.632Z,278705.48,1635587894,full,ni_sequenzen,NI_Sequenzen,10,6,,,,,,,,,,,,
,Move,canvas.Screen,0_3_0_6_0_10,-999,skipped,,278687,,,278655,,278687,2021-10-30T10:02:58.635Z,278705.48,1635587894,full,ni_sequenzen,NI_Sequenzen,11,6,,,,,,,,,,,,
,Move,canvas.Screen,0_3_0_6_0_11,-999,skipped,,278691,,,278655,,278691,2021-10-30T10:02:58.638Z,278705.48,1635587894,full,ni_sequenzen,NI_Sequenzen,12,6,,,,,,,,,,,,
,Move,canvas.Screen,0_3_0_6_0_12,-999,skipped,,278693,,,278655,,278693,2021-10-30T10:02:58.642Z,278705.48,1635587894,full,ni_sequenzen,NI_Sequenzen,13,6,,,,,,,,,,,,
,Move,canvas.Screen,0_3_0_6_0_13,-999,skipped,,278697,,,278655,,278697,2021-10-30T10:02:58.645Z,278705.48,1635587894,full,ni_sequenzen,NI_Sequenzen,14,6,,,,,,,,,,,,
,Move,canvas.Screen,0_3_0_6_0_14,-999,skipped,,278700,,,278655,,278700,2021-10-30T10:02:58.648Z,278705.48,1635587894,full,ni_sequenzen,NI_Sequenzen,15,6,,,,,,,,,,,,
,Loop,flow.Loop,0_3_0_6_0,-999,completion,,271421,271426.72,271443.32,278655,7211.679999999993,278701,2021-10-30T10:02:58.648Z,278705.48,1635587894,full,ni_sequenzen,NI_Sequenzen,,6,,,,,,,,,,,,
,Feedback,canvas.Screen,0_3_0_6_1,,timeout,,278703,278702.84,278705.48,282686.56,3997.6600000000326,282688,2021-10-30T10:03:02.636Z,282703.14,1635587894,full,ni_sequenzen,NI_Sequenzen,,6,,,,,,,,,,,,
,Trial,flow.Sequence,0_3_0_6,,completion,,271413,271426.72,271443.32,282686.56,11243.23999999999,282689,2021-10-30T10:03:02.636Z,282719.74,1635587894,full,ni_sequenzen,NI_Sequenzen,,6,,,,,,,,,,,,
,Move,canvas.Screen,0_3_0_7_0_0,down,response,,282699,282703.14,282719.74,284655,1935.2600000000093,284677,2021-10-30T10:03:04.624Z,284685.18,1635587894,full,ni_sequenzen,NI_Sequenzen,1,7,,,,,,,,,,,,
,Move,canvas.Screen,0_3_0_7_0_1,right,response,,284685,284684.68,284685.18,285812,1126.820000000007,285819,2021-10-30T10:03:05.766Z,285834.46,1635587894,full,ni_sequenzen,NI_Sequenzen,2,7,,,,,,,,,,,,
,Move,canvas.Screen,0_3_0_7_0_2,right,response,,285826,285825.96,285834.46,287250,1415.539999999979,287266,2021-10-30T10:03:07.214Z,287283.5,1635587894,full,ni_sequenzen,NI_Sequenzen,3,7,,,,,,,,,,,,
,Move,canvas.Screen,0_3_0_7_0_3,down,response,,287273,287272.48,287283.5,287499,215.5,287512,2021-10-30T10:03:07.461Z,287566.7,1635587894,full,ni_sequenzen,NI_Sequenzen,4,7,,,,,,,,,,,,
,Move,canvas.Screen,0_3_0_7_0_4,-999,skipped,,287519,,,287499,,287520,2021-10-30T10:03:07.468Z,287566.7,1635587894,full,ni_sequenzen,NI_Sequenzen,5,7,,,,,,,,,,,,
,Move,canvas.Screen,0_3_0_7_0_5,-999,skipped,,287523,,,287499,,287523,2021-10-30T10:03:07.471Z,287566.7,1635587894,full,ni_sequenzen,NI_Sequenzen,6,7,,,,,,,,,,,,
,Move,canvas.Screen,0_3_0_7_0_6,-999,skipped,,287526,,,287499,,287526,2021-10-30T10:03:07.474Z,287566.7,1635587894,full,ni_sequenzen,NI_Sequenzen,7,7,,,,,,,,,,,,
,Move,canvas.Screen,0_3_0_7_0_7,-999,skipped,,287530,,,287499,,287530,2021-10-30T10:03:07.478Z,287566.7,1635587894,full,ni_sequenzen,NI_Sequenzen,8,7,,,,,,,,,,,,
,Move,canvas.Screen,0_3_0_7_0_8,-999,skipped,,287533,,,287499,,287533,2021-10-30T10:03:07.481Z,287566.7,1635587894,full,ni_sequenzen,NI_Sequenzen,9,7,,,,,,,,,,,,
,Move,canvas.Screen,0_3_0_7_0_9,-999,skipped,,287536,,,287499,,287536,2021-10-30T10:03:07.484Z,287566.7,1635587894,full,ni_sequenzen,NI_Sequenzen,10,7,,,,,,,,,,,,
,Move,canvas.Screen,0_3_0_7_0_10,-999,skipped,,287539,,,287499,,287539,2021-10-30T10:03:07.487Z,287566.7,1635587894,full,ni_sequenzen,NI_Sequenzen,11,7,,,,,,,,,,,,
,Move,canvas.Screen,0_3_0_7_0_11,-999,skipped,,287544,,,287499,,287544,2021-10-30T10:03:07.491Z,287566.7,1635587894,full,ni_sequenzen,NI_Sequenzen,12,7,,,,,,,,,,,,
,Move,canvas.Screen,0_3_0_7_0_12,-999,skipped,,287547,,,287499,,287547,2021-10-30T10:03:07.494Z,287566.7,1635587894,full,ni_sequenzen,NI_Sequenzen,13,7,,,,,,,,,,,,
,Move,canvas.Screen,0_3_0_7_0_13,-999,skipped,,287551,,,287499,,287551,2021-10-30T10:03:07.499Z,287566.7,1635587894,full,ni_sequenzen,NI_Sequenzen,14,7,,,,,,,,,,,,
,Move,canvas.Screen,0_3_0_7_0_14,-999,skipped,,287554,,,287499,,287554,2021-10-30T10:03:07.502Z,287566.7,1635587894,full,ni_sequenzen,NI_Sequenzen,15,7,,,,,,,,,,,,
,Loop,flow.Loop,0_3_0_7_0,-999,completion,,282696,282703.14,282719.74,287499,4779.260000000009,287554,2021-10-30T10:03:07.502Z,287566.7,1635587894,full,ni_sequenzen,NI_Sequenzen,,7,,,,,,,,,,,,
,Feedback,canvas.Screen,0_3_0_7_1,,timeout,,287556,287556.22,287566.7,291547.72,3997.640000000014,291549,2021-10-30T10:03:11.497Z,291564.34,1635587894,full,ni_sequenzen,NI_Sequenzen,,7,,,,,,,,,,,,
,Trial,flow.Sequence,0_3_0_7,,completion,,282689,282703.14,282719.74,291547.72,8827.979999999981,291550,2021-10-30T10:03:11.497Z,291581,1635587894,full,ni_sequenzen,NI_Sequenzen,,7,,,,,,,,,,,,
,Move,canvas.Screen,0_3_0_8_0_0,right,response,,291559,291564.34,291581,293171,1590,293188,2021-10-30T10:03:13.135Z,293196.58,1635587894,full,ni_sequenzen,NI_Sequenzen,1,8,,,,,,,,,,,,
,Move,canvas.Screen,0_3_0_8_0_1,down,response,,293191,293191.48,293196.58,293593,396.4199999999837,293613,2021-10-30T10:03:13.560Z,293629.7,1635587894,full,ni_sequenzen,NI_Sequenzen,2,8,,,,,,,,,,,,
,Move,canvas.Screen,0_3_0_8_0_2,right,response,,293620,293619.48,293629.7,294922,1292.2999999999884,294947,2021-10-30T10:03:14.894Z,294962.18,1635587894,full,ni_sequenzen,NI_Sequenzen,3,8,,,,,,,,,,,,
,Move,canvas.Screen,0_3_0_8_0_3,down,response,,294953,294952.58,294962.18,295203,240.82000000000698,295222,2021-10-30T10:03:15.170Z,295278.62,1635587894,full,ni_sequenzen,NI_Sequenzen,4,8,,,,,,,,,,,,
,Move,canvas.Screen,0_3_0_8_0_4,-999,skipped,,295231,,,295203,,295231,2021-10-30T10:03:15.179Z,295278.62,1635587894,full,ni_sequenzen,NI_Sequenzen,5,8,,,,,,,,,,,,
,Move,canvas.Screen,0_3_0_8_0_5,-999,skipped,,295235,,,295203,,295235,2021-10-30T10:03:15.183Z,295278.62,1635587894,full,ni_sequenzen,NI_Sequenzen,6,8,,,,,,,,,,,,
,Move,canvas.Screen,0_3_0_8_0_6,-999,skipped,,295238,,,295203,,295238,2021-10-30T10:03:15.186Z,295278.62,1635587894,full,ni_sequenzen,NI_Sequenzen,7,8,,,,,,,,,,,,
,Move,canvas.Screen,0_3_0_8_0_7,-999,skipped,,295241,,,295203,,295241,2021-10-30T10:03:15.189Z,295278.62,1635587894,full,ni_sequenzen,NI_Sequenzen,8,8,,,,,,,,,,,,
,Move,canvas.Screen,0_3_0_8_0_8,-999,skipped,,295244,,,295203,,295244,2021-10-30T10:03:15.192Z,295278.62,1635587894,full,ni_sequenzen,NI_Sequenzen,9,8,,,,,,,,,,,,
,Move,canvas.Screen,0_3_0_8_0_9,-999,skipped,,295248,,,295203,,295248,2021-10-30T10:03:15.196Z,295278.62,1635587894,full,ni_sequenzen,NI_Sequenzen,10,8,,,,,,,,,,,,
,Move,canvas.Screen,0_3_0_8_0_10,-999,skipped,,295251,,,295203,,295251,2021-10-30T10:03:15.198Z,295278.62,1635587894,full,ni_sequenzen,NI_Sequenzen,11,8,,,,,,,,,,,,
,Move,canvas.Screen,0_3_0_8_0_11,-999,skipped,,295254,,,295203,,295254,2021-10-30T10:03:15.201Z,295278.62,1635587894,full,ni_sequenzen,NI_Sequenzen,12,8,,,,,,,,,,,,
,Move,canvas.Screen,0_3_0_8_0_12,-999,skipped,,295257,,,295203,,295257,2021-10-30T10:03:15.204Z,295278.62,1635587894,full,ni_sequenzen,NI_Sequenzen,13,8,,,,,,,,,,,,
,Move,canvas.Screen,0_3_0_8_0_13,-999,skipped,,295260,,,295203,,295260,2021-10-30T10:03:15.208Z,295278.62,1635587894,full,ni_sequenzen,NI_Sequenzen,14,8,,,,,,,,,,,,
,Move,canvas.Screen,0_3_0_8_0_14,-999,skipped,,295263,,,295203,,295263,2021-10-30T10:03:15.211Z,295278.62,1635587894,full,ni_sequenzen,NI_Sequenzen,15,8,,,,,,,,,,,,
,Loop,flow.Loop,0_3_0_8_0,-999,completion,,291556,291564.34,291581,295203,3622,295263,2021-10-30T10:03:15.211Z,295278.62,1635587894,full,ni_sequenzen,NI_Sequenzen,,8,,,,,,,,,,,,
,Feedback,canvas.Screen,0_3_0_8_1,,timeout,,295267,295267,295278.62,299259.62,3997.6199999999953,299261,2021-10-30T10:03:19.209Z,299276.24,1635587894,full,ni_sequenzen,NI_Sequenzen,,8,,,,,,,,,,,,
,Trial,flow.Sequence,0_3_0_8,,completion,,291550,291564.34,291581,299259.62,7678.619999999995,299262,2021-10-30T10:03:19.209Z,299292.9,1635587894,full,ni_sequenzen,NI_Sequenzen,,8,,,,,,,,,,,,
,Move,canvas.Screen,0_3_0_9_0_0,left,response,,299272,299276.24,299292.9,302953,3660.0999999999767,302966,2021-10-30T10:03:22.914Z,302973.96,1635587894,full,ni_sequenzen,NI_Sequenzen,1,9,,,,,,,,,,,,
,Move,canvas.Screen,0_3_0_9_0_1,down,response,,302970,302970.58,302973.96,304062,1088.039999999979,304090,2021-10-30T10:03:24.037Z,304106.62,1635587894,full,ni_sequenzen,NI_Sequenzen,2,9,,,,,,,,,,,,
,Move,canvas.Screen,0_3_0_9_0_2,right,response,,304097,304097.62,304106.62,305734,1627.3800000000047,305738,2021-10-30T10:03:25.686Z,305755.54,1635587894,full,ni_sequenzen,NI_Sequenzen,3,9,,,,,,,,,,,,
,Move,canvas.Screen,0_3_0_9_0_3,right,response,,305743,305742.64,305755.54,306844,1088.460000000021,306862,2021-10-30T10:03:26.810Z,306938.18,1635587894,full,ni_sequenzen,NI_Sequenzen,4,9,,,,,,,,,,,,
,Move,canvas.Screen,0_3_0_9_0_4,-999,skipped,,306875,,,306844,,306875,2021-10-30T10:03:26.822Z,306938.18,1635587894,full,ni_sequenzen,NI_Sequenzen,5,9,,,,,,,,,,,,
,Move,canvas.Screen,0_3_0_9_0_5,-999,skipped,,306882,,,306844,,306882,2021-10-30T10:03:26.830Z,306938.18,1635587894,full,ni_sequenzen,NI_Sequenzen,6,9,,,,,,,,,,,,
,Move,canvas.Screen,0_3_0_9_0_6,-999,skipped,,306887,,,306844,,306888,2021-10-30T10:03:26.836Z,306938.18,1635587894,full,ni_sequenzen,NI_Sequenzen,7,9,,,,,,,,,,,,
,Move,canvas.Screen,0_3_0_9_0_7,-999,skipped,,306894,,,306844,,306894,2021-10-30T10:03:26.841Z,306938.18,1635587894,full,ni_sequenzen,NI_Sequenzen,8,9,,,,,,,,,,,,
,Move,canvas.Screen,0_3_0_9_0_8,-999,skipped,,306898,,,306844,,306899,2021-10-30T10:03:26.846Z,306938.18,1635587894,full,ni_sequenzen,NI_Sequenzen,9,9,,,,,,,,,,,,
,Move,canvas.Screen,0_3_0_9_0_9,-999,skipped,,306902,,,306844,,306902,2021-10-30T10:03:26.849Z,306938.18,1635587894,full,ni_sequenzen,NI_Sequenzen,10,9,,,,,,,,,,,,
,Move,canvas.Screen,0_3_0_9_0_10,-999,skipped,,306907,,,306844,,306907,2021-10-30T10:03:26.854Z,306938.18,1635587894,full,ni_sequenzen,NI_Sequenzen,11,9,,,,,,,,,,,,
,Move,canvas.Screen,0_3_0_9_0_11,-999,skipped,,306910,,,306844,,306910,2021-10-30T10:03:26.858Z,306938.18,1635587894,full,ni_sequenzen,NI_Sequenzen,12,9,,,,,,,,,,,,
,Move,canvas.Screen,0_3_0_9_0_12,-999,skipped,,306914,,,306844,,306914,2021-10-30T10:03:26.862Z,306938.18,1635587894,full,ni_sequenzen,NI_Sequenzen,13,9,,,,,,,,,,,,
,Move,canvas.Screen,0_3_0_9_0_13,-999,skipped,,306917,,,306844,,306918,2021-10-30T10:03:26.865Z,306938.18,1635587894,full,ni_sequenzen,NI_Sequenzen,14,9,,,,,,,,,,,,
,Move,canvas.Screen,0_3_0_9_0_14,-999,skipped,,306921,,,306844,,306921,2021-10-30T10:03:26.869Z,306938.18,1635587894,full,ni_sequenzen,NI_Sequenzen,15,9,,,,,,,,,,,,
,Loop,flow.Loop,0_3_0_9_0,-999,completion,,299269,299276.24,299292.9,306844,7551.099999999977,306922,2021-10-30T10:03:26.869Z,306938.18,1635587894,full,ni_sequenzen,NI_Sequenzen,,9,,,,,,,,,,,,
,Feedback,canvas.Screen,0_3_0_9_1,,timeout,,306925,306924.78,306938.18,310919.16,4116.900000000023,310920,2021-10-30T10:03:30.868Z,311055.08,1635587894,full,ni_sequenzen,NI_Sequenzen,,9,,,,,,,,,,,,
,Trial,flow.Sequence,0_3_0_9,,completion,,299262,299276.24,299292.9,310919.16,11626.259999999951,310921,2021-10-30T10:03:30.868Z,311068.94,1635587894,full,ni_sequenzen,NI_Sequenzen,,9,,,,,,,,,,,,
,Block,flow.Loop,0_3_0,,completion,,174225,174234.96,174236.26,310919.16,136682.89999999997,310921,2021-10-30T10:03:30.870Z,311068.94,1635587894,full,ni_sequenzen,NI_Sequenzen,,,,,,,,,,,,,,
,Training_II,flow.Sequence,0_3,,completion,,174211,174234.96,174236.26,310919.16,136682.89999999997,310922,2021-10-30T10:03:30.870Z,311068.94,1635587894,full,ni_sequenzen,NI_Sequenzen,,,,,,,,,,,,,,
,Screen_1,canvas.Screen,0_4_0_0,cont,response,1,311055,311055.08,311068.94,328641,17572.059999999998,328650,2021-10-30T10:03:48.597Z,328658.16,1635587894,full,ni_sequenzen,NI_Sequenzen,,,,,,,,,,,,,,
,Screen_2,canvas.Screen,0_4_0_1,cont,response,1,328655,328654.66,328658.16,337124,8465.840000000026,337140,2021-10-30T10:03:57.088Z,337219.58,1635587894,full,ni_sequenzen,NI_Sequenzen,,,,,,,,,,,,,,
,Screen_3,canvas.Screen,0_4_0_2,cont,response,1,337215,337214.92,337219.58,346266,9046.419999999984,346293,2021-10-30T10:04:06.241Z,346397.28,1635587894,full,ni_sequenzen,NI_Sequenzen,,,,,,,,,,,,,,
,Sequence,flow.Sequence,0_4_0,,completion,1,310945,311055.08,311068.94,346266,35197.06,346294,2021-10-30T10:04:06.242Z,346397.28,1635587894,full,ni_sequenzen,NI_Sequenzen,,,,,,,,,,,,,,
,Screen_1,canvas.Screen,0_4_1_0,,skipped,2,346297,,,346297,,346297,2021-10-30T10:04:06.245Z,346397.28,1635587894,full,ni_sequenzen,NI_Sequenzen,,,,,,,,,,,,,,
,Screen_2,canvas.Screen,0_4_1_1,,skipped,2,346299,,,346297,,346299,2021-10-30T10:04:06.247Z,346397.28,1635587894,full,ni_sequenzen,NI_Sequenzen,,,,,,,,,,,,,,
,Screen_3,canvas.Screen,0_4_1_2,,skipped,2,346300,,,346297,,346300,2021-10-30T10:04:06.248Z,346397.28,1635587894,full,ni_sequenzen,NI_Sequenzen,,,,,,,,,,,,,,
,Sequence,flow.Sequence,0_4_1,,completion,2,346296,,,346297,,346300,2021-10-30T10:04:06.248Z,346397.28,1635587894,full,ni_sequenzen,NI_Sequenzen,,,,,,,,,,,,,,
,Screen_1,canvas.Screen,0_4_2_0,,skipped,3,346301,,,346301,,346301,2021-10-30T10:04:06.249Z,346397.28,1635587894,full,ni_sequenzen,NI_Sequenzen,,,,,,,,,,,,,,
,Screen_2,canvas.Screen,0_4_2_1,,skipped,3,346302,,,346301,,346302,2021-10-30T10:04:06.250Z,346397.28,1635587894,full,ni_sequenzen,NI_Sequenzen,,,,,,,,,,,,,,
,Screen_3,canvas.Screen,0_4_2_2,,skipped,3,346303,,,346301,,346303,2021-10-30T10:04:06.250Z,346397.28,1635587894,full,ni_sequenzen,NI_Sequenzen,,,,,,,,,,,,,,
,Sequence,flow.Sequence,0_4_2,,completion,3,346300,,,346301,,346303,2021-10-30T10:04:06.250Z,346397.28,1635587894,full,ni_sequenzen,NI_Sequenzen,,,,,,,,,,,,,,
,Screen_1,canvas.Screen,0_4_3_0,,skipped,4,346304,,,346304,,346304,2021-10-30T10:04:06.251Z,346397.28,1635587894,full,ni_sequenzen,NI_Sequenzen,,,,,,,,,,,,,,
,Screen_2,canvas.Screen,0_4_3_1,,skipped,4,346304,,,346304,,346305,2021-10-30T10:04:06.252Z,346397.28,1635587894,full,ni_sequenzen,NI_Sequenzen,,,,,,,,,,,,,,
,Screen_3,canvas.Screen,0_4_3_2,,skipped,4,346306,,,346304,,346306,2021-10-30T10:04:06.253Z,346397.28,1635587894,full,ni_sequenzen,NI_Sequenzen,,,,,,,,,,,,,,
,Sequence,flow.Sequence,0_4_3,,completion,4,346303,,,346304,,346306,2021-10-30T10:04:06.253Z,346397.28,1635587894,full,ni_sequenzen,NI_Sequenzen,,,,,,,,,,,,,,
,Screen_1,canvas.Screen,0_4_4_0,,skipped,5,346307,,,346307,,346307,2021-10-30T10:04:06.254Z,346397.28,1635587894,full,ni_sequenzen,NI_Sequenzen,,,,,,,,,,,,,,
,Screen_2,canvas.Screen,0_4_4_1,,skipped,5,346308,,,346307,,346308,2021-10-30T10:04:06.256Z,346397.28,1635587894,full,ni_sequenzen,NI_Sequenzen,,,,,,,,,,,,,,
,Screen_3,canvas.Screen,0_4_4_2,,skipped,5,346309,,,346307,,346309,2021-10-30T10:04:06.256Z,346397.28,1635587894,full,ni_sequenzen,NI_Sequenzen,,,,,,,,,,,,,,
,Sequence,flow.Sequence,0_4_4,,completion,5,346306,,,346307,,346309,2021-10-30T10:04:06.257Z,346397.28,1635587894,full,ni_sequenzen,NI_Sequenzen,,,,,,,,,,,,,,
,Screen_1,canvas.Screen,0_4_5_0,,skipped,6,346310,,,346310,,346310,2021-10-30T10:04:06.257Z,346397.28,1635587894,full,ni_sequenzen,NI_Sequenzen,,,,,,,,,,,,,,
,Screen_2,canvas.Screen,0_4_5_1,,skipped,6,346311,,,346310,,346311,2021-10-30T10:04:06.257Z,346397.28,1635587894,full,ni_sequenzen,NI_Sequenzen,,,,,,,,,,,,,,
,Screen_3,canvas.Screen,0_4_5_2,,skipped,6,346311,,,346310,,346312,2021-10-30T10:04:06.259Z,346397.28,1635587894,full,ni_sequenzen,NI_Sequenzen,,,,,,,,,,,,,,
,Sequence,flow.Sequence,0_4_5,,completion,6,346309,,,346310,,346312,2021-10-30T10:04:06.259Z,346397.28,1635587894,full,ni_sequenzen,NI_Sequenzen,,,,,,,,,,,,,,
,Screen_1,canvas.Screen,0_4_6_0,,skipped,7,346313,,,346313,,346313,2021-10-30T10:04:06.260Z,346397.28,1635587894,full,ni_sequenzen,NI_Sequenzen,,,,,,,,,,,,,,
,Screen_2,canvas.Screen,0_4_6_1,,skipped,7,346314,,,346313,,346314,2021-10-30T10:04:06.261Z,346397.28,1635587894,full,ni_sequenzen,NI_Sequenzen,,,,,,,,,,,,,,
,Screen_3,canvas.Screen,0_4_6_2,,skipped,7,346315,,,346313,,346315,2021-10-30T10:04:06.262Z,346397.28,1635587894,full,ni_sequenzen,NI_Sequenzen,,,,,,,,,,,,,,
,Sequence,flow.Sequence,0_4_6,,completion,7,346312,,,346313,,346315,2021-10-30T10:04:06.262Z,346397.28,1635587894,full,ni_sequenzen,NI_Sequenzen,,,,,,,,,,,,,,
,Screen_1,canvas.Screen,0_4_7_0,,skipped,8,346315,,,346315,,346315,2021-10-30T10:04:06.263Z,346397.28,1635587894,full,ni_sequenzen,NI_Sequenzen,,,,,,,,,,,,,,
,Screen_2,canvas.Screen,0_4_7_1,,skipped,8,346316,,,346315,,346316,2021-10-30T10:04:06.264Z,346397.28,1635587894,full,ni_sequenzen,NI_Sequenzen,,,,,,,,,,,,,,
,Screen_3,canvas.Screen,0_4_7_2,,skipped,8,346317,,,346315,,346317,2021-10-30T10:04:06.265Z,346397.28,1635587894,full,ni_sequenzen,NI_Sequenzen,,,,,,,,,,,,,,
,Sequence,flow.Sequence,0_4_7,,completion,8,346315,,,346315,,346317,2021-10-30T10:04:06.265Z,346397.28,1635587894,full,ni_sequenzen,NI_Sequenzen,,,,,,,,,,,,,,
,Screen_1,canvas.Screen,0_4_8_0,,skipped,9,346318,,,346318,,346318,2021-10-30T10:04:06.266Z,346397.28,1635587894,full,ni_sequenzen,NI_Sequenzen,,,,,,,,,,,,,,
,Screen_2,canvas.Screen,0_4_8_1,,skipped,9,346319,,,346318,,346319,2021-10-30T10:04:06.267Z,346397.28,1635587894,full,ni_sequenzen,NI_Sequenzen,,,,,,,,,,,,,,
,Screen_3,canvas.Screen,0_4_8_2,,skipped,9,346320,,,346318,,346320,2021-10-30T10:04:06.267Z,346397.28,1635587894,full,ni_sequenzen,NI_Sequenzen,,,,,,,,,,,,,,
,Sequence,flow.Sequence,0_4_8,,completion,9,346318,,,346318,,346320,2021-10-30T10:04:06.268Z,346397.28,1635587894,full,ni_sequenzen,NI_Sequenzen,,,,,,,,,,,,,,
,Screen_1,canvas.Screen,0_4_9_0,,skipped,10,346321,,,346321,,346321,2021-10-30T10:04:06.269Z,346397.28,1635587894,full,ni_sequenzen,NI_Sequenzen,,,,,,,,,,,,,,
,Screen_2,canvas.Screen,0_4_9_1,,skipped,10,346322,,,346321,,346322,2021-10-30T10:04:06.270Z,346397.28,1635587894,full,ni_sequenzen,NI_Sequenzen,,,,,,,,,,,,,,
,Screen_3,canvas.Screen,0_4_9_2,,skipped,10,346323,,,346321,,346323,2021-10-30T10:04:06.270Z,346397.28,1635587894,full,ni_sequenzen,NI_Sequenzen,,,,,,,,,,,,,,
,Sequence,flow.Sequence,0_4_9,,completion,10,346320,,,346321,,346323,2021-10-30T10:04:06.270Z,346397.28,1635587894,full,ni_sequenzen,NI_Sequenzen,,,,,,,,,,,,,,
,Screen_1,canvas.Screen,0_4_10_0,,skipped,11,346324,,,346324,,346324,2021-10-30T10:04:06.272Z,346397.28,1635587894,full,ni_sequenzen,NI_Sequenzen,,,,,,,,,,,,,,
,Screen_2,canvas.Screen,0_4_10_1,,skipped,11,346325,,,346324,,346325,2021-10-30T10:04:06.273Z,346397.28,1635587894,full,ni_sequenzen,NI_Sequenzen,,,,,,,,,,,,,,
,Screen_3,canvas.Screen,0_4_10_2,,skipped,11,346326,,,346324,,346326,2021-10-30T10:04:06.273Z,346397.28,1635587894,full,ni_sequenzen,NI_Sequenzen,,,,,,,,,,,,,,
,Sequence,flow.Sequence,0_4_10,,completion,11,346323,,,346324,,346326,2021-10-30T10:04:06.273Z,346397.28,1635587894,full,ni_sequenzen,NI_Sequenzen,,,,,,,,,,,,,,
,Screen_1,canvas.Screen,0_4_11_0,,skipped,12,346327,,,346327,,346327,2021-10-30T10:04:06.275Z,346397.28,1635587894,full,ni_sequenzen,NI_Sequenzen,,,,,,,,,,,,,,
,Screen_2,canvas.Screen,0_4_11_1,,skipped,12,346328,,,346327,,346328,2021-10-30T10:04:06.276Z,346397.28,1635587894,full,ni_sequenzen,NI_Sequenzen,,,,,,,,,,,,,,
,Screen_3,canvas.Screen,0_4_11_2,,skipped,12,346329,,,346327,,346329,2021-10-30T10:04:06.277Z,346397.28,1635587894,full,ni_sequenzen,NI_Sequenzen,,,,,,,,,,,,,,
,Sequence,flow.Sequence,0_4_11,,completion,12,346326,,,346327,,346329,2021-10-30T10:04:06.277Z,346397.28,1635587894,full,ni_sequenzen,NI_Sequenzen,,,,,,,,,,,,,,
,Screen_1,canvas.Screen,0_4_12_0,,skipped,13,346330,,,346330,,346330,2021-10-30T10:04:06.278Z,346397.28,1635587894,full,ni_sequenzen,NI_Sequenzen,,,,,,,,,,,,,,
,Screen_2,canvas.Screen,0_4_12_1,,skipped,13,346331,,,346330,,346331,2021-10-30T10:04:06.279Z,346397.28,1635587894,full,ni_sequenzen,NI_Sequenzen,,,,,,,,,,,,,,
,Screen_3,canvas.Screen,0_4_12_2,,skipped,13,346332,,,346330,,346332,2021-10-30T10:04:06.279Z,346397.28,1635587894,full,ni_sequenzen,NI_Sequenzen,,,,,,,,,,,,,,
,Sequence,flow.Sequence,0_4_12,,completion,13,346329,,,346330,,346332,2021-10-30T10:04:06.280Z,346397.28,1635587894,full,ni_sequenzen,NI_Sequenzen,,,,,,,,,,,,,,
,Screen_1,canvas.Screen,0_4_13_0,,skipped,14,346333,,,346333,,346333,2021-10-30T10:04:06.281Z,346397.28,1635587894,full,ni_sequenzen,NI_Sequenzen,,,,,,,,,,,,,,
,Screen_2,canvas.Screen,0_4_13_1,,skipped,14,346334,,,346333,,346334,2021-10-30T10:04:06.282Z,346397.28,1635587894,full,ni_sequenzen,NI_Sequenzen,,,,,,,,,,,,,,
,Screen_3,canvas.Screen,0_4_13_2,,skipped,14,346335,,,346333,,346335,2021-10-30T10:04:06.282Z,346397.28,1635587894,full,ni_sequenzen,NI_Sequenzen,,,,,,,,,,,,,,
,Sequence,flow.Sequence,0_4_13,,completion,14,346332,,,346333,,346335,2021-10-30T10:04:06.283Z,346397.28,1635587894,full,ni_sequenzen,NI_Sequenzen,,,,,,,,,,,,,,
,Screen_1,canvas.Screen,0_4_14_0,,skipped,15,346336,,,346336,,346336,2021-10-30T10:04:06.284Z,346397.28,1635587894,full,ni_sequenzen,NI_Sequenzen,,,,,,,,,,,,,,
,Screen_2,canvas.Screen,0_4_14_1,,skipped,15,346337,,,346336,,346337,2021-10-30T10:04:06.285Z,346397.28,1635587894,full,ni_sequenzen,NI_Sequenzen,,,,,,,,,,,,,,
,Screen_3,canvas.Screen,0_4_14_2,,skipped,15,346338,,,346336,,346338,2021-10-30T10:04:06.286Z,346397.28,1635587894,full,ni_sequenzen,NI_Sequenzen,,,,,,,,,,,,,,
,Sequence,flow.Sequence,0_4_14,,completion,15,346335,,,346336,,346338,2021-10-30T10:04:06.286Z,346397.28,1635587894,full,ni_sequenzen,NI_Sequenzen,,,,,,,,,,,,,,
,Screen_1,canvas.Screen,0_4_15_0,,skipped,16,346339,,,346339,,346339,2021-10-30T10:04:06.287Z,346397.28,1635587894,full,ni_sequenzen,NI_Sequenzen,,,,,,,,,,,,,,
,Screen_2,canvas.Screen,0_4_15_1,,skipped,16,346340,,,346339,,346340,2021-10-30T10:04:06.287Z,346397.28,1635587894,full,ni_sequenzen,NI_Sequenzen,,,,,,,,,,,,,,
,Screen_3,canvas.Screen,0_4_15_2,,skipped,16,346341,,,346339,,346341,2021-10-30T10:04:06.288Z,346397.28,1635587894,full,ni_sequenzen,NI_Sequenzen,,,,,,,,,,,,,,
,Sequence,flow.Sequence,0_4_15,,completion,16,346338,,,346339,,346341,2021-10-30T10:04:06.288Z,346397.28,1635587894,full,ni_sequenzen,NI_Sequenzen,,,,,,,,,,,,,,
,Screen_1,canvas.Screen,0_4_16_0,,skipped,17,346342,,,346342,,346342,2021-10-30T10:04:06.289Z,346397.28,1635587894,full,ni_sequenzen,NI_Sequenzen,,,,,,,,,,,,,,
,Screen_2,canvas.Screen,0_4_16_1,,skipped,17,346343,,,346342,,346343,2021-10-30T10:04:06.290Z,346397.28,1635587894,full,ni_sequenzen,NI_Sequenzen,,,,,,,,,,,,,,
,Screen_3,canvas.Screen,0_4_16_2,,skipped,17,346344,,,346342,,346344,2021-10-30T10:04:06.291Z,346397.28,1635587894,full,ni_sequenzen,NI_Sequenzen,,,,,,,,,,,,,,
