meta,sender,sender_type,sender_id,response,ended_on,instrCount,time_run,time_render,time_show,time_end,duration,time_commit,timestamp,time_switch,openLabId,type,task,project,move,trialN,blockN_Train,blockN,moveCount,currPP,points,movesTrial,visitedFields,diff,reward,Strategie,Zweck,Probleme
[object Object],Screen_1,canvas.Screen,0_0_0_0,cont,response,1,1537,1537.4,1598.98,111027,109428.02,111059,2021-10-25T16:19:52.785Z,111300.4,1635178671,full,ni_sequenzen,NI_Sequenzen,,,,,,,,,,,,,,
,Screen_2,canvas.Screen,0_0_0_1,cont,response,1,111258,111258.72,111300.4,123339,12038.600000000006,123358,2021-10-25T16:20:05.084Z,123483.9,1635178671,full,ni_sequenzen,NI_Sequenzen,,,,,,,,,,,,,,
,Screen_3,canvas.Screen,0_0_0_2,cont,response,1,123453,123453.68,123483.9,132386,8902.100000000006,132400,2021-10-25T16:20:14.125Z,132418.5,1635178671,full,ni_sequenzen,NI_Sequenzen,,,,,,,,,,,,,,
,Screen_4,canvas.Screen,0_0_0_3,cont,response,1,132417,132417.62,132418.5,136058,3639.5,136088,2021-10-25T16:20:17.814Z,136717.36,1635178671,full,ni_sequenzen,NI_Sequenzen,,,,,,,,,,,,,,
,Sequence,flow.Sequence,0_0_0,,completion,1,1460,1537.4,1598.98,136058,134459.02,136093,2021-10-25T16:20:17.820Z,136717.36,1635178671,full,ni_sequenzen,NI_Sequenzen,,,,,,,,,,,,,,
,Screen_1,canvas.Screen,0_0_1_0,,skipped,2,136114,,,136114,,136114,2021-10-25T16:20:17.840Z,136717.36,1635178671,full,ni_sequenzen,NI_Sequenzen,,,,,,,,,,,,,,
,Screen_2,canvas.Screen,0_0_1_1,,skipped,2,136124,,,136114,,136125,2021-10-25T16:20:17.851Z,136717.36,1635178671,full,ni_sequenzen,NI_Sequenzen,,,,,,,,,,,,,,
,Screen_3,canvas.Screen,0_0_1_2,,skipped,2,136134,,,136114,,136135,2021-10-25T16:20:17.860Z,136717.36,1635178671,full,ni_sequenzen,NI_Sequenzen,,,,,,,,,,,,,,
,Screen_4,canvas.Screen,0_0_1_3,,skipped,2,136141,,,136114,,136142,2021-10-25T16:20:17.869Z,136717.36,1635178671,full,ni_sequenzen,NI_Sequenzen,,,,,,,,,,,,,,
,Sequence,flow.Sequence,0_0_1,,completion,2,136103,,,136114,,136145,2021-10-25T16:20:17.871Z,136717.36,1635178671,full,ni_sequenzen,NI_Sequenzen,,,,,,,,,,,,,,
,Screen_1,canvas.Screen,0_0_2_0,,skipped,3,136154,,,136154,,136155,2021-10-25T16:20:17.881Z,136717.36,1635178671,full,ni_sequenzen,NI_Sequenzen,,,,,,,,,,,,,,
,Screen_2,canvas.Screen,0_0_2_1,,skipped,3,136163,,,136154,,136163,2021-10-25T16:20:17.889Z,136717.36,1635178671,full,ni_sequenzen,NI_Sequenzen,,,,,,,,,,,,,,
,Screen_3,canvas.Screen,0_0_2_2,,skipped,3,136169,,,136154,,136169,2021-10-25T16:20:17.895Z,136717.36,1635178671,full,ni_sequenzen,NI_Sequenzen,,,,,,,,,,,,,,
,Screen_4,canvas.Screen,0_0_2_3,,skipped,3,136176,,,136154,,136176,2021-10-25T16:20:17.902Z,136717.36,1635178671,full,ni_sequenzen,NI_Sequenzen,,,,,,,,,,,,,,
,Sequence,flow.Sequence,0_0_2,,completion,3,136148,,,136154,,136176,2021-10-25T16:20:17.903Z,136717.36,1635178671,full,ni_sequenzen,NI_Sequenzen,,,,,,,,,,,,,,
,Screen_1,canvas.Screen,0_0_3_0,,skipped,4,136187,,,136187,,136187,2021-10-25T16:20:17.913Z,136717.36,1635178671,full,ni_sequenzen,NI_Sequenzen,,,,,,,,,,,,,,
,Screen_2,canvas.Screen,0_0_3_1,,skipped,4,136193,,,136187,,136193,2021-10-25T16:20:17.919Z,136717.36,1635178671,full,ni_sequenzen,NI_Sequenzen,,,,,,,,,,,,,,
,Screen_3,canvas.Screen,0_0_3_2,,skipped,4,136199,,,136187,,136200,2021-10-25T16:20:17.925Z,136717.36,1635178671,full,ni_sequenzen,NI_Sequenzen,,,,,,,,,,,,,,
,Screen_4,canvas.Screen,0_0_3_3,,skipped,4,136208,,,136187,,136209,2021-10-25T16:20:17.935Z,136717.36,1635178671,full,ni_sequenzen,NI_Sequenzen,,,,,,,,,,,,,,
,Sequence,flow.Sequence,0_0_3,,completion,4,136180,,,136187,,136210,2021-10-25T16:20:17.936Z,136717.36,1635178671,full,ni_sequenzen,NI_Sequenzen,,,,,,,,,,,,,,
,Screen_1,canvas.Screen,0_0_4_0,,skipped,5,136220,,,136220,,136220,2021-10-25T16:20:17.947Z,136717.36,1635178671,full,ni_sequenzen,NI_Sequenzen,,,,,,,,,,,,,,
,Screen_2,canvas.Screen,0_0_4_1,,skipped,5,136227,,,136220,,136227,2021-10-25T16:20:17.953Z,136717.36,1635178671,full,ni_sequenzen,NI_Sequenzen,,,,,,,,,,,,,,
,Screen_3,canvas.Screen,0_0_4_2,,skipped,5,136232,,,136220,,136233,2021-10-25T16:20:17.958Z,136717.36,1635178671,full,ni_sequenzen,NI_Sequenzen,,,,,,,,,,,,,,
,Screen_4,canvas.Screen,0_0_4_3,,skipped,5,136241,,,136220,,136241,2021-10-25T16:20:17.968Z,136717.36,1635178671,full,ni_sequenzen,NI_Sequenzen,,,,,,,,,,,,,,
,Sequence,flow.Sequence,0_0_4,,completion,5,136214,,,136220,,136242,2021-10-25T16:20:17.968Z,136717.36,1635178671,full,ni_sequenzen,NI_Sequenzen,,,,,,,,,,,,,,
,Screen_1,canvas.Screen,0_0_5_0,,skipped,6,136249,,,136249,,136250,2021-10-25T16:20:17.975Z,136717.36,1635178671,full,ni_sequenzen,NI_Sequenzen,,,,,,,,,,,,,,
,Screen_2,canvas.Screen,0_0_5_1,,skipped,6,136254,,,136249,,136254,2021-10-25T16:20:17.981Z,136717.36,1635178671,full,ni_sequenzen,NI_Sequenzen,,,,,,,,,,,,,,
,Screen_3,canvas.Screen,0_0_5_2,,skipped,6,136263,,,136249,,136263,2021-10-25T16:20:17.988Z,136717.36,1635178671,full,ni_sequenzen,NI_Sequenzen,,,,,,,,,,,,,,
,Screen_4,canvas.Screen,0_0_5_3,,skipped,6,136268,,,136249,,136268,2021-10-25T16:20:17.994Z,136717.36,1635178671,full,ni_sequenzen,NI_Sequenzen,,,,,,,,,,,,,,
,Sequence,flow.Sequence,0_0_5,,completion,6,136245,,,136249,,136269,2021-10-25T16:20:17.995Z,136717.36,1635178671,full,ni_sequenzen,NI_Sequenzen,,,,,,,,,,,,,,
,Screen_1,canvas.Screen,0_0_6_0,,skipped,7,136275,,,136276,,136277,2021-10-25T16:20:18.002Z,136717.36,1635178671,full,ni_sequenzen,NI_Sequenzen,,,,,,,,,,,,,,
,Screen_2,canvas.Screen,0_0_6_1,,skipped,7,136281,,,136276,,136281,2021-10-25T16:20:18.007Z,136717.36,1635178671,full,ni_sequenzen,NI_Sequenzen,,,,,,,,,,,,,,
,Screen_3,canvas.Screen,0_0_6_2,,skipped,7,136286,,,136276,,136287,2021-10-25T16:20:18.013Z,136717.36,1635178671,full,ni_sequenzen,NI_Sequenzen,,,,,,,,,,,,,,
,Screen_4,canvas.Screen,0_0_6_3,,skipped,7,136295,,,136276,,136296,2021-10-25T16:20:18.021Z,136717.36,1635178671,full,ni_sequenzen,NI_Sequenzen,,,,,,,,,,,,,,
,Sequence,flow.Sequence,0_0_6,,completion,7,136271,,,136276,,136296,2021-10-25T16:20:18.022Z,136717.36,1635178671,full,ni_sequenzen,NI_Sequenzen,,,,,,,,,,,,,,
,Screen_1,canvas.Screen,0_0_7_0,,skipped,8,136302,,,136302,,136302,2021-10-25T16:20:18.029Z,136717.36,1635178671,full,ni_sequenzen,NI_Sequenzen,,,,,,,,,,,,,,
,Screen_2,canvas.Screen,0_0_7_1,,skipped,8,136307,,,136302,,136307,2021-10-25T16:20:18.034Z,136717.36,1635178671,full,ni_sequenzen,NI_Sequenzen,,,,,,,,,,,,,,
,Screen_3,canvas.Screen,0_0_7_2,,skipped,8,136313,,,136302,,136313,2021-10-25T16:20:18.039Z,136717.36,1635178671,full,ni_sequenzen,NI_Sequenzen,,,,,,,,,,,,,,
,Screen_4,canvas.Screen,0_0_7_3,,skipped,8,136318,,,136302,,136319,2021-10-25T16:20:18.045Z,136717.36,1635178671,full,ni_sequenzen,NI_Sequenzen,,,,,,,,,,,,,,
,Sequence,flow.Sequence,0_0_7,,completion,8,136298,,,136302,,136320,2021-10-25T16:20:18.045Z,136717.36,1635178671,full,ni_sequenzen,NI_Sequenzen,,,,,,,,,,,,,,
,Screen_1,canvas.Screen,0_0_8_0,,skipped,9,136327,,,136327,,136328,2021-10-25T16:20:18.053Z,136717.36,1635178671,full,ni_sequenzen,NI_Sequenzen,,,,,,,,,,,,,,
,Screen_2,canvas.Screen,0_0_8_1,,skipped,9,136332,,,136327,,136332,2021-10-25T16:20:18.059Z,136717.36,1635178671,full,ni_sequenzen,NI_Sequenzen,,,,,,,,,,,,,,
,Screen_3,canvas.Screen,0_0_8_2,,skipped,9,136338,,,136327,,136338,2021-10-25T16:20:18.065Z,136717.36,1635178671,full,ni_sequenzen,NI_Sequenzen,,,,,,,,,,,,,,
,Screen_4,canvas.Screen,0_0_8_3,,skipped,9,136344,,,136327,,136344,2021-10-25T16:20:18.070Z,136717.36,1635178671,full,ni_sequenzen,NI_Sequenzen,,,,,,,,,,,,,,
,Sequence,flow.Sequence,0_0_8,,completion,9,136323,,,136327,,136345,2021-10-25T16:20:18.071Z,136717.36,1635178671,full,ni_sequenzen,NI_Sequenzen,,,,,,,,,,,,,,
,Screen_1,canvas.Screen,0_0_9_0,,skipped,10,136350,,,136350,,136350,2021-10-25T16:20:18.077Z,136717.36,1635178671,full,ni_sequenzen,NI_Sequenzen,,,,,,,,,,,,,,
,Screen_2,canvas.Screen,0_0_9_1,,skipped,10,136356,,,136350,,136356,2021-10-25T16:20:18.081Z,136717.36,1635178671,full,ni_sequenzen,NI_Sequenzen,,,,,,,,,,,,,,
,Screen_3,canvas.Screen,0_0_9_2,,skipped,10,136362,,,136350,,136362,2021-10-25T16:20:18.088Z,136717.36,1635178671,full,ni_sequenzen,NI_Sequenzen,,,,,,,,,,,,,,
,Screen_4,canvas.Screen,0_0_9_3,,skipped,10,136368,,,136350,,136368,2021-10-25T16:20:18.094Z,136717.36,1635178671,full,ni_sequenzen,NI_Sequenzen,,,,,,,,,,,,,,
,Sequence,flow.Sequence,0_0_9,,completion,10,136347,,,136350,,136369,2021-10-25T16:20:18.095Z,136717.36,1635178671,full,ni_sequenzen,NI_Sequenzen,,,,,,,,,,,,,,
,Screen_1,canvas.Screen,0_0_10_0,,skipped,11,136376,,,136376,,136376,2021-10-25T16:20:18.101Z,136717.36,1635178671,full,ni_sequenzen,NI_Sequenzen,,,,,,,,,,,,,,
,Screen_2,canvas.Screen,0_0_10_1,,skipped,11,136380,,,136376,,136380,2021-10-25T16:20:18.106Z,136717.36,1635178671,full,ni_sequenzen,NI_Sequenzen,,,,,,,,,,,,,,
,Screen_3,canvas.Screen,0_0_10_2,,skipped,11,136384,,,136376,,136385,2021-10-25T16:20:18.111Z,136717.36,1635178671,full,ni_sequenzen,NI_Sequenzen,,,,,,,,,,,,,,
,Screen_4,canvas.Screen,0_0_10_3,,skipped,11,136391,,,136376,,136391,2021-10-25T16:20:18.117Z,136717.36,1635178671,full,ni_sequenzen,NI_Sequenzen,,,,,,,,,,,,,,
,Sequence,flow.Sequence,0_0_10,,completion,11,136371,,,136376,,136392,2021-10-25T16:20:18.118Z,136717.36,1635178671,full,ni_sequenzen,NI_Sequenzen,,,,,,,,,,,,,,
,Screen_1,canvas.Screen,0_0_11_0,,skipped,12,136398,,,136398,,136398,2021-10-25T16:20:18.125Z,136717.36,1635178671,full,ni_sequenzen,NI_Sequenzen,,,,,,,,,,,,,,
,Screen_2,canvas.Screen,0_0_11_1,,skipped,12,136403,,,136398,,136403,2021-10-25T16:20:18.129Z,136717.36,1635178671,full,ni_sequenzen,NI_Sequenzen,,,,,,,,,,,,,,
,Screen_3,canvas.Screen,0_0_11_2,,skipped,12,136412,,,136398,,136412,2021-10-25T16:20:18.138Z,136717.36,1635178671,full,ni_sequenzen,NI_Sequenzen,,,,,,,,,,,,,,
,Screen_4,canvas.Screen,0_0_11_3,,skipped,12,136420,,,136398,,136421,2021-10-25T16:20:18.147Z,136717.36,1635178671,full,ni_sequenzen,NI_Sequenzen,,,,,,,,,,,,,,
,Sequence,flow.Sequence,0_0_11,,completion,12,136395,,,136398,,136422,2021-10-25T16:20:18.147Z,136717.36,1635178671,full,ni_sequenzen,NI_Sequenzen,,,,,,,,,,,,,,
,Screen_1,canvas.Screen,0_0_12_0,,skipped,13,136429,,,136429,,136430,2021-10-25T16:20:18.156Z,136717.36,1635178671,full,ni_sequenzen,NI_Sequenzen,,,,,,,,,,,,,,
,Screen_2,canvas.Screen,0_0_12_1,,skipped,13,136435,,,136429,,136435,2021-10-25T16:20:18.161Z,136717.36,1635178671,full,ni_sequenzen,NI_Sequenzen,,,,,,,,,,,,,,
,Screen_3,canvas.Screen,0_0_12_2,,skipped,13,136441,,,136429,,136441,2021-10-25T16:20:18.167Z,136717.36,1635178671,full,ni_sequenzen,NI_Sequenzen,,,,,,,,,,,,,,
,Screen_4,canvas.Screen,0_0_12_3,,skipped,13,136447,,,136429,,136447,2021-10-25T16:20:18.173Z,136717.36,1635178671,full,ni_sequenzen,NI_Sequenzen,,,,,,,,,,,,,,
,Sequence,flow.Sequence,0_0_12,,completion,13,136425,,,136429,,136447,2021-10-25T16:20:18.174Z,136717.36,1635178671,full,ni_sequenzen,NI_Sequenzen,,,,,,,,,,,,,,
,Screen_1,canvas.Screen,0_0_13_0,,skipped,14,136453,,,136453,,136454,2021-10-25T16:20:18.180Z,136717.36,1635178671,full,ni_sequenzen,NI_Sequenzen,,,,,,,,,,,,,,
,Screen_2,canvas.Screen,0_0_13_1,,skipped,14,136459,,,136453,,136459,2021-10-25T16:20:18.185Z,136717.36,1635178671,full,ni_sequenzen,NI_Sequenzen,,,,,,,,,,,,,,
,Screen_3,canvas.Screen,0_0_13_2,,skipped,14,136464,,,136453,,136464,2021-10-25T16:20:18.190Z,136717.36,1635178671,full,ni_sequenzen,NI_Sequenzen,,,,,,,,,,,,,,
,Screen_4,canvas.Screen,0_0_13_3,,skipped,14,136470,,,136453,,136471,2021-10-25T16:20:18.197Z,136717.36,1635178671,full,ni_sequenzen,NI_Sequenzen,,,,,,,,,,,,,,
,Sequence,flow.Sequence,0_0_13,,completion,14,136450,,,136453,,136472,2021-10-25T16:20:18.197Z,136717.36,1635178671,full,ni_sequenzen,NI_Sequenzen,,,,,,,,,,,,,,
,Screen_1,canvas.Screen,0_0_14_0,,skipped,15,136480,,,136481,,136481,2021-10-25T16:20:18.207Z,136717.36,1635178671,full,ni_sequenzen,NI_Sequenzen,,,,,,,,,,,,,,
,Screen_2,canvas.Screen,0_0_14_1,,skipped,15,136486,,,136481,,136486,2021-10-25T16:20:18.212Z,136717.36,1635178671,full,ni_sequenzen,NI_Sequenzen,,,,,,,,,,,,,,
,Screen_3,canvas.Screen,0_0_14_2,,skipped,15,136491,,,136481,,136491,2021-10-25T16:20:18.218Z,136717.36,1635178671,full,ni_sequenzen,NI_Sequenzen,,,,,,,,,,,,,,
,Screen_4,canvas.Screen,0_0_14_3,,skipped,15,136497,,,136481,,136497,2021-10-25T16:20:18.223Z,136717.36,1635178671,full,ni_sequenzen,NI_Sequenzen,,,,,,,,,,,,,,
,Sequence,flow.Sequence,0_0_14,,completion,15,136476,,,136481,,136497,2021-10-25T16:20:18.223Z,136717.36,1635178671,full,ni_sequenzen,NI_Sequenzen,,,,,,,,,,,,,,
,Screen_1,canvas.Screen,0_0_15_0,,skipped,16,136504,,,136504,,136504,2021-10-25T16:20:18.230Z,136717.36,1635178671,full,ni_sequenzen,NI_Sequenzen,,,,,,,,,,,,,,
,Screen_2,canvas.Screen,0_0_15_1,,skipped,16,136509,,,136504,,136509,2021-10-25T16:20:18.235Z,136717.36,1635178671,full,ni_sequenzen,NI_Sequenzen,,,,,,,,,,,,,,
,Screen_3,canvas.Screen,0_0_15_2,,skipped,16,136514,,,136504,,136514,2021-10-25T16:20:18.240Z,136717.36,1635178671,full,ni_sequenzen,NI_Sequenzen,,,,,,,,,,,,,,
,Screen_4,canvas.Screen,0_0_15_3,,skipped,16,136519,,,136504,,136519,2021-10-25T16:20:18.245Z,136717.36,1635178671,full,ni_sequenzen,NI_Sequenzen,,,,,,,,,,,,,,
,Sequence,flow.Sequence,0_0_15,,completion,16,136499,,,136504,,136521,2021-10-25T16:20:18.247Z,136717.36,1635178671,full,ni_sequenzen,NI_Sequenzen,,,,,,,,,,,,,,
,Screen_1,canvas.Screen,0_0_16_0,,skipped,17,136526,,,136526,,136527,2021-10-25T16:20:18.253Z,136717.36,1635178671,full,ni_sequenzen,NI_Sequenzen,,,,,,,,,,,,,,
,Screen_2,canvas.Screen,0_0_16_1,,skipped,17,136534,,,136526,,136535,2021-10-25T16:20:18.260Z,136717.36,1635178671,full,ni_sequenzen,NI_Sequenzen,,,,,,,,,,,,,,
,Screen_3,canvas.Screen,0_0_16_2,,skipped,17,136539,,,136526,,136539,2021-10-25T16:20:18.266Z,136717.36,1635178671,full,ni_sequenzen,NI_Sequenzen,,,,,,,,,,,,,,
,Screen_4,canvas.Screen,0_0_16_3,,skipped,17,136544,,,136526,,136544,2021-10-25T16:20:18.270Z,136717.36,1635178671,full,ni_sequenzen,NI_Sequenzen,,,,,,,,,,,,,,
,Sequence,flow.Sequence,0_0_16,,completion,17,136523,,,136526,,136545,2021-10-25T16:20:18.271Z,136717.36,1635178671,full,ni_sequenzen,NI_Sequenzen,,,,,,,,,,,,,,
,Screen_1,canvas.Screen,0_0_17_0,,skipped,18,136551,,,136551,,136551,2021-10-25T16:20:18.277Z,136717.36,1635178671,full,ni_sequenzen,NI_Sequenzen,,,,,,,,,,,,,,
,Screen_2,canvas.Screen,0_0_17_1,,skipped,18,136555,,,136551,,136555,2021-10-25T16:20:18.281Z,136717.36,1635178671,full,ni_sequenzen,NI_Sequenzen,,,,,,,,,,,,,,
,Screen_3,canvas.Screen,0_0_17_2,,skipped,18,136559,,,136551,,136559,2021-10-25T16:20:18.286Z,136717.36,1635178671,full,ni_sequenzen,NI_Sequenzen,,,,,,,,,,,,,,
,Screen_4,canvas.Screen,0_0_17_3,,skipped,18,136564,,,136551,,136564,2021-10-25T16:20:18.290Z,136717.36,1635178671,full,ni_sequenzen,NI_Sequenzen,,,,,,,,,,,,,,
,Sequence,flow.Sequence,0_0_17,,completion,18,136547,,,136551,,136565,2021-10-25T16:20:18.291Z,136717.36,1635178671,full,ni_sequenzen,NI_Sequenzen,,,,,,,,,,,,,,
,Screen_1,canvas.Screen,0_0_18_0,,skipped,19,136570,,,136570,,136571,2021-10-25T16:20:18.297Z,136717.36,1635178671,full,ni_sequenzen,NI_Sequenzen,,,,,,,,,,,,,,
,Screen_2,canvas.Screen,0_0_18_1,,skipped,19,136575,,,136570,,136575,2021-10-25T16:20:18.301Z,136717.36,1635178671,full,ni_sequenzen,NI_Sequenzen,,,,,,,,,,,,,,
,Screen_3,canvas.Screen,0_0_18_2,,skipped,19,136579,,,136570,,136579,2021-10-25T16:20:18.305Z,136717.36,1635178671,full,ni_sequenzen,NI_Sequenzen,,,,,,,,,,,,,,
,Screen_4,canvas.Screen,0_0_18_3,,skipped,19,136584,,,136570,,136585,2021-10-25T16:20:18.310Z,136717.36,1635178671,full,ni_sequenzen,NI_Sequenzen,,,,,,,,,,,,,,
,Sequence,flow.Sequence,0_0_18,,completion,19,136567,,,136570,,136585,2021-10-25T16:20:18.311Z,136717.36,1635178671,full,ni_sequenzen,NI_Sequenzen,,,,,,,,,,,,,,
,Screen_1,canvas.Screen,0_0_19_0,,skipped,20,136593,,,136593,,136594,2021-10-25T16:20:18.319Z,136717.36,1635178671,full,ni_sequenzen,NI_Sequenzen,,,,,,,,,,,,,,
,Screen_2,canvas.Screen,0_0_19_1,,skipped,20,136597,,,136593,,136598,2021-10-25T16:20:18.323Z,136717.36,1635178671,full,ni_sequenzen,NI_Sequenzen,,,,,,,,,,,,,,
,Screen_3,canvas.Screen,0_0_19_2,,skipped,20,136602,,,136593,,136602,2021-10-25T16:20:18.328Z,136717.36,1635178671,full,ni_sequenzen,NI_Sequenzen,,,,,,,,,,,,,,
,Screen_4,canvas.Screen,0_0_19_3,,skipped,20,136607,,,136593,,136607,2021-10-25T16:20:18.334Z,136717.36,1635178671,full,ni_sequenzen,NI_Sequenzen,,,,,,,,,,,,,,
,Sequence,flow.Sequence,0_0_19,,completion,20,136588,,,136593,,136609,2021-10-25T16:20:18.335Z,136717.36,1635178671,full,ni_sequenzen,NI_Sequenzen,,,,,,,,,,,,,,
,Instructions_I,flow.Loop,0_0,,completion,,1457,1537.4,1598.98,136593,134994.02,136610,2021-10-25T16:20:18.336Z,136717.36,1635178671,full,ni_sequenzen,NI_Sequenzen,,,,,,,,,,,,,,
,Move,canvas.Screen,0_1_0_0,down,response,,136675,136674.96,136717.36,137777,1059.640000000014,137787,2021-10-25T16:20:19.514Z,137805.24,1635178671,full,ni_sequenzen,NI_Sequenzen,1,,,,,,,,,,,,,
,Move,canvas.Screen,0_1_0_1,right,response,,137805,137804.76,137805.24,138261,455.7600000000093,138276,2021-10-25T16:20:20.002Z,138300.78,1635178671,full,ni_sequenzen,NI_Sequenzen,2,,,,,,,,,,,,,
,Move,canvas.Screen,0_1_0_2,left,response,,138297,138297.2,138300.78,139011,710.2200000000012,139022,2021-10-25T16:20:20.748Z,139036.52,1635178671,full,ni_sequenzen,NI_Sequenzen,3,,,,,,,,,,,,,
,Move,canvas.Screen,0_1_0_3,right,response,,139036,139035.98,139036.52,139683,646.4800000000105,139716,2021-10-25T16:20:21.442Z,139734.04,1635178671,full,ni_sequenzen,NI_Sequenzen,4,,,,,,,,,,,,,
,Move,canvas.Screen,0_1_0_4,down,response,,139731,139731.26,139734.04,140245,510.95999999999185,140258,2021-10-25T16:20:21.983Z,140271.96,1635178671,full,ni_sequenzen,NI_Sequenzen,5,,,,,,,,,,,,,
,Move,canvas.Screen,0_1_0_5,down,response,,140271,140271.5,140271.96,140510,238.04000000000815,140540,2021-10-25T16:20:22.265Z,140555.24,1635178671,full,ni_sequenzen,NI_Sequenzen,6,,,,,,,,,,,,,
,Move,canvas.Screen,0_1_0_6,down,response,,140555,140554.76,140555.24,140980,424.7600000000093,140992,2021-10-25T16:20:22.718Z,141017.4,1635178671,full,ni_sequenzen,NI_Sequenzen,7,,,,,,,,,,,,,
,Move,canvas.Screen,0_1_0_7,right,response,,141007,141007.26,141017.4,141527,509.6000000000058,141544,2021-10-25T16:20:23.269Z,141567.48,1635178671,full,ni_sequenzen,NI_Sequenzen,8,,,,,,,,,,,,,
,Move,canvas.Screen,0_1_0_8,down,response,,141562,141561.52,141567.48,142104,536.5199999999895,142119,2021-10-25T16:20:23.846Z,142134.86,1635178671,full,ni_sequenzen,NI_Sequenzen,9,,,,,,,,,,,,,
,Move,canvas.Screen,0_1_0_9,left,response,,142134,142134.42,142134.86,142495,360.14000000001397,142515,2021-10-25T16:20:24.241Z,142534.06,1635178671,full,ni_sequenzen,NI_Sequenzen,10,,,,,,,,,,,,,
,Move,canvas.Screen,0_1_0_10,left,response,,142533,142532.24,142534.06,142870,335.9400000000023,142898,2021-10-25T16:20:24.624Z,142917.42,1635178671,full,ni_sequenzen,NI_Sequenzen,11,,,,,,,,,,,,,
,Move,canvas.Screen,0_1_0_11,down,response,,142915,142915.22,142917.42,143870,952.5799999999872,143885,2021-10-25T16:20:25.611Z,143900.76,1635178671,full,ni_sequenzen,NI_Sequenzen,12,,,,,,,,,,,,,
,Move,canvas.Screen,0_1_0_12,down,response,,143896,143896.4,143900.76,144088,187.2399999999907,144114,2021-10-25T16:20:25.840Z,144134.38,1635178671,full,ni_sequenzen,NI_Sequenzen,13,,,,,,,,,,,,,
,Move,canvas.Screen,0_1_0_13,down,response,,144131,144130.48,144134.38,144277,142.61999999999534,144298,2021-10-25T16:20:26.024Z,144317.44,1635178671,full,ni_sequenzen,NI_Sequenzen,14,,,,,,,,,,,,,
,Move,canvas.Screen,0_1_0_14,left,response,,144309,144308.94,144317.44,144574,256.5599999999977,144606,2021-10-25T16:20:26.332Z,144634.08,1635178671,full,ni_sequenzen,NI_Sequenzen,15,,,,,,,,,,,,,
,Move,canvas.Screen,0_1_0_15,right,response,,144624,144624.32,144634.08,145292,657.9200000000128,145317,2021-10-25T16:20:27.044Z,145338.4,1635178671,full,ni_sequenzen,NI_Sequenzen,16,,,,,,,,,,,,,
,Move,canvas.Screen,0_1_0_16,right,response,,145338,145337.9,145338.4,145542,203.60000000000582,145563,2021-10-25T16:20:27.290Z,145574.62,1635178671,full,ni_sequenzen,NI_Sequenzen,17,,,,,,,,,,,,,
,Move,canvas.Screen,0_1_0_17,right,response,,145574,145574.14,145574.62,145744,169.38000000000466,145758,2021-10-25T16:20:27.485Z,145784.12,1635178671,full,ni_sequenzen,NI_Sequenzen,18,,,,,,,,,,,,,
,Move,canvas.Screen,0_1_0_18,right,response,,145779,145779.8,145784.12,146619,834.8800000000047,146644,2021-10-25T16:20:28.370Z,146667.18,1635178671,full,ni_sequenzen,NI_Sequenzen,19,,,,,,,,,,,,,
,Move,canvas.Screen,0_1_0_19,down,response,,146666,146666.62,146667.18,147761,1093.820000000007,147783,2021-10-25T16:20:29.509Z,147800.9,1635178671,full,ni_sequenzen,NI_Sequenzen,20,,,,,,,,,,,,,
,Move,canvas.Screen,0_1_0_20,left,response,,147798,147797.3,147800.9,148464,663.1000000000058,148472,2021-10-25T16:20:30.197Z,148484.2,1635178671,full,ni_sequenzen,NI_Sequenzen,21,,,,,,,,,,,,,
,Move,canvas.Screen,0_1_0_21,down,response,,148483,148483.24,148484.2,148995,510.79999999998836,149016,2021-10-25T16:20:30.742Z,149029.26,1635178671,full,ni_sequenzen,NI_Sequenzen,22,,,,,,,,,,,,,
,Move,canvas.Screen,0_1_0_22,down,response,,149028,149028.12,149029.26,149261,231.7399999999907,149280,2021-10-25T16:20:31.006Z,149294.32,1635178671,full,ni_sequenzen,NI_Sequenzen,23,,,,,,,,,,,,,
,Move,canvas.Screen,0_1_0_23,down,response,,149293,149293.12,149294.32,149682,387.679999999993,149701,2021-10-25T16:20:31.426Z,149717.78,1635178671,full,ni_sequenzen,NI_Sequenzen,24,,,,,,,,,,,,,
,Move,canvas.Screen,0_1_0_24,left,response,,149711,149711.06,149717.78,149964,246.22000000000116,149988,2021-10-25T16:20:31.714Z,150000.82,1635178671,full,ni_sequenzen,NI_Sequenzen,25,,,,,,,,,,,,,
,Move,canvas.Screen,0_1_0_25,left,response,,149998,149998.36,150000.82,150589,588.179999999993,150598,2021-10-25T16:20:32.323Z,150617.6,1635178671,full,ni_sequenzen,NI_Sequenzen,26,,,,,,,,,,,,,
,Move,canvas.Screen,0_1_0_26,right,response,,150613,150612.86,150617.6,151370,752.3999999999942,151394,2021-10-25T16:20:33.120Z,151404.92,1635178671,full,ni_sequenzen,NI_Sequenzen,27,,,,,,,,,,,,,
,Move,canvas.Screen,0_1_0_27,down,response,,151404,151404.48,151404.92,151870,465.0799999999872,151892,2021-10-25T16:20:33.618Z,151905.38,1635178671,full,ni_sequenzen,NI_Sequenzen,28,,,,,,,,,,,,,
,Move,canvas.Screen,0_1_0_28,down,response,,151905,151904.9,151905.38,152120,214.61999999999534,152138,2021-10-25T16:20:33.864Z,152153.08,1635178671,full,ni_sequenzen,NI_Sequenzen,29,,,,,,,,,,,,,
,Move,canvas.Screen,0_1_0_29,down,response,,152152,152152.6,152153.08,152324,170.9200000000128,152335,2021-10-25T16:20:34.061Z,152484.18,1635178671,full,ni_sequenzen,NI_Sequenzen,30,,,,,,,,,,,,,
,Loop,flow.Loop,0_1_0,-999,completion,,136663,136674.96,136717.36,152324,15606.640000000014,152336,2021-10-25T16:20:34.062Z,152484.18,1635178671,full,ni_sequenzen,NI_Sequenzen,,,,,,,,,,,,,,
,Training_I,flow.Sequence,0_1,,completion,,136611,136674.96,136717.36,152324,15606.640000000014,152336,2021-10-25T16:20:34.062Z,152484.18,1635178671,full,ni_sequenzen,NI_Sequenzen,,,,,,,,,,,,,,
,Screen_1,canvas.Screen,0_2_0_0,cont,response,1,152472,152471.62,152484.18,159589,7104.820000000007,159601,2021-10-25T16:20:41.327Z,159734.28,1635178671,full,ni_sequenzen,NI_Sequenzen,,,,,,,,,,,,,,
,Screen_2,canvas.Screen,0_2_0_1,cont,response,1,159709,159710.06,159734.28,167199,7464.720000000001,167219,2021-10-25T16:20:48.945Z,167225.06,1635178671,full,ni_sequenzen,NI_Sequenzen,,,,,,,,,,,,,,
,Screen_3,canvas.Screen,0_2_0_2,cont,response,1,167225,167224.62,167225.06,176136,8910.940000000002,176153,2021-10-25T16:20:57.879Z,176251.32,1635178671,full,ni_sequenzen,NI_Sequenzen,,,,,,,,,,,,,,
,Screen_4,canvas.Screen,0_2_0_3,cont,response,1,176235,176234.94,176251.32,182714,6462.679999999993,182739,2021-10-25T16:21:04.465Z,182745.52,1635178671,full,ni_sequenzen,NI_Sequenzen,,,,,,,,,,,,,,
,Screen_5,canvas.Screen,0_2_0_4,cont,response,1,182745,182745.08,182745.52,187667,4921.4800000000105,187678,2021-10-25T16:21:09.404Z,187851.32,1635178671,full,ni_sequenzen,NI_Sequenzen,,,,,,,,,,,,,,
,Screen_6,canvas.Screen,0_2_0_5,cont,response,1,187823,187823.2,187851.32,208027,20175.679999999993,208044,2021-10-25T16:21:29.770Z,209151.56,1635178671,full,ni_sequenzen,NI_Sequenzen,,,,,,,,,,,,,,
,Sequence,flow.Sequence,0_2_0,,completion,1,152467,152471.62,152484.18,208027,55542.82000000001,208052,2021-10-25T16:21:29.778Z,209151.56,1635178671,full,ni_sequenzen,NI_Sequenzen,,,,,,,,,,,,,,
,Screen_1,canvas.Screen,0_2_1_0,,skipped,2,208076,,,208076,,208077,2021-10-25T16:21:29.802Z,209151.56,1635178671,full,ni_sequenzen,NI_Sequenzen,,,,,,,,,,,,,,
,Screen_2,canvas.Screen,0_2_1_1,,skipped,2,208087,,,208076,,208088,2021-10-25T16:21:29.814Z,209151.56,1635178671,full,ni_sequenzen,NI_Sequenzen,,,,,,,,,,,,,,
,Screen_3,canvas.Screen,0_2_1_2,,skipped,2,208098,,,208076,,208099,2021-10-25T16:21:29.825Z,209151.56,1635178671,full,ni_sequenzen,NI_Sequenzen,,,,,,,,,,,,,,
,Screen_4,canvas.Screen,0_2_1_3,,skipped,2,208111,,,208076,,208113,2021-10-25T16:21:29.838Z,209151.56,1635178671,full,ni_sequenzen,NI_Sequenzen,,,,,,,,,,,,,,
,Screen_5,canvas.Screen,0_2_1_4,,skipped,2,208119,,,208076,,208120,2021-10-25T16:21:29.846Z,209151.56,1635178671,full,ni_sequenzen,NI_Sequenzen,,,,,,,,,,,,,,
,Screen_6,canvas.Screen,0_2_1_5,,skipped,2,208126,,,208076,,208127,2021-10-25T16:21:29.853Z,209151.56,1635178671,full,ni_sequenzen,NI_Sequenzen,,,,,,,,,,,,,,
,Sequence,flow.Sequence,0_2_1,,completion,2,208061,,,208076,,208128,2021-10-25T16:21:29.854Z,209151.56,1635178671,full,ni_sequenzen,NI_Sequenzen,,,,,,,,,,,,,,
,Screen_1,canvas.Screen,0_2_2_0,,skipped,3,208136,,,208136,,208137,2021-10-25T16:21:29.863Z,209151.56,1635178671,full,ni_sequenzen,NI_Sequenzen,,,,,,,,,,,,,,
,Screen_2,canvas.Screen,0_2_2_1,,skipped,3,208143,,,208136,,208144,2021-10-25T16:21:29.869Z,209151.56,1635178671,full,ni_sequenzen,NI_Sequenzen,,,,,,,,,,,,,,
,Screen_3,canvas.Screen,0_2_2_2,,skipped,3,208150,,,208136,,208150,2021-10-25T16:21:29.876Z,209151.56,1635178671,full,ni_sequenzen,NI_Sequenzen,,,,,,,,,,,,,,
,Screen_4,canvas.Screen,0_2_2_3,,skipped,3,208157,,,208136,,208157,2021-10-25T16:21:29.883Z,209151.56,1635178671,full,ni_sequenzen,NI_Sequenzen,,,,,,,,,,,,,,
,Screen_5,canvas.Screen,0_2_2_4,,skipped,3,208164,,,208136,,208165,2021-10-25T16:21:29.890Z,209151.56,1635178671,full,ni_sequenzen,NI_Sequenzen,,,,,,,,,,,,,,
,Screen_6,canvas.Screen,0_2_2_5,,skipped,3,208170,,,208136,,208171,2021-10-25T16:21:29.896Z,209151.56,1635178671,full,ni_sequenzen,NI_Sequenzen,,,,,,,,,,,,,,
,Sequence,flow.Sequence,0_2_2,,completion,3,208131,,,208136,,208171,2021-10-25T16:21:29.897Z,209151.56,1635178671,full,ni_sequenzen,NI_Sequenzen,,,,,,,,,,,,,,
,Screen_1,canvas.Screen,0_2_3_0,,skipped,4,208178,,,208178,,208178,2021-10-25T16:21:29.905Z,209151.56,1635178671,full,ni_sequenzen,NI_Sequenzen,,,,,,,,,,,,,,
,Screen_2,canvas.Screen,0_2_3_1,,skipped,4,208184,,,208178,,208185,2021-10-25T16:21:29.910Z,209151.56,1635178671,full,ni_sequenzen,NI_Sequenzen,,,,,,,,,,,,,,
,Screen_3,canvas.Screen,0_2_3_2,,skipped,4,208190,,,208178,,208190,2021-10-25T16:21:29.916Z,209151.56,1635178671,full,ni_sequenzen,NI_Sequenzen,,,,,,,,,,,,,,
,Screen_4,canvas.Screen,0_2_3_3,,skipped,4,208195,,,208178,,208195,2021-10-25T16:21:29.921Z,209151.56,1635178671,full,ni_sequenzen,NI_Sequenzen,,,,,,,,,,,,,,
,Screen_5,canvas.Screen,0_2_3_4,,skipped,4,208202,,,208178,,208203,2021-10-25T16:21:29.928Z,209151.56,1635178671,full,ni_sequenzen,NI_Sequenzen,,,,,,,,,,,,,,
,Screen_6,canvas.Screen,0_2_3_5,,skipped,4,208209,,,208178,,208209,2021-10-25T16:21:29.936Z,209151.56,1635178671,full,ni_sequenzen,NI_Sequenzen,,,,,,,,,,,,,,
,Sequence,flow.Sequence,0_2_3,,completion,4,208173,,,208178,,208210,2021-10-25T16:21:29.936Z,209151.56,1635178671,full,ni_sequenzen,NI_Sequenzen,,,,,,,,,,,,,,
,Screen_1,canvas.Screen,0_2_4_0,,skipped,5,208218,,,208218,,208218,2021-10-25T16:21:29.944Z,209151.56,1635178671,full,ni_sequenzen,NI_Sequenzen,,,,,,,,,,,,,,
,Screen_2,canvas.Screen,0_2_4_1,,skipped,5,208223,,,208218,,208223,2021-10-25T16:21:29.949Z,209151.56,1635178671,full,ni_sequenzen,NI_Sequenzen,,,,,,,,,,,,,,
,Screen_3,canvas.Screen,0_2_4_2,,skipped,5,208229,,,208218,,208229,2021-10-25T16:21:29.954Z,209151.56,1635178671,full,ni_sequenzen,NI_Sequenzen,,,,,,,,,,,,,,
,Screen_4,canvas.Screen,0_2_4_3,,skipped,5,208234,,,208218,,208234,2021-10-25T16:21:29.960Z,209151.56,1635178671,full,ni_sequenzen,NI_Sequenzen,,,,,,,,,,,,,,
,Screen_5,canvas.Screen,0_2_4_4,,skipped,5,208240,,,208218,,208240,2021-10-25T16:21:29.966Z,209151.56,1635178671,full,ni_sequenzen,NI_Sequenzen,,,,,,,,,,,,,,
,Screen_6,canvas.Screen,0_2_4_5,,skipped,5,208246,,,208218,,208246,2021-10-25T16:21:29.972Z,209151.56,1635178671,full,ni_sequenzen,NI_Sequenzen,,,,,,,,,,,,,,
,Sequence,flow.Sequence,0_2_4,,completion,5,208213,,,208218,,208246,2021-10-25T16:21:29.972Z,209151.56,1635178671,full,ni_sequenzen,NI_Sequenzen,,,,,,,,,,,,,,
,Screen_1,canvas.Screen,0_2_5_0,,skipped,6,208253,,,208253,,208253,2021-10-25T16:21:29.978Z,209151.56,1635178671,full,ni_sequenzen,NI_Sequenzen,,,,,,,,,,,,,,
,Screen_2,canvas.Screen,0_2_5_1,,skipped,6,208257,,,208253,,208258,2021-10-25T16:21:29.984Z,209151.56,1635178671,full,ni_sequenzen,NI_Sequenzen,,,,,,,,,,,,,,
,Screen_3,canvas.Screen,0_2_5_2,,skipped,6,208265,,,208253,,208266,2021-10-25T16:21:29.992Z,209151.56,1635178671,full,ni_sequenzen,NI_Sequenzen,,,,,,,,,,,,,,
,Screen_4,canvas.Screen,0_2_5_3,,skipped,6,208271,,,208253,,208271,2021-10-25T16:21:29.998Z,209151.56,1635178671,full,ni_sequenzen,NI_Sequenzen,,,,,,,,,,,,,,
,Screen_5,canvas.Screen,0_2_5_4,,skipped,6,208277,,,208253,,208277,2021-10-25T16:21:30.002Z,209151.56,1635178671,full,ni_sequenzen,NI_Sequenzen,,,,,,,,,,,,,,
,Screen_6,canvas.Screen,0_2_5_5,,skipped,6,208282,,,208253,,208282,2021-10-25T16:21:30.008Z,209151.56,1635178671,full,ni_sequenzen,NI_Sequenzen,,,,,,,,,,,,,,
,Sequence,flow.Sequence,0_2_5,,completion,6,208249,,,208253,,208284,2021-10-25T16:21:30.009Z,209151.56,1635178671,full,ni_sequenzen,NI_Sequenzen,,,,,,,,,,,,,,
,Screen_1,canvas.Screen,0_2_6_0,,skipped,7,208290,,,208290,,208292,2021-10-25T16:21:30.017Z,209151.56,1635178671,full,ni_sequenzen,NI_Sequenzen,,,,,,,,,,,,,,
,Screen_2,canvas.Screen,0_2_6_1,,skipped,7,208295,,,208290,,208295,2021-10-25T16:21:30.021Z,209151.56,1635178671,full,ni_sequenzen,NI_Sequenzen,,,,,,,,,,,,,,
,Screen_3,canvas.Screen,0_2_6_2,,skipped,7,208300,,,208290,,208300,2021-10-25T16:21:30.026Z,209151.56,1635178671,full,ni_sequenzen,NI_Sequenzen,,,,,,,,,,,,,,
,Screen_4,canvas.Screen,0_2_6_3,,skipped,7,208305,,,208290,,208305,2021-10-25T16:21:30.031Z,209151.56,1635178671,full,ni_sequenzen,NI_Sequenzen,,,,,,,,,,,,,,
,Screen_5,canvas.Screen,0_2_6_4,,skipped,7,208312,,,208290,,208312,2021-10-25T16:21:30.038Z,209151.56,1635178671,full,ni_sequenzen,NI_Sequenzen,,,,,,,,,,,,,,
,Screen_6,canvas.Screen,0_2_6_5,,skipped,7,208317,,,208290,,208318,2021-10-25T16:21:30.044Z,209151.56,1635178671,full,ni_sequenzen,NI_Sequenzen,,,,,,,,,,,,,,
,Sequence,flow.Sequence,0_2_6,,completion,7,208286,,,208290,,208318,2021-10-25T16:21:30.044Z,209151.56,1635178671,full,ni_sequenzen,NI_Sequenzen,,,,,,,,,,,,,,
,Screen_1,canvas.Screen,0_2_7_0,,skipped,8,208324,,,208324,,208325,2021-10-25T16:21:30.051Z,209151.56,1635178671,full,ni_sequenzen,NI_Sequenzen,,,,,,,,,,,,,,
,Screen_2,canvas.Screen,0_2_7_1,,skipped,8,208330,,,208324,,208330,2021-10-25T16:21:30.056Z,209151.56,1635178671,full,ni_sequenzen,NI_Sequenzen,,,,,,,,,,,,,,
,Screen_3,canvas.Screen,0_2_7_2,,skipped,8,208334,,,208324,,208334,2021-10-25T16:21:30.060Z,209151.56,1635178671,full,ni_sequenzen,NI_Sequenzen,,,,,,,,,,,,,,
,Screen_4,canvas.Screen,0_2_7_3,,skipped,8,208339,,,208324,,208339,2021-10-25T16:21:30.064Z,209151.56,1635178671,full,ni_sequenzen,NI_Sequenzen,,,,,,,,,,,,,,
,Screen_5,canvas.Screen,0_2_7_4,,skipped,8,208344,,,208324,,208344,2021-10-25T16:21:30.070Z,209151.56,1635178671,full,ni_sequenzen,NI_Sequenzen,,,,,,,,,,,,,,
,Screen_6,canvas.Screen,0_2_7_5,,skipped,8,208349,,,208324,,208350,2021-10-25T16:21:30.075Z,209151.56,1635178671,full,ni_sequenzen,NI_Sequenzen,,,,,,,,,,,,,,
,Sequence,flow.Sequence,0_2_7,,completion,8,208320,,,208324,,208350,2021-10-25T16:21:30.076Z,209151.56,1635178671,full,ni_sequenzen,NI_Sequenzen,,,,,,,,,,,,,,
,Screen_1,canvas.Screen,0_2_8_0,,skipped,9,208355,,,208355,,208356,2021-10-25T16:21:30.081Z,209151.56,1635178671,full,ni_sequenzen,NI_Sequenzen,,,,,,,,,,,,,,
,Screen_2,canvas.Screen,0_2_8_1,,skipped,9,208360,,,208355,,208360,2021-10-25T16:21:30.087Z,209151.56,1635178671,full,ni_sequenzen,NI_Sequenzen,,,,,,,,,,,,,,
,Screen_3,canvas.Screen,0_2_8_2,,skipped,9,208365,,,208355,,208365,2021-10-25T16:21:30.091Z,209151.56,1635178671,full,ni_sequenzen,NI_Sequenzen,,,,,,,,,,,,,,
,Screen_4,canvas.Screen,0_2_8_3,,skipped,9,208371,,,208355,,208371,2021-10-25T16:21:30.097Z,209151.56,1635178671,full,ni_sequenzen,NI_Sequenzen,,,,,,,,,,,,,,
,Screen_5,canvas.Screen,0_2_8_4,,skipped,9,208376,,,208355,,208376,2021-10-25T16:21:30.102Z,209151.56,1635178671,full,ni_sequenzen,NI_Sequenzen,,,,,,,,,,,,,,
,Screen_6,canvas.Screen,0_2_8_5,,skipped,9,208381,,,208355,,208381,2021-10-25T16:21:30.107Z,209151.56,1635178671,full,ni_sequenzen,NI_Sequenzen,,,,,,,,,,,,,,
,Sequence,flow.Sequence,0_2_8,,completion,9,208352,,,208355,,208382,2021-10-25T16:21:30.107Z,209151.56,1635178671,full,ni_sequenzen,NI_Sequenzen,,,,,,,,,,,,,,
,Screen_1,canvas.Screen,0_2_9_0,,skipped,10,208390,,,208390,,208390,2021-10-25T16:21:30.117Z,209151.56,1635178671,full,ni_sequenzen,NI_Sequenzen,,,,,,,,,,,,,,
,Screen_2,canvas.Screen,0_2_9_1,,skipped,10,208396,,,208390,,208396,2021-10-25T16:21:30.122Z,209151.56,1635178671,full,ni_sequenzen,NI_Sequenzen,,,,,,,,,,,,,,
,Screen_3,canvas.Screen,0_2_9_2,,skipped,10,208400,,,208390,,208400,2021-10-25T16:21:30.126Z,209151.56,1635178671,full,ni_sequenzen,NI_Sequenzen,,,,,,,,,,,,,,
,Screen_4,canvas.Screen,0_2_9_3,,skipped,10,208405,,,208390,,208405,2021-10-25T16:21:30.131Z,209151.56,1635178671,full,ni_sequenzen,NI_Sequenzen,,,,,,,,,,,,,,
,Screen_5,canvas.Screen,0_2_9_4,,skipped,10,208410,,,208390,,208410,2021-10-25T16:21:30.135Z,209151.56,1635178671,full,ni_sequenzen,NI_Sequenzen,,,,,,,,,,,,,,
,Screen_6,canvas.Screen,0_2_9_5,,skipped,10,208413,,,208390,,208414,2021-10-25T16:21:30.140Z,209151.56,1635178671,full,ni_sequenzen,NI_Sequenzen,,,,,,,,,,,,,,
,Sequence,flow.Sequence,0_2_9,,completion,10,208384,,,208390,,208414,2021-10-25T16:21:30.141Z,209151.56,1635178671,full,ni_sequenzen,NI_Sequenzen,,,,,,,,,,,,,,
,Screen_1,canvas.Screen,0_2_10_0,,skipped,11,208423,,,208423,,208423,2021-10-25T16:21:30.149Z,209151.56,1635178671,full,ni_sequenzen,NI_Sequenzen,,,,,,,,,,,,,,
,Screen_2,canvas.Screen,0_2_10_1,,skipped,11,208427,,,208423,,208428,2021-10-25T16:21:30.154Z,209151.56,1635178671,full,ni_sequenzen,NI_Sequenzen,,,,,,,,,,,,,,
,Screen_3,canvas.Screen,0_2_10_2,,skipped,11,208434,,,208423,,208434,2021-10-25T16:21:30.160Z,209151.56,1635178671,full,ni_sequenzen,NI_Sequenzen,,,,,,,,,,,,,,
,Screen_4,canvas.Screen,0_2_10_3,,skipped,11,208439,,,208423,,208439,2021-10-25T16:21:30.165Z,209151.56,1635178671,full,ni_sequenzen,NI_Sequenzen,,,,,,,,,,,,,,
,Screen_5,canvas.Screen,0_2_10_4,,skipped,11,208443,,,208423,,208444,2021-10-25T16:21:30.170Z,209151.56,1635178671,full,ni_sequenzen,NI_Sequenzen,,,,,,,,,,,,,,
,Screen_6,canvas.Screen,0_2_10_5,,skipped,11,208448,,,208423,,208449,2021-10-25T16:21:30.174Z,209151.56,1635178671,full,ni_sequenzen,NI_Sequenzen,,,,,,,,,,,,,,
,Sequence,flow.Sequence,0_2_10,,completion,11,208417,,,208423,,208450,2021-10-25T16:21:30.175Z,209151.56,1635178671,full,ni_sequenzen,NI_Sequenzen,,,,,,,,,,,,,,
,Screen_1,canvas.Screen,0_2_11_0,,skipped,12,208456,,,208456,,208457,2021-10-25T16:21:30.182Z,209151.56,1635178671,full,ni_sequenzen,NI_Sequenzen,,,,,,,,,,,,,,
,Screen_2,canvas.Screen,0_2_11_1,,skipped,12,208461,,,208456,,208461,2021-10-25T16:21:30.187Z,209151.56,1635178671,full,ni_sequenzen,NI_Sequenzen,,,,,,,,,,,,,,
,Screen_3,canvas.Screen,0_2_11_2,,skipped,12,208466,,,208456,,208467,2021-10-25T16:21:30.192Z,209151.56,1635178671,full,ni_sequenzen,NI_Sequenzen,,,,,,,,,,,,,,
,Screen_4,canvas.Screen,0_2_11_3,,skipped,12,208473,,,208456,,208473,2021-10-25T16:21:30.200Z,209151.56,1635178671,full,ni_sequenzen,NI_Sequenzen,,,,,,,,,,,,,,
,Screen_5,canvas.Screen,0_2_11_4,,skipped,12,208477,,,208456,,208478,2021-10-25T16:21:30.204Z,209151.56,1635178671,full,ni_sequenzen,NI_Sequenzen,,,,,,,,,,,,,,
,Screen_6,canvas.Screen,0_2_11_5,,skipped,12,208485,,,208456,,208485,2021-10-25T16:21:30.211Z,209151.56,1635178671,full,ni_sequenzen,NI_Sequenzen,,,,,,,,,,,,,,
,Sequence,flow.Sequence,0_2_11,,completion,12,208452,,,208456,,208485,2021-10-25T16:21:30.212Z,209151.56,1635178671,full,ni_sequenzen,NI_Sequenzen,,,,,,,,,,,,,,
,Screen_1,canvas.Screen,0_2_12_0,,skipped,13,208491,,,208491,,208491,2021-10-25T16:21:30.217Z,209151.56,1635178671,full,ni_sequenzen,NI_Sequenzen,,,,,,,,,,,,,,
,Screen_2,canvas.Screen,0_2_12_1,,skipped,13,208495,,,208491,,208495,2021-10-25T16:21:30.221Z,209151.56,1635178671,full,ni_sequenzen,NI_Sequenzen,,,,,,,,,,,,,,
,Screen_3,canvas.Screen,0_2_12_2,,skipped,13,208500,,,208491,,208500,2021-10-25T16:21:30.226Z,209151.56,1635178671,full,ni_sequenzen,NI_Sequenzen,,,,,,,,,,,,,,
,Screen_4,canvas.Screen,0_2_12_3,,skipped,13,208505,,,208491,,208506,2021-10-25T16:21:30.232Z,209151.56,1635178671,full,ni_sequenzen,NI_Sequenzen,,,,,,,,,,,,,,
,Screen_5,canvas.Screen,0_2_12_4,,skipped,13,208510,,,208491,,208510,2021-10-25T16:21:30.236Z,209151.56,1635178671,full,ni_sequenzen,NI_Sequenzen,,,,,,,,,,,,,,
,Screen_6,canvas.Screen,0_2_12_5,,skipped,13,208514,,,208491,,208515,2021-10-25T16:21:30.240Z,209151.56,1635178671,full,ni_sequenzen,NI_Sequenzen,,,,,,,,,,,,,,
,Sequence,flow.Sequence,0_2_12,,completion,13,208488,,,208491,,208515,2021-10-25T16:21:30.240Z,209151.56,1635178671,full,ni_sequenzen,NI_Sequenzen,,,,,,,,,,,,,,
,Screen_1,canvas.Screen,0_2_13_0,,skipped,14,208521,,,208521,,208521,2021-10-25T16:21:30.247Z,209151.56,1635178671,full,ni_sequenzen,NI_Sequenzen,,,,,,,,,,,,,,
,Screen_2,canvas.Screen,0_2_13_1,,skipped,14,208525,,,208521,,208525,2021-10-25T16:21:30.251Z,209151.56,1635178671,full,ni_sequenzen,NI_Sequenzen,,,,,,,,,,,,,,
,Screen_3,canvas.Screen,0_2_13_2,,skipped,14,208529,,,208521,,208529,2021-10-25T16:21:30.255Z,209151.56,1635178671,full,ni_sequenzen,NI_Sequenzen,,,,,,,,,,,,,,
,Screen_4,canvas.Screen,0_2_13_3,,skipped,14,208533,,,208521,,208533,2021-10-25T16:21:30.259Z,209151.56,1635178671,full,ni_sequenzen,NI_Sequenzen,,,,,,,,,,,,,,
,Screen_5,canvas.Screen,0_2_13_4,,skipped,14,208537,,,208521,,208537,2021-10-25T16:21:30.264Z,209151.56,1635178671,full,ni_sequenzen,NI_Sequenzen,,,,,,,,,,,,,,
,Screen_6,canvas.Screen,0_2_13_5,,skipped,14,208543,,,208521,,208543,2021-10-25T16:21:30.268Z,209151.56,1635178671,full,ni_sequenzen,NI_Sequenzen,,,,,,,,,,,,,,
,Sequence,flow.Sequence,0_2_13,,completion,14,208516,,,208521,,208543,2021-10-25T16:21:30.269Z,209151.56,1635178671,full,ni_sequenzen,NI_Sequenzen,,,,,,,,,,,,,,
,Screen_1,canvas.Screen,0_2_14_0,,skipped,15,208549,,,208549,,208549,2021-10-25T16:21:30.275Z,209151.56,1635178671,full,ni_sequenzen,NI_Sequenzen,,,,,,,,,,,,,,
,Screen_2,canvas.Screen,0_2_14_1,,skipped,15,208553,,,208549,,208553,2021-10-25T16:21:30.279Z,209151.56,1635178671,full,ni_sequenzen,NI_Sequenzen,,,,,,,,,,,,,,
,Screen_3,canvas.Screen,0_2_14_2,,skipped,15,208557,,,208549,,208557,2021-10-25T16:21:30.283Z,209151.56,1635178671,full,ni_sequenzen,NI_Sequenzen,,,,,,,,,,,,,,
,Screen_4,canvas.Screen,0_2_14_3,,skipped,15,208561,,,208549,,208561,2021-10-25T16:21:30.287Z,209151.56,1635178671,full,ni_sequenzen,NI_Sequenzen,,,,,,,,,,,,,,
,Screen_5,canvas.Screen,0_2_14_4,,skipped,15,208566,,,208549,,208566,2021-10-25T16:21:30.291Z,209151.56,1635178671,full,ni_sequenzen,NI_Sequenzen,,,,,,,,,,,,,,
,Screen_6,canvas.Screen,0_2_14_5,,skipped,15,208570,,,208549,,208570,2021-10-25T16:21:30.295Z,209151.56,1635178671,full,ni_sequenzen,NI_Sequenzen,,,,,,,,,,,,,,
,Sequence,flow.Sequence,0_2_14,,completion,15,208545,,,208549,,208570,2021-10-25T16:21:30.297Z,209151.56,1635178671,full,ni_sequenzen,NI_Sequenzen,,,,,,,,,,,,,,
,Screen_1,canvas.Screen,0_2_15_0,,skipped,16,208577,,,208577,,208577,2021-10-25T16:21:30.303Z,209151.56,1635178671,full,ni_sequenzen,NI_Sequenzen,,,,,,,,,,,,,,
,Screen_2,canvas.Screen,0_2_15_1,,skipped,16,208581,,,208577,,208581,2021-10-25T16:21:30.307Z,209151.56,1635178671,full,ni_sequenzen,NI_Sequenzen,,,,,,,,,,,,,,
,Screen_3,canvas.Screen,0_2_15_2,,skipped,16,208585,,,208577,,208585,2021-10-25T16:21:30.311Z,209151.56,1635178671,full,ni_sequenzen,NI_Sequenzen,,,,,,,,,,,,,,
,Screen_4,canvas.Screen,0_2_15_3,,skipped,16,208590,,,208577,,208590,2021-10-25T16:21:30.317Z,209151.56,1635178671,full,ni_sequenzen,NI_Sequenzen,,,,,,,,,,,,,,
,Screen_5,canvas.Screen,0_2_15_4,,skipped,16,208596,,,208577,,208596,2021-10-25T16:21:30.321Z,209151.56,1635178671,full,ni_sequenzen,NI_Sequenzen,,,,,,,,,,,,,,
,Screen_6,canvas.Screen,0_2_15_5,,skipped,16,208600,,,208577,,208600,2021-10-25T16:21:30.325Z,209151.56,1635178671,full,ni_sequenzen,NI_Sequenzen,,,,,,,,,,,,,,
,Sequence,flow.Sequence,0_2_15,,completion,16,208572,,,208577,,208600,2021-10-25T16:21:30.326Z,209151.56,1635178671,full,ni_sequenzen,NI_Sequenzen,,,,,,,,,,,,,,
,Screen_1,canvas.Screen,0_2_16_0,,skipped,17,208606,,,208606,,208606,2021-10-25T16:21:30.333Z,209151.56,1635178671,full,ni_sequenzen,NI_Sequenzen,,,,,,,,,,,,,,
,Screen_2,canvas.Screen,0_2_16_1,,skipped,17,208611,,,208606,,208611,2021-10-25T16:21:30.337Z,209151.56,1635178671,full,ni_sequenzen,NI_Sequenzen,,,,,,,,,,,,,,
,Screen_3,canvas.Screen,0_2_16_2,,skipped,17,208616,,,208606,,208616,2021-10-25T16:21:30.342Z,209151.56,1635178671,full,ni_sequenzen,NI_Sequenzen,,,,,,,,,,,,,,
,Screen_4,canvas.Screen,0_2_16_3,,skipped,17,208619,,,208606,,208620,2021-10-25T16:21:30.345Z,209151.56,1635178671,full,ni_sequenzen,NI_Sequenzen,,,,,,,,,,,,,,
,Screen_5,canvas.Screen,0_2_16_4,,skipped,17,208623,,,208606,,208623,2021-10-25T16:21:30.349Z,209151.56,1635178671,full,ni_sequenzen,NI_Sequenzen,,,,,,,,,,,,,,
,Screen_6,canvas.Screen,0_2_16_5,,skipped,17,208627,,,208606,,208627,2021-10-25T16:21:30.354Z,209151.56,1635178671,full,ni_sequenzen,NI_Sequenzen,,,,,,,,,,,,,,
,Sequence,flow.Sequence,0_2_16,,completion,17,208602,,,208606,,208628,2021-10-25T16:21:30.354Z,209151.56,1635178671,full,ni_sequenzen,NI_Sequenzen,,,,,,,,,,,,,,
,Screen_1,canvas.Screen,0_2_17_0,,skipped,18,208633,,,208633,,208634,2021-10-25T16:21:30.359Z,209151.56,1635178671,full,ni_sequenzen,NI_Sequenzen,,,,,,,,,,,,,,
,Screen_2,canvas.Screen,0_2_17_1,,skipped,18,208637,,,208633,,208637,2021-10-25T16:21:30.364Z,209151.56,1635178671,full,ni_sequenzen,NI_Sequenzen,,,,,,,,,,,,,,
,Screen_3,canvas.Screen,0_2_17_2,,skipped,18,208642,,,208633,,208642,2021-10-25T16:21:30.368Z,209151.56,1635178671,full,ni_sequenzen,NI_Sequenzen,,,,,,,,,,,,,,
,Screen_4,canvas.Screen,0_2_17_3,,skipped,18,208646,,,208633,,208647,2021-10-25T16:21:30.372Z,209151.56,1635178671,full,ni_sequenzen,NI_Sequenzen,,,,,,,,,,,,,,
,Screen_5,canvas.Screen,0_2_17_4,,skipped,18,208651,,,208633,,208652,2021-10-25T16:21:30.377Z,209151.56,1635178671,full,ni_sequenzen,NI_Sequenzen,,,,,,,,,,,,,,
,Screen_6,canvas.Screen,0_2_17_5,,skipped,18,208655,,,208633,,208655,2021-10-25T16:21:30.382Z,209151.56,1635178671,full,ni_sequenzen,NI_Sequenzen,,,,,,,,,,,,,,
,Sequence,flow.Sequence,0_2_17,,completion,18,208629,,,208633,,208656,2021-10-25T16:21:30.382Z,209151.56,1635178671,full,ni_sequenzen,NI_Sequenzen,,,,,,,,,,,,,,
,Screen_1,canvas.Screen,0_2_18_0,,skipped,19,208661,,,208661,,208661,2021-10-25T16:21:30.388Z,209151.56,1635178671,full,ni_sequenzen,NI_Sequenzen,,,,,,,,,,,,,,
,Screen_2,canvas.Screen,0_2_18_1,,skipped,19,208666,,,208661,,208666,2021-10-25T16:21:30.392Z,209151.56,1635178671,full,ni_sequenzen,NI_Sequenzen,,,,,,,,,,,,,,
,Screen_3,canvas.Screen,0_2_18_2,,skipped,19,208670,,,208661,,208670,2021-10-25T16:21:30.396Z,209151.56,1635178671,full,ni_sequenzen,NI_Sequenzen,,,,,,,,,,,,,,
,Screen_4,canvas.Screen,0_2_18_3,,skipped,19,208675,,,208661,,208675,2021-10-25T16:21:30.400Z,209151.56,1635178671,full,ni_sequenzen,NI_Sequenzen,,,,,,,,,,,,,,
,Screen_5,canvas.Screen,0_2_18_4,,skipped,19,208679,,,208661,,208679,2021-10-25T16:21:30.405Z,209151.56,1635178671,full,ni_sequenzen,NI_Sequenzen,,,,,,,,,,,,,,
,Screen_6,canvas.Screen,0_2_18_5,,skipped,19,208683,,,208661,,208683,2021-10-25T16:21:30.409Z,209151.56,1635178671,full,ni_sequenzen,NI_Sequenzen,,,,,,,,,,,,,,
,Sequence,flow.Sequence,0_2_18,,completion,19,208658,,,208661,,208684,2021-10-25T16:21:30.410Z,209151.56,1635178671,full,ni_sequenzen,NI_Sequenzen,,,,,,,,,,,,,,
,Screen_1,canvas.Screen,0_2_19_0,,skipped,20,208689,,,208689,,208689,2021-10-25T16:21:30.416Z,209151.56,1635178671,full,ni_sequenzen,NI_Sequenzen,,,,,,,,,,,,,,
,Screen_2,canvas.Screen,0_2_19_1,,skipped,20,208693,,,208689,,208694,2021-10-25T16:21:30.419Z,209151.56,1635178671,full,ni_sequenzen,NI_Sequenzen,,,,,,,,,,,,,,
,Screen_3,canvas.Screen,0_2_19_2,,skipped,20,208698,,,208689,,208698,2021-10-25T16:21:30.424Z,209151.56,1635178671,full,ni_sequenzen,NI_Sequenzen,,,,,,,,,,,,,,
,Screen_4,canvas.Screen,0_2_19_3,,skipped,20,208702,,,208689,,208702,2021-10-25T16:21:30.429Z,209151.56,1635178671,full,ni_sequenzen,NI_Sequenzen,,,,,,,,,,,,,,
,Screen_5,canvas.Screen,0_2_19_4,,skipped,20,208707,,,208689,,208707,2021-10-25T16:21:30.432Z,209151.56,1635178671,full,ni_sequenzen,NI_Sequenzen,,,,,,,,,,,,,,
,Screen_6,canvas.Screen,0_2_19_5,,skipped,20,208712,,,208689,,208712,2021-10-25T16:21:30.437Z,209151.56,1635178671,full,ni_sequenzen,NI_Sequenzen,,,,,,,,,,,,,,
,Sequence,flow.Sequence,0_2_19,,completion,20,208685,,,208689,,208712,2021-10-25T16:21:30.438Z,209151.56,1635178671,full,ni_sequenzen,NI_Sequenzen,,,,,,,,,,,,,,
,Screen_1,canvas.Screen,0_2_20_0,,skipped,21,208717,,,208717,,208717,2021-10-25T16:21:30.443Z,209151.56,1635178671,full,ni_sequenzen,NI_Sequenzen,,,,,,,,,,,,,,
,Screen_2,canvas.Screen,0_2_20_1,,skipped,21,208722,,,208717,,208722,2021-10-25T16:21:30.449Z,209151.56,1635178671,full,ni_sequenzen,NI_Sequenzen,,,,,,,,,,,,,,
,Screen_3,canvas.Screen,0_2_20_2,,skipped,21,208727,,,208717,,208727,2021-10-25T16:21:30.452Z,209151.56,1635178671,full,ni_sequenzen,NI_Sequenzen,,,,,,,,,,,,,,
,Screen_4,canvas.Screen,0_2_20_3,,skipped,21,208731,,,208717,,208731,2021-10-25T16:21:30.457Z,209151.56,1635178671,full,ni_sequenzen,NI_Sequenzen,,,,,,,,,,,,,,
,Screen_5,canvas.Screen,0_2_20_4,,skipped,21,208735,,,208717,,208735,2021-10-25T16:21:30.461Z,209151.56,1635178671,full,ni_sequenzen,NI_Sequenzen,,,,,,,,,,,,,,
,Screen_6,canvas.Screen,0_2_20_5,,skipped,21,208739,,,208717,,208739,2021-10-25T16:21:30.466Z,209151.56,1635178671,full,ni_sequenzen,NI_Sequenzen,,,,,,,,,,,,,,
,Sequence,flow.Sequence,0_2_20,,completion,21,208714,,,208717,,208740,2021-10-25T16:21:30.466Z,209151.56,1635178671,full,ni_sequenzen,NI_Sequenzen,,,,,,,,,,,,,,
,Screen_1,canvas.Screen,0_2_21_0,,skipped,22,208745,,,208745,,208745,2021-10-25T16:21:30.472Z,209151.56,1635178671,full,ni_sequenzen,NI_Sequenzen,,,,,,,,,,,,,,
,Screen_2,canvas.Screen,0_2_21_1,,skipped,22,208751,,,208745,,208751,2021-10-25T16:21:30.477Z,209151.56,1635178671,full,ni_sequenzen,NI_Sequenzen,,,,,,,,,,,,,,
,Screen_3,canvas.Screen,0_2_21_2,,skipped,22,208755,,,208745,,208755,2021-10-25T16:21:30.481Z,209151.56,1635178671,full,ni_sequenzen,NI_Sequenzen,,,,,,,,,,,,,,
,Screen_4,canvas.Screen,0_2_21_3,,skipped,22,208761,,,208745,,208761,2021-10-25T16:21:30.487Z,209151.56,1635178671,full,ni_sequenzen,NI_Sequenzen,,,,,,,,,,,,,,
,Screen_5,canvas.Screen,0_2_21_4,,skipped,22,208765,,,208745,,208765,2021-10-25T16:21:30.491Z,209151.56,1635178671,full,ni_sequenzen,NI_Sequenzen,,,,,,,,,,,,,,
,Screen_6,canvas.Screen,0_2_21_5,,skipped,22,208770,,,208745,,208770,2021-10-25T16:21:30.495Z,209151.56,1635178671,full,ni_sequenzen,NI_Sequenzen,,,,,,,,,,,,,,
,Sequence,flow.Sequence,0_2_21,,completion,22,208742,,,208745,,208770,2021-10-25T16:21:30.495Z,209151.56,1635178671,full,ni_sequenzen,NI_Sequenzen,,,,,,,,,,,,,,
,Screen_1,canvas.Screen,0_2_22_0,,skipped,23,208776,,,208776,,208776,2021-10-25T16:21:30.502Z,209151.56,1635178671,full,ni_sequenzen,NI_Sequenzen,,,,,,,,,,,,,,
,Screen_2,canvas.Screen,0_2_22_1,,skipped,23,208780,,,208776,,208780,2021-10-25T16:21:30.506Z,209151.56,1635178671,full,ni_sequenzen,NI_Sequenzen,,,,,,,,,,,,,,
,Screen_3,canvas.Screen,0_2_22_2,,skipped,23,208784,,,208776,,208784,2021-10-25T16:21:30.510Z,209151.56,1635178671,full,ni_sequenzen,NI_Sequenzen,,,,,,,,,,,,,,
,Screen_4,canvas.Screen,0_2_22_3,,skipped,23,208788,,,208776,,208788,2021-10-25T16:21:30.514Z,209151.56,1635178671,full,ni_sequenzen,NI_Sequenzen,,,,,,,,,,,,,,
,Screen_5,canvas.Screen,0_2_22_4,,skipped,23,208793,,,208776,,208793,2021-10-25T16:21:30.519Z,209151.56,1635178671,full,ni_sequenzen,NI_Sequenzen,,,,,,,,,,,,,,
,Screen_6,canvas.Screen,0_2_22_5,,skipped,23,208797,,,208776,,208797,2021-10-25T16:21:30.523Z,209151.56,1635178671,full,ni_sequenzen,NI_Sequenzen,,,,,,,,,,,,,,
,Sequence,flow.Sequence,0_2_22,,completion,23,208772,,,208776,,208798,2021-10-25T16:21:30.524Z,209151.56,1635178671,full,ni_sequenzen,NI_Sequenzen,,,,,,,,,,,,,,
,Screen_1,canvas.Screen,0_2_23_0,,skipped,24,208803,,,208803,,208803,2021-10-25T16:21:30.528Z,209151.56,1635178671,full,ni_sequenzen,NI_Sequenzen,,,,,,,,,,,,,,
,Screen_2,canvas.Screen,0_2_23_1,,skipped,24,208807,,,208803,,208808,2021-10-25T16:21:30.533Z,209151.56,1635178671,full,ni_sequenzen,NI_Sequenzen,,,,,,,,,,,,,,
,Screen_3,canvas.Screen,0_2_23_2,,skipped,24,208811,,,208803,,208811,2021-10-25T16:21:30.538Z,209151.56,1635178671,full,ni_sequenzen,NI_Sequenzen,,,,,,,,,,,,,,
,Screen_4,canvas.Screen,0_2_23_3,,skipped,24,208816,,,208803,,208816,2021-10-25T16:21:30.542Z,209151.56,1635178671,full,ni_sequenzen,NI_Sequenzen,,,,,,,,,,,,,,
,Screen_5,canvas.Screen,0_2_23_4,,skipped,24,208820,,,208803,,208820,2021-10-25T16:21:30.546Z,209151.56,1635178671,full,ni_sequenzen,NI_Sequenzen,,,,,,,,,,,,,,
,Screen_6,canvas.Screen,0_2_23_5,,skipped,24,208825,,,208803,,208825,2021-10-25T16:21:30.551Z,209151.56,1635178671,full,ni_sequenzen,NI_Sequenzen,,,,,,,,,,,,,,
,Sequence,flow.Sequence,0_2_23,,completion,24,208799,,,208803,,208825,2021-10-25T16:21:30.552Z,209151.56,1635178671,full,ni_sequenzen,NI_Sequenzen,,,,,,,,,,,,,,
,Screen_1,canvas.Screen,0_2_24_0,,skipped,25,208836,,,208836,,208836,2021-10-25T16:21:30.562Z,209151.56,1635178671,full,ni_sequenzen,NI_Sequenzen,,,,,,,,,,,,,,
,Screen_2,canvas.Screen,0_2_24_1,,skipped,25,208840,,,208836,,208840,2021-10-25T16:21:30.566Z,209151.56,1635178671,full,ni_sequenzen,NI_Sequenzen,,,,,,,,,,,,,,
,Screen_3,canvas.Screen,0_2_24_2,,skipped,25,208843,,,208836,,208844,2021-10-25T16:21:30.570Z,209151.56,1635178671,full,ni_sequenzen,NI_Sequenzen,,,,,,,,,,,,,,
,Screen_4,canvas.Screen,0_2_24_3,,skipped,25,208848,,,208836,,208848,2021-10-25T16:21:30.574Z,209151.56,1635178671,full,ni_sequenzen,NI_Sequenzen,,,,,,,,,,,,,,
,Screen_5,canvas.Screen,0_2_24_4,,skipped,25,208852,,,208836,,208852,2021-10-25T16:21:30.578Z,209151.56,1635178671,full,ni_sequenzen,NI_Sequenzen,,,,,,,,,,,,,,
,Screen_6,canvas.Screen,0_2_24_5,,skipped,25,208856,,,208836,,208856,2021-10-25T16:21:30.582Z,209151.56,1635178671,full,ni_sequenzen,NI_Sequenzen,,,,,,,,,,,,,,
,Sequence,flow.Sequence,0_2_24,,completion,25,208831,,,208836,,208857,2021-10-25T16:21:30.583Z,209151.56,1635178671,full,ni_sequenzen,NI_Sequenzen,,,,,,,,,,,,,,
,Screen_1,canvas.Screen,0_2_25_0,,skipped,26,208862,,,208862,,208862,2021-10-25T16:21:30.588Z,209151.56,1635178671,full,ni_sequenzen,NI_Sequenzen,,,,,,,,,,,,,,
,Screen_2,canvas.Screen,0_2_25_1,,skipped,26,208867,,,208862,,208867,2021-10-25T16:21:30.593Z,209151.56,1635178671,full,ni_sequenzen,NI_Sequenzen,,,,,,,,,,,,,,
,Screen_3,canvas.Screen,0_2_25_2,,skipped,26,208871,,,208862,,208871,2021-10-25T16:21:30.597Z,209151.56,1635178671,full,ni_sequenzen,NI_Sequenzen,,,,,,,,,,,,,,
,Screen_4,canvas.Screen,0_2_25_3,,skipped,26,208875,,,208862,,208875,2021-10-25T16:21:30.600Z,209151.56,1635178671,full,ni_sequenzen,NI_Sequenzen,,,,,,,,,,,,,,
,Screen_5,canvas.Screen,0_2_25_4,,skipped,26,208878,,,208862,,208878,2021-10-25T16:21:30.605Z,209151.56,1635178671,full,ni_sequenzen,NI_Sequenzen,,,,,,,,,,,,,,
,Screen_6,canvas.Screen,0_2_25_5,,skipped,26,208883,,,208862,,208883,2021-10-25T16:21:30.609Z,209151.56,1635178671,full,ni_sequenzen,NI_Sequenzen,,,,,,,,,,,,,,
,Sequence,flow.Sequence,0_2_25,,completion,26,208858,,,208862,,208883,2021-10-25T16:21:30.609Z,209151.56,1635178671,full,ni_sequenzen,NI_Sequenzen,,,,,,,,,,,,,,
,Screen_1,canvas.Screen,0_2_26_0,,skipped,27,208889,,,208889,,208890,2021-10-25T16:21:30.616Z,209151.56,1635178671,full,ni_sequenzen,NI_Sequenzen,,,,,,,,,,,,,,
,Screen_2,canvas.Screen,0_2_26_1,,skipped,27,208894,,,208889,,208894,2021-10-25T16:21:30.620Z,209151.56,1635178671,full,ni_sequenzen,NI_Sequenzen,,,,,,,,,,,,,,
,Screen_3,canvas.Screen,0_2_26_2,,skipped,27,208899,,,208889,,208899,2021-10-25T16:21:30.624Z,209151.56,1635178671,full,ni_sequenzen,NI_Sequenzen,,,,,,,,,,,,,,
,Screen_4,canvas.Screen,0_2_26_3,,skipped,27,208903,,,208889,,208903,2021-10-25T16:21:30.629Z,209151.56,1635178671,full,ni_sequenzen,NI_Sequenzen,,,,,,,,,,,,,,
,Screen_5,canvas.Screen,0_2_26_4,,skipped,27,208908,,,208889,,208908,2021-10-25T16:21:30.635Z,209151.56,1635178671,full,ni_sequenzen,NI_Sequenzen,,,,,,,,,,,,,,
,Screen_6,canvas.Screen,0_2_26_5,,skipped,27,208913,,,208889,,208913,2021-10-25T16:21:30.639Z,209151.56,1635178671,full,ni_sequenzen,NI_Sequenzen,,,,,,,,,,,,,,
,Sequence,flow.Sequence,0_2_26,,completion,27,208885,,,208889,,208913,2021-10-25T16:21:30.639Z,209151.56,1635178671,full,ni_sequenzen,NI_Sequenzen,,,,,,,,,,,,,,
,Screen_1,canvas.Screen,0_2_27_0,,skipped,28,208919,,,208919,,208919,2021-10-25T16:21:30.644Z,209151.56,1635178671,full,ni_sequenzen,NI_Sequenzen,,,,,,,,,,,,,,
,Screen_2,canvas.Screen,0_2_27_1,,skipped,28,208923,,,208919,,208924,2021-10-25T16:21:30.649Z,209151.56,1635178671,full,ni_sequenzen,NI_Sequenzen,,,,,,,,,,,,,,
,Screen_3,canvas.Screen,0_2_27_2,,skipped,28,208927,,,208919,,208927,2021-10-25T16:21:30.653Z,209151.56,1635178671,full,ni_sequenzen,NI_Sequenzen,,,,,,,,,,,,,,
,Screen_4,canvas.Screen,0_2_27_3,,skipped,28,208931,,,208919,,208931,2021-10-25T16:21:30.657Z,209151.56,1635178671,full,ni_sequenzen,NI_Sequenzen,,,,,,,,,,,,,,
,Screen_5,canvas.Screen,0_2_27_4,,skipped,28,208935,,,208919,,208935,2021-10-25T16:21:30.661Z,209151.56,1635178671,full,ni_sequenzen,NI_Sequenzen,,,,,,,,,,,,,,
,Screen_6,canvas.Screen,0_2_27_5,,skipped,28,208939,,,208919,,208940,2021-10-25T16:21:30.665Z,209151.56,1635178671,full,ni_sequenzen,NI_Sequenzen,,,,,,,,,,,,,,
,Sequence,flow.Sequence,0_2_27,,completion,28,208915,,,208919,,208940,2021-10-25T16:21:30.665Z,209151.56,1635178671,full,ni_sequenzen,NI_Sequenzen,,,,,,,,,,,,,,
,Screen_1,canvas.Screen,0_2_28_0,,skipped,29,208945,,,208945,,208945,2021-10-25T16:21:30.671Z,209151.56,1635178671,full,ni_sequenzen,NI_Sequenzen,,,,,,,,,,,,,,
,Screen_2,canvas.Screen,0_2_28_1,,skipped,29,208951,,,208945,,208951,2021-10-25T16:21:30.676Z,209151.56,1635178671,full,ni_sequenzen,NI_Sequenzen,,,,,,,,,,,,,,
,Screen_3,canvas.Screen,0_2_28_2,,skipped,29,208956,,,208945,,208956,2021-10-25T16:21:30.683Z,209151.56,1635178671,full,ni_sequenzen,NI_Sequenzen,,,,,,,,,,,,,,
,Screen_4,canvas.Screen,0_2_28_3,,skipped,29,208961,,,208945,,208961,2021-10-25T16:21:30.687Z,209151.56,1635178671,full,ni_sequenzen,NI_Sequenzen,,,,,,,,,,,,,,
,Screen_5,canvas.Screen,0_2_28_4,,skipped,29,208964,,,208945,,208964,2021-10-25T16:21:30.690Z,209151.56,1635178671,full,ni_sequenzen,NI_Sequenzen,,,,,,,,,,,,,,
,Screen_6,canvas.Screen,0_2_28_5,,skipped,29,208968,,,208945,,208968,2021-10-25T16:21:30.694Z,209151.56,1635178671,full,ni_sequenzen,NI_Sequenzen,,,,,,,,,,,,,,
,Sequence,flow.Sequence,0_2_28,,completion,29,208942,,,208945,,208969,2021-10-25T16:21:30.694Z,209151.56,1635178671,full,ni_sequenzen,NI_Sequenzen,,,,,,,,,,,,,,
,Screen_1,canvas.Screen,0_2_29_0,,skipped,30,208974,,,208974,,208974,2021-10-25T16:21:30.700Z,209151.56,1635178671,full,ni_sequenzen,NI_Sequenzen,,,,,,,,,,,,,,
,Screen_2,canvas.Screen,0_2_29_1,,skipped,30,208979,,,208974,,208979,2021-10-25T16:21:30.704Z,209151.56,1635178671,full,ni_sequenzen,NI_Sequenzen,,,,,,,,,,,,,,
,Screen_3,canvas.Screen,0_2_29_2,,skipped,30,208982,,,208974,,208983,2021-10-25T16:21:30.708Z,209151.56,1635178671,full,ni_sequenzen,NI_Sequenzen,,,,,,,,,,,,,,
,Screen_4,canvas.Screen,0_2_29_3,,skipped,30,208986,,,208974,,208986,2021-10-25T16:21:30.713Z,209151.56,1635178671,full,ni_sequenzen,NI_Sequenzen,,,,,,,,,,,,,,
,Screen_5,canvas.Screen,0_2_29_4,,skipped,30,208990,,,208974,,208990,2021-10-25T16:21:30.717Z,209151.56,1635178671,full,ni_sequenzen,NI_Sequenzen,,,,,,,,,,,,,,
,Screen_6,canvas.Screen,0_2_29_5,,skipped,30,208995,,,208974,,208995,2021-10-25T16:21:30.721Z,209151.56,1635178671,full,ni_sequenzen,NI_Sequenzen,,,,,,,,,,,,,,
,Sequence,flow.Sequence,0_2_29,,completion,30,208970,,,208974,,208995,2021-10-25T16:21:30.721Z,209151.56,1635178671,full,ni_sequenzen,NI_Sequenzen,,,,,,,,,,,,,,
,Instructions_II,flow.Loop,0_2,,completion,,152465,152471.62,152484.18,208974,56489.82000000001,208995,2021-10-25T16:21:30.721Z,209151.56,1635178671,full,ni_sequenzen,NI_Sequenzen,,,,,,,,,,,,,,
,Move,canvas.Screen,0_3_0_0_0_0,down,response,,209128,209128.64,209151.56,212136,2984.4400000000023,212160,2021-10-25T16:21:33.886Z,212201.62,1635178671,full,ni_sequenzen,NI_Sequenzen,1,0,,,,,,,,,,,,
,Move,canvas.Screen,0_3_0_0_0_1,left,response,,212194,212194.46,212201.62,212760,558.3800000000047,212780,2021-10-25T16:21:34.506Z,212818.32,1635178671,full,ni_sequenzen,NI_Sequenzen,2,0,,,,,,,,,,,,
,Move,canvas.Screen,0_3_0_0_0_2,right,response,,212811,212811.26,212818.32,213558,739.679999999993,213571,2021-10-25T16:21:35.297Z,213603.12,1635178671,full,ni_sequenzen,NI_Sequenzen,3,0,,,,,,,,,,,,
,Move,canvas.Screen,0_3_0_0_0_3,down,response,,213602,213602.68,213603.12,214761,1157.8800000000047,214779,2021-10-25T16:21:36.505Z,214818.32,1635178671,full,ni_sequenzen,NI_Sequenzen,4,0,,,,,,,,,,,,
,Move,canvas.Screen,0_3_0_0_0_4,right,response,,214814,214813.3,214818.32,218714,3895.679999999993,218736,2021-10-25T16:21:40.462Z,218951.7,1635178671,full,ni_sequenzen,NI_Sequenzen,5,0,,,,,,,,,,,,
,Move,canvas.Screen,0_3_0_0_0_5,-999,skipped,,218765,,,218714,,218765,2021-10-25T16:21:40.491Z,218951.7,1635178671,full,ni_sequenzen,NI_Sequenzen,6,0,,,,,,,,,,,,
,Move,canvas.Screen,0_3_0_0_0_6,-999,skipped,,218784,,,218714,,218784,2021-10-25T16:21:40.511Z,218951.7,1635178671,full,ni_sequenzen,NI_Sequenzen,7,0,,,,,,,,,,,,
,Move,canvas.Screen,0_3_0_0_0_7,-999,skipped,,218802,,,218714,,218803,2021-10-25T16:21:40.529Z,218951.7,1635178671,full,ni_sequenzen,NI_Sequenzen,8,0,,,,,,,,,,,,
,Move,canvas.Screen,0_3_0_0_0_8,-999,skipped,,218820,,,218714,,218820,2021-10-25T16:21:40.546Z,218951.7,1635178671,full,ni_sequenzen,NI_Sequenzen,9,0,,,,,,,,,,,,
,Move,canvas.Screen,0_3_0_0_0_9,-999,skipped,,218840,,,218714,,218840,2021-10-25T16:21:40.566Z,218951.7,1635178671,full,ni_sequenzen,NI_Sequenzen,10,0,,,,,,,,,,,,
,Move,canvas.Screen,0_3_0_0_0_10,-999,skipped,,218858,,,218714,,218859,2021-10-25T16:21:40.584Z,218951.7,1635178671,full,ni_sequenzen,NI_Sequenzen,11,0,,,,,,,,,,,,
,Move,canvas.Screen,0_3_0_0_0_11,-999,skipped,,218878,,,218714,,218878,2021-10-25T16:21:40.604Z,218951.7,1635178671,full,ni_sequenzen,NI_Sequenzen,12,0,,,,,,,,,,,,
,Move,canvas.Screen,0_3_0_0_0_12,-999,skipped,,218895,,,218714,,218896,2021-10-25T16:21:40.621Z,218951.7,1635178671,full,ni_sequenzen,NI_Sequenzen,13,0,,,,,,,,,,,,
,Move,canvas.Screen,0_3_0_0_0_13,-999,skipped,,218913,,,218714,,218914,2021-10-25T16:21:40.639Z,218951.7,1635178671,full,ni_sequenzen,NI_Sequenzen,14,0,,,,,,,,,,,,
,Move,canvas.Screen,0_3_0_0_0_14,-999,skipped,,218931,,,218714,,218932,2021-10-25T16:21:40.658Z,218951.7,1635178671,full,ni_sequenzen,NI_Sequenzen,15,0,,,,,,,,,,,,
,Loop,flow.Loop,0_3_0_0_0,-999,completion,,209105,209128.64,209151.56,218714,9562.440000000002,218932,2021-10-25T16:21:40.658Z,218951.7,1635178671,full,ni_sequenzen,NI_Sequenzen,,0,,,,,,,,,,,,
,Feedback,canvas.Screen,0_3_0_0_1,,timeout,,218947,218947,218951.7,222935.14,4029.8799999999756,222937,2021-10-25T16:21:44.663Z,222981.58,1635178671,full,ni_sequenzen,NI_Sequenzen,,0,,,,,,,,,,,,
,Trial,flow.Sequence,0_3_0_0,,completion,,209080,209128.64,209151.56,222935.14,13783.580000000016,222937,2021-10-25T16:21:44.663Z,222985.06,1635178671,full,ni_sequenzen,NI_Sequenzen,,0,,,,,,,,,,,,
,Move,canvas.Screen,0_3_0_1_0_0,right,response,,222981,222981.58,222985.06,223120,134.94000000000233,223154,2021-10-25T16:21:44.880Z,223185.06,1635178671,full,ni_sequenzen,NI_Sequenzen,1,1,,,,,,,,,,,,
,Move,canvas.Screen,0_3_0_1_0_1,down,response,,223174,223174.18,223185.06,225183,1997.9400000000023,225200,2021-10-25T16:21:46.927Z,225224.12,1635178671,full,ni_sequenzen,NI_Sequenzen,2,1,,,,,,,,,,,,
,Move,canvas.Screen,0_3_0_1_0_2,right,response,,225224,225223.54,225224.12,226464,1239.8800000000047,226492,2021-10-25T16:21:48.218Z,226536.56,1635178671,full,ni_sequenzen,NI_Sequenzen,3,1,,,,,,,,,,,,
,Move,canvas.Screen,0_3_0_1_0_3,down,response,,226536,226536.06,226536.56,226917,380.4400000000023,226941,2021-10-25T16:21:48.667Z,227161.02,1635178671,full,ni_sequenzen,NI_Sequenzen,4,1,,,,,,,,,,,,
,Move,canvas.Screen,0_3_0_1_0_4,-999,skipped,,226971,,,226917,,226971,2021-10-25T16:21:48.697Z,227161.02,1635178671,full,ni_sequenzen,NI_Sequenzen,5,1,,,,,,,,,,,,
,Move,canvas.Screen,0_3_0_1_0_5,-999,skipped,,226988,,,226917,,226988,2021-10-25T16:21:48.713Z,227161.02,1635178671,full,ni_sequenzen,NI_Sequenzen,6,1,,,,,,,,,,,,
,Move,canvas.Screen,0_3_0_1_0_6,-999,skipped,,227005,,,226917,,227005,2021-10-25T16:21:48.731Z,227161.02,1635178671,full,ni_sequenzen,NI_Sequenzen,7,1,,,,,,,,,,,,
,Move,canvas.Screen,0_3_0_1_0_7,-999,skipped,,227023,,,226917,,227024,2021-10-25T16:21:48.749Z,227161.02,1635178671,full,ni_sequenzen,NI_Sequenzen,8,1,,,,,,,,,,,,
,Move,canvas.Screen,0_3_0_1_0_8,-999,skipped,,227039,,,226917,,227040,2021-10-25T16:21:48.766Z,227161.02,1635178671,full,ni_sequenzen,NI_Sequenzen,9,1,,,,,,,,,,,,
,Move,canvas.Screen,0_3_0_1_0_9,-999,skipped,,227059,,,226917,,227059,2021-10-25T16:21:48.785Z,227161.02,1635178671,full,ni_sequenzen,NI_Sequenzen,10,1,,,,,,,,,,,,
,Move,canvas.Screen,0_3_0_1_0_10,-999,skipped,,227077,,,226917,,227077,2021-10-25T16:21:48.803Z,227161.02,1635178671,full,ni_sequenzen,NI_Sequenzen,11,1,,,,,,,,,,,,
,Move,canvas.Screen,0_3_0_1_0_11,-999,skipped,,227093,,,226917,,227094,2021-10-25T16:21:48.820Z,227161.02,1635178671,full,ni_sequenzen,NI_Sequenzen,12,1,,,,,,,,,,,,
,Move,canvas.Screen,0_3_0_1_0_12,-999,skipped,,227111,,,226917,,227111,2021-10-25T16:21:48.836Z,227161.02,1635178671,full,ni_sequenzen,NI_Sequenzen,13,1,,,,,,,,,,,,
,Move,canvas.Screen,0_3_0_1_0_13,-999,skipped,,227127,,,226917,,227127,2021-10-25T16:21:48.853Z,227161.02,1635178671,full,ni_sequenzen,NI_Sequenzen,14,1,,,,,,,,,,,,
,Move,canvas.Screen,0_3_0_1_0_14,-999,skipped,,227145,,,226917,,227145,2021-10-25T16:21:48.871Z,227161.02,1635178671,full,ni_sequenzen,NI_Sequenzen,15,1,,,,,,,,,,,,
,Loop,flow.Loop,0_3_0_1_0,-999,completion,,222963,222981.58,222985.06,226917,3931.9400000000023,227146,2021-10-25T16:21:48.871Z,227161.02,1635178671,full,ni_sequenzen,NI_Sequenzen,,1,,,,,,,,,,,,
,Feedback,canvas.Screen,0_3_0_1_1,,timeout,,227160,227160.4,227161.02,231151.88,4037.680000000022,231154,2021-10-25T16:21:52.879Z,231198.7,1635178671,full,ni_sequenzen,NI_Sequenzen,,1,,,,,,,,,,,,
,Trial,flow.Sequence,0_3_0_1,,completion,,222939,222981.58,222985.06,231151.88,8166.820000000007,231154,2021-10-25T16:21:52.879Z,231218.52,1635178671,full,ni_sequenzen,NI_Sequenzen,,1,,,,,,,,,,,,
,Move,canvas.Screen,0_3_0_2_0_0,down,response,,231198,231198.7,231218.52,234167,2948.4800000000105,234186,2021-10-25T16:21:55.911Z,234207.66,1635178671,full,ni_sequenzen,NI_Sequenzen,1,2,,,,,,,,,,,,
,Move,canvas.Screen,0_3_0_2_0_1,left,response,,234207,234207.18,234207.66,234605,397.3399999999965,234619,2021-10-25T16:21:56.345Z,234648.02,1635178671,full,ni_sequenzen,NI_Sequenzen,2,2,,,,,,,,,,,,
,Move,canvas.Screen,0_3_0_2_0_2,down,response,,234648,234647.58,234648.02,234980,331.9800000000105,235004,2021-10-25T16:21:56.731Z,235026.46,1635178671,full,ni_sequenzen,NI_Sequenzen,3,2,,,,,,,,,,,,
,Move,canvas.Screen,0_3_0_2_0_3,left,response,,235026,235026.04,235026.46,235355,328.54000000000815,235373,2021-10-25T16:21:57.100Z,235586.12,1635178671,full,ni_sequenzen,NI_Sequenzen,4,2,,,,,,,,,,,,
,Move,canvas.Screen,0_3_0_2_0_4,-999,skipped,,235395,,,235355,,235395,2021-10-25T16:21:57.121Z,235586.12,1635178671,full,ni_sequenzen,NI_Sequenzen,5,2,,,,,,,,,,,,
,Move,canvas.Screen,0_3_0_2_0_5,-999,skipped,,235414,,,235355,,235414,2021-10-25T16:21:57.140Z,235586.12,1635178671,full,ni_sequenzen,NI_Sequenzen,6,2,,,,,,,,,,,,
,Move,canvas.Screen,0_3_0_2_0_6,-999,skipped,,235430,,,235355,,235430,2021-10-25T16:21:57.156Z,235586.12,1635178671,full,ni_sequenzen,NI_Sequenzen,7,2,,,,,,,,,,,,
,Move,canvas.Screen,0_3_0_2_0_7,-999,skipped,,235447,,,235355,,235447,2021-10-25T16:21:57.173Z,235586.12,1635178671,full,ni_sequenzen,NI_Sequenzen,8,2,,,,,,,,,,,,
,Move,canvas.Screen,0_3_0_2_0_8,-999,skipped,,235463,,,235355,,235463,2021-10-25T16:21:57.190Z,235586.12,1635178671,full,ni_sequenzen,NI_Sequenzen,9,2,,,,,,,,,,,,
,Move,canvas.Screen,0_3_0_2_0_9,-999,skipped,,235481,,,235355,,235481,2021-10-25T16:21:57.207Z,235586.12,1635178671,full,ni_sequenzen,NI_Sequenzen,10,2,,,,,,,,,,,,
,Move,canvas.Screen,0_3_0_2_0_10,-999,skipped,,235499,,,235355,,235499,2021-10-25T16:21:57.225Z,235586.12,1635178671,full,ni_sequenzen,NI_Sequenzen,11,2,,,,,,,,,,,,
,Move,canvas.Screen,0_3_0_2_0_11,-999,skipped,,235518,,,235355,,235518,2021-10-25T16:21:57.244Z,235586.12,1635178671,full,ni_sequenzen,NI_Sequenzen,12,2,,,,,,,,,,,,
,Move,canvas.Screen,0_3_0_2_0_12,-999,skipped,,235535,,,235355,,235535,2021-10-25T16:21:57.261Z,235586.12,1635178671,full,ni_sequenzen,NI_Sequenzen,13,2,,,,,,,,,,,,
,Move,canvas.Screen,0_3_0_2_0_13,-999,skipped,,235553,,,235355,,235554,2021-10-25T16:21:57.280Z,235586.12,1635178671,full,ni_sequenzen,NI_Sequenzen,14,2,,,,,,,,,,,,
,Move,canvas.Screen,0_3_0_2_0_14,-999,skipped,,235570,,,235355,,235571,2021-10-25T16:21:57.297Z,235586.12,1635178671,full,ni_sequenzen,NI_Sequenzen,15,2,,,,,,,,,,,,
,Loop,flow.Loop,0_3_0_2_0,-999,completion,,231181,231198.7,231218.52,235355,4136.4800000000105,235571,2021-10-25T16:21:57.297Z,235586.12,1635178671,full,ni_sequenzen,NI_Sequenzen,,2,,,,,,,,,,,,
,Feedback,canvas.Screen,0_3_0_2_1,,timeout,,235585,235585.58,235586.12,239568.84,4027.420000000013,239570,2021-10-25T16:22:01.296Z,239613.54,1635178671,full,ni_sequenzen,NI_Sequenzen,,2,,,,,,,,,,,,
,Trial,flow.Sequence,0_3_0_2,,completion,,231155,231198.7,231218.52,239568.84,8350.320000000007,239570,2021-10-25T16:22:01.296Z,239618.64,1635178671,full,ni_sequenzen,NI_Sequenzen,,2,,,,,,,,,,,,
,Move,canvas.Screen,0_3_0_3_0_0,down,response,,239614,239613.54,239618.64,242902,3283.359999999986,242927,2021-10-25T16:22:04.652Z,242953.96,1635178671,full,ni_sequenzen,NI_Sequenzen,1,3,,,,,,,,,,,,
,Move,canvas.Screen,0_3_0_3_0_1,right,response,,242953,242953.52,242953.96,243339,385.04000000000815,243370,2021-10-25T16:22:05.096Z,243390.7,1635178671,full,ni_sequenzen,NI_Sequenzen,2,3,,,,,,,,,,,,
,Move,canvas.Screen,0_3_0_3_0_2,down,response,,243390,243390.2,243390.7,243792,401.29999999998836,243813,2021-10-25T16:22:05.539Z,243841.48,1635178671,full,ni_sequenzen,NI_Sequenzen,3,3,,,,,,,,,,,,
,Move,canvas.Screen,0_3_0_3_0_3,right,response,,243841,243841.02,243841.48,244245,403.5199999999895,244256,2021-10-25T16:22:05.983Z,244568.68,1635178671,full,ni_sequenzen,NI_Sequenzen,4,3,,,,,,,,,,,,
,Move,canvas.Screen,0_3_0_3_0_4,-999,skipped,,244304,,,244245,,244305,2021-10-25T16:22:06.030Z,244568.68,1635178671,full,ni_sequenzen,NI_Sequenzen,5,3,,,,,,,,,,,,
,Move,canvas.Screen,0_3_0_3_0_5,-999,skipped,,244337,,,244245,,244337,2021-10-25T16:22:06.063Z,244568.68,1635178671,full,ni_sequenzen,NI_Sequenzen,6,3,,,,,,,,,,,,
,Move,canvas.Screen,0_3_0_3_0_6,-999,skipped,,244366,,,244245,,244367,2021-10-25T16:22:06.093Z,244568.68,1635178671,full,ni_sequenzen,NI_Sequenzen,7,3,,,,,,,,,,,,
,Move,canvas.Screen,0_3_0_3_0_7,-999,skipped,,244395,,,244245,,244396,2021-10-25T16:22:06.122Z,244568.68,1635178671,full,ni_sequenzen,NI_Sequenzen,8,3,,,,,,,,,,,,
,Move,canvas.Screen,0_3_0_3_0_8,-999,skipped,,244418,,,244245,,244419,2021-10-25T16:22:06.145Z,244568.68,1635178671,full,ni_sequenzen,NI_Sequenzen,9,3,,,,,,,,,,,,
,Move,canvas.Screen,0_3_0_3_0_9,-999,skipped,,244440,,,244245,,244440,2021-10-25T16:22:06.167Z,244568.68,1635178671,full,ni_sequenzen,NI_Sequenzen,10,3,,,,,,,,,,,,
,Move,canvas.Screen,0_3_0_3_0_10,-999,skipped,,244462,,,244245,,244462,2021-10-25T16:22:06.188Z,244568.68,1635178671,full,ni_sequenzen,NI_Sequenzen,11,3,,,,,,,,,,,,
,Move,canvas.Screen,0_3_0_3_0_11,-999,skipped,,244484,,,244245,,244484,2021-10-25T16:22:06.209Z,244568.68,1635178671,full,ni_sequenzen,NI_Sequenzen,12,3,,,,,,,,,,,,
,Move,canvas.Screen,0_3_0_3_0_12,-999,skipped,,244502,,,244245,,244503,2021-10-25T16:22:06.229Z,244568.68,1635178671,full,ni_sequenzen,NI_Sequenzen,13,3,,,,,,,,,,,,
,Move,canvas.Screen,0_3_0_3_0_13,-999,skipped,,244524,,,244245,,244525,2021-10-25T16:22:06.251Z,244568.68,1635178671,full,ni_sequenzen,NI_Sequenzen,14,3,,,,,,,,,,,,
,Move,canvas.Screen,0_3_0_3_0_14,-999,skipped,,244546,,,244245,,244547,2021-10-25T16:22:06.273Z,244568.68,1635178671,full,ni_sequenzen,NI_Sequenzen,15,3,,,,,,,,,,,,
,Loop,flow.Loop,0_3_0_3_0,-999,completion,,239596,239613.54,239618.64,244245,4626.359999999986,244549,2021-10-25T16:22:06.274Z,244568.68,1635178671,full,ni_sequenzen,NI_Sequenzen,,3,,,,,,,,,,,,
,Feedback,canvas.Screen,0_3_0_3_1,,timeout,,244564,244564.22,244568.68,248552.26,4095.540000000008,248556,2021-10-25T16:22:10.282Z,248664.22,1635178671,full,ni_sequenzen,NI_Sequenzen,,3,,,,,,,,,,,,
,Trial,flow.Sequence,0_3_0_3,,completion,,239571,239613.54,239618.64,248552.26,8933.619999999995,248562,2021-10-25T16:22:10.287Z,248668.72,1635178671,full,ni_sequenzen,NI_Sequenzen,,3,,,,,,,,,,,,
,Move,canvas.Screen,0_3_0_4_0_0,left,response,,248664,248664.22,248668.72,253980,5311.279999999999,254002,2021-10-25T16:22:15.728Z,254038.66,1635178671,full,ni_sequenzen,NI_Sequenzen,1,4,,,,,,,,,,,,
,Move,canvas.Screen,0_3_0_4_0_1,down,response,,254038,254038.18,254038.66,254433,394.3399999999965,254443,2021-10-25T16:22:16.170Z,254473.06,1635178671,full,ni_sequenzen,NI_Sequenzen,2,4,,,,,,,,,,,,
,Move,canvas.Screen,0_3_0_4_0_2,right,response,,254473,254472.6,254473.06,254886,412.9400000000023,254912,2021-10-25T16:22:16.638Z,254944.14,1635178671,full,ni_sequenzen,NI_Sequenzen,3,4,,,,,,,,,,,,
,Move,canvas.Screen,0_3_0_4_0_3,right,response,,254943,254943.66,254944.14,258245,3300.859999999986,258265,2021-10-25T16:22:19.990Z,258511.98,1635178671,full,ni_sequenzen,NI_Sequenzen,4,4,,,,,,,,,,,,
,Move,canvas.Screen,0_3_0_4_0_4,-999,skipped,,258293,,,258245,,258293,2021-10-25T16:22:20.019Z,258511.98,1635178671,full,ni_sequenzen,NI_Sequenzen,5,4,,,,,,,,,,,,
,Move,canvas.Screen,0_3_0_4_0_5,-999,skipped,,258313,,,258245,,258314,2021-10-25T16:22:20.039Z,258511.98,1635178671,full,ni_sequenzen,NI_Sequenzen,6,4,,,,,,,,,,,,
,Move,canvas.Screen,0_3_0_4_0_6,-999,skipped,,258333,,,258245,,258333,2021-10-25T16:22:20.060Z,258511.98,1635178671,full,ni_sequenzen,NI_Sequenzen,7,4,,,,,,,,,,,,
,Move,canvas.Screen,0_3_0_4_0_7,-999,skipped,,258352,,,258245,,258352,2021-10-25T16:22:20.079Z,258511.98,1635178671,full,ni_sequenzen,NI_Sequenzen,8,4,,,,,,,,,,,,
,Move,canvas.Screen,0_3_0_4_0_8,-999,skipped,,258372,,,258245,,258373,2021-10-25T16:22:20.099Z,258511.98,1635178671,full,ni_sequenzen,NI_Sequenzen,9,4,,,,,,,,,,,,
,Move,canvas.Screen,0_3_0_4_0_9,-999,skipped,,258392,,,258245,,258392,2021-10-25T16:22:20.118Z,258511.98,1635178671,full,ni_sequenzen,NI_Sequenzen,10,4,,,,,,,,,,,,
,Move,canvas.Screen,0_3_0_4_0_10,-999,skipped,,258414,,,258245,,258414,2021-10-25T16:22:20.140Z,258511.98,1635178671,full,ni_sequenzen,NI_Sequenzen,11,4,,,,,,,,,,,,
,Move,canvas.Screen,0_3_0_4_0_11,-999,skipped,,258434,,,258245,,258435,2021-10-25T16:22:20.161Z,258511.98,1635178671,full,ni_sequenzen,NI_Sequenzen,12,4,,,,,,,,,,,,
,Move,canvas.Screen,0_3_0_4_0_12,-999,skipped,,258453,,,258245,,258454,2021-10-25T16:22:20.180Z,258511.98,1635178671,full,ni_sequenzen,NI_Sequenzen,13,4,,,,,,,,,,,,
,Move,canvas.Screen,0_3_0_4_0_13,-999,skipped,,258473,,,258245,,258473,2021-10-25T16:22:20.199Z,258511.98,1635178671,full,ni_sequenzen,NI_Sequenzen,14,4,,,,,,,,,,,,
,Move,canvas.Screen,0_3_0_4_0_14,-999,skipped,,258494,,,258245,,258494,2021-10-25T16:22:20.219Z,258511.98,1635178671,full,ni_sequenzen,NI_Sequenzen,15,4,,,,,,,,,,,,
,Loop,flow.Loop,0_3_0_4_0,-999,completion,,248629,248664.22,248668.72,258245,9576.279999999999,258495,2021-10-25T16:22:20.221Z,258511.98,1635178671,full,ni_sequenzen,NI_Sequenzen,,4,,,,,,,,,,,,
,Feedback,canvas.Screen,0_3_0_4_1,,timeout,,258511,258511.48,258511.98,262502.44,4052.600000000006,262504,2021-10-25T16:22:24.230Z,262564.58,1635178671,full,ni_sequenzen,NI_Sequenzen,,4,,,,,,,,,,,,
,Trial,flow.Sequence,0_3_0_4,,completion,,248567,248664.22,248668.72,262502.44,13833.720000000001,262505,2021-10-25T16:22:24.230Z,262568.9,1635178671,full,ni_sequenzen,NI_Sequenzen,,4,,,,,,,,,,,,
,Move,canvas.Screen,0_3_0_5_0_0,right,response,,262564,262564.58,262568.9,266135,3566.0999999999767,266151,2021-10-25T16:22:27.877Z,266185.6,1635178671,full,ni_sequenzen,NI_Sequenzen,1,5,,,,,,,,,,,,
,Move,canvas.Screen,0_3_0_5_0_1,down,response,,266178,266178.46,266185.6,266495,309.4000000000233,266511,2021-10-25T16:22:28.238Z,266534.88,1635178671,full,ni_sequenzen,NI_Sequenzen,2,5,,,,,,,,,,,,
,Move,canvas.Screen,0_3_0_5_0_2,right,response,,266534,266534.42,266534.88,266824,289.11999999999534,266844,2021-10-25T16:22:28.570Z,266868.7,1635178671,full,ni_sequenzen,NI_Sequenzen,3,5,,,,,,,,,,,,
,Move,canvas.Screen,0_3_0_5_0_3,down,response,,266868,266868.24,266868.7,267199,330.29999999998836,267222,2021-10-25T16:22:28.948Z,267453.64,1635178671,full,ni_sequenzen,NI_Sequenzen,4,5,,,,,,,,,,,,
,Move,canvas.Screen,0_3_0_5_0_4,-999,skipped,,267254,,,267199,,267255,2021-10-25T16:22:28.981Z,267453.64,1635178671,full,ni_sequenzen,NI_Sequenzen,5,5,,,,,,,,,,,,
,Move,canvas.Screen,0_3_0_5_0_5,-999,skipped,,267275,,,267199,,267275,2021-10-25T16:22:29.002Z,267453.64,1635178671,full,ni_sequenzen,NI_Sequenzen,6,5,,,,,,,,,,,,
,Move,canvas.Screen,0_3_0_5_0_6,-999,skipped,,267294,,,267199,,267294,2021-10-25T16:22:29.019Z,267453.64,1635178671,full,ni_sequenzen,NI_Sequenzen,7,5,,,,,,,,,,,,
,Move,canvas.Screen,0_3_0_5_0_7,-999,skipped,,267312,,,267199,,267312,2021-10-25T16:22:29.038Z,267453.64,1635178671,full,ni_sequenzen,NI_Sequenzen,8,5,,,,,,,,,,,,
,Move,canvas.Screen,0_3_0_5_0_8,-999,skipped,,267331,,,267199,,267332,2021-10-25T16:22:29.058Z,267453.64,1635178671,full,ni_sequenzen,NI_Sequenzen,9,5,,,,,,,,,,,,
,Move,canvas.Screen,0_3_0_5_0_9,-999,skipped,,267351,,,267199,,267351,2021-10-25T16:22:29.077Z,267453.64,1635178671,full,ni_sequenzen,NI_Sequenzen,10,5,,,,,,,,,,,,
,Move,canvas.Screen,0_3_0_5_0_10,-999,skipped,,267369,,,267199,,267370,2021-10-25T16:22:29.096Z,267453.64,1635178671,full,ni_sequenzen,NI_Sequenzen,11,5,,,,,,,,,,,,
,Move,canvas.Screen,0_3_0_5_0_11,-999,skipped,,267387,,,267199,,267387,2021-10-25T16:22:29.113Z,267453.64,1635178671,full,ni_sequenzen,NI_Sequenzen,12,5,,,,,,,,,,,,
,Move,canvas.Screen,0_3_0_5_0_12,-999,skipped,,267404,,,267199,,267405,2021-10-25T16:22:29.130Z,267453.64,1635178671,full,ni_sequenzen,NI_Sequenzen,13,5,,,,,,,,,,,,
,Move,canvas.Screen,0_3_0_5_0_13,-999,skipped,,267421,,,267199,,267421,2021-10-25T16:22:29.148Z,267453.64,1635178671,full,ni_sequenzen,NI_Sequenzen,14,5,,,,,,,,,,,,
,Move,canvas.Screen,0_3_0_5_0_14,-999,skipped,,267439,,,267199,,267439,2021-10-25T16:22:29.164Z,267453.64,1635178671,full,ni_sequenzen,NI_Sequenzen,15,5,,,,,,,,,,,,
,Loop,flow.Loop,0_3_0_5_0,-999,completion,,262546,262564.58,262568.9,267199,4630.099999999977,267439,2021-10-25T16:22:29.165Z,267453.64,1635178671,full,ni_sequenzen,NI_Sequenzen,,5,,,,,,,,,,,,
,Feedback,canvas.Screen,0_3_0_5_1,,timeout,,267453,267453.12,267453.64,271435.66,4049.9799999999814,271437,2021-10-25T16:22:33.163Z,271503.62,1635178671,full,ni_sequenzen,NI_Sequenzen,,5,,,,,,,,,,,,
,Trial,flow.Sequence,0_3_0_5,,completion,,262505,262564.58,262568.9,271435.66,8866.759999999951,271438,2021-10-25T16:22:33.163Z,271519,1635178671,full,ni_sequenzen,NI_Sequenzen,,5,,,,,,,,,,,,
,Move,canvas.Screen,0_3_0_6_0_0,down,response,,271503,271503.62,271519,272338,819,272352,2021-10-25T16:22:34.078Z,272375.06,1635178671,full,ni_sequenzen,NI_Sequenzen,1,6,,,,,,,,,,,,
,Move,canvas.Screen,0_3_0_6_0_1,left,response,,272375,272374.5,272375.06,272870,494.9400000000023,272877,2021-10-25T16:22:34.603Z,272906.66,1635178671,full,ni_sequenzen,NI_Sequenzen,2,6,,,,,,,,,,,,
,Move,canvas.Screen,0_3_0_6_0_2,down,response,,272907,272906.18,272906.66,273370,463.3400000000256,273392,2021-10-25T16:22:35.118Z,273419.04,1635178671,full,ni_sequenzen,NI_Sequenzen,3,6,,,,,,,,,,,,
,Move,canvas.Screen,0_3_0_6_0_3,left,response,,273416,273415.72,273419.04,273870,450.96000000002095,273885,2021-10-25T16:22:35.611Z,274110.88,1635178671,full,ni_sequenzen,NI_Sequenzen,4,6,,,,,,,,,,,,
,Move,canvas.Screen,0_3_0_6_0_4,-999,skipped,,273908,,,273870,,273908,2021-10-25T16:22:35.634Z,274110.88,1635178671,full,ni_sequenzen,NI_Sequenzen,5,6,,,,,,,,,,,,
,Move,canvas.Screen,0_3_0_6_0_5,-999,skipped,,273926,,,273870,,273926,2021-10-25T16:22:35.651Z,274110.88,1635178671,full,ni_sequenzen,NI_Sequenzen,6,6,,,,,,,,,,,,
,Move,canvas.Screen,0_3_0_6_0_6,-999,skipped,,273942,,,273870,,273942,2021-10-25T16:22:35.668Z,274110.88,1635178671,full,ni_sequenzen,NI_Sequenzen,7,6,,,,,,,,,,,,
,Move,canvas.Screen,0_3_0_6_0_7,-999,skipped,,273959,,,273870,,273960,2021-10-25T16:22:35.685Z,274110.88,1635178671,full,ni_sequenzen,NI_Sequenzen,8,6,,,,,,,,,,,,
,Move,canvas.Screen,0_3_0_6_0_8,-999,skipped,,273976,,,273870,,273976,2021-10-25T16:22:35.702Z,274110.88,1635178671,full,ni_sequenzen,NI_Sequenzen,9,6,,,,,,,,,,,,
,Move,canvas.Screen,0_3_0_6_0_9,-999,skipped,,273995,,,273870,,273995,2021-10-25T16:22:35.720Z,274110.88,1635178671,full,ni_sequenzen,NI_Sequenzen,10,6,,,,,,,,,,,,
,Move,canvas.Screen,0_3_0_6_0_10,-999,skipped,,274020,,,273870,,274020,2021-10-25T16:22:35.746Z,274110.88,1635178671,full,ni_sequenzen,NI_Sequenzen,11,6,,,,,,,,,,,,
,Move,canvas.Screen,0_3_0_6_0_11,-999,skipped,,274039,,,273870,,274039,2021-10-25T16:22:35.765Z,274110.88,1635178671,full,ni_sequenzen,NI_Sequenzen,12,6,,,,,,,,,,,,
,Move,canvas.Screen,0_3_0_6_0_12,-999,skipped,,274058,,,273870,,274058,2021-10-25T16:22:35.784Z,274110.88,1635178671,full,ni_sequenzen,NI_Sequenzen,13,6,,,,,,,,,,,,
,Move,canvas.Screen,0_3_0_6_0_13,-999,skipped,,274076,,,273870,,274076,2021-10-25T16:22:35.803Z,274110.88,1635178671,full,ni_sequenzen,NI_Sequenzen,14,6,,,,,,,,,,,,
,Move,canvas.Screen,0_3_0_6_0_14,-999,skipped,,274094,,,273870,,274094,2021-10-25T16:22:35.821Z,274110.88,1635178671,full,ni_sequenzen,NI_Sequenzen,15,6,,,,,,,,,,,,
,Loop,flow.Loop,0_3_0_6_0,-999,completion,,271482,271503.62,271519,273870,2351,274096,2021-10-25T16:22:35.822Z,274110.88,1635178671,full,ni_sequenzen,NI_Sequenzen,,6,,,,,,,,,,,,
,Feedback,canvas.Screen,0_3_0_6_1,,timeout,,274110,274110.36,274110.88,278102.52,4036.4400000000023,278103,2021-10-25T16:22:39.829Z,278147.32,1635178671,full,ni_sequenzen,NI_Sequenzen,,6,,,,,,,,,,,,
,Trial,flow.Sequence,0_3_0_6,,completion,,271439,271503.62,271519,278102.52,6583.520000000019,278105,2021-10-25T16:22:39.831Z,278152.42,1635178671,full,ni_sequenzen,NI_Sequenzen,,6,,,,,,,,,,,,
,Move,canvas.Screen,0_3_0_7_0_0,down,response,,278148,278147.32,278152.42,285526,7373.580000000016,285546,2021-10-25T16:22:47.272Z,285572.68,1635178671,full,ni_sequenzen,NI_Sequenzen,1,7,,,,,,,,,,,,
,Move,canvas.Screen,0_3_0_7_0_1,right,response,,285572,285572.16,285572.68,285979,406.320000000007,285994,2021-10-25T16:22:47.720Z,286019.18,1635178671,full,ni_sequenzen,NI_Sequenzen,2,7,,,,,,,,,,,,
,Move,canvas.Screen,0_3_0_7_0_2,down,response,,286017,286017.52,286019.18,287058,1038.820000000007,287077,2021-10-25T16:22:48.802Z,287103.16,1635178671,full,ni_sequenzen,NI_Sequenzen,3,7,,,,,,,,,,,,
,Move,canvas.Screen,0_3_0_7_0_3,right,response,,287102,287102.7,287103.16,287339,235.8400000000256,287369,2021-10-25T16:22:49.095Z,287588.98,1635178671,full,ni_sequenzen,NI_Sequenzen,4,7,,,,,,,,,,,,
,Move,canvas.Screen,0_3_0_7_0_4,-999,skipped,,287394,,,287339,,287394,2021-10-25T16:22:49.119Z,287588.98,1635178671,full,ni_sequenzen,NI_Sequenzen,5,7,,,,,,,,,,,,
,Move,canvas.Screen,0_3_0_7_0_5,-999,skipped,,287414,,,287339,,287414,2021-10-25T16:22:49.140Z,287588.98,1635178671,full,ni_sequenzen,NI_Sequenzen,6,7,,,,,,,,,,,,
,Move,canvas.Screen,0_3_0_7_0_6,-999,skipped,,287431,,,287339,,287431,2021-10-25T16:22:49.156Z,287588.98,1635178671,full,ni_sequenzen,NI_Sequenzen,7,7,,,,,,,,,,,,
,Move,canvas.Screen,0_3_0_7_0_7,-999,skipped,,287447,,,287339,,287447,2021-10-25T16:22:49.173Z,287588.98,1635178671,full,ni_sequenzen,NI_Sequenzen,8,7,,,,,,,,,,,,
,Move,canvas.Screen,0_3_0_7_0_8,-999,skipped,,287464,,,287339,,287465,2021-10-25T16:22:49.190Z,287588.98,1635178671,full,ni_sequenzen,NI_Sequenzen,9,7,,,,,,,,,,,,
,Move,canvas.Screen,0_3_0_7_0_9,-999,skipped,,287480,,,287339,,287481,2021-10-25T16:22:49.207Z,287588.98,1635178671,full,ni_sequenzen,NI_Sequenzen,10,7,,,,,,,,,,,,
,Move,canvas.Screen,0_3_0_7_0_10,-999,skipped,,287499,,,287339,,287499,2021-10-25T16:22:49.225Z,287588.98,1635178671,full,ni_sequenzen,NI_Sequenzen,11,7,,,,,,,,,,,,
,Move,canvas.Screen,0_3_0_7_0_11,-999,skipped,,287516,,,287339,,287516,2021-10-25T16:22:49.242Z,287588.98,1635178671,full,ni_sequenzen,NI_Sequenzen,12,7,,,,,,,,,,,,
,Move,canvas.Screen,0_3_0_7_0_12,-999,skipped,,287535,,,287339,,287537,2021-10-25T16:22:49.262Z,287588.98,1635178671,full,ni_sequenzen,NI_Sequenzen,13,7,,,,,,,,,,,,
,Move,canvas.Screen,0_3_0_7_0_13,-999,skipped,,287553,,,287339,,287553,2021-10-25T16:22:49.279Z,287588.98,1635178671,full,ni_sequenzen,NI_Sequenzen,14,7,,,,,,,,,,,,
,Move,canvas.Screen,0_3_0_7_0_14,-999,skipped,,287573,,,287339,,287574,2021-10-25T16:22:49.299Z,287588.98,1635178671,full,ni_sequenzen,NI_Sequenzen,15,7,,,,,,,,,,,,
,Loop,flow.Loop,0_3_0_7_0,-999,completion,,278129,278147.32,278152.42,287339,9186.580000000016,287575,2021-10-25T16:22:49.300Z,287588.98,1635178671,full,ni_sequenzen,NI_Sequenzen,,7,,,,,,,,,,,,
,Feedback,canvas.Screen,0_3_0_7_1,,timeout,,287588,287588.48,287588.98,291569.26,4024.2200000000303,291571,2021-10-25T16:22:53.296Z,291613.2,1635178671,full,ni_sequenzen,NI_Sequenzen,,7,,,,,,,,,,,,
,Trial,flow.Sequence,0_3_0_7,,completion,,278107,278147.32,278152.42,291569.26,13416.840000000026,291571,2021-10-25T16:22:53.297Z,291619.26,1635178671,full,ni_sequenzen,NI_Sequenzen,,7,,,,,,,,,,,,
,Move,canvas.Screen,0_3_0_8_0_0,down,response,,291613,291613.2,291619.26,293057,1437.7399999999907,293072,2021-10-25T16:22:54.799Z,293093.06,1635178671,full,ni_sequenzen,NI_Sequenzen,1,8,,,,,,,,,,,,
,Move,canvas.Screen,0_3_0_8_0_1,right,response,,293092,293092.3,293093.06,299214,6120.940000000002,299238,2021-10-25T16:23:00.964Z,299258.24,1635178671,full,ni_sequenzen,NI_Sequenzen,2,8,,,,,,,,,,,,
,Move,canvas.Screen,0_3_0_8_0_2,left,response,,299258,299257.78,299258.24,300324,1065.7600000000093,300334,2021-10-25T16:23:02.060Z,300369.38,1635178671,full,ni_sequenzen,NI_Sequenzen,3,8,,,,,,,,,,,,
,Move,canvas.Screen,0_3_0_8_0_3,down,response,,300362,300361.66,300369.38,302291,1921.6199999999953,302308,2021-10-25T16:23:04.034Z,302336.08,1635178671,full,ni_sequenzen,NI_Sequenzen,4,8,,,,,,,,,,,,
,Move,canvas.Screen,0_3_0_8_0_4,right,response,,302332,302332.08,302336.08,303417,1080.9199999999837,303426,2021-10-25T16:23:05.152Z,303626.22,1635178671,full,ni_sequenzen,NI_Sequenzen,5,8,,,,,,,,,,,,
,Move,canvas.Screen,0_3_0_8_0_5,-999,skipped,,303453,,,303417,,303453,2021-10-25T16:23:05.179Z,303626.22,1635178671,full,ni_sequenzen,NI_Sequenzen,6,8,,,,,,,,,,,,
,Move,canvas.Screen,0_3_0_8_0_6,-999,skipped,,303471,,,303417,,303471,2021-10-25T16:23:05.196Z,303626.22,1635178671,full,ni_sequenzen,NI_Sequenzen,7,8,,,,,,,,,,,,
,Move,canvas.Screen,0_3_0_8_0_7,-999,skipped,,303488,,,303417,,303488,2021-10-25T16:23:05.214Z,303626.22,1635178671,full,ni_sequenzen,NI_Sequenzen,8,8,,,,,,,,,,,,
,Move,canvas.Screen,0_3_0_8_0_8,-999,skipped,,303506,,,303417,,303507,2021-10-25T16:23:05.233Z,303626.22,1635178671,full,ni_sequenzen,NI_Sequenzen,9,8,,,,,,,,,,,,
,Move,canvas.Screen,0_3_0_8_0_9,-999,skipped,,303526,,,303417,,303526,2021-10-25T16:23:05.252Z,303626.22,1635178671,full,ni_sequenzen,NI_Sequenzen,10,8,,,,,,,,,,,,
,Move,canvas.Screen,0_3_0_8_0_10,-999,skipped,,303543,,,303417,,303543,2021-10-25T16:23:05.269Z,303626.22,1635178671,full,ni_sequenzen,NI_Sequenzen,11,8,,,,,,,,,,,,
,Move,canvas.Screen,0_3_0_8_0_11,-999,skipped,,303559,,,303417,,303559,2021-10-25T16:23:05.286Z,303626.22,1635178671,full,ni_sequenzen,NI_Sequenzen,12,8,,,,,,,,,,,,
,Move,canvas.Screen,0_3_0_8_0_12,-999,skipped,,303577,,,303417,,303577,2021-10-25T16:23:05.303Z,303626.22,1635178671,full,ni_sequenzen,NI_Sequenzen,13,8,,,,,,,,,,,,
,Move,canvas.Screen,0_3_0_8_0_13,-999,skipped,,303594,,,303417,,303594,2021-10-25T16:23:05.320Z,303626.22,1635178671,full,ni_sequenzen,NI_Sequenzen,14,8,,,,,,,,,,,,
,Move,canvas.Screen,0_3_0_8_0_14,-999,skipped,,303611,,,303417,,303611,2021-10-25T16:23:05.337Z,303626.22,1635178671,full,ni_sequenzen,NI_Sequenzen,15,8,,,,,,,,,,,,
,Loop,flow.Loop,0_3_0_8_0,-999,completion,,291596,291613.2,291619.26,303417,11797.73999999999,303612,2021-10-25T16:23:05.338Z,303626.22,1635178671,full,ni_sequenzen,NI_Sequenzen,,8,,,,,,,,,,,,
,Feedback,canvas.Screen,0_3_0_8_1,,timeout,,303626,303625.74,303626.22,307602.82,4080.5200000000186,307606,2021-10-25T16:23:09.332Z,307706.74,1635178671,full,ni_sequenzen,NI_Sequenzen,,8,,,,,,,,,,,,
,Trial,flow.Sequence,0_3_0_8,,completion,,291572,291613.2,291619.26,307602.82,15983.559999999998,307608,2021-10-25T16:23:09.334Z,307719.46,1635178671,full,ni_sequenzen,NI_Sequenzen,,8,,,,,,,,,,,,
,Move,canvas.Screen,0_3_0_9_0_0,right,response,,307707,307706.74,307719.46,309042,1322.539999999979,309067,2021-10-25T16:23:10.792Z,309105.24,1635178671,full,ni_sequenzen,NI_Sequenzen,1,9,,,,,,,,,,,,
,Move,canvas.Screen,0_3_0_9_0_1,down,response,,309104,309104.76,309105.24,309980,874.7600000000093,310002,2021-10-25T16:23:11.728Z,310036.16,1635178671,full,ni_sequenzen,NI_Sequenzen,2,9,,,,,,,,,,,,
,Move,canvas.Screen,0_3_0_9_0_2,left,response,,310034,310034.42,310036.16,310652,615.8400000000256,310669,2021-10-25T16:23:12.395Z,310702.84,1635178671,full,ni_sequenzen,NI_Sequenzen,3,9,,,,,,,,,,,,
,Move,canvas.Screen,0_3_0_9_0_3,right,response,,310699,310699.02,310702.84,313277,2574.1599999999744,313291,2021-10-25T16:23:15.017Z,313556.52,1635178671,full,ni_sequenzen,NI_Sequenzen,4,9,,,,,,,,,,,,
,Move,canvas.Screen,0_3_0_9_0_4,-999,skipped,,313320,,,313277,,313320,2021-10-25T16:23:15.046Z,313556.52,1635178671,full,ni_sequenzen,NI_Sequenzen,5,9,,,,,,,,,,,,
,Move,canvas.Screen,0_3_0_9_0_5,-999,skipped,,313348,,,313277,,313348,2021-10-25T16:23:15.074Z,313556.52,1635178671,full,ni_sequenzen,NI_Sequenzen,6,9,,,,,,,,,,,,
,Move,canvas.Screen,0_3_0_9_0_6,-999,skipped,,313370,,,313277,,313370,2021-10-25T16:23:15.095Z,313556.52,1635178671,full,ni_sequenzen,NI_Sequenzen,7,9,,,,,,,,,,,,
,Move,canvas.Screen,0_3_0_9_0_7,-999,skipped,,313391,,,313277,,313391,2021-10-25T16:23:15.118Z,313556.52,1635178671,full,ni_sequenzen,NI_Sequenzen,8,9,,,,,,,,,,,,
,Move,canvas.Screen,0_3_0_9_0_8,-999,skipped,,313413,,,313277,,313413,2021-10-25T16:23:15.139Z,313556.52,1635178671,full,ni_sequenzen,NI_Sequenzen,9,9,,,,,,,,,,,,
,Move,canvas.Screen,0_3_0_9_0_9,-999,skipped,,313435,,,313277,,313435,2021-10-25T16:23:15.161Z,313556.52,1635178671,full,ni_sequenzen,NI_Sequenzen,10,9,,,,,,,,,,,,
,Move,canvas.Screen,0_3_0_9_0_10,-999,skipped,,313457,,,313277,,313457,2021-10-25T16:23:15.183Z,313556.52,1635178671,full,ni_sequenzen,NI_Sequenzen,11,9,,,,,,,,,,,,
,Move,canvas.Screen,0_3_0_9_0_11,-999,skipped,,313478,,,313277,,313478,2021-10-25T16:23:15.204Z,313556.52,1635178671,full,ni_sequenzen,NI_Sequenzen,12,9,,,,,,,,,,,,
,Move,canvas.Screen,0_3_0_9_0_12,-999,skipped,,313499,,,313277,,313499,2021-10-25T16:23:15.224Z,313556.52,1635178671,full,ni_sequenzen,NI_Sequenzen,13,9,,,,,,,,,,,,
,Move,canvas.Screen,0_3_0_9_0_13,-999,skipped,,313519,,,313277,,313519,2021-10-25T16:23:15.245Z,313556.52,1635178671,full,ni_sequenzen,NI_Sequenzen,14,9,,,,,,,,,,,,
,Move,canvas.Screen,0_3_0_9_0_14,-999,skipped,,313539,,,313277,,313539,2021-10-25T16:23:15.264Z,313556.52,1635178671,full,ni_sequenzen,NI_Sequenzen,15,9,,,,,,,,,,,,
,Loop,flow.Loop,0_3_0_9_0,-999,completion,,307668,307706.74,307719.46,313277,5557.539999999979,313539,2021-10-25T16:23:15.265Z,313556.52,1635178671,full,ni_sequenzen,NI_Sequenzen,,9,,,,,,,,,,,,
,Feedback,canvas.Screen,0_3_0_9_1,,timeout,,313556,313556,313556.52,317536.46,4120.760000000009,317538,2021-10-25T16:23:19.264Z,317677.28,1635178671,full,ni_sequenzen,NI_Sequenzen,,9,,,,,,,,,,,,
,Trial,flow.Sequence,0_3_0_9,,completion,,307612,307706.74,307719.46,317536.46,9817,317539,2021-10-25T16:23:19.264Z,317719.58,1635178671,full,ni_sequenzen,NI_Sequenzen,,9,,,,,,,,,,,,
,Block,flow.Loop,0_3_0,,completion,,209078,209128.64,209151.56,317536.46,108384.90000000002,317539,2021-10-25T16:23:19.265Z,317719.58,1635178671,full,ni_sequenzen,NI_Sequenzen,,,,,,,,,,,,,,
,Training_II,flow.Sequence,0_3,,completion,,208997,209128.64,209151.56,317536.46,108384.90000000002,317539,2021-10-25T16:23:19.265Z,317719.58,1635178671,full,ni_sequenzen,NI_Sequenzen,,,,,,,,,,,,,,
,Screen_1,canvas.Screen,0_4_0_0,cont,response,1,317677,317677.28,317719.58,325339,7619.419999999984,325350,2021-10-25T16:23:27.076Z,325386.38,1635178671,full,ni_sequenzen,NI_Sequenzen,,,,,,,,,,,,,,
,Screen_2,canvas.Screen,0_4_0_1,cont,response,1,325357,325356.44,325386.38,329574,4187.619999999995,329593,2021-10-25T16:23:31.319Z,329703.12,1635178671,full,ni_sequenzen,NI_Sequenzen,,,,,,,,,,,,,,
,Screen_3,canvas.Screen,0_4_0_2,cont,response,1,329677,329677.54,329703.12,335527,5823.880000000005,335548,2021-10-25T16:23:37.274Z,336203.18,1635178671,full,ni_sequenzen,NI_Sequenzen,,,,,,,,,,,,,,
,Sequence,flow.Sequence,0_4_0,,completion,1,317623,317677.28,317719.58,335527,17807.419999999984,335549,2021-10-25T16:23:37.275Z,336203.18,1635178671,full,ni_sequenzen,NI_Sequenzen,,,,,,,,,,,,,,
,Screen_1,canvas.Screen,0_4_1_0,,skipped,2,335559,,,335559,,335560,2021-10-25T16:23:37.285Z,336203.18,1635178671,full,ni_sequenzen,NI_Sequenzen,,,,,,,,,,,,,,
,Screen_2,canvas.Screen,0_4_1_1,,skipped,2,335565,,,335559,,335567,2021-10-25T16:23:37.292Z,336203.18,1635178671,full,ni_sequenzen,NI_Sequenzen,,,,,,,,,,,,,,
,Screen_3,canvas.Screen,0_4_1_2,,skipped,2,335574,,,335559,,335575,2021-10-25T16:23:37.301Z,336203.18,1635178671,full,ni_sequenzen,NI_Sequenzen,,,,,,,,,,,,,,
,Sequence,flow.Sequence,0_4_1,,completion,2,335553,,,335559,,335576,2021-10-25T16:23:37.302Z,336203.18,1635178671,full,ni_sequenzen,NI_Sequenzen,,,,,,,,,,,,,,
,Screen_1,canvas.Screen,0_4_2_0,,skipped,3,335583,,,335583,,335585,2021-10-25T16:23:37.310Z,336203.18,1635178671,full,ni_sequenzen,NI_Sequenzen,,,,,,,,,,,,,,
,Screen_2,canvas.Screen,0_4_2_1,,skipped,3,335591,,,335583,,335591,2021-10-25T16:23:37.317Z,336203.18,1635178671,full,ni_sequenzen,NI_Sequenzen,,,,,,,,,,,,,,
,Screen_3,canvas.Screen,0_4_2_2,,skipped,3,335597,,,335583,,335597,2021-10-25T16:23:37.324Z,336203.18,1635178671,full,ni_sequenzen,NI_Sequenzen,,,,,,,,,,,,,,
,Sequence,flow.Sequence,0_4_2,,completion,3,335579,,,335583,,335599,2021-10-25T16:23:37.324Z,336203.18,1635178671,full,ni_sequenzen,NI_Sequenzen,,,,,,,,,,,,,,
,Screen_1,canvas.Screen,0_4_3_0,,skipped,4,335605,,,335605,,335605,2021-10-25T16:23:37.330Z,336203.18,1635178671,full,ni_sequenzen,NI_Sequenzen,,,,,,,,,,,,,,
,Screen_2,canvas.Screen,0_4_3_1,,skipped,4,335609,,,335605,,335610,2021-10-25T16:23:37.336Z,336203.18,1635178671,full,ni_sequenzen,NI_Sequenzen,,,,,,,,,,,,,,
,Screen_3,canvas.Screen,0_4_3_2,,skipped,4,335615,,,335605,,335615,2021-10-25T16:23:37.340Z,336203.18,1635178671,full,ni_sequenzen,NI_Sequenzen,,,,,,,,,,,,,,
,Sequence,flow.Sequence,0_4_3,,completion,4,335601,,,335605,,335615,2021-10-25T16:23:37.341Z,336203.18,1635178671,full,ni_sequenzen,NI_Sequenzen,,,,,,,,,,,,,,
,Screen_1,canvas.Screen,0_4_4_0,,skipped,5,335624,,,335624,,335624,2021-10-25T16:23:37.350Z,336203.18,1635178671,full,ni_sequenzen,NI_Sequenzen,,,,,,,,,,,,,,
,Screen_2,canvas.Screen,0_4_4_1,,skipped,5,335630,,,335624,,335630,2021-10-25T16:23:37.357Z,336203.18,1635178671,full,ni_sequenzen,NI_Sequenzen,,,,,,,,,,,,,,
,Screen_3,canvas.Screen,0_4_4_2,,skipped,5,335638,,,335624,,335638,2021-10-25T16:23:37.363Z,336203.18,1635178671,full,ni_sequenzen,NI_Sequenzen,,,,,,,,,,,,,,
,Sequence,flow.Sequence,0_4_4,,completion,5,335619,,,335624,,335639,2021-10-25T16:23:37.365Z,336203.18,1635178671,full,ni_sequenzen,NI_Sequenzen,,,,,,,,,,,,,,
,Screen_1,canvas.Screen,0_4_5_0,,skipped,6,335648,,,335648,,335648,2021-10-25T16:23:37.373Z,336203.18,1635178671,full,ni_sequenzen,NI_Sequenzen,,,,,,,,,,,,,,
,Screen_2,canvas.Screen,0_4_5_1,,skipped,6,335655,,,335648,,335655,2021-10-25T16:23:37.381Z,336203.18,1635178671,full,ni_sequenzen,NI_Sequenzen,,,,,,,,,,,,,,
,Screen_3,canvas.Screen,0_4_5_2,,skipped,6,335661,,,335648,,335663,2021-10-25T16:23:37.388Z,336203.18,1635178671,full,ni_sequenzen,NI_Sequenzen,,,,,,,,,,,,,,
,Sequence,flow.Sequence,0_4_5,,completion,6,335642,,,335648,,335663,2021-10-25T16:23:37.389Z,336203.18,1635178671,full,ni_sequenzen,NI_Sequenzen,,,,,,,,,,,,,,
,Screen_1,canvas.Screen,0_4_6_0,,skipped,7,335672,,,335672,,335672,2021-10-25T16:23:37.398Z,336203.18,1635178671,full,ni_sequenzen,NI_Sequenzen,,,,,,,,,,,,,,
,Screen_2,canvas.Screen,0_4_6_1,,skipped,7,335679,,,335672,,335679,2021-10-25T16:23:37.405Z,336203.18,1635178671,full,ni_sequenzen,NI_Sequenzen,,,,,,,,,,,,,,
,Screen_3,canvas.Screen,0_4_6_2,,skipped,7,335685,,,335672,,335686,2021-10-25T16:23:37.412Z,336203.18,1635178671,full,ni_sequenzen,NI_Sequenzen,,,,,,,,,,,,,,
,Sequence,flow.Sequence,0_4_6,,completion,7,335665,,,335672,,335687,2021-10-25T16:23:37.413Z,336203.18,1635178671,full,ni_sequenzen,NI_Sequenzen,,,,,,,,,,,,,,
,Screen_1,canvas.Screen,0_4_7_0,,skipped,8,335694,,,335694,,335695,2021-10-25T16:23:37.420Z,336203.18,1635178671,full,ni_sequenzen,NI_Sequenzen,,,,,,,,,,,,,,
,Screen_2,canvas.Screen,0_4_7_1,,skipped,8,335700,,,335694,,335700,2021-10-25T16:23:37.426Z,336203.18,1635178671,full,ni_sequenzen,NI_Sequenzen,,,,,,,,,,,,,,
,Screen_3,canvas.Screen,0_4_7_2,,skipped,8,335705,,,335694,,335705,2021-10-25T16:23:37.432Z,336203.18,1635178671,full,ni_sequenzen,NI_Sequenzen,,,,,,,,,,,,,,
,Sequence,flow.Sequence,0_4_7,,completion,8,335689,,,335694,,335706,2021-10-25T16:23:37.432Z,336203.18,1635178671,full,ni_sequenzen,NI_Sequenzen,,,,,,,,,,,,,,
,Screen_1,canvas.Screen,0_4_8_0,,skipped,9,335713,,,335713,,335713,2021-10-25T16:23:37.439Z,336203.18,1635178671,full,ni_sequenzen,NI_Sequenzen,,,,,,,,,,,,,,
,Screen_2,canvas.Screen,0_4_8_1,,skipped,9,335719,,,335713,,335720,2021-10-25T16:23:37.446Z,336203.18,1635178671,full,ni_sequenzen,NI_Sequenzen,,,,,,,,,,,,,,
,Screen_3,canvas.Screen,0_4_8_2,,skipped,9,335728,,,335713,,335729,2021-10-25T16:23:37.455Z,336203.18,1635178671,full,ni_sequenzen,NI_Sequenzen,,,,,,,,,,,,,,
,Sequence,flow.Sequence,0_4_8,,completion,9,335709,,,335713,,335729,2021-10-25T16:23:37.456Z,336203.18,1635178671,full,ni_sequenzen,NI_Sequenzen,,,,,,,,,,,,,,
,Screen_1,canvas.Screen,0_4_9_0,,skipped,10,335741,,,335741,,335741,2021-10-25T16:23:37.467Z,336203.18,1635178671,full,ni_sequenzen,NI_Sequenzen,,,,,,,,,,,,,,
,Screen_2,canvas.Screen,0_4_9_1,,skipped,10,335748,,,335741,,335748,2021-10-25T16:23:37.474Z,336203.18,1635178671,full,ni_sequenzen,NI_Sequenzen,,,,,,,,,,,,,,
,Screen_3,canvas.Screen,0_4_9_2,,skipped,10,335754,,,335741,,335754,2021-10-25T16:23:37.481Z,336203.18,1635178671,full,ni_sequenzen,NI_Sequenzen,,,,,,,,,,,,,,
,Sequence,flow.Sequence,0_4_9,,completion,10,335734,,,335741,,335755,2021-10-25T16:23:37.481Z,336203.18,1635178671,full,ni_sequenzen,NI_Sequenzen,,,,,,,,,,,,,,
,Screen_1,canvas.Screen,0_4_10_0,,skipped,11,335763,,,335763,,335763,2021-10-25T16:23:37.489Z,336203.18,1635178671,full,ni_sequenzen,NI_Sequenzen,,,,,,,,,,,,,,
,Screen_2,canvas.Screen,0_4_10_1,,skipped,11,335769,,,335763,,335769,2021-10-25T16:23:37.495Z,336203.18,1635178671,full,ni_sequenzen,NI_Sequenzen,,,,,,,,,,,,,,
,Screen_3,canvas.Screen,0_4_10_2,,skipped,11,335775,,,335763,,335775,2021-10-25T16:23:37.501Z,336203.18,1635178671,full,ni_sequenzen,NI_Sequenzen,,,,,,,,,,,,,,
,Sequence,flow.Sequence,0_4_10,,completion,11,335757,,,335763,,335775,2021-10-25T16:23:37.502Z,336203.18,1635178671,full,ni_sequenzen,NI_Sequenzen,,,,,,,,,,,,,,
,Screen_1,canvas.Screen,0_4_11_0,,skipped,12,335783,,,335783,,335784,2021-10-25T16:23:37.509Z,336203.18,1635178671,full,ni_sequenzen,NI_Sequenzen,,,,,,,,,,,,,,
,Screen_2,canvas.Screen,0_4_11_1,,skipped,12,335788,,,335783,,335789,2021-10-25T16:23:37.515Z,336203.18,1635178671,full,ni_sequenzen,NI_Sequenzen,,,,,,,,,,,,,,
,Screen_3,canvas.Screen,0_4_11_2,,skipped,12,335793,,,335783,,335793,2021-10-25T16:23:37.519Z,336203.18,1635178671,full,ni_sequenzen,NI_Sequenzen,,,,,,,,,,,,,,
,Sequence,flow.Sequence,0_4_11,,completion,12,335778,,,335783,,335797,2021-10-25T16:23:37.522Z,336203.18,1635178671,full,ni_sequenzen,NI_Sequenzen,,,,,,,,,,,,,,
,Screen_1,canvas.Screen,0_4_12_0,,skipped,13,335805,,,335805,,335805,2021-10-25T16:23:37.531Z,336203.18,1635178671,full,ni_sequenzen,NI_Sequenzen,,,,,,,,,,,,,,
,Screen_2,canvas.Screen,0_4_12_1,,skipped,13,335810,,,335805,,335810,2021-10-25T16:23:37.536Z,336203.18,1635178671,full,ni_sequenzen,NI_Sequenzen,,,,,,,,,,,,,,
,Screen_3,canvas.Screen,0_4_12_2,,skipped,13,335818,,,335805,,335818,2021-10-25T16:23:37.543Z,336203.18,1635178671,full,ni_sequenzen,NI_Sequenzen,,,,,,,,,,,,,,
,Sequence,flow.Sequence,0_4_12,,completion,13,335800,,,335805,,335818,2021-10-25T16:23:37.544Z,336203.18,1635178671,full,ni_sequenzen,NI_Sequenzen,,,,,,,,,,,,,,
,Screen_1,canvas.Screen,0_4_13_0,,skipped,14,335827,,,335827,,335828,2021-10-25T16:23:37.553Z,336203.18,1635178671,full,ni_sequenzen,NI_Sequenzen,,,,,,,,,,,,,,
,Screen_2,canvas.Screen,0_4_13_1,,skipped,14,335832,,,335827,,335832,2021-10-25T16:23:37.559Z,336203.18,1635178671,full,ni_sequenzen,NI_Sequenzen,,,,,,,,,,,,,,
,Screen_3,canvas.Screen,0_4_13_2,,skipped,14,335839,,,335827,,335839,2021-10-25T16:23:37.565Z,336203.18,1635178671,full,ni_sequenzen,NI_Sequenzen,,,,,,,,,,,,,,
,Sequence,flow.Sequence,0_4_13,,completion,14,335823,,,335827,,335839,2021-10-25T16:23:37.566Z,336203.18,1635178671,full,ni_sequenzen,NI_Sequenzen,,,,,,,,,,,,,,
,Screen_1,canvas.Screen,0_4_14_0,,skipped,15,335845,,,335845,,335845,2021-10-25T16:23:37.571Z,336203.18,1635178671,full,ni_sequenzen,NI_Sequenzen,,,,,,,,,,,,,,
,Screen_2,canvas.Screen,0_4_14_1,,skipped,15,335852,,,335845,,335852,2021-10-25T16:23:37.578Z,336203.18,1635178671,full,ni_sequenzen,NI_Sequenzen,,,,,,,,,,,,,,
,Screen_3,canvas.Screen,0_4_14_2,,skipped,15,335858,,,335845,,335858,2021-10-25T16:23:37.583Z,336203.18,1635178671,full,ni_sequenzen,NI_Sequenzen,,,,,,,,,,,,,,
,Sequence,flow.Sequence,0_4_14,,completion,15,335841,,,335845,,335858,2021-10-25T16:23:37.584Z,336203.18,1635178671,full,ni_sequenzen,NI_Sequenzen,,,,,,,,,,,,,,
,Screen_1,canvas.Screen,0_4_15_0,,skipped,16,335864,,,335864,,335864,2021-10-25T16:23:37.590Z,336203.18,1635178671,full,ni_sequenzen,NI_Sequenzen,,,,,,,,,,,,,,
,Screen_2,canvas.Screen,0_4_15_1,,skipped,16,335869,,,335864,,335869,2021-10-25T16:23:37.596Z,336203.18,1635178671,full,ni_sequenzen,NI_Sequenzen,,,,,,,,,,,,,,
,Screen_3,canvas.Screen,0_4_15_2,,skipped,16,335875,,,335864,,335875,2021-10-25T16:23:37.601Z,336203.18,1635178671,full,ni_sequenzen,NI_Sequenzen,,,,,,,,,,,,,,
,Sequence,flow.Sequence,0_4_15,,completion,16,335860,,,335864,,335876,2021-10-25T16:23:37.602Z,336203.18,1635178671,full,ni_sequenzen,NI_Sequenzen,,,,,,,,,,,,,,
