meta,sender,sender_type,sender_id,response,ended_on,instrCount,time_run,time_render,time_show,time_end,duration,time_commit,timestamp,time_switch,openLabId,type,task,project,move,trialN,blockN_Train,blockN,moveCount,currPP,points,movesTrial,visitedFields,diff,reward,Strategie,Zweck,Probleme
[object Object],Screen_1,canvas.Screen,0_0_0_0,cont,response,1,970,972.52,1021.48,13700,12678.52,13730,2021-11-01T23:55:40.274Z,13887.06,1635810915,full,ni_sequenzen,NI_Sequenzen,,,,,,,,,,,,,,
,Screen_2,canvas.Screen,0_0_0_1,cont,response,1,13855,13855.5,13887.06,43246,29358.940000000002,43267,2021-11-01T23:56:09.811Z,43401.14,1635810915,full,ni_sequenzen,NI_Sequenzen,,,,,,,,,,,,,,
,Screen_3,canvas.Screen,0_0_0_2,cont,response,1,43375,43375.32,43401.14,63761,20359.86,63781,2021-11-01T23:56:30.325Z,63799.34,1635810915,full,ni_sequenzen,NI_Sequenzen,,,,,,,,,,,,,,
,Screen_4,canvas.Screen,0_0_0_3,cont,response,1,63794,63793.92,63799.34,70997,7197.6600000000035,71013,2021-11-01T23:56:37.556Z,71365.28,1635810915,full,ni_sequenzen,NI_Sequenzen,,,,,,,,,,,,,,
,Sequence,flow.Sequence,0_0_0,,completion,1,874,972.52,1021.48,70997,69975.52,71014,2021-11-01T23:56:37.558Z,71365.28,1635810915,full,ni_sequenzen,NI_Sequenzen,,,,,,,,,,,,,,
,Screen_1,canvas.Screen,0_0_1_0,,skipped,2,71028,,,71028,,71028,2021-11-01T23:56:37.572Z,71365.28,1635810915,full,ni_sequenzen,NI_Sequenzen,,,,,,,,,,,,,,
,Screen_2,canvas.Screen,0_0_1_1,,skipped,2,71037,,,71028,,71038,2021-11-01T23:56:37.582Z,71365.28,1635810915,full,ni_sequenzen,NI_Sequenzen,,,,,,,,,,,,,,
,Screen_3,canvas.Screen,0_0_1_2,,skipped,2,71046,,,71028,,71046,2021-11-01T23:56:37.590Z,71365.28,1635810915,full,ni_sequenzen,NI_Sequenzen,,,,,,,,,,,,,,
,Screen_4,canvas.Screen,0_0_1_3,,skipped,2,71053,,,71028,,71053,2021-11-01T23:56:37.597Z,71365.28,1635810915,full,ni_sequenzen,NI_Sequenzen,,,,,,,,,,,,,,
,Sequence,flow.Sequence,0_0_1,,completion,2,71020,,,71028,,71054,2021-11-01T23:56:37.599Z,71365.28,1635810915,full,ni_sequenzen,NI_Sequenzen,,,,,,,,,,,,,,
,Screen_1,canvas.Screen,0_0_2_0,,skipped,3,71063,,,71063,,71064,2021-11-01T23:56:37.607Z,71365.28,1635810915,full,ni_sequenzen,NI_Sequenzen,,,,,,,,,,,,,,
,Screen_2,canvas.Screen,0_0_2_1,,skipped,3,71070,,,71063,,71071,2021-11-01T23:56:37.615Z,71365.28,1635810915,full,ni_sequenzen,NI_Sequenzen,,,,,,,,,,,,,,
,Screen_3,canvas.Screen,0_0_2_2,,skipped,3,71081,,,71063,,71082,2021-11-01T23:56:37.626Z,71365.28,1635810915,full,ni_sequenzen,NI_Sequenzen,,,,,,,,,,,,,,
,Screen_4,canvas.Screen,0_0_2_3,,skipped,3,71087,,,71063,,71088,2021-11-01T23:56:37.631Z,71365.28,1635810915,full,ni_sequenzen,NI_Sequenzen,,,,,,,,,,,,,,
,Sequence,flow.Sequence,0_0_2,,completion,3,71057,,,71063,,71088,2021-11-01T23:56:37.632Z,71365.28,1635810915,full,ni_sequenzen,NI_Sequenzen,,,,,,,,,,,,,,
,Screen_1,canvas.Screen,0_0_3_0,,skipped,4,71096,,,71096,,71097,2021-11-01T23:56:37.640Z,71365.28,1635810915,full,ni_sequenzen,NI_Sequenzen,,,,,,,,,,,,,,
,Screen_2,canvas.Screen,0_0_3_1,,skipped,4,71100,,,71096,,71100,2021-11-01T23:56:37.644Z,71365.28,1635810915,full,ni_sequenzen,NI_Sequenzen,,,,,,,,,,,,,,
,Screen_3,canvas.Screen,0_0_3_2,,skipped,4,71104,,,71096,,71104,2021-11-01T23:56:37.648Z,71365.28,1635810915,full,ni_sequenzen,NI_Sequenzen,,,,,,,,,,,,,,
,Screen_4,canvas.Screen,0_0_3_3,,skipped,4,71109,,,71096,,71109,2021-11-01T23:56:37.652Z,71365.28,1635810915,full,ni_sequenzen,NI_Sequenzen,,,,,,,,,,,,,,
,Sequence,flow.Sequence,0_0_3,,completion,4,71091,,,71096,,71109,2021-11-01T23:56:37.653Z,71365.28,1635810915,full,ni_sequenzen,NI_Sequenzen,,,,,,,,,,,,,,
,Screen_1,canvas.Screen,0_0_4_0,,skipped,5,71116,,,71116,,71116,2021-11-01T23:56:37.660Z,71365.28,1635810915,full,ni_sequenzen,NI_Sequenzen,,,,,,,,,,,,,,
,Screen_2,canvas.Screen,0_0_4_1,,skipped,5,71119,,,71116,,71119,2021-11-01T23:56:37.663Z,71365.28,1635810915,full,ni_sequenzen,NI_Sequenzen,,,,,,,,,,,,,,
,Screen_3,canvas.Screen,0_0_4_2,,skipped,5,71121,,,71116,,71121,2021-11-01T23:56:37.666Z,71365.28,1635810915,full,ni_sequenzen,NI_Sequenzen,,,,,,,,,,,,,,
,Screen_4,canvas.Screen,0_0_4_3,,skipped,5,71125,,,71116,,71125,2021-11-01T23:56:37.668Z,71365.28,1635810915,full,ni_sequenzen,NI_Sequenzen,,,,,,,,,,,,,,
,Sequence,flow.Sequence,0_0_4,,completion,5,71111,,,71116,,71125,2021-11-01T23:56:37.668Z,71365.28,1635810915,full,ni_sequenzen,NI_Sequenzen,,,,,,,,,,,,,,
,Screen_1,canvas.Screen,0_0_5_0,,skipped,6,71127,,,71127,,71127,2021-11-01T23:56:37.671Z,71365.28,1635810915,full,ni_sequenzen,NI_Sequenzen,,,,,,,,,,,,,,
,Screen_2,canvas.Screen,0_0_5_1,,skipped,6,71130,,,71127,,71130,2021-11-01T23:56:37.673Z,71365.28,1635810915,full,ni_sequenzen,NI_Sequenzen,,,,,,,,,,,,,,
,Screen_3,canvas.Screen,0_0_5_2,,skipped,6,71132,,,71127,,71132,2021-11-01T23:56:37.675Z,71365.28,1635810915,full,ni_sequenzen,NI_Sequenzen,,,,,,,,,,,,,,
,Screen_4,canvas.Screen,0_0_5_3,,skipped,6,71134,,,71127,,71134,2021-11-01T23:56:37.679Z,71365.28,1635810915,full,ni_sequenzen,NI_Sequenzen,,,,,,,,,,,,,,
,Sequence,flow.Sequence,0_0_5,,completion,6,71125,,,71127,,71135,2021-11-01T23:56:37.679Z,71365.28,1635810915,full,ni_sequenzen,NI_Sequenzen,,,,,,,,,,,,,,
,Screen_1,canvas.Screen,0_0_6_0,,skipped,7,71137,,,71137,,71138,2021-11-01T23:56:37.681Z,71365.28,1635810915,full,ni_sequenzen,NI_Sequenzen,,,,,,,,,,,,,,
,Screen_2,canvas.Screen,0_0_6_1,,skipped,7,71140,,,71137,,71140,2021-11-01T23:56:37.684Z,71365.28,1635810915,full,ni_sequenzen,NI_Sequenzen,,,,,,,,,,,,,,
,Screen_3,canvas.Screen,0_0_6_2,,skipped,7,71143,,,71137,,71143,2021-11-01T23:56:37.686Z,71365.28,1635810915,full,ni_sequenzen,NI_Sequenzen,,,,,,,,,,,,,,
,Screen_4,canvas.Screen,0_0_6_3,,skipped,7,71145,,,71137,,71145,2021-11-01T23:56:37.688Z,71365.28,1635810915,full,ni_sequenzen,NI_Sequenzen,,,,,,,,,,,,,,
,Sequence,flow.Sequence,0_0_6,,completion,7,71136,,,71137,,71145,2021-11-01T23:56:37.689Z,71365.28,1635810915,full,ni_sequenzen,NI_Sequenzen,,,,,,,,,,,,,,
,Screen_1,canvas.Screen,0_0_7_0,,skipped,8,71148,,,71148,,71148,2021-11-01T23:56:37.692Z,71365.28,1635810915,full,ni_sequenzen,NI_Sequenzen,,,,,,,,,,,,,,
,Screen_2,canvas.Screen,0_0_7_1,,skipped,8,71150,,,71148,,71150,2021-11-01T23:56:37.694Z,71365.28,1635810915,full,ni_sequenzen,NI_Sequenzen,,,,,,,,,,,,,,
,Screen_3,canvas.Screen,0_0_7_2,,skipped,8,71151,,,71148,,71151,2021-11-01T23:56:37.695Z,71365.28,1635810915,full,ni_sequenzen,NI_Sequenzen,,,,,,,,,,,,,,
,Screen_4,canvas.Screen,0_0_7_3,,skipped,8,71153,,,71148,,71153,2021-11-01T23:56:37.697Z,71365.28,1635810915,full,ni_sequenzen,NI_Sequenzen,,,,,,,,,,,,,,
,Sequence,flow.Sequence,0_0_7,,completion,8,71146,,,71148,,71153,2021-11-01T23:56:37.698Z,71365.28,1635810915,full,ni_sequenzen,NI_Sequenzen,,,,,,,,,,,,,,
,Screen_1,canvas.Screen,0_0_8_0,,skipped,9,71156,,,71156,,71156,2021-11-01T23:56:37.700Z,71365.28,1635810915,full,ni_sequenzen,NI_Sequenzen,,,,,,,,,,,,,,
,Screen_2,canvas.Screen,0_0_8_1,,skipped,9,71157,,,71156,,71157,2021-11-01T23:56:37.701Z,71365.28,1635810915,full,ni_sequenzen,NI_Sequenzen,,,,,,,,,,,,,,
,Screen_3,canvas.Screen,0_0_8_2,,skipped,9,71159,,,71156,,71159,2021-11-01T23:56:37.702Z,71365.28,1635810915,full,ni_sequenzen,NI_Sequenzen,,,,,,,,,,,,,,
,Screen_4,canvas.Screen,0_0_8_3,,skipped,9,71160,,,71156,,71160,2021-11-01T23:56:37.704Z,71365.28,1635810915,full,ni_sequenzen,NI_Sequenzen,,,,,,,,,,,,,,
,Sequence,flow.Sequence,0_0_8,,completion,9,71154,,,71156,,71161,2021-11-01T23:56:37.704Z,71365.28,1635810915,full,ni_sequenzen,NI_Sequenzen,,,,,,,,,,,,,,
,Screen_1,canvas.Screen,0_0_9_0,,skipped,10,71163,,,71163,,71163,2021-11-01T23:56:37.707Z,71365.28,1635810915,full,ni_sequenzen,NI_Sequenzen,,,,,,,,,,,,,,
,Screen_2,canvas.Screen,0_0_9_1,,skipped,10,71164,,,71163,,71164,2021-11-01T23:56:37.708Z,71365.28,1635810915,full,ni_sequenzen,NI_Sequenzen,,,,,,,,,,,,,,
,Screen_3,canvas.Screen,0_0_9_2,,skipped,10,71166,,,71163,,71166,2021-11-01T23:56:37.710Z,71365.28,1635810915,full,ni_sequenzen,NI_Sequenzen,,,,,,,,,,,,,,
,Screen_4,canvas.Screen,0_0_9_3,,skipped,10,71167,,,71163,,71167,2021-11-01T23:56:37.711Z,71365.28,1635810915,full,ni_sequenzen,NI_Sequenzen,,,,,,,,,,,,,,
,Sequence,flow.Sequence,0_0_9,,completion,10,71162,,,71163,,71167,2021-11-01T23:56:37.711Z,71365.28,1635810915,full,ni_sequenzen,NI_Sequenzen,,,,,,,,,,,,,,
,Screen_1,canvas.Screen,0_0_10_0,,skipped,11,71169,,,71169,,71169,2021-11-01T23:56:37.713Z,71365.28,1635810915,full,ni_sequenzen,NI_Sequenzen,,,,,,,,,,,,,,
,Screen_2,canvas.Screen,0_0_10_1,,skipped,11,71170,,,71169,,71170,2021-11-01T23:56:37.714Z,71365.28,1635810915,full,ni_sequenzen,NI_Sequenzen,,,,,,,,,,,,,,
,Screen_3,canvas.Screen,0_0_10_2,,skipped,11,71172,,,71169,,71172,2021-11-01T23:56:37.715Z,71365.28,1635810915,full,ni_sequenzen,NI_Sequenzen,,,,,,,,,,,,,,
,Screen_4,canvas.Screen,0_0_10_3,,skipped,11,71173,,,71169,,71173,2021-11-01T23:56:37.717Z,71365.28,1635810915,full,ni_sequenzen,NI_Sequenzen,,,,,,,,,,,,,,
,Sequence,flow.Sequence,0_0_10,,completion,11,71168,,,71169,,71174,2021-11-01T23:56:37.717Z,71365.28,1635810915,full,ni_sequenzen,NI_Sequenzen,,,,,,,,,,,,,,
,Screen_1,canvas.Screen,0_0_11_0,,skipped,12,71176,,,71176,,71176,2021-11-01T23:56:37.719Z,71365.28,1635810915,full,ni_sequenzen,NI_Sequenzen,,,,,,,,,,,,,,
,Screen_2,canvas.Screen,0_0_11_1,,skipped,12,71177,,,71176,,71177,2021-11-01T23:56:37.721Z,71365.28,1635810915,full,ni_sequenzen,NI_Sequenzen,,,,,,,,,,,,,,
,Screen_3,canvas.Screen,0_0_11_2,,skipped,12,71179,,,71176,,71179,2021-11-01T23:56:37.723Z,71365.28,1635810915,full,ni_sequenzen,NI_Sequenzen,,,,,,,,,,,,,,
,Screen_4,canvas.Screen,0_0_11_3,,skipped,12,71180,,,71176,,71180,2021-11-01T23:56:37.724Z,71365.28,1635810915,full,ni_sequenzen,NI_Sequenzen,,,,,,,,,,,,,,
,Sequence,flow.Sequence,0_0_11,,completion,12,71174,,,71176,,71180,2021-11-01T23:56:37.725Z,71365.28,1635810915,full,ni_sequenzen,NI_Sequenzen,,,,,,,,,,,,,,
,Screen_1,canvas.Screen,0_0_12_0,,skipped,13,71182,,,71182,,71182,2021-11-01T23:56:37.726Z,71365.28,1635810915,full,ni_sequenzen,NI_Sequenzen,,,,,,,,,,,,,,
,Screen_2,canvas.Screen,0_0_12_1,,skipped,13,71183,,,71182,,71183,2021-11-01T23:56:37.728Z,71365.28,1635810915,full,ni_sequenzen,NI_Sequenzen,,,,,,,,,,,,,,
,Screen_3,canvas.Screen,0_0_12_2,,skipped,13,71186,,,71182,,71186,2021-11-01T23:56:37.729Z,71365.28,1635810915,full,ni_sequenzen,NI_Sequenzen,,,,,,,,,,,,,,
,Screen_4,canvas.Screen,0_0_12_3,,skipped,13,71186,,,71182,,71186,2021-11-01T23:56:37.730Z,71365.28,1635810915,full,ni_sequenzen,NI_Sequenzen,,,,,,,,,,,,,,
,Sequence,flow.Sequence,0_0_12,,completion,13,71181,,,71182,,71186,2021-11-01T23:56:37.731Z,71365.28,1635810915,full,ni_sequenzen,NI_Sequenzen,,,,,,,,,,,,,,
,Screen_1,canvas.Screen,0_0_13_0,,skipped,14,71188,,,71188,,71188,2021-11-01T23:56:37.733Z,71365.28,1635810915,full,ni_sequenzen,NI_Sequenzen,,,,,,,,,,,,,,
,Screen_2,canvas.Screen,0_0_13_1,,skipped,14,71191,,,71188,,71191,2021-11-01T23:56:37.734Z,71365.28,1635810915,full,ni_sequenzen,NI_Sequenzen,,,,,,,,,,,,,,
,Screen_3,canvas.Screen,0_0_13_2,,skipped,14,71193,,,71188,,71193,2021-11-01T23:56:37.736Z,71365.28,1635810915,full,ni_sequenzen,NI_Sequenzen,,,,,,,,,,,,,,
,Screen_4,canvas.Screen,0_0_13_3,,skipped,14,71194,,,71188,,71194,2021-11-01T23:56:37.738Z,71365.28,1635810915,full,ni_sequenzen,NI_Sequenzen,,,,,,,,,,,,,,
,Sequence,flow.Sequence,0_0_13,,completion,14,71187,,,71188,,71194,2021-11-01T23:56:37.738Z,71365.28,1635810915,full,ni_sequenzen,NI_Sequenzen,,,,,,,,,,,,,,
,Screen_1,canvas.Screen,0_0_14_0,,skipped,15,71196,,,71196,,71196,2021-11-01T23:56:37.740Z,71365.28,1635810915,full,ni_sequenzen,NI_Sequenzen,,,,,,,,,,,,,,
,Screen_2,canvas.Screen,0_0_14_1,,skipped,15,71197,,,71196,,71197,2021-11-01T23:56:37.741Z,71365.28,1635810915,full,ni_sequenzen,NI_Sequenzen,,,,,,,,,,,,,,
,Screen_3,canvas.Screen,0_0_14_2,,skipped,15,71199,,,71196,,71199,2021-11-01T23:56:37.743Z,71365.28,1635810915,full,ni_sequenzen,NI_Sequenzen,,,,,,,,,,,,,,
,Screen_4,canvas.Screen,0_0_14_3,,skipped,15,71200,,,71196,,71201,2021-11-01T23:56:37.744Z,71365.28,1635810915,full,ni_sequenzen,NI_Sequenzen,,,,,,,,,,,,,,
,Sequence,flow.Sequence,0_0_14,,completion,15,71195,,,71196,,71201,2021-11-01T23:56:37.744Z,71365.28,1635810915,full,ni_sequenzen,NI_Sequenzen,,,,,,,,,,,,,,
,Screen_1,canvas.Screen,0_0_15_0,,skipped,16,71202,,,71202,,71202,2021-11-01T23:56:37.746Z,71365.28,1635810915,full,ni_sequenzen,NI_Sequenzen,,,,,,,,,,,,,,
,Screen_2,canvas.Screen,0_0_15_1,,skipped,16,71203,,,71202,,71203,2021-11-01T23:56:37.747Z,71365.28,1635810915,full,ni_sequenzen,NI_Sequenzen,,,,,,,,,,,,,,
,Screen_3,canvas.Screen,0_0_15_2,,skipped,16,71205,,,71202,,71205,2021-11-01T23:56:37.748Z,71365.28,1635810915,full,ni_sequenzen,NI_Sequenzen,,,,,,,,,,,,,,
,Screen_4,canvas.Screen,0_0_15_3,,skipped,16,71206,,,71202,,71206,2021-11-01T23:56:37.751Z,71365.28,1635810915,full,ni_sequenzen,NI_Sequenzen,,,,,,,,,,,,,,
,Sequence,flow.Sequence,0_0_15,,completion,16,71201,,,71202,,71207,2021-11-01T23:56:37.751Z,71365.28,1635810915,full,ni_sequenzen,NI_Sequenzen,,,,,,,,,,,,,,
,Screen_1,canvas.Screen,0_0_16_0,,skipped,17,71209,,,71209,,71209,2021-11-01T23:56:37.753Z,71365.28,1635810915,full,ni_sequenzen,NI_Sequenzen,,,,,,,,,,,,,,
,Screen_2,canvas.Screen,0_0_16_1,,skipped,17,71210,,,71209,,71210,2021-11-01T23:56:37.754Z,71365.28,1635810915,full,ni_sequenzen,NI_Sequenzen,,,,,,,,,,,,,,
,Screen_3,canvas.Screen,0_0_16_2,,skipped,17,71212,,,71209,,71212,2021-11-01T23:56:37.755Z,71365.28,1635810915,full,ni_sequenzen,NI_Sequenzen,,,,,,,,,,,,,,
,Screen_4,canvas.Screen,0_0_16_3,,skipped,17,71213,,,71209,,71213,2021-11-01T23:56:37.757Z,71365.28,1635810915,full,ni_sequenzen,NI_Sequenzen,,,,,,,,,,,,,,
,Sequence,flow.Sequence,0_0_16,,completion,17,71208,,,71209,,71213,2021-11-01T23:56:37.757Z,71365.28,1635810915,full,ni_sequenzen,NI_Sequenzen,,,,,,,,,,,,,,
,Screen_1,canvas.Screen,0_0_17_0,,skipped,18,71214,,,71214,,71214,2021-11-01T23:56:37.759Z,71365.28,1635810915,full,ni_sequenzen,NI_Sequenzen,,,,,,,,,,,,,,
,Screen_2,canvas.Screen,0_0_17_1,,skipped,18,71216,,,71214,,71216,2021-11-01T23:56:37.760Z,71365.28,1635810915,full,ni_sequenzen,NI_Sequenzen,,,,,,,,,,,,,,
,Screen_3,canvas.Screen,0_0_17_2,,skipped,18,71217,,,71214,,71217,2021-11-01T23:56:37.761Z,71365.28,1635810915,full,ni_sequenzen,NI_Sequenzen,,,,,,,,,,,,,,
,Screen_4,canvas.Screen,0_0_17_3,,skipped,18,71219,,,71214,,71220,2021-11-01T23:56:37.763Z,71365.28,1635810915,full,ni_sequenzen,NI_Sequenzen,,,,,,,,,,,,,,
,Sequence,flow.Sequence,0_0_17,,completion,18,71214,,,71214,,71220,2021-11-01T23:56:37.763Z,71365.28,1635810915,full,ni_sequenzen,NI_Sequenzen,,,,,,,,,,,,,,
,Screen_1,canvas.Screen,0_0_18_0,,skipped,19,71220,,,71220,,71220,2021-11-01T23:56:37.764Z,71365.28,1635810915,full,ni_sequenzen,NI_Sequenzen,,,,,,,,,,,,,,
,Screen_2,canvas.Screen,0_0_18_1,,skipped,19,71221,,,71220,,71221,2021-11-01T23:56:37.766Z,71365.28,1635810915,full,ni_sequenzen,NI_Sequenzen,,,,,,,,,,,,,,
,Screen_3,canvas.Screen,0_0_18_2,,skipped,19,71224,,,71220,,71224,2021-11-01T23:56:37.767Z,71365.28,1635810915,full,ni_sequenzen,NI_Sequenzen,,,,,,,,,,,,,,
,Screen_4,canvas.Screen,0_0_18_3,,skipped,19,71225,,,71220,,71225,2021-11-01T23:56:37.769Z,71365.28,1635810915,full,ni_sequenzen,NI_Sequenzen,,,,,,,,,,,,,,
,Sequence,flow.Sequence,0_0_18,,completion,19,71220,,,71220,,71225,2021-11-01T23:56:37.769Z,71365.28,1635810915,full,ni_sequenzen,NI_Sequenzen,,,,,,,,,,,,,,
,Screen_1,canvas.Screen,0_0_19_0,,skipped,20,71227,,,71227,,71227,2021-11-01T23:56:37.771Z,71365.28,1635810915,full,ni_sequenzen,NI_Sequenzen,,,,,,,,,,,,,,
,Screen_2,canvas.Screen,0_0_19_1,,skipped,20,71228,,,71227,,71228,2021-11-01T23:56:37.772Z,71365.28,1635810915,full,ni_sequenzen,NI_Sequenzen,,,,,,,,,,,,,,
,Screen_3,canvas.Screen,0_0_19_2,,skipped,20,71229,,,71227,,71230,2021-11-01T23:56:37.773Z,71365.28,1635810915,full,ni_sequenzen,NI_Sequenzen,,,,,,,,,,,,,,
,Screen_4,canvas.Screen,0_0_19_3,,skipped,20,71230,,,71227,,71230,2021-11-01T23:56:37.774Z,71365.28,1635810915,full,ni_sequenzen,NI_Sequenzen,,,,,,,,,,,,,,
,Sequence,flow.Sequence,0_0_19,,completion,20,71226,,,71227,,71231,2021-11-01T23:56:37.775Z,71365.28,1635810915,full,ni_sequenzen,NI_Sequenzen,,,,,,,,,,,,,,
,Instructions_I,flow.Loop,0_0,,completion,,871,972.52,1021.48,71227,70205.52,71231,2021-11-01T23:56:37.775Z,71365.28,1635810915,full,ni_sequenzen,NI_Sequenzen,,,,,,,,,,,,,,
,Move,canvas.Screen,0_1_0_0,left,response,,71323,71323.4,71365.28,73058,1692.7200000000012,73072,2021-11-01T23:56:39.616Z,73098.46,1635810915,full,ni_sequenzen,NI_Sequenzen,1,,,,,,,,,,,,,
,Move,canvas.Screen,0_1_0_1,down,response,,73088,73087.4,73098.46,74699,1600.5399999999936,74721,2021-11-01T23:56:41.265Z,74748.32,1635810915,full,ni_sequenzen,NI_Sequenzen,2,,,,,,,,,,,,,
,Move,canvas.Screen,0_1_0_2,right,response,,74738,74738.66,74748.32,75402,653.679999999993,75421,2021-11-01T23:56:41.966Z,75448.32,1635810915,full,ni_sequenzen,NI_Sequenzen,3,,,,,,,,,,,,,
,Move,canvas.Screen,0_1_0_3,down,response,,75438,75437.8,75448.32,75981,532.679999999993,75999,2021-11-01T23:56:42.542Z,76014.88,1635810915,full,ni_sequenzen,NI_Sequenzen,4,,,,,,,,,,,,,
,Move,canvas.Screen,0_1_0_4,left,response,,76009,76009.34,76014.88,76450,435.11999999999534,76474,2021-11-01T23:56:43.017Z,76498.22,1635810915,full,ni_sequenzen,NI_Sequenzen,5,,,,,,,,,,,,,
,Move,canvas.Screen,0_1_0_5,down,response,,76490,76490.46,76498.22,76949,450.77999999999884,76975,2021-11-01T23:56:43.519Z,76998.14,1635810915,full,ni_sequenzen,NI_Sequenzen,6,,,,,,,,,,,,,
,Move,canvas.Screen,0_1_0_6,down,response,,76988,76988.32,76998.14,77308,309.8600000000006,77316,2021-11-01T23:56:43.860Z,77331.46,1635810915,full,ni_sequenzen,NI_Sequenzen,7,,,,,,,,,,,,,
,Move,canvas.Screen,0_1_0_7,right,response,,77329,77329.22,77331.46,77808,476.5399999999936,77827,2021-11-01T23:56:44.371Z,77848.08,1635810915,full,ni_sequenzen,NI_Sequenzen,8,,,,,,,,,,,,,
,Move,canvas.Screen,0_1_0_8,right,response,,77844,77844.62,77848.08,78169,320.91999999999825,78191,2021-11-01T23:56:44.734Z,78214.74,1635810915,full,ni_sequenzen,NI_Sequenzen,9,,,,,,,,,,,,,
,Move,canvas.Screen,0_1_0_9,right,response,,78208,78208.4,78214.74,78683,468.25999999999476,78706,2021-11-01T23:56:45.249Z,78731.34,1635810915,full,ni_sequenzen,NI_Sequenzen,10,,,,,,,,,,,,,
,Move,canvas.Screen,0_1_0_10,down,response,,78721,78721,78731.34,79325,593.6600000000035,79342,2021-11-01T23:56:45.886Z,79364.64,1635810915,full,ni_sequenzen,NI_Sequenzen,11,,,,,,,,,,,,,
,Move,canvas.Screen,0_1_0_11,down,response,,79354,79354.88,79364.64,79558,193.36000000000058,79588,2021-11-01T23:56:46.132Z,79614.56,1635810915,full,ni_sequenzen,NI_Sequenzen,12,,,,,,,,,,,,,
,Move,canvas.Screen,0_1_0_12,left,response,,79601,79600.82,79614.56,79903,288.4400000000023,79910,2021-11-01T23:56:46.454Z,79931.24,1635810915,full,ni_sequenzen,NI_Sequenzen,13,,,,,,,,,,,,,
,Move,canvas.Screen,0_1_0_13,left,response,,79925,79925.18,79931.24,80355,423.75999999999476,80367,2021-11-01T23:56:46.910Z,80381.22,1635810915,full,ni_sequenzen,NI_Sequenzen,14,,,,,,,,,,,,,
,Move,canvas.Screen,0_1_0_14,down,response,,80378,80378.72,80381.22,81777,1395.7799999999988,81789,2021-11-01T23:56:48.333Z,81814.42,1635810915,full,ni_sequenzen,NI_Sequenzen,15,,,,,,,,,,,,,
,Move,canvas.Screen,0_1_0_15,down,response,,81803,81802.16,81814.42,81980,165.58000000000175,82002,2021-11-01T23:56:48.546Z,82031.06,1635810915,full,ni_sequenzen,NI_Sequenzen,16,,,,,,,,,,,,,
,Move,canvas.Screen,0_1_0_16,right,response,,82016,82016.52,82031.06,82714,682.9400000000023,82730,2021-11-01T23:56:49.275Z,82747.62,1635810915,full,ni_sequenzen,NI_Sequenzen,17,,,,,,,,,,,,,
,Move,canvas.Screen,0_1_0_17,right,response,,82746,82746.72,82747.62,83089,341.38000000000466,83113,2021-11-01T23:56:49.657Z,83130.94,1635810915,full,ni_sequenzen,NI_Sequenzen,18,,,,,,,,,,,,,
,Move,canvas.Screen,0_1_0_18,down,response,,83131,83130.44,83130.94,83527,396.0599999999977,83535,2021-11-01T23:56:50.079Z,83564.24,1635810915,full,ni_sequenzen,NI_Sequenzen,19,,,,,,,,,,,,,
,Move,canvas.Screen,0_1_0_19,down,response,,83551,83551.3,83564.24,83746,181.75999999999476,83756,2021-11-01T23:56:50.300Z,83780.88,1635810915,full,ni_sequenzen,NI_Sequenzen,20,,,,,,,,,,,,,
,Move,canvas.Screen,0_1_0_20,down,response,,83772,83771.88,83780.88,83919,138.11999999999534,83936,2021-11-01T23:56:50.480Z,83964.22,1635810915,full,ni_sequenzen,NI_Sequenzen,21,,,,,,,,,,,,,
,Move,canvas.Screen,0_1_0_21,left,response,,83950,83949.86,83964.22,84433,468.77999999999884,84445,2021-11-01T23:56:50.988Z,84464.12,1635810915,full,ni_sequenzen,NI_Sequenzen,22,,,,,,,,,,,,,
,Move,canvas.Screen,0_1_0_22,left,response,,84457,84457.38,84464.12,84762,297.88000000000466,84780,2021-11-01T23:56:51.324Z,84797.44,1635810915,full,ni_sequenzen,NI_Sequenzen,23,,,,,,,,,,,,,
,Move,canvas.Screen,0_1_0_23,down,response,,84791,84791.82,84797.44,85527,729.5599999999977,85559,2021-11-01T23:56:52.104Z,85580.78,1635810915,full,ni_sequenzen,NI_Sequenzen,24,,,,,,,,,,,,,
,Move,canvas.Screen,0_1_0_24,left,response,,85571,85571.36,85580.78,86044,463.22000000000116,86057,2021-11-01T23:56:52.601Z,86080.7,1635810915,full,ni_sequenzen,NI_Sequenzen,25,,,,,,,,,,,,,
,Move,canvas.Screen,0_1_0_25,right,response,,86069,86069.6,86080.7,89043,2962.300000000003,89067,2021-11-01T23:56:55.611Z,89097.08,1635810915,full,ni_sequenzen,NI_Sequenzen,26,,,,,,,,,,,,,
,Move,canvas.Screen,0_1_0_26,down,response,,89085,89085.06,89097.08,89418,320.91999999999825,89432,2021-11-01T23:56:55.976Z,89447.06,1635810915,full,ni_sequenzen,NI_Sequenzen,27,,,,,,,,,,,,,
,Move,canvas.Screen,0_1_0_27,right,response,,89446,89445.98,89447.06,89714,266.9400000000023,89728,2021-11-01T23:56:56.272Z,89747.02,1635810915,full,ni_sequenzen,NI_Sequenzen,28,,,,,,,,,,,,,
,Move,canvas.Screen,0_1_0_28,down,response,,89742,89741.82,89747.02,91105,1357.979999999996,91124,2021-11-01T23:56:57.668Z,91146.9,1635810915,full,ni_sequenzen,NI_Sequenzen,29,,,,,,,,,,,,,
,Move,canvas.Screen,0_1_0_29,down,response,,91136,91135.3,91146.9,91355,208.10000000000582,91359,2021-11-01T23:56:57.904Z,91463.5,1635810915,full,ni_sequenzen,NI_Sequenzen,30,,,,,,,,,,,,,
,Loop,flow.Loop,0_1_0,-999,completion,,71245,71323.4,71365.28,91355,19989.72,91360,2021-11-01T23:56:57.905Z,91463.5,1635810915,full,ni_sequenzen,NI_Sequenzen,,,,,,,,,,,,,,
,Training_I,flow.Sequence,0_1,,completion,,71232,71323.4,71365.28,91355,19989.72,91361,2021-11-01T23:56:57.905Z,91463.5,1635810915,full,ni_sequenzen,NI_Sequenzen,,,,,,,,,,,,,,
,Screen_1,canvas.Screen,0_2_0_0,cont,response,1,91449,91449.06,91463.5,109121,17657.5,109132,2021-11-01T23:57:15.676Z,109278.64,1635810915,full,ni_sequenzen,NI_Sequenzen,,,,,,,,,,,,,,
,Screen_2,canvas.Screen,0_2_0_1,cont,response,1,109260,109260.16,109278.64,123886,14607.36,123908,2021-11-01T23:57:30.452Z,123927.34,1635810915,full,ni_sequenzen,NI_Sequenzen,,,,,,,,,,,,,,
,Screen_3,canvas.Screen,0_2_0_2,cont,response,1,123915,123915.4,123927.34,137544,13616.660000000003,137564,2021-11-01T23:57:44.108Z,137692.8,1635810915,full,ni_sequenzen,NI_Sequenzen,,,,,,,,,,,,,,
,Screen_4,canvas.Screen,0_2_0_3,cont,response,1,137676,137676.82,137692.8,149136,11443.200000000012,149146,2021-11-01T23:57:55.689Z,149158.46,1635810915,full,ni_sequenzen,NI_Sequenzen,,,,,,,,,,,,,,
,Screen_5,canvas.Screen,0_2_0_4,cont,response,1,149157,149156.8,149158.46,167105,17946.540000000008,167136,2021-11-01T23:58:13.680Z,167256.84,1635810915,full,ni_sequenzen,NI_Sequenzen,,,,,,,,,,,,,,
,Screen_6,canvas.Screen,0_2_0_5,cont,response,1,167237,167236.92,167256.84,172746,5489.1600000000035,172761,2021-11-01T23:58:19.305Z,173156.26,1635810915,full,ni_sequenzen,NI_Sequenzen,,,,,,,,,,,,,,
,Sequence,flow.Sequence,0_2_0,,completion,1,91447,91449.06,91463.5,172746,81282.5,172763,2021-11-01T23:58:19.307Z,173156.26,1635810915,full,ni_sequenzen,NI_Sequenzen,,,,,,,,,,,,,,
,Screen_1,canvas.Screen,0_2_1_0,,skipped,2,172774,,,172774,,172775,2021-11-01T23:58:19.319Z,173156.26,1635810915,full,ni_sequenzen,NI_Sequenzen,,,,,,,,,,,,,,
,Screen_2,canvas.Screen,0_2_1_1,,skipped,2,172781,,,172774,,172782,2021-11-01T23:58:19.326Z,173156.26,1635810915,full,ni_sequenzen,NI_Sequenzen,,,,,,,,,,,,,,
,Screen_3,canvas.Screen,0_2_1_2,,skipped,2,172791,,,172774,,172792,2021-11-01T23:58:19.335Z,173156.26,1635810915,full,ni_sequenzen,NI_Sequenzen,,,,,,,,,,,,,,
,Screen_4,canvas.Screen,0_2_1_3,,skipped,2,172800,,,172774,,172800,2021-11-01T23:58:19.345Z,173156.26,1635810915,full,ni_sequenzen,NI_Sequenzen,,,,,,,,,,,,,,
,Screen_5,canvas.Screen,0_2_1_4,,skipped,2,172811,,,172774,,172811,2021-11-01T23:58:19.356Z,173156.26,1635810915,full,ni_sequenzen,NI_Sequenzen,,,,,,,,,,,,,,
,Screen_6,canvas.Screen,0_2_1_5,,skipped,2,172819,,,172774,,172820,2021-11-01T23:58:19.365Z,173156.26,1635810915,full,ni_sequenzen,NI_Sequenzen,,,,,,,,,,,,,,
,Sequence,flow.Sequence,0_2_1,,completion,2,172767,,,172774,,172821,2021-11-01T23:58:19.365Z,173156.26,1635810915,full,ni_sequenzen,NI_Sequenzen,,,,,,,,,,,,,,
,Screen_1,canvas.Screen,0_2_2_0,,skipped,3,172827,,,172827,,172827,2021-11-01T23:58:19.372Z,173156.26,1635810915,full,ni_sequenzen,NI_Sequenzen,,,,,,,,,,,,,,
,Screen_2,canvas.Screen,0_2_2_1,,skipped,3,172833,,,172827,,172833,2021-11-01T23:58:19.376Z,173156.26,1635810915,full,ni_sequenzen,NI_Sequenzen,,,,,,,,,,,,,,
,Screen_3,canvas.Screen,0_2_2_2,,skipped,3,172837,,,172827,,172837,2021-11-01T23:58:19.381Z,173156.26,1635810915,full,ni_sequenzen,NI_Sequenzen,,,,,,,,,,,,,,
,Screen_4,canvas.Screen,0_2_2_3,,skipped,3,172841,,,172827,,172841,2021-11-01T23:58:19.385Z,173156.26,1635810915,full,ni_sequenzen,NI_Sequenzen,,,,,,,,,,,,,,
,Screen_5,canvas.Screen,0_2_2_4,,skipped,3,172844,,,172827,,172844,2021-11-01T23:58:19.389Z,173156.26,1635810915,full,ni_sequenzen,NI_Sequenzen,,,,,,,,,,,,,,
,Screen_6,canvas.Screen,0_2_2_5,,skipped,3,172848,,,172827,,172848,2021-11-01T23:58:19.392Z,173156.26,1635810915,full,ni_sequenzen,NI_Sequenzen,,,,,,,,,,,,,,
,Sequence,flow.Sequence,0_2_2,,completion,3,172823,,,172827,,172849,2021-11-01T23:58:19.393Z,173156.26,1635810915,full,ni_sequenzen,NI_Sequenzen,,,,,,,,,,,,,,
,Screen_1,canvas.Screen,0_2_3_0,,skipped,4,172853,,,172853,,172853,2021-11-01T23:58:19.397Z,173156.26,1635810915,full,ni_sequenzen,NI_Sequenzen,,,,,,,,,,,,,,
,Screen_2,canvas.Screen,0_2_3_1,,skipped,4,172857,,,172853,,172857,2021-11-01T23:58:19.401Z,173156.26,1635810915,full,ni_sequenzen,NI_Sequenzen,,,,,,,,,,,,,,
,Screen_3,canvas.Screen,0_2_3_2,,skipped,4,172860,,,172853,,172860,2021-11-01T23:58:19.405Z,173156.26,1635810915,full,ni_sequenzen,NI_Sequenzen,,,,,,,,,,,,,,
,Screen_4,canvas.Screen,0_2_3_3,,skipped,4,172863,,,172853,,172864,2021-11-01T23:58:19.407Z,173156.26,1635810915,full,ni_sequenzen,NI_Sequenzen,,,,,,,,,,,,,,
,Screen_5,canvas.Screen,0_2_3_4,,skipped,4,172867,,,172853,,172867,2021-11-01T23:58:19.411Z,173156.26,1635810915,full,ni_sequenzen,NI_Sequenzen,,,,,,,,,,,,,,
,Screen_6,canvas.Screen,0_2_3_5,,skipped,4,172870,,,172853,,172870,2021-11-01T23:58:19.414Z,173156.26,1635810915,full,ni_sequenzen,NI_Sequenzen,,,,,,,,,,,,,,
,Sequence,flow.Sequence,0_2_3,,completion,4,172850,,,172853,,172871,2021-11-01T23:58:19.414Z,173156.26,1635810915,full,ni_sequenzen,NI_Sequenzen,,,,,,,,,,,,,,
,Screen_1,canvas.Screen,0_2_4_0,,skipped,5,172876,,,172876,,172876,2021-11-01T23:58:19.420Z,173156.26,1635810915,full,ni_sequenzen,NI_Sequenzen,,,,,,,,,,,,,,
,Screen_2,canvas.Screen,0_2_4_1,,skipped,5,172879,,,172876,,172879,2021-11-01T23:58:19.423Z,173156.26,1635810915,full,ni_sequenzen,NI_Sequenzen,,,,,,,,,,,,,,
,Screen_3,canvas.Screen,0_2_4_2,,skipped,5,172882,,,172876,,172882,2021-11-01T23:58:19.426Z,173156.26,1635810915,full,ni_sequenzen,NI_Sequenzen,,,,,,,,,,,,,,
,Screen_4,canvas.Screen,0_2_4_3,,skipped,5,172885,,,172876,,172885,2021-11-01T23:58:19.429Z,173156.26,1635810915,full,ni_sequenzen,NI_Sequenzen,,,,,,,,,,,,,,
,Screen_5,canvas.Screen,0_2_4_4,,skipped,5,172889,,,172876,,172889,2021-11-01T23:58:19.433Z,173156.26,1635810915,full,ni_sequenzen,NI_Sequenzen,,,,,,,,,,,,,,
,Screen_6,canvas.Screen,0_2_4_5,,skipped,5,172891,,,172876,,172891,2021-11-01T23:58:19.435Z,173156.26,1635810915,full,ni_sequenzen,NI_Sequenzen,,,,,,,,,,,,,,
,Sequence,flow.Sequence,0_2_4,,completion,5,172873,,,172876,,172891,2021-11-01T23:58:19.435Z,173156.26,1635810915,full,ni_sequenzen,NI_Sequenzen,,,,,,,,,,,,,,
,Screen_1,canvas.Screen,0_2_5_0,,skipped,6,172895,,,172895,,172895,2021-11-01T23:58:19.438Z,173156.26,1635810915,full,ni_sequenzen,NI_Sequenzen,,,,,,,,,,,,,,
,Screen_2,canvas.Screen,0_2_5_1,,skipped,6,172896,,,172895,,172896,2021-11-01T23:58:19.441Z,173156.26,1635810915,full,ni_sequenzen,NI_Sequenzen,,,,,,,,,,,,,,
,Screen_3,canvas.Screen,0_2_5_2,,skipped,6,172899,,,172895,,172899,2021-11-01T23:58:19.442Z,173156.26,1635810915,full,ni_sequenzen,NI_Sequenzen,,,,,,,,,,,,,,
,Screen_4,canvas.Screen,0_2_5_3,,skipped,6,172901,,,172895,,172901,2021-11-01T23:58:19.445Z,173156.26,1635810915,full,ni_sequenzen,NI_Sequenzen,,,,,,,,,,,,,,
,Screen_5,canvas.Screen,0_2_5_4,,skipped,6,172903,,,172895,,172903,2021-11-01T23:58:19.447Z,173156.26,1635810915,full,ni_sequenzen,NI_Sequenzen,,,,,,,,,,,,,,
,Screen_6,canvas.Screen,0_2_5_5,,skipped,6,172905,,,172895,,172905,2021-11-01T23:58:19.448Z,173156.26,1635810915,full,ni_sequenzen,NI_Sequenzen,,,,,,,,,,,,,,
,Sequence,flow.Sequence,0_2_5,,completion,6,172892,,,172895,,172905,2021-11-01T23:58:19.449Z,173156.26,1635810915,full,ni_sequenzen,NI_Sequenzen,,,,,,,,,,,,,,
,Screen_1,canvas.Screen,0_2_6_0,,skipped,7,172907,,,172907,,172907,2021-11-01T23:58:19.450Z,173156.26,1635810915,full,ni_sequenzen,NI_Sequenzen,,,,,,,,,,,,,,
,Screen_2,canvas.Screen,0_2_6_1,,skipped,7,172909,,,172907,,172909,2021-11-01T23:58:19.453Z,173156.26,1635810915,full,ni_sequenzen,NI_Sequenzen,,,,,,,,,,,,,,
,Screen_3,canvas.Screen,0_2_6_2,,skipped,7,172910,,,172907,,172910,2021-11-01T23:58:19.454Z,173156.26,1635810915,full,ni_sequenzen,NI_Sequenzen,,,,,,,,,,,,,,
,Screen_4,canvas.Screen,0_2_6_3,,skipped,7,172911,,,172907,,172911,2021-11-01T23:58:19.455Z,173156.26,1635810915,full,ni_sequenzen,NI_Sequenzen,,,,,,,,,,,,,,
,Screen_5,canvas.Screen,0_2_6_4,,skipped,7,172913,,,172907,,172913,2021-11-01T23:58:19.456Z,173156.26,1635810915,full,ni_sequenzen,NI_Sequenzen,,,,,,,,,,,,,,
,Screen_6,canvas.Screen,0_2_6_5,,skipped,7,172914,,,172907,,172914,2021-11-01T23:58:19.457Z,173156.26,1635810915,full,ni_sequenzen,NI_Sequenzen,,,,,,,,,,,,,,
,Sequence,flow.Sequence,0_2_6,,completion,7,172905,,,172907,,172914,2021-11-01T23:58:19.457Z,173156.26,1635810915,full,ni_sequenzen,NI_Sequenzen,,,,,,,,,,,,,,
,Screen_1,canvas.Screen,0_2_7_0,,skipped,8,172915,,,172915,,172915,2021-11-01T23:58:19.460Z,173156.26,1635810915,full,ni_sequenzen,NI_Sequenzen,,,,,,,,,,,,,,
,Screen_2,canvas.Screen,0_2_7_1,,skipped,8,172917,,,172915,,172917,2021-11-01T23:58:19.461Z,173156.26,1635810915,full,ni_sequenzen,NI_Sequenzen,,,,,,,,,,,,,,
,Screen_3,canvas.Screen,0_2_7_2,,skipped,8,172919,,,172915,,172919,2021-11-01T23:58:19.463Z,173156.26,1635810915,full,ni_sequenzen,NI_Sequenzen,,,,,,,,,,,,,,
,Screen_4,canvas.Screen,0_2_7_3,,skipped,8,172920,,,172915,,172920,2021-11-01T23:58:19.464Z,173156.26,1635810915,full,ni_sequenzen,NI_Sequenzen,,,,,,,,,,,,,,
,Screen_5,canvas.Screen,0_2_7_4,,skipped,8,172921,,,172915,,172921,2021-11-01T23:58:19.465Z,173156.26,1635810915,full,ni_sequenzen,NI_Sequenzen,,,,,,,,,,,,,,
,Screen_6,canvas.Screen,0_2_7_5,,skipped,8,172922,,,172915,,172922,2021-11-01T23:58:19.466Z,173156.26,1635810915,full,ni_sequenzen,NI_Sequenzen,,,,,,,,,,,,,,
,Sequence,flow.Sequence,0_2_7,,completion,8,172914,,,172915,,172922,2021-11-01T23:58:19.467Z,173156.26,1635810915,full,ni_sequenzen,NI_Sequenzen,,,,,,,,,,,,,,
,Screen_1,canvas.Screen,0_2_8_0,,skipped,9,172926,,,172926,,172926,2021-11-01T23:58:19.469Z,173156.26,1635810915,full,ni_sequenzen,NI_Sequenzen,,,,,,,,,,,,,,
,Screen_2,canvas.Screen,0_2_8_1,,skipped,9,172927,,,172926,,172927,2021-11-01T23:58:19.470Z,173156.26,1635810915,full,ni_sequenzen,NI_Sequenzen,,,,,,,,,,,,,,
,Screen_3,canvas.Screen,0_2_8_2,,skipped,9,172928,,,172926,,172928,2021-11-01T23:58:19.471Z,173156.26,1635810915,full,ni_sequenzen,NI_Sequenzen,,,,,,,,,,,,,,
,Screen_4,canvas.Screen,0_2_8_3,,skipped,9,172929,,,172926,,172929,2021-11-01T23:58:19.473Z,173156.26,1635810915,full,ni_sequenzen,NI_Sequenzen,,,,,,,,,,,,,,
,Screen_5,canvas.Screen,0_2_8_4,,skipped,9,172931,,,172926,,172931,2021-11-01T23:58:19.474Z,173156.26,1635810915,full,ni_sequenzen,NI_Sequenzen,,,,,,,,,,,,,,
,Screen_6,canvas.Screen,0_2_8_5,,skipped,9,172932,,,172926,,172932,2021-11-01T23:58:19.476Z,173156.26,1635810915,full,ni_sequenzen,NI_Sequenzen,,,,,,,,,,,,,,
,Sequence,flow.Sequence,0_2_8,,completion,9,172924,,,172926,,172933,2021-11-01T23:58:19.476Z,173156.26,1635810915,full,ni_sequenzen,NI_Sequenzen,,,,,,,,,,,,,,
,Screen_1,canvas.Screen,0_2_9_0,,skipped,10,172934,,,172934,,172934,2021-11-01T23:58:19.478Z,173156.26,1635810915,full,ni_sequenzen,NI_Sequenzen,,,,,,,,,,,,,,
,Screen_2,canvas.Screen,0_2_9_1,,skipped,10,172936,,,172934,,172936,2021-11-01T23:58:19.479Z,173156.26,1635810915,full,ni_sequenzen,NI_Sequenzen,,,,,,,,,,,,,,
,Screen_3,canvas.Screen,0_2_9_2,,skipped,10,172937,,,172934,,172937,2021-11-01T23:58:19.481Z,173156.26,1635810915,full,ni_sequenzen,NI_Sequenzen,,,,,,,,,,,,,,
,Screen_4,canvas.Screen,0_2_9_3,,skipped,10,172939,,,172934,,172939,2021-11-01T23:58:19.483Z,173156.26,1635810915,full,ni_sequenzen,NI_Sequenzen,,,,,,,,,,,,,,
,Screen_5,canvas.Screen,0_2_9_4,,skipped,10,172941,,,172934,,172941,2021-11-01T23:58:19.485Z,173156.26,1635810915,full,ni_sequenzen,NI_Sequenzen,,,,,,,,,,,,,,
,Screen_6,canvas.Screen,0_2_9_5,,skipped,10,172942,,,172934,,172942,2021-11-01T23:58:19.486Z,173156.26,1635810915,full,ni_sequenzen,NI_Sequenzen,,,,,,,,,,,,,,
,Sequence,flow.Sequence,0_2_9,,completion,10,172933,,,172934,,172942,2021-11-01T23:58:19.486Z,173156.26,1635810915,full,ni_sequenzen,NI_Sequenzen,,,,,,,,,,,,,,
,Screen_1,canvas.Screen,0_2_10_0,,skipped,11,172944,,,172944,,172944,2021-11-01T23:58:19.488Z,173156.26,1635810915,full,ni_sequenzen,NI_Sequenzen,,,,,,,,,,,,,,
,Screen_2,canvas.Screen,0_2_10_1,,skipped,11,172946,,,172944,,172946,2021-11-01T23:58:19.489Z,173156.26,1635810915,full,ni_sequenzen,NI_Sequenzen,,,,,,,,,,,,,,
,Screen_3,canvas.Screen,0_2_10_2,,skipped,11,172947,,,172944,,172948,2021-11-01T23:58:19.490Z,173156.26,1635810915,full,ni_sequenzen,NI_Sequenzen,,,,,,,,,,,,,,
,Screen_4,canvas.Screen,0_2_10_3,,skipped,11,172948,,,172944,,172948,2021-11-01T23:58:19.492Z,173156.26,1635810915,full,ni_sequenzen,NI_Sequenzen,,,,,,,,,,,,,,
,Screen_5,canvas.Screen,0_2_10_4,,skipped,11,172949,,,172944,,172949,2021-11-01T23:58:19.493Z,173156.26,1635810915,full,ni_sequenzen,NI_Sequenzen,,,,,,,,,,,,,,
,Screen_6,canvas.Screen,0_2_10_5,,skipped,11,172951,,,172944,,172951,2021-11-01T23:58:19.495Z,173156.26,1635810915,full,ni_sequenzen,NI_Sequenzen,,,,,,,,,,,,,,
,Sequence,flow.Sequence,0_2_10,,completion,11,172943,,,172944,,172951,2021-11-01T23:58:19.495Z,173156.26,1635810915,full,ni_sequenzen,NI_Sequenzen,,,,,,,,,,,,,,
,Screen_1,canvas.Screen,0_2_11_0,,skipped,12,172953,,,172953,,172953,2021-11-01T23:58:19.497Z,173156.26,1635810915,full,ni_sequenzen,NI_Sequenzen,,,,,,,,,,,,,,
,Screen_2,canvas.Screen,0_2_11_1,,skipped,12,172954,,,172953,,172954,2021-11-01T23:58:19.498Z,173156.26,1635810915,full,ni_sequenzen,NI_Sequenzen,,,,,,,,,,,,,,
,Screen_3,canvas.Screen,0_2_11_2,,skipped,12,172956,,,172953,,172956,2021-11-01T23:58:19.500Z,173156.26,1635810915,full,ni_sequenzen,NI_Sequenzen,,,,,,,,,,,,,,
,Screen_4,canvas.Screen,0_2_11_3,,skipped,12,172958,,,172953,,172959,2021-11-01T23:58:19.502Z,173156.26,1635810915,full,ni_sequenzen,NI_Sequenzen,,,,,,,,,,,,,,
,Screen_5,canvas.Screen,0_2_11_4,,skipped,12,172959,,,172953,,172959,2021-11-01T23:58:19.503Z,173156.26,1635810915,full,ni_sequenzen,NI_Sequenzen,,,,,,,,,,,,,,
,Screen_6,canvas.Screen,0_2_11_5,,skipped,12,172960,,,172953,,172961,2021-11-01T23:58:19.504Z,173156.26,1635810915,full,ni_sequenzen,NI_Sequenzen,,,,,,,,,,,,,,
,Sequence,flow.Sequence,0_2_11,,completion,12,172952,,,172953,,172961,2021-11-01T23:58:19.505Z,173156.26,1635810915,full,ni_sequenzen,NI_Sequenzen,,,,,,,,,,,,,,
,Screen_1,canvas.Screen,0_2_12_0,,skipped,13,172963,,,172963,,172963,2021-11-01T23:58:19.506Z,173156.26,1635810915,full,ni_sequenzen,NI_Sequenzen,,,,,,,,,,,,,,
,Screen_2,canvas.Screen,0_2_12_1,,skipped,13,172964,,,172963,,172964,2021-11-01T23:58:19.507Z,173156.26,1635810915,full,ni_sequenzen,NI_Sequenzen,,,,,,,,,,,,,,
,Screen_3,canvas.Screen,0_2_12_2,,skipped,13,172965,,,172963,,172965,2021-11-01T23:58:19.508Z,173156.26,1635810915,full,ni_sequenzen,NI_Sequenzen,,,,,,,,,,,,,,
,Screen_4,canvas.Screen,0_2_12_3,,skipped,13,172966,,,172963,,172966,2021-11-01T23:58:19.510Z,173156.26,1635810915,full,ni_sequenzen,NI_Sequenzen,,,,,,,,,,,,,,
,Screen_5,canvas.Screen,0_2_12_4,,skipped,13,172967,,,172963,,172967,2021-11-01T23:58:19.511Z,173156.26,1635810915,full,ni_sequenzen,NI_Sequenzen,,,,,,,,,,,,,,
,Screen_6,canvas.Screen,0_2_12_5,,skipped,13,172969,,,172963,,172969,2021-11-01T23:58:19.512Z,173156.26,1635810915,full,ni_sequenzen,NI_Sequenzen,,,,,,,,,,,,,,
,Sequence,flow.Sequence,0_2_12,,completion,13,172961,,,172963,,172969,2021-11-01T23:58:19.513Z,173156.26,1635810915,full,ni_sequenzen,NI_Sequenzen,,,,,,,,,,,,,,
,Screen_1,canvas.Screen,0_2_13_0,,skipped,14,172970,,,172970,,172970,2021-11-01T23:58:19.514Z,173156.26,1635810915,full,ni_sequenzen,NI_Sequenzen,,,,,,,,,,,,,,
,Screen_2,canvas.Screen,0_2_13_1,,skipped,14,172971,,,172970,,172971,2021-11-01T23:58:19.515Z,173156.26,1635810915,full,ni_sequenzen,NI_Sequenzen,,,,,,,,,,,,,,
,Screen_3,canvas.Screen,0_2_13_2,,skipped,14,172972,,,172970,,172972,2021-11-01T23:58:19.517Z,173156.26,1635810915,full,ni_sequenzen,NI_Sequenzen,,,,,,,,,,,,,,
,Screen_4,canvas.Screen,0_2_13_3,,skipped,14,172974,,,172970,,172974,2021-11-01T23:58:19.518Z,173156.26,1635810915,full,ni_sequenzen,NI_Sequenzen,,,,,,,,,,,,,,
,Screen_5,canvas.Screen,0_2_13_4,,skipped,14,172975,,,172970,,172975,2021-11-01T23:58:19.519Z,173156.26,1635810915,full,ni_sequenzen,NI_Sequenzen,,,,,,,,,,,,,,
,Screen_6,canvas.Screen,0_2_13_5,,skipped,14,172976,,,172970,,172976,2021-11-01T23:58:19.520Z,173156.26,1635810915,full,ni_sequenzen,NI_Sequenzen,,,,,,,,,,,,,,
,Sequence,flow.Sequence,0_2_13,,completion,14,172969,,,172970,,172976,2021-11-01T23:58:19.520Z,173156.26,1635810915,full,ni_sequenzen,NI_Sequenzen,,,,,,,,,,,,,,
,Screen_1,canvas.Screen,0_2_14_0,,skipped,15,172978,,,172978,,172978,2021-11-01T23:58:19.522Z,173156.26,1635810915,full,ni_sequenzen,NI_Sequenzen,,,,,,,,,,,,,,
,Screen_2,canvas.Screen,0_2_14_1,,skipped,15,172980,,,172978,,172980,2021-11-01T23:58:19.523Z,173156.26,1635810915,full,ni_sequenzen,NI_Sequenzen,,,,,,,,,,,,,,
,Screen_3,canvas.Screen,0_2_14_2,,skipped,15,172980,,,172978,,172980,2021-11-01T23:58:19.525Z,173156.26,1635810915,full,ni_sequenzen,NI_Sequenzen,,,,,,,,,,,,,,
,Screen_4,canvas.Screen,0_2_14_3,,skipped,15,172981,,,172978,,172981,2021-11-01T23:58:19.526Z,173156.26,1635810915,full,ni_sequenzen,NI_Sequenzen,,,,,,,,,,,,,,
,Screen_5,canvas.Screen,0_2_14_4,,skipped,15,172983,,,172978,,172983,2021-11-01T23:58:19.527Z,173156.26,1635810915,full,ni_sequenzen,NI_Sequenzen,,,,,,,,,,,,,,
,Screen_6,canvas.Screen,0_2_14_5,,skipped,15,172984,,,172978,,172984,2021-11-01T23:58:19.529Z,173156.26,1635810915,full,ni_sequenzen,NI_Sequenzen,,,,,,,,,,,,,,
,Sequence,flow.Sequence,0_2_14,,completion,15,172977,,,172978,,172985,2021-11-01T23:58:19.529Z,173156.26,1635810915,full,ni_sequenzen,NI_Sequenzen,,,,,,,,,,,,,,
,Screen_1,canvas.Screen,0_2_15_0,,skipped,16,172986,,,172986,,172986,2021-11-01T23:58:19.530Z,173156.26,1635810915,full,ni_sequenzen,NI_Sequenzen,,,,,,,,,,,,,,
,Screen_2,canvas.Screen,0_2_15_1,,skipped,16,172987,,,172986,,172987,2021-11-01T23:58:19.531Z,173156.26,1635810915,full,ni_sequenzen,NI_Sequenzen,,,,,,,,,,,,,,
,Screen_3,canvas.Screen,0_2_15_2,,skipped,16,172988,,,172986,,172988,2021-11-01T23:58:19.532Z,173156.26,1635810915,full,ni_sequenzen,NI_Sequenzen,,,,,,,,,,,,,,
,Screen_4,canvas.Screen,0_2_15_3,,skipped,16,172989,,,172986,,172989,2021-11-01T23:58:19.533Z,173156.26,1635810915,full,ni_sequenzen,NI_Sequenzen,,,,,,,,,,,,,,
,Screen_5,canvas.Screen,0_2_15_4,,skipped,16,172992,,,172986,,172992,2021-11-01T23:58:19.535Z,173156.26,1635810915,full,ni_sequenzen,NI_Sequenzen,,,,,,,,,,,,,,
,Screen_6,canvas.Screen,0_2_15_5,,skipped,16,172992,,,172986,,172992,2021-11-01T23:58:19.536Z,173156.26,1635810915,full,ni_sequenzen,NI_Sequenzen,,,,,,,,,,,,,,
,Sequence,flow.Sequence,0_2_15,,completion,16,172985,,,172986,,172992,2021-11-01T23:58:19.536Z,173156.26,1635810915,full,ni_sequenzen,NI_Sequenzen,,,,,,,,,,,,,,
,Screen_1,canvas.Screen,0_2_16_0,,skipped,17,172994,,,172994,,172994,2021-11-01T23:58:19.538Z,173156.26,1635810915,full,ni_sequenzen,NI_Sequenzen,,,,,,,,,,,,,,
,Screen_2,canvas.Screen,0_2_16_1,,skipped,17,172996,,,172994,,172996,2021-11-01T23:58:19.539Z,173156.26,1635810915,full,ni_sequenzen,NI_Sequenzen,,,,,,,,,,,,,,
,Screen_3,canvas.Screen,0_2_16_2,,skipped,17,172997,,,172994,,172997,2021-11-01T23:58:19.540Z,173156.26,1635810915,full,ni_sequenzen,NI_Sequenzen,,,,,,,,,,,,,,
,Screen_4,canvas.Screen,0_2_16_3,,skipped,17,172998,,,172994,,172998,2021-11-01T23:58:19.541Z,173156.26,1635810915,full,ni_sequenzen,NI_Sequenzen,,,,,,,,,,,,,,
,Screen_5,canvas.Screen,0_2_16_4,,skipped,17,172999,,,172994,,172999,2021-11-01T23:58:19.543Z,173156.26,1635810915,full,ni_sequenzen,NI_Sequenzen,,,,,,,,,,,,,,
,Screen_6,canvas.Screen,0_2_16_5,,skipped,17,173000,,,172994,,173000,2021-11-01T23:58:19.544Z,173156.26,1635810915,full,ni_sequenzen,NI_Sequenzen,,,,,,,,,,,,,,
,Sequence,flow.Sequence,0_2_16,,completion,17,172993,,,172994,,173000,2021-11-01T23:58:19.544Z,173156.26,1635810915,full,ni_sequenzen,NI_Sequenzen,,,,,,,,,,,,,,
,Screen_1,canvas.Screen,0_2_17_0,,skipped,18,173002,,,173002,,173002,2021-11-01T23:58:19.546Z,173156.26,1635810915,full,ni_sequenzen,NI_Sequenzen,,,,,,,,,,,,,,
,Screen_2,canvas.Screen,0_2_17_1,,skipped,18,173003,,,173002,,173003,2021-11-01T23:58:19.547Z,173156.26,1635810915,full,ni_sequenzen,NI_Sequenzen,,,,,,,,,,,,,,
,Screen_3,canvas.Screen,0_2_17_2,,skipped,18,173004,,,173002,,173004,2021-11-01T23:58:19.548Z,173156.26,1635810915,full,ni_sequenzen,NI_Sequenzen,,,,,,,,,,,,,,
,Screen_4,canvas.Screen,0_2_17_3,,skipped,18,173006,,,173002,,173006,2021-11-01T23:58:19.550Z,173156.26,1635810915,full,ni_sequenzen,NI_Sequenzen,,,,,,,,,,,,,,
,Screen_5,canvas.Screen,0_2_17_4,,skipped,18,173007,,,173002,,173007,2021-11-01T23:58:19.550Z,173156.26,1635810915,full,ni_sequenzen,NI_Sequenzen,,,,,,,,,,,,,,
,Screen_6,canvas.Screen,0_2_17_5,,skipped,18,173008,,,173002,,173008,2021-11-01T23:58:19.552Z,173156.26,1635810915,full,ni_sequenzen,NI_Sequenzen,,,,,,,,,,,,,,
,Sequence,flow.Sequence,0_2_17,,completion,18,173001,,,173002,,173008,2021-11-01T23:58:19.552Z,173156.26,1635810915,full,ni_sequenzen,NI_Sequenzen,,,,,,,,,,,,,,
,Screen_1,canvas.Screen,0_2_18_0,,skipped,19,173010,,,173010,,173010,2021-11-01T23:58:19.553Z,173156.26,1635810915,full,ni_sequenzen,NI_Sequenzen,,,,,,,,,,,,,,
,Screen_2,canvas.Screen,0_2_18_1,,skipped,19,173011,,,173010,,173011,2021-11-01T23:58:19.554Z,173156.26,1635810915,full,ni_sequenzen,NI_Sequenzen,,,,,,,,,,,,,,
,Screen_3,canvas.Screen,0_2_18_2,,skipped,19,173012,,,173010,,173012,2021-11-01T23:58:19.556Z,173156.26,1635810915,full,ni_sequenzen,NI_Sequenzen,,,,,,,,,,,,,,
,Screen_4,canvas.Screen,0_2_18_3,,skipped,19,173013,,,173010,,173013,2021-11-01T23:58:19.558Z,173156.26,1635810915,full,ni_sequenzen,NI_Sequenzen,,,,,,,,,,,,,,
,Screen_5,canvas.Screen,0_2_18_4,,skipped,19,173014,,,173010,,173014,2021-11-01T23:58:19.559Z,173156.26,1635810915,full,ni_sequenzen,NI_Sequenzen,,,,,,,,,,,,,,
,Screen_6,canvas.Screen,0_2_18_5,,skipped,19,173015,,,173010,,173015,2021-11-01T23:58:19.560Z,173156.26,1635810915,full,ni_sequenzen,NI_Sequenzen,,,,,,,,,,,,,,
,Sequence,flow.Sequence,0_2_18,,completion,19,173008,,,173010,,173016,2021-11-01T23:58:19.560Z,173156.26,1635810915,full,ni_sequenzen,NI_Sequenzen,,,,,,,,,,,,,,
,Screen_1,canvas.Screen,0_2_19_0,,skipped,20,173018,,,173018,,173018,2021-11-01T23:58:19.562Z,173156.26,1635810915,full,ni_sequenzen,NI_Sequenzen,,,,,,,,,,,,,,
,Screen_2,canvas.Screen,0_2_19_1,,skipped,20,173019,,,173018,,173019,2021-11-01T23:58:19.563Z,173156.26,1635810915,full,ni_sequenzen,NI_Sequenzen,,,,,,,,,,,,,,
,Screen_3,canvas.Screen,0_2_19_2,,skipped,20,173020,,,173018,,173020,2021-11-01T23:58:19.564Z,173156.26,1635810915,full,ni_sequenzen,NI_Sequenzen,,,,,,,,,,,,,,
,Screen_4,canvas.Screen,0_2_19_3,,skipped,20,173021,,,173018,,173021,2021-11-01T23:58:19.565Z,173156.26,1635810915,full,ni_sequenzen,NI_Sequenzen,,,,,,,,,,,,,,
,Screen_5,canvas.Screen,0_2_19_4,,skipped,20,173022,,,173018,,173022,2021-11-01T23:58:19.566Z,173156.26,1635810915,full,ni_sequenzen,NI_Sequenzen,,,,,,,,,,,,,,
,Screen_6,canvas.Screen,0_2_19_5,,skipped,20,173024,,,173018,,173024,2021-11-01T23:58:19.567Z,173156.26,1635810915,full,ni_sequenzen,NI_Sequenzen,,,,,,,,,,,,,,
,Sequence,flow.Sequence,0_2_19,,completion,20,173017,,,173018,,173024,2021-11-01T23:58:19.567Z,173156.26,1635810915,full,ni_sequenzen,NI_Sequenzen,,,,,,,,,,,,,,
,Screen_1,canvas.Screen,0_2_20_0,,skipped,21,173025,,,173025,,173025,2021-11-01T23:58:19.569Z,173156.26,1635810915,full,ni_sequenzen,NI_Sequenzen,,,,,,,,,,,,,,
,Screen_2,canvas.Screen,0_2_20_1,,skipped,21,173027,,,173025,,173027,2021-11-01T23:58:19.570Z,173156.26,1635810915,full,ni_sequenzen,NI_Sequenzen,,,,,,,,,,,,,,
,Screen_3,canvas.Screen,0_2_20_2,,skipped,21,173028,,,173025,,173028,2021-11-01T23:58:19.571Z,173156.26,1635810915,full,ni_sequenzen,NI_Sequenzen,,,,,,,,,,,,,,
,Screen_4,canvas.Screen,0_2_20_3,,skipped,21,173029,,,173025,,173029,2021-11-01T23:58:19.572Z,173156.26,1635810915,full,ni_sequenzen,NI_Sequenzen,,,,,,,,,,,,,,
,Screen_5,canvas.Screen,0_2_20_4,,skipped,21,173030,,,173025,,173030,2021-11-01T23:58:19.574Z,173156.26,1635810915,full,ni_sequenzen,NI_Sequenzen,,,,,,,,,,,,,,
,Screen_6,canvas.Screen,0_2_20_5,,skipped,21,173032,,,173025,,173032,2021-11-01T23:58:19.576Z,173156.26,1635810915,full,ni_sequenzen,NI_Sequenzen,,,,,,,,,,,,,,
,Sequence,flow.Sequence,0_2_20,,completion,21,173024,,,173025,,173032,2021-11-01T23:58:19.576Z,173156.26,1635810915,full,ni_sequenzen,NI_Sequenzen,,,,,,,,,,,,,,
,Screen_1,canvas.Screen,0_2_21_0,,skipped,22,173033,,,173033,,173033,2021-11-01T23:58:19.577Z,173156.26,1635810915,full,ni_sequenzen,NI_Sequenzen,,,,,,,,,,,,,,
,Screen_2,canvas.Screen,0_2_21_1,,skipped,22,173034,,,173033,,173034,2021-11-01T23:58:19.579Z,173156.26,1635810915,full,ni_sequenzen,NI_Sequenzen,,,,,,,,,,,,,,
,Screen_3,canvas.Screen,0_2_21_2,,skipped,22,173036,,,173033,,173036,2021-11-01T23:58:19.580Z,173156.26,1635810915,full,ni_sequenzen,NI_Sequenzen,,,,,,,,,,,,,,
,Screen_4,canvas.Screen,0_2_21_3,,skipped,22,173038,,,173033,,173038,2021-11-01T23:58:19.581Z,173156.26,1635810915,full,ni_sequenzen,NI_Sequenzen,,,,,,,,,,,,,,
,Screen_5,canvas.Screen,0_2_21_4,,skipped,22,173039,,,173033,,173039,2021-11-01T23:58:19.582Z,173156.26,1635810915,full,ni_sequenzen,NI_Sequenzen,,,,,,,,,,,,,,
,Screen_6,canvas.Screen,0_2_21_5,,skipped,22,173040,,,173033,,173040,2021-11-01T23:58:19.583Z,173156.26,1635810915,full,ni_sequenzen,NI_Sequenzen,,,,,,,,,,,,,,
,Sequence,flow.Sequence,0_2_21,,completion,22,173032,,,173033,,173040,2021-11-01T23:58:19.584Z,173156.26,1635810915,full,ni_sequenzen,NI_Sequenzen,,,,,,,,,,,,,,
,Screen_1,canvas.Screen,0_2_22_0,,skipped,23,173042,,,173042,,173042,2021-11-01T23:58:19.585Z,173156.26,1635810915,full,ni_sequenzen,NI_Sequenzen,,,,,,,,,,,,,,
,Screen_2,canvas.Screen,0_2_22_1,,skipped,23,173043,,,173042,,173043,2021-11-01T23:58:19.586Z,173156.26,1635810915,full,ni_sequenzen,NI_Sequenzen,,,,,,,,,,,,,,
,Screen_3,canvas.Screen,0_2_22_2,,skipped,23,173044,,,173042,,173044,2021-11-01T23:58:19.588Z,173156.26,1635810915,full,ni_sequenzen,NI_Sequenzen,,,,,,,,,,,,,,
,Screen_4,canvas.Screen,0_2_22_3,,skipped,23,173045,,,173042,,173045,2021-11-01T23:58:19.589Z,173156.26,1635810915,full,ni_sequenzen,NI_Sequenzen,,,,,,,,,,,,,,
,Screen_5,canvas.Screen,0_2_22_4,,skipped,23,173046,,,173042,,173046,2021-11-01T23:58:19.590Z,173156.26,1635810915,full,ni_sequenzen,NI_Sequenzen,,,,,,,,,,,,,,
,Screen_6,canvas.Screen,0_2_22_5,,skipped,23,173048,,,173042,,173048,2021-11-01T23:58:19.592Z,173156.26,1635810915,full,ni_sequenzen,NI_Sequenzen,,,,,,,,,,,,,,
,Sequence,flow.Sequence,0_2_22,,completion,23,173041,,,173042,,173048,2021-11-01T23:58:19.592Z,173156.26,1635810915,full,ni_sequenzen,NI_Sequenzen,,,,,,,,,,,,,,
,Screen_1,canvas.Screen,0_2_23_0,,skipped,24,173050,,,173050,,173050,2021-11-01T23:58:19.593Z,173156.26,1635810915,full,ni_sequenzen,NI_Sequenzen,,,,,,,,,,,,,,
,Screen_2,canvas.Screen,0_2_23_1,,skipped,24,173051,,,173050,,173051,2021-11-01T23:58:19.595Z,173156.26,1635810915,full,ni_sequenzen,NI_Sequenzen,,,,,,,,,,,,,,
,Screen_3,canvas.Screen,0_2_23_2,,skipped,24,173053,,,173050,,173054,2021-11-01T23:58:19.597Z,173156.26,1635810915,full,ni_sequenzen,NI_Sequenzen,,,,,,,,,,,,,,
,Screen_4,canvas.Screen,0_2_23_3,,skipped,24,173055,,,173050,,173055,2021-11-01T23:58:19.598Z,173156.26,1635810915,full,ni_sequenzen,NI_Sequenzen,,,,,,,,,,,,,,
,Screen_5,canvas.Screen,0_2_23_4,,skipped,24,173056,,,173050,,173056,2021-11-01T23:58:19.599Z,173156.26,1635810915,full,ni_sequenzen,NI_Sequenzen,,,,,,,,,,,,,,
,Screen_6,canvas.Screen,0_2_23_5,,skipped,24,173057,,,173050,,173057,2021-11-01T23:58:19.601Z,173156.26,1635810915,full,ni_sequenzen,NI_Sequenzen,,,,,,,,,,,,,,
,Sequence,flow.Sequence,0_2_23,,completion,24,173049,,,173050,,173057,2021-11-01T23:58:19.601Z,173156.26,1635810915,full,ni_sequenzen,NI_Sequenzen,,,,,,,,,,,,,,
,Screen_1,canvas.Screen,0_2_24_0,,skipped,25,173059,,,173059,,173059,2021-11-01T23:58:19.603Z,173156.26,1635810915,full,ni_sequenzen,NI_Sequenzen,,,,,,,,,,,,,,
,Screen_2,canvas.Screen,0_2_24_1,,skipped,25,173060,,,173059,,173060,2021-11-01T23:58:19.603Z,173156.26,1635810915,full,ni_sequenzen,NI_Sequenzen,,,,,,,,,,,,,,
,Screen_3,canvas.Screen,0_2_24_2,,skipped,25,173061,,,173059,,173061,2021-11-01T23:58:19.605Z,173156.26,1635810915,full,ni_sequenzen,NI_Sequenzen,,,,,,,,,,,,,,
,Screen_4,canvas.Screen,0_2_24_3,,skipped,25,173062,,,173059,,173062,2021-11-01T23:58:19.606Z,173156.26,1635810915,full,ni_sequenzen,NI_Sequenzen,,,,,,,,,,,,,,
,Screen_5,canvas.Screen,0_2_24_4,,skipped,25,173063,,,173059,,173063,2021-11-01T23:58:19.607Z,173156.26,1635810915,full,ni_sequenzen,NI_Sequenzen,,,,,,,,,,,,,,
,Screen_6,canvas.Screen,0_2_24_5,,skipped,25,173065,,,173059,,173065,2021-11-01T23:58:19.609Z,173156.26,1635810915,full,ni_sequenzen,NI_Sequenzen,,,,,,,,,,,,,,
,Sequence,flow.Sequence,0_2_24,,completion,25,173058,,,173059,,173065,2021-11-01T23:58:19.609Z,173156.26,1635810915,full,ni_sequenzen,NI_Sequenzen,,,,,,,,,,,,,,
,Screen_1,canvas.Screen,0_2_25_0,,skipped,26,173066,,,173066,,173066,2021-11-01T23:58:19.610Z,173156.26,1635810915,full,ni_sequenzen,NI_Sequenzen,,,,,,,,,,,,,,
,Screen_2,canvas.Screen,0_2_25_1,,skipped,26,173067,,,173066,,173067,2021-11-01T23:58:19.612Z,173156.26,1635810915,full,ni_sequenzen,NI_Sequenzen,,,,,,,,,,,,,,
,Screen_3,canvas.Screen,0_2_25_2,,skipped,26,173068,,,173066,,173068,2021-11-01T23:58:19.612Z,173156.26,1635810915,full,ni_sequenzen,NI_Sequenzen,,,,,,,,,,,,,,
,Screen_4,canvas.Screen,0_2_25_3,,skipped,26,173070,,,173066,,173070,2021-11-01T23:58:19.614Z,173156.26,1635810915,full,ni_sequenzen,NI_Sequenzen,,,,,,,,,,,,,,
,Screen_5,canvas.Screen,0_2_25_4,,skipped,26,173071,,,173066,,173071,2021-11-01T23:58:19.615Z,173156.26,1635810915,full,ni_sequenzen,NI_Sequenzen,,,,,,,,,,,,,,
,Screen_6,canvas.Screen,0_2_25_5,,skipped,26,173074,,,173066,,173074,2021-11-01T23:58:19.617Z,173156.26,1635810915,full,ni_sequenzen,NI_Sequenzen,,,,,,,,,,,,,,
,Sequence,flow.Sequence,0_2_25,,completion,26,173066,,,173066,,173074,2021-11-01T23:58:19.617Z,173156.26,1635810915,full,ni_sequenzen,NI_Sequenzen,,,,,,,,,,,,,,
,Screen_1,canvas.Screen,0_2_26_0,,skipped,27,173076,,,173076,,173076,2021-11-01T23:58:19.619Z,173156.26,1635810915,full,ni_sequenzen,NI_Sequenzen,,,,,,,,,,,,,,
,Screen_2,canvas.Screen,0_2_26_1,,skipped,27,173077,,,173076,,173077,2021-11-01T23:58:19.621Z,173156.26,1635810915,full,ni_sequenzen,NI_Sequenzen,,,,,,,,,,,,,,
,Screen_3,canvas.Screen,0_2_26_2,,skipped,27,173078,,,173076,,173078,2021-11-01T23:58:19.622Z,173156.26,1635810915,full,ni_sequenzen,NI_Sequenzen,,,,,,,,,,,,,,
,Screen_4,canvas.Screen,0_2_26_3,,skipped,27,173079,,,173076,,173079,2021-11-01T23:58:19.623Z,173156.26,1635810915,full,ni_sequenzen,NI_Sequenzen,,,,,,,,,,,,,,
,Screen_5,canvas.Screen,0_2_26_4,,skipped,27,173080,,,173076,,173081,2021-11-01T23:58:19.625Z,173156.26,1635810915,full,ni_sequenzen,NI_Sequenzen,,,,,,,,,,,,,,
,Screen_6,canvas.Screen,0_2_26_5,,skipped,27,173082,,,173076,,173082,2021-11-01T23:58:19.626Z,173156.26,1635810915,full,ni_sequenzen,NI_Sequenzen,,,,,,,,,,,,,,
,Sequence,flow.Sequence,0_2_26,,completion,27,173075,,,173076,,173082,2021-11-01T23:58:19.626Z,173156.26,1635810915,full,ni_sequenzen,NI_Sequenzen,,,,,,,,,,,,,,
,Screen_1,canvas.Screen,0_2_27_0,,skipped,28,173083,,,173083,,173084,2021-11-01T23:58:19.627Z,173156.26,1635810915,full,ni_sequenzen,NI_Sequenzen,,,,,,,,,,,,,,
,Screen_2,canvas.Screen,0_2_27_1,,skipped,28,173085,,,173083,,173085,2021-11-01T23:58:19.628Z,173156.26,1635810915,full,ni_sequenzen,NI_Sequenzen,,,,,,,,,,,,,,
,Screen_3,canvas.Screen,0_2_27_2,,skipped,28,173085,,,173083,,173086,2021-11-01T23:58:19.629Z,173156.26,1635810915,full,ni_sequenzen,NI_Sequenzen,,,,,,,,,,,,,,
,Screen_4,canvas.Screen,0_2_27_3,,skipped,28,173087,,,173083,,173087,2021-11-01T23:58:19.630Z,173156.26,1635810915,full,ni_sequenzen,NI_Sequenzen,,,,,,,,,,,,,,
,Screen_5,canvas.Screen,0_2_27_4,,skipped,28,173089,,,173083,,173089,2021-11-01T23:58:19.632Z,173156.26,1635810915,full,ni_sequenzen,NI_Sequenzen,,,,,,,,,,,,,,
,Screen_6,canvas.Screen,0_2_27_5,,skipped,28,173090,,,173083,,173090,2021-11-01T23:58:19.634Z,173156.26,1635810915,full,ni_sequenzen,NI_Sequenzen,,,,,,,,,,,,,,
,Sequence,flow.Sequence,0_2_27,,completion,28,173083,,,173083,,173091,2021-11-01T23:58:19.635Z,173156.26,1635810915,full,ni_sequenzen,NI_Sequenzen,,,,,,,,,,,,,,
,Screen_1,canvas.Screen,0_2_28_0,,skipped,29,173092,,,173092,,173092,2021-11-01T23:58:19.636Z,173156.26,1635810915,full,ni_sequenzen,NI_Sequenzen,,,,,,,,,,,,,,
,Screen_2,canvas.Screen,0_2_28_1,,skipped,29,173093,,,173092,,173093,2021-11-01T23:58:19.637Z,173156.26,1635810915,full,ni_sequenzen,NI_Sequenzen,,,,,,,,,,,,,,
,Screen_3,canvas.Screen,0_2_28_2,,skipped,29,173094,,,173092,,173094,2021-11-01T23:58:19.638Z,173156.26,1635810915,full,ni_sequenzen,NI_Sequenzen,,,,,,,,,,,,,,
,Screen_4,canvas.Screen,0_2_28_3,,skipped,29,173095,,,173092,,173095,2021-11-01T23:58:19.639Z,173156.26,1635810915,full,ni_sequenzen,NI_Sequenzen,,,,,,,,,,,,,,
,Screen_5,canvas.Screen,0_2_28_4,,skipped,29,173097,,,173092,,173097,2021-11-01T23:58:19.641Z,173156.26,1635810915,full,ni_sequenzen,NI_Sequenzen,,,,,,,,,,,,,,
,Screen_6,canvas.Screen,0_2_28_5,,skipped,29,173098,,,173092,,173098,2021-11-01T23:58:19.642Z,173156.26,1635810915,full,ni_sequenzen,NI_Sequenzen,,,,,,,,,,,,,,
,Sequence,flow.Sequence,0_2_28,,completion,29,173091,,,173092,,173098,2021-11-01T23:58:19.642Z,173156.26,1635810915,full,ni_sequenzen,NI_Sequenzen,,,,,,,,,,,,,,
,Screen_1,canvas.Screen,0_2_29_0,,skipped,30,173100,,,173100,,173100,2021-11-01T23:58:19.644Z,173156.26,1635810915,full,ni_sequenzen,NI_Sequenzen,,,,,,,,,,,,,,
,Screen_2,canvas.Screen,0_2_29_1,,skipped,30,173100,,,173100,,173100,2021-11-01T23:58:19.644Z,173156.26,1635810915,full,ni_sequenzen,NI_Sequenzen,,,,,,,,,,,,,,
,Screen_3,canvas.Screen,0_2_29_2,,skipped,30,173101,,,173100,,173101,2021-11-01T23:58:19.646Z,173156.26,1635810915,full,ni_sequenzen,NI_Sequenzen,,,,,,,,,,,,,,
,Screen_4,canvas.Screen,0_2_29_3,,skipped,30,173103,,,173100,,173103,2021-11-01T23:58:19.646Z,173156.26,1635810915,full,ni_sequenzen,NI_Sequenzen,,,,,,,,,,,,,,
,Screen_5,canvas.Screen,0_2_29_4,,skipped,30,173105,,,173100,,173105,2021-11-01T23:58:19.648Z,173156.26,1635810915,full,ni_sequenzen,NI_Sequenzen,,,,,,,,,,,,,,
,Screen_6,canvas.Screen,0_2_29_5,,skipped,30,173107,,,173100,,173107,2021-11-01T23:58:19.651Z,173156.26,1635810915,full,ni_sequenzen,NI_Sequenzen,,,,,,,,,,,,,,
,Sequence,flow.Sequence,0_2_29,,completion,30,173098,,,173100,,173108,2021-11-01T23:58:19.651Z,173156.26,1635810915,full,ni_sequenzen,NI_Sequenzen,,,,,,,,,,,,,,
,Instructions_II,flow.Loop,0_2,,completion,,91446,91449.06,91463.5,173100,81636.5,173108,2021-11-01T23:58:19.651Z,173156.26,1635810915,full,ni_sequenzen,NI_Sequenzen,,,,,,,,,,,,,,
,Move,canvas.Screen,0_3_0_0_0_0,down,response,,173143,173143.56,173156.26,180433,7276.739999999991,180455,2021-11-01T23:58:26.999Z,180488.98,1635810915,full,ni_sequenzen,NI_Sequenzen,1,0,,,,,,,,,,,,
,Move,canvas.Screen,0_3_0_0_0_1,right,response,,180481,180480.64,180488.98,181294,805.0199999999895,181318,2021-11-01T23:58:27.861Z,181355.58,1635810915,full,ni_sequenzen,NI_Sequenzen,2,0,,,,,,,,,,,,
,Move,canvas.Screen,0_3_0_0_0_2,right,response,,181344,181344.64,181355.58,181902,546.4200000000128,181921,2021-11-01T23:58:28.466Z,181955.56,1635810915,full,ni_sequenzen,NI_Sequenzen,3,0,,,,,,,,,,,,
,Move,canvas.Screen,0_3_0_0_0_3,down,response,,181945,181945.2,181955.56,182433,477.4400000000023,182445,2021-11-01T23:58:28.989Z,182605.42,1635810915,full,ni_sequenzen,NI_Sequenzen,4,0,,,,,,,,,,,,
,Move,canvas.Screen,0_3_0_0_0_4,-999,skipped,,182467,,,182433,,182467,2021-11-01T23:58:29.012Z,182605.42,1635810915,full,ni_sequenzen,NI_Sequenzen,5,0,,,,,,,,,,,,
,Move,canvas.Screen,0_3_0_0_0_5,-999,skipped,,182487,,,182433,,182487,2021-11-01T23:58:29.031Z,182605.42,1635810915,full,ni_sequenzen,NI_Sequenzen,6,0,,,,,,,,,,,,
,Move,canvas.Screen,0_3_0_0_0_6,-999,skipped,,182506,,,182433,,182506,2021-11-01T23:58:29.050Z,182605.42,1635810915,full,ni_sequenzen,NI_Sequenzen,7,0,,,,,,,,,,,,
,Move,canvas.Screen,0_3_0_0_0_7,-999,skipped,,182526,,,182433,,182526,2021-11-01T23:58:29.070Z,182605.42,1635810915,full,ni_sequenzen,NI_Sequenzen,8,0,,,,,,,,,,,,
,Move,canvas.Screen,0_3_0_0_0_8,-999,skipped,,182541,,,182433,,182542,2021-11-01T23:58:29.086Z,182605.42,1635810915,full,ni_sequenzen,NI_Sequenzen,9,0,,,,,,,,,,,,
,Move,canvas.Screen,0_3_0_0_0_9,-999,skipped,,182553,,,182433,,182553,2021-11-01T23:58:29.097Z,182605.42,1635810915,full,ni_sequenzen,NI_Sequenzen,10,0,,,,,,,,,,,,
,Move,canvas.Screen,0_3_0_0_0_10,-999,skipped,,182565,,,182433,,182565,2021-11-01T23:58:29.109Z,182605.42,1635810915,full,ni_sequenzen,NI_Sequenzen,11,0,,,,,,,,,,,,
,Move,canvas.Screen,0_3_0_0_0_11,-999,skipped,,182574,,,182433,,182574,2021-11-01T23:58:29.119Z,182605.42,1635810915,full,ni_sequenzen,NI_Sequenzen,12,0,,,,,,,,,,,,
,Move,canvas.Screen,0_3_0_0_0_12,-999,skipped,,182582,,,182433,,182582,2021-11-01T23:58:29.126Z,182605.42,1635810915,full,ni_sequenzen,NI_Sequenzen,13,0,,,,,,,,,,,,
,Move,canvas.Screen,0_3_0_0_0_13,-999,skipped,,182589,,,182433,,182589,2021-11-01T23:58:29.133Z,182605.42,1635810915,full,ni_sequenzen,NI_Sequenzen,14,0,,,,,,,,,,,,
,Move,canvas.Screen,0_3_0_0_0_14,-999,skipped,,182596,,,182433,,182596,2021-11-01T23:58:29.140Z,182605.42,1635810915,full,ni_sequenzen,NI_Sequenzen,15,0,,,,,,,,,,,,
,Loop,flow.Loop,0_3_0_0_0,-999,completion,,173138,173143.56,173156.26,182433,9276.73999999999,182596,2021-11-01T23:58:29.141Z,182605.42,1635810915,full,ni_sequenzen,NI_Sequenzen,,0,,,,,,,,,,,,
,Feedback,canvas.Screen,0_3_0_0_1,,timeout,,182602,182602.86,182605.42,186588.48,4023.25999999998,186590,2021-11-01T23:58:33.133Z,186628.68,1635810915,full,ni_sequenzen,NI_Sequenzen,,0,,,,,,,,,,,,
,Trial,flow.Sequence,0_3_0_0,,completion,,173129,173143.56,173156.26,186588.48,13432.220000000001,186591,2021-11-01T23:58:33.135Z,186638.42,1635810915,full,ni_sequenzen,NI_Sequenzen,,0,,,,,,,,,,,,
,Move,canvas.Screen,0_3_0_1_0_0,down,response,,186629,186628.68,186638.42,190903,4264.579999999987,190923,2021-11-01T23:58:37.466Z,190954.72,1635810915,full,ni_sequenzen,NI_Sequenzen,1,1,,,,,,,,,,,,
,Move,canvas.Screen,0_3_0_1_0_1,right,response,,190945,190944.82,190954.72,191339,384.27999999999884,191367,2021-11-01T23:58:37.911Z,191404.72,1635810915,full,ni_sequenzen,NI_Sequenzen,2,1,,,,,,,,,,,,
,Move,canvas.Screen,0_3_0_1_0_2,right,response,,191390,191390.06,191404.72,191714,309.27999999999884,191735,2021-11-01T23:58:38.280Z,191771.3,1635810915,full,ni_sequenzen,NI_Sequenzen,3,1,,,,,,,,,,,,
,Move,canvas.Screen,0_3_0_1_0_3,down,response,,191763,191763.08,191771.3,192027,255.70000000001164,192049,2021-11-01T23:58:38.592Z,192204.6,1635810915,full,ni_sequenzen,NI_Sequenzen,4,1,,,,,,,,,,,,
,Move,canvas.Screen,0_3_0_1_0_4,-999,skipped,,192071,,,192027,,192071,2021-11-01T23:58:38.615Z,192204.6,1635810915,full,ni_sequenzen,NI_Sequenzen,5,1,,,,,,,,,,,,
,Move,canvas.Screen,0_3_0_1_0_5,-999,skipped,,192090,,,192027,,192090,2021-11-01T23:58:38.633Z,192204.6,1635810915,full,ni_sequenzen,NI_Sequenzen,6,1,,,,,,,,,,,,
,Move,canvas.Screen,0_3_0_1_0_6,-999,skipped,,192108,,,192027,,192108,2021-11-01T23:58:38.652Z,192204.6,1635810915,full,ni_sequenzen,NI_Sequenzen,7,1,,,,,,,,,,,,
,Move,canvas.Screen,0_3_0_1_0_7,-999,skipped,,192126,,,192027,,192127,2021-11-01T23:58:38.671Z,192204.6,1635810915,full,ni_sequenzen,NI_Sequenzen,8,1,,,,,,,,,,,,
,Move,canvas.Screen,0_3_0_1_0_8,-999,skipped,,192139,,,192027,,192139,2021-11-01T23:58:38.682Z,192204.6,1635810915,full,ni_sequenzen,NI_Sequenzen,9,1,,,,,,,,,,,,
,Move,canvas.Screen,0_3_0_1_0_9,-999,skipped,,192150,,,192027,,192150,2021-11-01T23:58:38.694Z,192204.6,1635810915,full,ni_sequenzen,NI_Sequenzen,10,1,,,,,,,,,,,,
,Move,canvas.Screen,0_3_0_1_0_10,-999,skipped,,192160,,,192027,,192160,2021-11-01T23:58:38.704Z,192204.6,1635810915,full,ni_sequenzen,NI_Sequenzen,11,1,,,,,,,,,,,,
,Move,canvas.Screen,0_3_0_1_0_11,-999,skipped,,192167,,,192027,,192167,2021-11-01T23:58:38.711Z,192204.6,1635810915,full,ni_sequenzen,NI_Sequenzen,12,1,,,,,,,,,,,,
,Move,canvas.Screen,0_3_0_1_0_12,-999,skipped,,192174,,,192027,,192174,2021-11-01T23:58:38.718Z,192204.6,1635810915,full,ni_sequenzen,NI_Sequenzen,13,1,,,,,,,,,,,,
,Move,canvas.Screen,0_3_0_1_0_13,-999,skipped,,192180,,,192027,,192181,2021-11-01T23:58:38.725Z,192204.6,1635810915,full,ni_sequenzen,NI_Sequenzen,14,1,,,,,,,,,,,,
,Move,canvas.Screen,0_3_0_1_0_14,-999,skipped,,192187,,,192027,,192187,2021-11-01T23:58:38.731Z,192204.6,1635810915,full,ni_sequenzen,NI_Sequenzen,15,1,,,,,,,,,,,,
,Loop,flow.Loop,0_3_0_1_0,-999,completion,,186613,186628.68,186638.42,192027,5388.579999999987,192188,2021-11-01T23:58:38.731Z,192204.6,1635810915,full,ni_sequenzen,NI_Sequenzen,,1,,,,,,,,,,,,
,Feedback,canvas.Screen,0_3_0_1_1,,timeout,,192192,192192.16,192204.6,196187.66,4027.1199999999953,196189,2021-11-01T23:58:42.733Z,196231.72,1635810915,full,ni_sequenzen,NI_Sequenzen,,1,,,,,,,,,,,,
,Trial,flow.Sequence,0_3_0_1,,completion,,186593,186628.68,186638.42,196187.66,9549.23999999999,196189,2021-11-01T23:58:42.733Z,196237.64,1635810915,full,ni_sequenzen,NI_Sequenzen,,1,,,,,,,,,,,,
,Move,canvas.Screen,0_3_0_2_0_0,down,response,,196231,196231.72,196237.64,200668,4430.359999999986,200680,2021-11-01T23:58:47.223Z,200703.88,1635810915,full,ni_sequenzen,NI_Sequenzen,1,2,,,,,,,,,,,,
,Move,canvas.Screen,0_3_0_2_0_1,left,response,,200700,200699.76,200703.88,202699,1995.1199999999953,202714,2021-11-01T23:58:49.258Z,202737.04,1635810915,full,ni_sequenzen,NI_Sequenzen,2,2,,,,,,,,,,,,
,Move,canvas.Screen,0_3_0_2_0_2,down,response,,202736,202735.7,202737.04,203372,634.9599999999919,203390,2021-11-01T23:58:49.934Z,203420.34,1635810915,full,ni_sequenzen,NI_Sequenzen,3,2,,,,,,,,,,,,
,Move,canvas.Screen,0_3_0_2_0_3,left,response,,203412,203411.98,203420.34,204106,685.6600000000035,204127,2021-11-01T23:58:50.671Z,204253.54,1635810915,full,ni_sequenzen,NI_Sequenzen,4,2,,,,,,,,,,,,
,Move,canvas.Screen,0_3_0_2_0_4,-999,skipped,,204148,,,204106,,204149,2021-11-01T23:58:50.692Z,204253.54,1635810915,full,ni_sequenzen,NI_Sequenzen,5,2,,,,,,,,,,,,
,Move,canvas.Screen,0_3_0_2_0_5,-999,skipped,,204161,,,204106,,204161,2021-11-01T23:58:50.705Z,204253.54,1635810915,full,ni_sequenzen,NI_Sequenzen,6,2,,,,,,,,,,,,
,Move,canvas.Screen,0_3_0_2_0_6,-999,skipped,,204173,,,204106,,204173,2021-11-01T23:58:50.716Z,204253.54,1635810915,full,ni_sequenzen,NI_Sequenzen,7,2,,,,,,,,,,,,
,Move,canvas.Screen,0_3_0_2_0_7,-999,skipped,,204184,,,204106,,204184,2021-11-01T23:58:50.728Z,204253.54,1635810915,full,ni_sequenzen,NI_Sequenzen,8,2,,,,,,,,,,,,
,Move,canvas.Screen,0_3_0_2_0_8,-999,skipped,,204191,,,204106,,204191,2021-11-01T23:58:50.735Z,204253.54,1635810915,full,ni_sequenzen,NI_Sequenzen,9,2,,,,,,,,,,,,
,Move,canvas.Screen,0_3_0_2_0_9,-999,skipped,,204198,,,204106,,204198,2021-11-01T23:58:50.742Z,204253.54,1635810915,full,ni_sequenzen,NI_Sequenzen,10,2,,,,,,,,,,,,
,Move,canvas.Screen,0_3_0_2_0_10,-999,skipped,,204211,,,204106,,204212,2021-11-01T23:58:50.755Z,204253.54,1635810915,full,ni_sequenzen,NI_Sequenzen,11,2,,,,,,,,,,,,
,Move,canvas.Screen,0_3_0_2_0_11,-999,skipped,,204218,,,204106,,204218,2021-11-01T23:58:50.762Z,204253.54,1635810915,full,ni_sequenzen,NI_Sequenzen,12,2,,,,,,,,,,,,
,Move,canvas.Screen,0_3_0_2_0_12,-999,skipped,,204222,,,204106,,204222,2021-11-01T23:58:50.767Z,204253.54,1635810915,full,ni_sequenzen,NI_Sequenzen,13,2,,,,,,,,,,,,
,Move,canvas.Screen,0_3_0_2_0_13,-999,skipped,,204227,,,204106,,204228,2021-11-01T23:58:50.771Z,204253.54,1635810915,full,ni_sequenzen,NI_Sequenzen,14,2,,,,,,,,,,,,
,Move,canvas.Screen,0_3_0_2_0_14,-999,skipped,,204233,,,204106,,204233,2021-11-01T23:58:50.777Z,204253.54,1635810915,full,ni_sequenzen,NI_Sequenzen,15,2,,,,,,,,,,,,
,Loop,flow.Loop,0_3_0_2_0,-999,completion,,196212,196231.72,196237.64,204106,7868.359999999986,204233,2021-11-01T23:58:50.777Z,204253.54,1635810915,full,ni_sequenzen,NI_Sequenzen,,2,,,,,,,,,,,,
,Feedback,canvas.Screen,0_3_0_2_1,,timeout,,204237,204236.94,204253.54,208236.66,4021.3399999999965,208237,2021-11-01T23:58:54.782Z,208274.88,1635810915,full,ni_sequenzen,NI_Sequenzen,,2,,,,,,,,,,,,
,Trial,flow.Sequence,0_3_0_2,,completion,,196190,196231.72,196237.64,208236.66,11999.01999999999,208239,2021-11-01T23:58:54.782Z,208286.54,1635810915,full,ni_sequenzen,NI_Sequenzen,,2,,,,,,,,,,,,
,Move,canvas.Screen,0_3_0_3_0_0,down,response,,208275,208274.88,208286.54,209122,835.4599999999919,209146,2021-11-01T23:58:55.689Z,209186.46,1635810915,full,ni_sequenzen,NI_Sequenzen,1,3,,,,,,,,,,,,
,Move,canvas.Screen,0_3_0_3_0_1,down,response,,209171,209171.18,209186.46,209497,310.54000000000815,209507,2021-11-01T23:58:56.052Z,209536.42,1635810915,full,ni_sequenzen,NI_Sequenzen,2,3,,,,,,,,,,,,
,Move,canvas.Screen,0_3_0_3_0_2,right,response,,209529,209529.2,209536.42,210012,475.5799999999872,210032,2021-11-01T23:58:56.577Z,210069.76,1635810915,full,ni_sequenzen,NI_Sequenzen,3,3,,,,,,,,,,,,
,Move,canvas.Screen,0_3_0_3_0_3,right,response,,210056,210055.94,210069.76,210386,316.2399999999907,210399,2021-11-01T23:58:56.942Z,210536.3,1635810915,full,ni_sequenzen,NI_Sequenzen,4,3,,,,,,,,,,,,
,Move,canvas.Screen,0_3_0_3_0_4,-999,skipped,,210419,,,210386,,210419,2021-11-01T23:58:56.963Z,210536.3,1635810915,full,ni_sequenzen,NI_Sequenzen,5,3,,,,,,,,,,,,
,Move,canvas.Screen,0_3_0_3_0_5,-999,skipped,,210437,,,210386,,210438,2021-11-01T23:58:56.981Z,210536.3,1635810915,full,ni_sequenzen,NI_Sequenzen,6,3,,,,,,,,,,,,
,Move,canvas.Screen,0_3_0_3_0_6,-999,skipped,,210456,,,210386,,210456,2021-11-01T23:58:56.999Z,210536.3,1635810915,full,ni_sequenzen,NI_Sequenzen,7,3,,,,,,,,,,,,
,Move,canvas.Screen,0_3_0_3_0_7,-999,skipped,,210470,,,210386,,210471,2021-11-01T23:58:57.015Z,210536.3,1635810915,full,ni_sequenzen,NI_Sequenzen,8,3,,,,,,,,,,,,
,Move,canvas.Screen,0_3_0_3_0_8,-999,skipped,,210482,,,210386,,210482,2021-11-01T23:58:57.026Z,210536.3,1635810915,full,ni_sequenzen,NI_Sequenzen,9,3,,,,,,,,,,,,
,Move,canvas.Screen,0_3_0_3_0_9,-999,skipped,,210491,,,210386,,210491,2021-11-01T23:58:57.035Z,210536.3,1635810915,full,ni_sequenzen,NI_Sequenzen,10,3,,,,,,,,,,,,
,Move,canvas.Screen,0_3_0_3_0_10,-999,skipped,,210498,,,210386,,210498,2021-11-01T23:58:57.042Z,210536.3,1635810915,full,ni_sequenzen,NI_Sequenzen,11,3,,,,,,,,,,,,
,Move,canvas.Screen,0_3_0_3_0_11,-999,skipped,,210505,,,210386,,210505,2021-11-01T23:58:57.049Z,210536.3,1635810915,full,ni_sequenzen,NI_Sequenzen,12,3,,,,,,,,,,,,
,Move,canvas.Screen,0_3_0_3_0_12,-999,skipped,,210512,,,210386,,210512,2021-11-01T23:58:57.056Z,210536.3,1635810915,full,ni_sequenzen,NI_Sequenzen,13,3,,,,,,,,,,,,
,Move,canvas.Screen,0_3_0_3_0_13,-999,skipped,,210519,,,210386,,210519,2021-11-01T23:58:57.062Z,210536.3,1635810915,full,ni_sequenzen,NI_Sequenzen,14,3,,,,,,,,,,,,
,Move,canvas.Screen,0_3_0_3_0_14,-999,skipped,,210524,,,210386,,210524,2021-11-01T23:58:57.068Z,210536.3,1635810915,full,ni_sequenzen,NI_Sequenzen,15,3,,,,,,,,,,,,
,Loop,flow.Loop,0_3_0_3_0,-999,completion,,208262,208274.88,208286.54,210386,2099.459999999992,210525,2021-11-01T23:58:57.068Z,210536.3,1635810915,full,ni_sequenzen,NI_Sequenzen,,3,,,,,,,,,,,,
,Feedback,canvas.Screen,0_3_0_3_1,,timeout,,210528,210527.94,210536.3,214519.36,4081.4000000000233,214524,2021-11-01T23:59:01.068Z,214617.7,1635810915,full,ni_sequenzen,NI_Sequenzen,,3,,,,,,,,,,,,
,Trial,flow.Sequence,0_3_0_3,,completion,,208240,208274.88,208286.54,214519.36,6232.819999999978,214530,2021-11-01T23:59:01.074Z,214619.3,1635810915,full,ni_sequenzen,NI_Sequenzen,,3,,,,,,,,,,,,
,Move,canvas.Screen,0_3_0_4_0_0,right,response,,214618,214617.7,214619.3,216511,1891.7000000000116,216534,2021-11-01T23:59:03.078Z,216569.16,1635810915,full,ni_sequenzen,NI_Sequenzen,1,4,,,,,,,,,,,,
,Move,canvas.Screen,0_3_0_4_0_1,right,response,,216568,216568.46,216569.16,216903,333.8399999999965,216912,2021-11-01T23:59:03.456Z,216952.48,1635810915,full,ni_sequenzen,NI_Sequenzen,2,4,,,,,,,,,,,,
,Move,canvas.Screen,0_3_0_4_0_2,down,response,,216942,216941.78,216952.48,217261,308.5199999999895,217291,2021-11-01T23:59:03.835Z,217335.76,1635810915,full,ni_sequenzen,NI_Sequenzen,3,4,,,,,,,,,,,,
,Move,canvas.Screen,0_3_0_4_0_3,down,response,,217320,217319.94,217335.76,217652,316.2399999999907,217668,2021-11-01T23:59:04.212Z,217835.66,1635810915,full,ni_sequenzen,NI_Sequenzen,4,4,,,,,,,,,,,,
,Move,canvas.Screen,0_3_0_4_0_4,-999,skipped,,217698,,,217652,,217699,2021-11-01T23:59:04.242Z,217835.66,1635810915,full,ni_sequenzen,NI_Sequenzen,5,4,,,,,,,,,,,,
,Move,canvas.Screen,0_3_0_4_0_5,-999,skipped,,217721,,,217652,,217721,2021-11-01T23:59:04.266Z,217835.66,1635810915,full,ni_sequenzen,NI_Sequenzen,6,4,,,,,,,,,,,,
,Move,canvas.Screen,0_3_0_4_0_6,-999,skipped,,217744,,,217652,,217744,2021-11-01T23:59:04.288Z,217835.66,1635810915,full,ni_sequenzen,NI_Sequenzen,7,4,,,,,,,,,,,,
,Move,canvas.Screen,0_3_0_4_0_7,-999,skipped,,217764,,,217652,,217764,2021-11-01T23:59:04.307Z,217835.66,1635810915,full,ni_sequenzen,NI_Sequenzen,8,4,,,,,,,,,,,,
,Move,canvas.Screen,0_3_0_4_0_8,-999,skipped,,217778,,,217652,,217779,2021-11-01T23:59:04.322Z,217835.66,1635810915,full,ni_sequenzen,NI_Sequenzen,9,4,,,,,,,,,,,,
,Move,canvas.Screen,0_3_0_4_0_9,-999,skipped,,217786,,,217652,,217786,2021-11-01T23:59:04.331Z,217835.66,1635810915,full,ni_sequenzen,NI_Sequenzen,10,4,,,,,,,,,,,,
,Move,canvas.Screen,0_3_0_4_0_10,-999,skipped,,217795,,,217652,,217795,2021-11-01T23:59:04.338Z,217835.66,1635810915,full,ni_sequenzen,NI_Sequenzen,11,4,,,,,,,,,,,,
,Move,canvas.Screen,0_3_0_4_0_11,-999,skipped,,217803,,,217652,,217803,2021-11-01T23:59:04.347Z,217835.66,1635810915,full,ni_sequenzen,NI_Sequenzen,12,4,,,,,,,,,,,,
,Move,canvas.Screen,0_3_0_4_0_12,-999,skipped,,217811,,,217652,,217812,2021-11-01T23:59:04.355Z,217835.66,1635810915,full,ni_sequenzen,NI_Sequenzen,13,4,,,,,,,,,,,,
,Move,canvas.Screen,0_3_0_4_0_13,-999,skipped,,217817,,,217652,,217817,2021-11-01T23:59:04.362Z,217835.66,1635810915,full,ni_sequenzen,NI_Sequenzen,14,4,,,,,,,,,,,,
,Move,canvas.Screen,0_3_0_4_0_14,-999,skipped,,217823,,,217652,,217823,2021-11-01T23:59:04.367Z,217835.66,1635810915,full,ni_sequenzen,NI_Sequenzen,15,4,,,,,,,,,,,,
,Loop,flow.Loop,0_3_0_4_0,-999,completion,,214590,214617.7,214619.3,217652,3032.7000000000116,217824,2021-11-01T23:59:04.367Z,217835.66,1635810915,full,ni_sequenzen,NI_Sequenzen,,4,,,,,,,,,,,,
,Feedback,canvas.Screen,0_3_0_4_1,,timeout,,217828,217828.06,217835.66,221818.74,4043.779999999999,221820,2021-11-01T23:59:08.364Z,221879.44,1635810915,full,ni_sequenzen,NI_Sequenzen,,4,,,,,,,,,,,,
,Trial,flow.Sequence,0_3_0_4,,completion,,214535,214617.7,214619.3,221818.74,7199.440000000002,221821,2021-11-01T23:59:08.365Z,221885.36,1635810915,full,ni_sequenzen,NI_Sequenzen,,4,,,,,,,,,,,,
,Move,canvas.Screen,0_3_0_5_0_0,right,response,,221880,221879.44,221885.36,223294,1408.640000000014,223299,2021-11-01T23:59:09.843Z,223335.22,1635810915,full,ni_sequenzen,NI_Sequenzen,1,5,,,,,,,,,,,,
,Move,canvas.Screen,0_3_0_5_0_1,down,response,,223322,223321.32,223335.22,223730,394.77999999999884,223738,2021-11-01T23:59:10.282Z,223768.52,1635810915,full,ni_sequenzen,NI_Sequenzen,2,5,,,,,,,,,,,,
,Move,canvas.Screen,0_3_0_5_0_2,right,response,,223762,223761.74,223768.52,224481,712.4800000000105,224492,2021-11-01T23:59:11.036Z,224518.48,1635810915,full,ni_sequenzen,NI_Sequenzen,3,5,,,,,,,,,,,,
,Move,canvas.Screen,0_3_0_5_0_3,down,response,,224515,224514.44,224518.48,224856,337.5199999999895,224886,2021-11-01T23:59:11.430Z,225018.32,1635810915,full,ni_sequenzen,NI_Sequenzen,4,5,,,,,,,,,,,,
,Move,canvas.Screen,0_3_0_5_0_4,-999,skipped,,224915,,,224856,,224916,2021-11-01T23:59:11.459Z,225018.32,1635810915,full,ni_sequenzen,NI_Sequenzen,5,5,,,,,,,,,,,,
,Move,canvas.Screen,0_3_0_5_0_5,-999,skipped,,224928,,,224856,,224929,2021-11-01T23:59:11.473Z,225018.32,1635810915,full,ni_sequenzen,NI_Sequenzen,6,5,,,,,,,,,,,,
,Move,canvas.Screen,0_3_0_5_0_6,-999,skipped,,224941,,,224856,,224941,2021-11-01T23:59:11.484Z,225018.32,1635810915,full,ni_sequenzen,NI_Sequenzen,7,5,,,,,,,,,,,,
,Move,canvas.Screen,0_3_0_5_0_7,-999,skipped,,224952,,,224856,,224952,2021-11-01T23:59:11.496Z,225018.32,1635810915,full,ni_sequenzen,NI_Sequenzen,8,5,,,,,,,,,,,,
,Move,canvas.Screen,0_3_0_5_0_8,-999,skipped,,224959,,,224856,,224959,2021-11-01T23:59:11.503Z,225018.32,1635810915,full,ni_sequenzen,NI_Sequenzen,9,5,,,,,,,,,,,,
,Move,canvas.Screen,0_3_0_5_0_9,-999,skipped,,224966,,,224856,,224967,2021-11-01T23:59:11.510Z,225018.32,1635810915,full,ni_sequenzen,NI_Sequenzen,10,5,,,,,,,,,,,,
,Move,canvas.Screen,0_3_0_5_0_10,-999,skipped,,224974,,,224856,,224974,2021-11-01T23:59:11.518Z,225018.32,1635810915,full,ni_sequenzen,NI_Sequenzen,11,5,,,,,,,,,,,,
,Move,canvas.Screen,0_3_0_5_0_11,-999,skipped,,224981,,,224856,,224981,2021-11-01T23:59:11.525Z,225018.32,1635810915,full,ni_sequenzen,NI_Sequenzen,12,5,,,,,,,,,,,,
,Move,canvas.Screen,0_3_0_5_0_12,-999,skipped,,224988,,,224856,,224988,2021-11-01T23:59:11.531Z,225018.32,1635810915,full,ni_sequenzen,NI_Sequenzen,13,5,,,,,,,,,,,,
,Move,canvas.Screen,0_3_0_5_0_13,-999,skipped,,224996,,,224856,,224996,2021-11-01T23:59:11.541Z,225018.32,1635810915,full,ni_sequenzen,NI_Sequenzen,14,5,,,,,,,,,,,,
,Move,canvas.Screen,0_3_0_5_0_14,-999,skipped,,225004,,,224856,,225004,2021-11-01T23:59:11.547Z,225018.32,1635810915,full,ni_sequenzen,NI_Sequenzen,15,5,,,,,,,,,,,,
,Loop,flow.Loop,0_3_0_5_0,-999,completion,,221859,221879.44,221885.36,224856,2970.640000000014,225004,2021-11-01T23:59:11.548Z,225018.32,1635810915,full,ni_sequenzen,NI_Sequenzen,,5,,,,,,,,,,,,
,Feedback,canvas.Screen,0_3_0_5_1,,timeout,,225010,225009.64,225018.32,229001.4,4034.720000000001,229002,2021-11-01T23:59:15.547Z,229053.04,1635810915,full,ni_sequenzen,NI_Sequenzen,,5,,,,,,,,,,,,
,Trial,flow.Sequence,0_3_0_5,,completion,,221822,221879.44,221885.36,229001.4,7116.040000000008,229003,2021-11-01T23:59:15.547Z,229068.02,1635810915,full,ni_sequenzen,NI_Sequenzen,,5,,,,,,,,,,,,
,Move,canvas.Screen,0_3_0_6_0_0,left,response,,229053,229053.04,229068.02,231402,2333.9800000000105,231425,2021-11-01T23:59:17.969Z,231451.18,1635810915,full,ni_sequenzen,NI_Sequenzen,1,6,,,,,,,,,,,,
,Move,canvas.Screen,0_3_0_6_0_1,down,response,,231446,231446.32,231451.18,231964,512.820000000007,231986,2021-11-01T23:59:18.529Z,232017.76,1635810915,full,ni_sequenzen,NI_Sequenzen,2,6,,,,,,,,,,,,
,Move,canvas.Screen,0_3_0_6_0_2,down,response,,232009,232009.16,232017.76,233778,1760.2399999999907,233790,2021-11-01T23:59:20.334Z,233817.62,1635810915,full,ni_sequenzen,NI_Sequenzen,3,6,,,,,,,,,,,,
,Move,canvas.Screen,0_3_0_6_0_3,left,response,,233812,233811.84,233817.62,233964,146.38000000000466,233980,2021-11-01T23:59:20.523Z,234117.58,1635810915,full,ni_sequenzen,NI_Sequenzen,4,6,,,,,,,,,,,,
,Move,canvas.Screen,0_3_0_6_0_4,-999,skipped,,234001,,,233964,,234002,2021-11-01T23:59:20.546Z,234117.58,1635810915,full,ni_sequenzen,NI_Sequenzen,5,6,,,,,,,,,,,,
,Move,canvas.Screen,0_3_0_6_0_5,-999,skipped,,234020,,,233964,,234020,2021-11-01T23:59:20.564Z,234117.58,1635810915,full,ni_sequenzen,NI_Sequenzen,6,6,,,,,,,,,,,,
,Move,canvas.Screen,0_3_0_6_0_6,-999,skipped,,234031,,,233964,,234031,2021-11-01T23:59:20.575Z,234117.58,1635810915,full,ni_sequenzen,NI_Sequenzen,7,6,,,,,,,,,,,,
,Move,canvas.Screen,0_3_0_6_0_7,-999,skipped,,234042,,,233964,,234042,2021-11-01T23:59:20.586Z,234117.58,1635810915,full,ni_sequenzen,NI_Sequenzen,8,6,,,,,,,,,,,,
,Move,canvas.Screen,0_3_0_6_0_8,-999,skipped,,234051,,,233964,,234052,2021-11-01T23:59:20.596Z,234117.58,1635810915,full,ni_sequenzen,NI_Sequenzen,9,6,,,,,,,,,,,,
,Move,canvas.Screen,0_3_0_6_0_9,-999,skipped,,234059,,,233964,,234059,2021-11-01T23:59:20.603Z,234117.58,1635810915,full,ni_sequenzen,NI_Sequenzen,10,6,,,,,,,,,,,,
,Move,canvas.Screen,0_3_0_6_0_10,-999,skipped,,234068,,,233964,,234068,2021-11-01T23:59:20.612Z,234117.58,1635810915,full,ni_sequenzen,NI_Sequenzen,11,6,,,,,,,,,,,,
,Move,canvas.Screen,0_3_0_6_0_11,-999,skipped,,234076,,,233964,,234077,2021-11-01T23:59:20.620Z,234117.58,1635810915,full,ni_sequenzen,NI_Sequenzen,12,6,,,,,,,,,,,,
,Move,canvas.Screen,0_3_0_6_0_12,-999,skipped,,234083,,,233964,,234083,2021-11-01T23:59:20.627Z,234117.58,1635810915,full,ni_sequenzen,NI_Sequenzen,13,6,,,,,,,,,,,,
,Move,canvas.Screen,0_3_0_6_0_13,-999,skipped,,234091,,,233964,,234091,2021-11-01T23:59:20.635Z,234117.58,1635810915,full,ni_sequenzen,NI_Sequenzen,14,6,,,,,,,,,,,,
,Move,canvas.Screen,0_3_0_6_0_14,-999,skipped,,234098,,,233964,,234098,2021-11-01T23:59:20.642Z,234117.58,1635810915,full,ni_sequenzen,NI_Sequenzen,15,6,,,,,,,,,,,,
,Loop,flow.Loop,0_3_0_6_0,-999,completion,,229031,229053.04,229068.02,233964,4895.9800000000105,234098,2021-11-01T23:59:20.642Z,234117.58,1635810915,full,ni_sequenzen,NI_Sequenzen,,6,,,,,,,,,,,,
,Feedback,canvas.Screen,0_3_0_6_1,,timeout,,234111,234110.48,234117.58,238100.64,4025.5200000000186,238102,2021-11-01T23:59:24.645Z,238143.1,1635810915,full,ni_sequenzen,NI_Sequenzen,,6,,,,,,,,,,,,
,Trial,flow.Sequence,0_3_0_6,,completion,,229005,229053.04,229068.02,238100.64,9032.620000000024,238103,2021-11-01T23:59:24.647Z,238150.56,1635810915,full,ni_sequenzen,NI_Sequenzen,,6,,,,,,,,,,,,
,Move,canvas.Screen,0_3_0_7_0_0,down,response,,238143,238143.1,238150.56,241730,3579.4400000000023,241753,2021-11-01T23:59:28.296Z,241766.86,1635810915,full,ni_sequenzen,NI_Sequenzen,1,7,,,,,,,,,,,,
,Move,canvas.Screen,0_3_0_7_0_1,down,response,,241762,241761.94,241766.86,244122,2355.140000000014,244148,2021-11-01T23:59:30.692Z,244183.34,1635810915,full,ni_sequenzen,NI_Sequenzen,2,7,,,,,,,,,,,,
,Move,canvas.Screen,0_3_0_7_0_2,left,response,,244169,244169,244183.34,245714,1530.6600000000035,245735,2021-11-01T23:59:32.279Z,245766.56,1635810915,full,ni_sequenzen,NI_Sequenzen,3,7,,,,,,,,,,,,
,Move,canvas.Screen,0_3_0_7_0_3,left,response,,245758,245757.38,245766.56,246137,370.4400000000023,246152,2021-11-01T23:59:32.695Z,246266.48,1635810915,full,ni_sequenzen,NI_Sequenzen,4,7,,,,,,,,,,,,
,Move,canvas.Screen,0_3_0_7_0_4,-999,skipped,,246172,,,246137,,246173,2021-11-01T23:59:32.717Z,246266.48,1635810915,full,ni_sequenzen,NI_Sequenzen,5,7,,,,,,,,,,,,
,Move,canvas.Screen,0_3_0_7_0_5,-999,skipped,,246191,,,246137,,246191,2021-11-01T23:59:32.735Z,246266.48,1635810915,full,ni_sequenzen,NI_Sequenzen,6,7,,,,,,,,,,,,
,Move,canvas.Screen,0_3_0_7_0_6,-999,skipped,,246202,,,246137,,246202,2021-11-01T23:59:32.746Z,246266.48,1635810915,full,ni_sequenzen,NI_Sequenzen,7,7,,,,,,,,,,,,
,Move,canvas.Screen,0_3_0_7_0_7,-999,skipped,,246213,,,246137,,246213,2021-11-01T23:59:32.757Z,246266.48,1635810915,full,ni_sequenzen,NI_Sequenzen,8,7,,,,,,,,,,,,
,Move,canvas.Screen,0_3_0_7_0_8,-999,skipped,,246223,,,246137,,246224,2021-11-01T23:59:32.767Z,246266.48,1635810915,full,ni_sequenzen,NI_Sequenzen,9,7,,,,,,,,,,,,
,Move,canvas.Screen,0_3_0_7_0_9,-999,skipped,,246230,,,246137,,246230,2021-11-01T23:59:32.774Z,246266.48,1635810915,full,ni_sequenzen,NI_Sequenzen,10,7,,,,,,,,,,,,
,Move,canvas.Screen,0_3_0_7_0_10,-999,skipped,,246237,,,246137,,246237,2021-11-01T23:59:32.781Z,246266.48,1635810915,full,ni_sequenzen,NI_Sequenzen,11,7,,,,,,,,,,,,
,Move,canvas.Screen,0_3_0_7_0_11,-999,skipped,,246245,,,246137,,246245,2021-11-01T23:59:32.789Z,246266.48,1635810915,full,ni_sequenzen,NI_Sequenzen,12,7,,,,,,,,,,,,
,Move,canvas.Screen,0_3_0_7_0_12,-999,skipped,,246252,,,246137,,246252,2021-11-01T23:59:32.796Z,246266.48,1635810915,full,ni_sequenzen,NI_Sequenzen,13,7,,,,,,,,,,,,
,Move,canvas.Screen,0_3_0_7_0_13,-999,skipped,,246257,,,246137,,246257,2021-11-01T23:59:32.801Z,246266.48,1635810915,full,ni_sequenzen,NI_Sequenzen,14,7,,,,,,,,,,,,
,Move,canvas.Screen,0_3_0_7_0_14,-999,skipped,,246262,,,246137,,246262,2021-11-01T23:59:32.805Z,246266.48,1635810915,full,ni_sequenzen,NI_Sequenzen,15,7,,,,,,,,,,,,
,Loop,flow.Loop,0_3_0_7_0,-999,completion,,238125,238143.1,238150.56,246137,7986.440000000002,246262,2021-11-01T23:59:32.805Z,246266.48,1635810915,full,ni_sequenzen,NI_Sequenzen,,7,,,,,,,,,,,,
,Feedback,canvas.Screen,0_3_0_7_1,,timeout,,246265,246265.36,246266.48,250249.56,4025.5999999999767,250251,2021-11-01T23:59:36.795Z,250292.08,1635810915,full,ni_sequenzen,NI_Sequenzen,,7,,,,,,,,,,,,
,Trial,flow.Sequence,0_3_0_7,,completion,,238105,238143.1,238150.56,250249.56,12099,250251,2021-11-01T23:59:36.795Z,250299.54,1635810915,full,ni_sequenzen,NI_Sequenzen,,7,,,,,,,,,,,,
,Move,canvas.Screen,0_3_0_8_0_0,right,response,,250292,250292.08,250299.54,251464,1164.4599999999919,251479,2021-11-01T23:59:38.023Z,251516.06,1635810915,full,ni_sequenzen,NI_Sequenzen,1,8,,,,,,,,,,,,
,Move,canvas.Screen,0_3_0_8_0_1,right,response,,251509,251508.32,251516.06,253230,1713.9400000000023,253251,2021-11-01T23:59:39.795Z,253282.54,1635810915,full,ni_sequenzen,NI_Sequenzen,2,8,,,,,,,,,,,,
,Move,canvas.Screen,0_3_0_8_0_2,down,response,,253273,253273.14,253282.54,253730,447.45999999999185,253735,2021-11-01T23:59:40.279Z,253765.84,1635810915,full,ni_sequenzen,NI_Sequenzen,3,8,,,,,,,,,,,,
,Move,canvas.Screen,0_3_0_8_0_3,left,response,,253756,253756.98,253765.84,254450,684.1600000000035,254461,2021-11-01T23:59:41.004Z,254582.4,1635810915,full,ni_sequenzen,NI_Sequenzen,4,8,,,,,,,,,,,,
,Move,canvas.Screen,0_3_0_8_0_4,-999,skipped,,254481,,,254450,,254482,2021-11-01T23:59:41.026Z,254582.4,1635810915,full,ni_sequenzen,NI_Sequenzen,5,8,,,,,,,,,,,,
,Move,canvas.Screen,0_3_0_8_0_5,-999,skipped,,254499,,,254450,,254500,2021-11-01T23:59:41.044Z,254582.4,1635810915,full,ni_sequenzen,NI_Sequenzen,6,8,,,,,,,,,,,,
,Move,canvas.Screen,0_3_0_8_0_6,-999,skipped,,254516,,,254450,,254516,2021-11-01T23:59:41.060Z,254582.4,1635810915,full,ni_sequenzen,NI_Sequenzen,7,8,,,,,,,,,,,,
,Move,canvas.Screen,0_3_0_8_0_7,-999,skipped,,254527,,,254450,,254527,2021-11-01T23:59:41.071Z,254582.4,1635810915,full,ni_sequenzen,NI_Sequenzen,8,8,,,,,,,,,,,,
,Move,canvas.Screen,0_3_0_8_0_8,-999,skipped,,254537,,,254450,,254537,2021-11-01T23:59:41.081Z,254582.4,1635810915,full,ni_sequenzen,NI_Sequenzen,9,8,,,,,,,,,,,,
,Move,canvas.Screen,0_3_0_8_0_9,-999,skipped,,254544,,,254450,,254544,2021-11-01T23:59:41.087Z,254582.4,1635810915,full,ni_sequenzen,NI_Sequenzen,10,8,,,,,,,,,,,,
,Move,canvas.Screen,0_3_0_8_0_10,-999,skipped,,254551,,,254450,,254551,2021-11-01T23:59:41.095Z,254582.4,1635810915,full,ni_sequenzen,NI_Sequenzen,11,8,,,,,,,,,,,,
,Move,canvas.Screen,0_3_0_8_0_11,-999,skipped,,254557,,,254450,,254557,2021-11-01T23:59:41.101Z,254582.4,1635810915,full,ni_sequenzen,NI_Sequenzen,12,8,,,,,,,,,,,,
,Move,canvas.Screen,0_3_0_8_0_12,-999,skipped,,254565,,,254450,,254565,2021-11-01T23:59:41.108Z,254582.4,1635810915,full,ni_sequenzen,NI_Sequenzen,13,8,,,,,,,,,,,,
,Move,canvas.Screen,0_3_0_8_0_13,-999,skipped,,254570,,,254450,,254570,2021-11-01T23:59:41.114Z,254582.4,1635810915,full,ni_sequenzen,NI_Sequenzen,14,8,,,,,,,,,,,,
,Move,canvas.Screen,0_3_0_8_0_14,-999,skipped,,254575,,,254450,,254575,2021-11-01T23:59:41.118Z,254582.4,1635810915,full,ni_sequenzen,NI_Sequenzen,15,8,,,,,,,,,,,,
,Loop,flow.Loop,0_3_0_8_0,-999,completion,,250274,250292.08,250299.54,254450,4150.459999999992,254575,2021-11-01T23:59:41.118Z,254582.4,1635810915,full,ni_sequenzen,NI_Sequenzen,,8,,,,,,,,,,,,
,Feedback,canvas.Screen,0_3_0_8_1,,timeout,,254579,254578.8,254582.4,258565.46,4028.459999999992,258566,2021-11-01T23:59:45.111Z,258610.86,1635810915,full,ni_sequenzen,NI_Sequenzen,,8,,,,,,,,,,,,
,Trial,flow.Sequence,0_3_0_8,,completion,,250252,250292.08,250299.54,258565.46,8265.919999999984,258567,2021-11-01T23:59:45.111Z,258615.44,1635810915,full,ni_sequenzen,NI_Sequenzen,,8,,,,,,,,,,,,
,Move,canvas.Screen,0_3_0_9_0_0,down,response,,258610,258610.86,258615.44,259339,723.5599999999977,259357,2021-11-01T23:59:45.901Z,259365.32,1635810915,full,ni_sequenzen,NI_Sequenzen,1,9,,,,,,,,,,,,
,Move,canvas.Screen,0_3_0_9_0_1,down,response,,259364,259363.76,259365.32,259621,255.67999999999302,259636,2021-11-01T23:59:46.179Z,259665.34,1635810915,full,ni_sequenzen,NI_Sequenzen,2,9,,,,,,,,,,,,
,Move,canvas.Screen,0_3_0_9_0_2,right,response,,259658,259658.5,259665.34,260387,721.6600000000035,260404,2021-11-01T23:59:46.947Z,260431.92,1635810915,full,ni_sequenzen,NI_Sequenzen,3,9,,,,,,,,,,,,
,Move,canvas.Screen,0_3_0_9_0_3,down,response,,260424,260424.24,260431.92,261544,1112.0799999999872,261567,2021-11-01T23:59:48.111Z,261715.12,1635810915,full,ni_sequenzen,NI_Sequenzen,4,9,,,,,,,,,,,,
,Move,canvas.Screen,0_3_0_9_0_4,-999,skipped,,261587,,,261544,,261588,2021-11-01T23:59:48.131Z,261715.12,1635810915,full,ni_sequenzen,NI_Sequenzen,5,9,,,,,,,,,,,,
,Move,canvas.Screen,0_3_0_9_0_5,-999,skipped,,261605,,,261544,,261606,2021-11-01T23:59:48.150Z,261715.12,1635810915,full,ni_sequenzen,NI_Sequenzen,6,9,,,,,,,,,,,,
,Move,canvas.Screen,0_3_0_9_0_6,-999,skipped,,261622,,,261544,,261623,2021-11-01T23:59:48.167Z,261715.12,1635810915,full,ni_sequenzen,NI_Sequenzen,7,9,,,,,,,,,,,,
,Move,canvas.Screen,0_3_0_9_0_7,-999,skipped,,261635,,,261544,,261636,2021-11-01T23:59:48.179Z,261715.12,1635810915,full,ni_sequenzen,NI_Sequenzen,8,9,,,,,,,,,,,,
,Move,canvas.Screen,0_3_0_9_0_8,-999,skipped,,261646,,,261544,,261646,2021-11-01T23:59:48.190Z,261715.12,1635810915,full,ni_sequenzen,NI_Sequenzen,9,9,,,,,,,,,,,,
,Move,canvas.Screen,0_3_0_9_0_9,-999,skipped,,261658,,,261544,,261658,2021-11-01T23:59:48.202Z,261715.12,1635810915,full,ni_sequenzen,NI_Sequenzen,10,9,,,,,,,,,,,,
,Move,canvas.Screen,0_3_0_9_0_10,-999,skipped,,261669,,,261544,,261670,2021-11-01T23:59:48.214Z,261715.12,1635810915,full,ni_sequenzen,NI_Sequenzen,11,9,,,,,,,,,,,,
,Move,canvas.Screen,0_3_0_9_0_11,-999,skipped,,261678,,,261544,,261678,2021-11-01T23:59:48.222Z,261715.12,1635810915,full,ni_sequenzen,NI_Sequenzen,12,9,,,,,,,,,,,,
,Move,canvas.Screen,0_3_0_9_0_12,-999,skipped,,261684,,,261544,,261684,2021-11-01T23:59:48.229Z,261715.12,1635810915,full,ni_sequenzen,NI_Sequenzen,13,9,,,,,,,,,,,,
,Move,canvas.Screen,0_3_0_9_0_13,-999,skipped,,261693,,,261544,,261693,2021-11-01T23:59:48.237Z,261715.12,1635810915,full,ni_sequenzen,NI_Sequenzen,14,9,,,,,,,,,,,,
,Move,canvas.Screen,0_3_0_9_0_14,-999,skipped,,261701,,,261544,,261701,2021-11-01T23:59:48.244Z,261715.12,1635810915,full,ni_sequenzen,NI_Sequenzen,15,9,,,,,,,,,,,,
,Loop,flow.Loop,0_3_0_9_0,-999,completion,,258593,258610.86,258615.44,261544,2928.5599999999977,261701,2021-11-01T23:59:48.244Z,261715.12,1635810915,full,ni_sequenzen,NI_Sequenzen,,9,,,,,,,,,,,,
,Feedback,canvas.Screen,0_3_0_9_1,,timeout,,261706,261705.74,261715.12,265698.18,4188.820000000007,265700,2021-11-01T23:59:52.243Z,265903.94,1635810915,full,ni_sequenzen,NI_Sequenzen,,9,,,,,,,,,,,,
,Trial,flow.Sequence,0_3_0_9,,completion,,258568,258610.86,258615.44,265698.18,7082.739999999991,265700,2021-11-01T23:59:52.244Z,265931.44,1635810915,full,ni_sequenzen,NI_Sequenzen,,9,,,,,,,,,,,,
,Block,flow.Loop,0_3_0,,completion,,173129,173143.56,173156.26,265698.18,92541.91999999998,265700,2021-11-01T23:59:52.244Z,265931.44,1635810915,full,ni_sequenzen,NI_Sequenzen,,,,,,,,,,,,,,
,Training_II,flow.Sequence,0_3,,completion,,173109,173143.56,173156.26,265698.18,92541.91999999998,265701,2021-11-01T23:59:52.244Z,265931.44,1635810915,full,ni_sequenzen,NI_Sequenzen,,,,,,,,,,,,,,
,Screen_1,canvas.Screen,0_4_0_0,cont,response,1,265904,265903.94,265931.44,279872,13940.559999999998,279901,2021-11-02T00:00:06.445Z,279946.9,1635810915,full,ni_sequenzen,NI_Sequenzen,,,,,,,,,,,,,,
,Screen_2,canvas.Screen,0_4_0_1,cont,response,1,279921,279921.6,279946.9,289184,9237.099999999977,289217,2021-11-02T00:00:15.760Z,289346.08,1635810915,full,ni_sequenzen,NI_Sequenzen,,,,,,,,,,,,,,
,Screen_3,canvas.Screen,0_4_0_2,cont,response,1,289325,289325,289346.08,297746,8399.919999999984,297768,2021-11-02T00:00:24.311Z,298061.9,1635810915,full,ni_sequenzen,NI_Sequenzen,,,,,,,,,,,,,,
,Sequence,flow.Sequence,0_4_0,,completion,1,265763,265903.94,265931.44,297746,31814.559999999998,297770,2021-11-02T00:00:24.313Z,298061.9,1635810915,full,ni_sequenzen,NI_Sequenzen,,,,,,,,,,,,,,
,Screen_1,canvas.Screen,0_4_1_0,,skipped,2,297783,,,297783,,297784,2021-11-02T00:00:24.328Z,298061.9,1635810915,full,ni_sequenzen,NI_Sequenzen,,,,,,,,,,,,,,
,Screen_2,canvas.Screen,0_4_1_1,,skipped,2,297791,,,297783,,297791,2021-11-02T00:00:24.335Z,298061.9,1635810915,full,ni_sequenzen,NI_Sequenzen,,,,,,,,,,,,,,
,Screen_3,canvas.Screen,0_4_1_2,,skipped,2,297798,,,297783,,297799,2021-11-02T00:00:24.342Z,298061.9,1635810915,full,ni_sequenzen,NI_Sequenzen,,,,,,,,,,,,,,
,Sequence,flow.Sequence,0_4_1,,completion,2,297774,,,297783,,297801,2021-11-02T00:00:24.344Z,298061.9,1635810915,full,ni_sequenzen,NI_Sequenzen,,,,,,,,,,,,,,
,Screen_1,canvas.Screen,0_4_2_0,,skipped,3,297810,,,297810,,297810,2021-11-02T00:00:24.354Z,298061.9,1635810915,full,ni_sequenzen,NI_Sequenzen,,,,,,,,,,,,,,
,Screen_2,canvas.Screen,0_4_2_1,,skipped,3,297816,,,297810,,297816,2021-11-02T00:00:24.360Z,298061.9,1635810915,full,ni_sequenzen,NI_Sequenzen,,,,,,,,,,,,,,
,Screen_3,canvas.Screen,0_4_2_2,,skipped,3,297822,,,297810,,297823,2021-11-02T00:00:24.367Z,298061.9,1635810915,full,ni_sequenzen,NI_Sequenzen,,,,,,,,,,,,,,
,Sequence,flow.Sequence,0_4_2,,completion,3,297804,,,297810,,297824,2021-11-02T00:00:24.368Z,298061.9,1635810915,full,ni_sequenzen,NI_Sequenzen,,,,,,,,,,,,,,
,Screen_1,canvas.Screen,0_4_3_0,,skipped,4,297831,,,297831,,297832,2021-11-02T00:00:24.375Z,298061.9,1635810915,full,ni_sequenzen,NI_Sequenzen,,,,,,,,,,,,,,
,Screen_2,canvas.Screen,0_4_3_1,,skipped,4,297836,,,297831,,297837,2021-11-02T00:00:24.380Z,298061.9,1635810915,full,ni_sequenzen,NI_Sequenzen,,,,,,,,,,,,,,
,Screen_3,canvas.Screen,0_4_3_2,,skipped,4,297840,,,297831,,297840,2021-11-02T00:00:24.384Z,298061.9,1635810915,full,ni_sequenzen,NI_Sequenzen,,,,,,,,,,,,,,
,Sequence,flow.Sequence,0_4_3,,completion,4,297827,,,297831,,297841,2021-11-02T00:00:24.385Z,298061.9,1635810915,full,ni_sequenzen,NI_Sequenzen,,,,,,,,,,,,,,
,Screen_1,canvas.Screen,0_4_4_0,,skipped,5,297845,,,297845,,297845,2021-11-02T00:00:24.389Z,298061.9,1635810915,full,ni_sequenzen,NI_Sequenzen,,,,,,,,,,,,,,
,Screen_2,canvas.Screen,0_4_4_1,,skipped,5,297848,,,297845,,297848,2021-11-02T00:00:24.392Z,298061.9,1635810915,full,ni_sequenzen,NI_Sequenzen,,,,,,,,,,,,,,
,Screen_3,canvas.Screen,0_4_4_2,,skipped,5,297853,,,297845,,297853,2021-11-02T00:00:24.397Z,298061.9,1635810915,full,ni_sequenzen,NI_Sequenzen,,,,,,,,,,,,,,
,Sequence,flow.Sequence,0_4_4,,completion,5,297842,,,297845,,297854,2021-11-02T00:00:24.398Z,298061.9,1635810915,full,ni_sequenzen,NI_Sequenzen,,,,,,,,,,,,,,
,Screen_1,canvas.Screen,0_4_5_0,,skipped,6,297859,,,297859,,297859,2021-11-02T00:00:24.403Z,298061.9,1635810915,full,ni_sequenzen,NI_Sequenzen,,,,,,,,,,,,,,
,Screen_2,canvas.Screen,0_4_5_1,,skipped,6,297862,,,297859,,297862,2021-11-02T00:00:24.405Z,298061.9,1635810915,full,ni_sequenzen,NI_Sequenzen,,,,,,,,,,,,,,
,Screen_3,canvas.Screen,0_4_5_2,,skipped,6,297864,,,297859,,297865,2021-11-02T00:00:24.408Z,298061.9,1635810915,full,ni_sequenzen,NI_Sequenzen,,,,,,,,,,,,,,
,Sequence,flow.Sequence,0_4_5,,completion,6,297856,,,297859,,297865,2021-11-02T00:00:24.408Z,298061.9,1635810915,full,ni_sequenzen,NI_Sequenzen,,,,,,,,,,,,,,
,Screen_1,canvas.Screen,0_4_6_0,,skipped,7,297867,,,297867,,297867,2021-11-02T00:00:24.411Z,298061.9,1635810915,full,ni_sequenzen,NI_Sequenzen,,,,,,,,,,,,,,
,Screen_2,canvas.Screen,0_4_6_1,,skipped,7,297870,,,297867,,297870,2021-11-02T00:00:24.413Z,298061.9,1635810915,full,ni_sequenzen,NI_Sequenzen,,,,,,,,,,,,,,
,Screen_3,canvas.Screen,0_4_6_2,,skipped,7,297871,,,297867,,297872,2021-11-02T00:00:24.415Z,298061.9,1635810915,full,ni_sequenzen,NI_Sequenzen,,,,,,,,,,,,,,
,Sequence,flow.Sequence,0_4_6,,completion,7,297866,,,297867,,297872,2021-11-02T00:00:24.415Z,298061.9,1635810915,full,ni_sequenzen,NI_Sequenzen,,,,,,,,,,,,,,
,Screen_1,canvas.Screen,0_4_7_0,,skipped,8,297875,,,297875,,297875,2021-11-02T00:00:24.419Z,298061.9,1635810915,full,ni_sequenzen,NI_Sequenzen,,,,,,,,,,,,,,
,Screen_2,canvas.Screen,0_4_7_1,,skipped,8,297877,,,297875,,297877,2021-11-02T00:00:24.421Z,298061.9,1635810915,full,ni_sequenzen,NI_Sequenzen,,,,,,,,,,,,,,
,Screen_3,canvas.Screen,0_4_7_2,,skipped,8,297879,,,297875,,297879,2021-11-02T00:00:24.423Z,298061.9,1635810915,full,ni_sequenzen,NI_Sequenzen,,,,,,,,,,,,,,
,Sequence,flow.Sequence,0_4_7,,completion,8,297873,,,297875,,297880,2021-11-02T00:00:24.424Z,298061.9,1635810915,full,ni_sequenzen,NI_Sequenzen,,,,,,,,,,,,,,
,Screen_1,canvas.Screen,0_4_8_0,,skipped,9,297883,,,297883,,297883,2021-11-02T00:00:24.426Z,298061.9,1635810915,full,ni_sequenzen,NI_Sequenzen,,,,,,,,,,,,,,
,Screen_2,canvas.Screen,0_4_8_1,,skipped,9,297885,,,297883,,297885,2021-11-02T00:00:24.428Z,298061.9,1635810915,full,ni_sequenzen,NI_Sequenzen,,,,,,,,,,,,,,
,Screen_3,canvas.Screen,0_4_8_2,,skipped,9,297888,,,297883,,297888,2021-11-02T00:00:24.432Z,298061.9,1635810915,full,ni_sequenzen,NI_Sequenzen,,,,,,,,,,,,,,
,Sequence,flow.Sequence,0_4_8,,completion,9,297880,,,297883,,297888,2021-11-02T00:00:24.432Z,298061.9,1635810915,full,ni_sequenzen,NI_Sequenzen,,,,,,,,,,,,,,
,Screen_1,canvas.Screen,0_4_9_0,,skipped,10,297890,,,297890,,297891,2021-11-02T00:00:24.435Z,298061.9,1635810915,full,ni_sequenzen,NI_Sequenzen,,,,,,,,,,,,,,
,Screen_2,canvas.Screen,0_4_9_1,,skipped,10,297892,,,297890,,297892,2021-11-02T00:00:24.436Z,298061.9,1635810915,full,ni_sequenzen,NI_Sequenzen,,,,,,,,,,,,,,
,Screen_3,canvas.Screen,0_4_9_2,,skipped,10,297894,,,297890,,297895,2021-11-02T00:00:24.438Z,298061.9,1635810915,full,ni_sequenzen,NI_Sequenzen,,,,,,,,,,,,,,
,Sequence,flow.Sequence,0_4_9,,completion,10,297889,,,297890,,297895,2021-11-02T00:00:24.438Z,298061.9,1635810915,full,ni_sequenzen,NI_Sequenzen,,,,,,,,,,,,,,
,Screen_1,canvas.Screen,0_4_10_0,,skipped,11,297898,,,297898,,297898,2021-11-02T00:00:24.442Z,298061.9,1635810915,full,ni_sequenzen,NI_Sequenzen,,,,,,,,,,,,,,
,Screen_2,canvas.Screen,0_4_10_1,,skipped,11,297899,,,297898,,297900,2021-11-02T00:00:24.443Z,298061.9,1635810915,full,ni_sequenzen,NI_Sequenzen,,,,,,,,,,,,,,
,Screen_3,canvas.Screen,0_4_10_2,,skipped,11,297901,,,297898,,297902,2021-11-02T00:00:24.445Z,298061.9,1635810915,full,ni_sequenzen,NI_Sequenzen,,,,,,,,,,,,,,
,Sequence,flow.Sequence,0_4_10,,completion,11,297896,,,297898,,297902,2021-11-02T00:00:24.445Z,298061.9,1635810915,full,ni_sequenzen,NI_Sequenzen,,,,,,,,,,,,,,
,Screen_1,canvas.Screen,0_4_11_0,,skipped,12,297904,,,297904,,297904,2021-11-02T00:00:24.448Z,298061.9,1635810915,full,ni_sequenzen,NI_Sequenzen,,,,,,,,,,,,,,
,Screen_2,canvas.Screen,0_4_11_1,,skipped,12,297906,,,297904,,297906,2021-11-02T00:00:24.450Z,298061.9,1635810915,full,ni_sequenzen,NI_Sequenzen,,,,,,,,,,,,,,
,Screen_3,canvas.Screen,0_4_11_2,,skipped,12,297909,,,297904,,297909,2021-11-02T00:00:24.453Z,298061.9,1635810915,full,ni_sequenzen,NI_Sequenzen,,,,,,,,,,,,,,
,Sequence,flow.Sequence,0_4_11,,completion,12,297903,,,297904,,297909,2021-11-02T00:00:24.453Z,298061.9,1635810915,full,ni_sequenzen,NI_Sequenzen,,,,,,,,,,,,,,
,Screen_1,canvas.Screen,0_4_12_0,,skipped,13,297912,,,297912,,297912,2021-11-02T00:00:24.456Z,298061.9,1635810915,full,ni_sequenzen,NI_Sequenzen,,,,,,,,,,,,,,
,Screen_2,canvas.Screen,0_4_12_1,,skipped,13,297916,,,297912,,297917,2021-11-02T00:00:24.460Z,298061.9,1635810915,full,ni_sequenzen,NI_Sequenzen,,,,,,,,,,,,,,
,Screen_3,canvas.Screen,0_4_12_2,,skipped,13,297920,,,297912,,297920,2021-11-02T00:00:24.464Z,298061.9,1635810915,full,ni_sequenzen,NI_Sequenzen,,,,,,,,,,,,,,
,Sequence,flow.Sequence,0_4_12,,completion,13,297910,,,297912,,297921,2021-11-02T00:00:24.464Z,298061.9,1635810915,full,ni_sequenzen,NI_Sequenzen,,,,,,,,,,,,,,
,Screen_1,canvas.Screen,0_4_13_0,,skipped,14,297925,,,297925,,297925,2021-11-02T00:00:24.469Z,298061.9,1635810915,full,ni_sequenzen,NI_Sequenzen,,,,,,,,,,,,,,
,Screen_2,canvas.Screen,0_4_13_1,,skipped,14,297929,,,297925,,297929,2021-11-02T00:00:24.473Z,298061.9,1635810915,full,ni_sequenzen,NI_Sequenzen,,,,,,,,,,,,,,
,Screen_3,canvas.Screen,0_4_13_2,,skipped,14,297934,,,297925,,297934,2021-11-02T00:00:24.477Z,298061.9,1635810915,full,ni_sequenzen,NI_Sequenzen,,,,,,,,,,,,,,
,Sequence,flow.Sequence,0_4_13,,completion,14,297922,,,297925,,297934,2021-11-02T00:00:24.478Z,298061.9,1635810915,full,ni_sequenzen,NI_Sequenzen,,,,,,,,,,,,,,
,Screen_1,canvas.Screen,0_4_14_0,,skipped,15,297939,,,297939,,297939,2021-11-02T00:00:24.483Z,298061.9,1635810915,full,ni_sequenzen,NI_Sequenzen,,,,,,,,,,,,,,
,Screen_2,canvas.Screen,0_4_14_1,,skipped,15,297943,,,297939,,297943,2021-11-02T00:00:24.487Z,298061.9,1635810915,full,ni_sequenzen,NI_Sequenzen,,,,,,,,,,,,,,
,Screen_3,canvas.Screen,0_4_14_2,,skipped,15,297946,,,297939,,297946,2021-11-02T00:00:24.489Z,298061.9,1635810915,full,ni_sequenzen,NI_Sequenzen,,,,,,,,,,,,,,
,Sequence,flow.Sequence,0_4_14,,completion,15,297936,,,297939,,297946,2021-11-02T00:00:24.490Z,298061.9,1635810915,full,ni_sequenzen,NI_Sequenzen,,,,,,,,,,,,,,
,Screen_1,canvas.Screen,0_4_15_0,,skipped,16,297949,,,297949,,297949,2021-11-02T00:00:24.493Z,298061.9,1635810915,full,ni_sequenzen,NI_Sequenzen,,,,,,,,,,,,,,
,Screen_2,canvas.Screen,0_4_15_1,,skipped,16,297952,,,297949,,297952,2021-11-02T00:00:24.495Z,298061.9,1635810915,full,ni_sequenzen,NI_Sequenzen,,,,,,,,,,,,,,
,Screen_3,canvas.Screen,0_4_15_2,,skipped,16,297953,,,297949,,297954,2021-11-02T00:00:24.498Z,298061.9,1635810915,full,ni_sequenzen,NI_Sequenzen,,,,,,,,,,,,,,
,Sequence,flow.Sequence,0_4_15,,completion,16,297947,,,297949,,297954,2021-11-02T00:00:24.498Z,298061.9,1635810915,full,ni_sequenzen,NI_Sequenzen,,,,,,,,,,,,,,
,Screen_1,canvas.Screen,0_4_16_0,,skipped,17,297956,,,297956,,297956,2021-11-02T00:00:24.500Z,298061.9,1635810915,full,ni_sequenzen,NI_Sequenzen,,,,,,,,,,,,,,
,Screen_2,canvas.Screen,0_4_16_1,,skipped,17,297959,,,297956,,297960,2021-11-02T00:00:24.504Z,298061.9,1635810915,full,ni_sequenzen,NI_Sequenzen,,,,,,,,,,,,,,
,Screen_3,canvas.Screen,0_4_16_2,,skipped,17,297963,,,297956,,297964,2021-11-02T00:00:24.508Z,298061.9,1635810915,full,ni_sequenzen,NI_Sequenzen,,,,,,,,,,,,,,
,Sequence,flow.Sequence,0_4_16,,completion,17,297955,,,297956,,297964,2021-11-02T00:00:24.508Z,298061.9,1635810915,full,ni_sequenzen,NI_Sequenzen,,,,,,,,,,,,,,
,Screen_1,canvas.Screen,0_4_17_0,,skipped,18,297967,,,297967,,297967,2021-11-02T00:00:24.511Z,298061.9,1635810915,full,ni_sequenzen,NI_Sequenzen,,,,,,,,,,,,,,
