meta,sender,sender_type,sender_id,response,ended_on,instrCount,time_run,time_render,time_show,time_end,duration,time_commit,timestamp,time_switch,openLabId,type,task,project,move,trialN,blockN_Train,blockN,moveCount,currPP,points,movesTrial,visitedFields,diff,reward,Strategie,Zweck,Probleme
[object Object],Screen_1,canvas.Screen,0_0_0_0,cont,response,1,574.9000000003725,588.376,621.708,37485,36863.292,37497.5,2021-10-26T17:25:54.875Z,37603.562,1635266765,full,ni_sequenzen,NI_Sequenzen,,,,,,,,,,,,,,
,Screen_2,canvas.Screen,0_0_0_1,cont,response,1,37577.300000000745,37570.23,37603.562,37735,131.43800000000192,37743,2021-10-26T17:25:55.121Z,37836.886,1635266765,full,ni_sequenzen,NI_Sequenzen,,,,,,,,,,,,,,
,Screen_3,canvas.Screen,0_0_0_2,cont,response,1,37821.5,37820.22,37836.886,37938.90000000037,102.01400000037393,37946.800000000745,2021-10-26T17:25:55.324Z,37959.164,1635266765,full,ni_sequenzen,NI_Sequenzen,,,,,,,,,,,,,,
,Screen_4,canvas.Screen,0_0_0_3,cont,response,1,37950.20000000112,37942.498,37959.164,38877.70000000112,918.5360000011206,38885.5,2021-10-26T17:25:56.263Z,39009.122,1635266765,full,ni_sequenzen,NI_Sequenzen,,,,,,,,,,,,,,
,Sequence,flow.Sequence,0_0_0,,completion,1,502.5,588.376,621.708,38877.70000000112,38255.99200000112,38886,2021-10-26T17:25:56.264Z,39009.122,1635266765,full,ni_sequenzen,NI_Sequenzen,,,,,,,,,,,,,,
,Screen_1,canvas.Screen,0_0_1_0,,skipped,2,38889.90000000037,,,38889.90000000037,,38890.09999999963,2021-10-26T17:25:56.268Z,39009.122,1635266765,full,ni_sequenzen,NI_Sequenzen,,,,,,,,,,,,,,
,Screen_2,canvas.Screen,0_0_1_1,,skipped,2,38891.800000000745,,,38889.90000000037,,38891.90000000037,2021-10-26T17:25:56.270Z,39009.122,1635266765,full,ni_sequenzen,NI_Sequenzen,,,,,,,,,,,,,,
,Screen_3,canvas.Screen,0_0_1_2,,skipped,2,38894.09999999963,,,38889.90000000037,,38894.20000000112,2021-10-26T17:25:56.272Z,39009.122,1635266765,full,ni_sequenzen,NI_Sequenzen,,,,,,,,,,,,,,
,Screen_4,canvas.Screen,0_0_1_3,,skipped,2,38895.90000000037,,,38889.90000000037,,38896,2021-10-26T17:25:56.274Z,39009.122,1635266765,full,ni_sequenzen,NI_Sequenzen,,,,,,,,,,,,,,
,Sequence,flow.Sequence,0_0_1,,completion,2,38887.59999999963,,,38889.90000000037,,38896.40000000037,2021-10-26T17:25:56.274Z,39009.122,1635266765,full,ni_sequenzen,NI_Sequenzen,,,,,,,,,,,,,,
,Screen_1,canvas.Screen,0_0_2_0,,skipped,3,38898.20000000112,,,38898.20000000112,,38898.40000000037,2021-10-26T17:25:56.276Z,39009.122,1635266765,full,ni_sequenzen,NI_Sequenzen,,,,,,,,,,,,,,
,Screen_2,canvas.Screen,0_0_2_1,,skipped,3,38899.300000000745,,,38898.20000000112,,38899.40000000037,2021-10-26T17:25:56.277Z,39009.122,1635266765,full,ni_sequenzen,NI_Sequenzen,,,,,,,,,,,,,,
,Screen_3,canvas.Screen,0_0_2_2,,skipped,3,38910.20000000112,,,38898.20000000112,,38910.40000000037,2021-10-26T17:25:56.288Z,39009.122,1635266765,full,ni_sequenzen,NI_Sequenzen,,,,,,,,,,,,,,
,Screen_4,canvas.Screen,0_0_2_3,,skipped,3,38911.59999999963,,,38898.20000000112,,38911.70000000112,2021-10-26T17:25:56.289Z,39009.122,1635266765,full,ni_sequenzen,NI_Sequenzen,,,,,,,,,,,,,,
,Sequence,flow.Sequence,0_0_2,,completion,3,38897.09999999963,,,38898.20000000112,,38911.90000000037,2021-10-26T17:25:56.289Z,39009.122,1635266765,full,ni_sequenzen,NI_Sequenzen,,,,,,,,,,,,,,
,Screen_1,canvas.Screen,0_0_3_0,,skipped,4,38913.300000000745,,,38913.300000000745,,38913.300000000745,2021-10-26T17:25:56.291Z,39009.122,1635266765,full,ni_sequenzen,NI_Sequenzen,,,,,,,,,,,,,,
,Screen_2,canvas.Screen,0_0_3_1,,skipped,4,38914.300000000745,,,38913.300000000745,,38914.40000000037,2021-10-26T17:25:56.292Z,39009.122,1635266765,full,ni_sequenzen,NI_Sequenzen,,,,,,,,,,,,,,
,Screen_3,canvas.Screen,0_0_3_2,,skipped,4,38915.300000000745,,,38913.300000000745,,38915.40000000037,2021-10-26T17:25:56.293Z,39009.122,1635266765,full,ni_sequenzen,NI_Sequenzen,,,,,,,,,,,,,,
,Screen_4,canvas.Screen,0_0_3_3,,skipped,4,38916.20000000112,,,38913.300000000745,,38916.300000000745,2021-10-26T17:25:56.294Z,39009.122,1635266765,full,ni_sequenzen,NI_Sequenzen,,,,,,,,,,,,,,
,Sequence,flow.Sequence,0_0_3,,completion,4,38912.40000000037,,,38913.300000000745,,38916.5,2021-10-26T17:25:56.294Z,39009.122,1635266765,full,ni_sequenzen,NI_Sequenzen,,,,,,,,,,,,,,
,Screen_1,canvas.Screen,0_0_4_0,,skipped,5,38917.70000000112,,,38917.70000000112,,38917.70000000112,2021-10-26T17:25:56.295Z,39009.122,1635266765,full,ni_sequenzen,NI_Sequenzen,,,,,,,,,,,,,,
,Screen_2,canvas.Screen,0_0_4_1,,skipped,5,38918.70000000112,,,38917.70000000112,,38918.70000000112,2021-10-26T17:25:56.296Z,39009.122,1635266765,full,ni_sequenzen,NI_Sequenzen,,,,,,,,,,,,,,
,Screen_3,canvas.Screen,0_0_4_2,,skipped,5,38919.800000000745,,,38917.70000000112,,38919.800000000745,2021-10-26T17:25:56.297Z,39009.122,1635266765,full,ni_sequenzen,NI_Sequenzen,,,,,,,,,,,,,,
,Screen_4,canvas.Screen,0_0_4_3,,skipped,5,38920.70000000112,,,38917.70000000112,,38920.800000000745,2021-10-26T17:25:56.298Z,39009.122,1635266765,full,ni_sequenzen,NI_Sequenzen,,,,,,,,,,,,,,
,Sequence,flow.Sequence,0_0_4,,completion,5,38916.90000000037,,,38917.70000000112,,38920.90000000037,2021-10-26T17:25:56.298Z,39009.122,1635266765,full,ni_sequenzen,NI_Sequenzen,,,,,,,,,,,,,,
,Screen_1,canvas.Screen,0_0_5_0,,skipped,6,38922.09999999963,,,38922.20000000112,,38922.20000000112,2021-10-26T17:25:56.300Z,39009.122,1635266765,full,ni_sequenzen,NI_Sequenzen,,,,,,,,,,,,,,
,Screen_2,canvas.Screen,0_0_5_1,,skipped,6,38923,,,38922.20000000112,,38923.09999999963,2021-10-26T17:25:56.301Z,39009.122,1635266765,full,ni_sequenzen,NI_Sequenzen,,,,,,,,,,,,,,
,Screen_3,canvas.Screen,0_0_5_2,,skipped,6,38923.90000000037,,,38922.20000000112,,38924,2021-10-26T17:25:56.302Z,39009.122,1635266765,full,ni_sequenzen,NI_Sequenzen,,,,,,,,,,,,,,
,Screen_4,canvas.Screen,0_0_5_3,,skipped,6,38924.90000000037,,,38922.20000000112,,38924.90000000037,2021-10-26T17:25:56.302Z,39009.122,1635266765,full,ni_sequenzen,NI_Sequenzen,,,,,,,,,,,,,,
,Sequence,flow.Sequence,0_0_5,,completion,6,38921.20000000112,,,38922.20000000112,,38925,2021-10-26T17:25:56.303Z,39009.122,1635266765,full,ni_sequenzen,NI_Sequenzen,,,,,,,,,,,,,,
,Screen_1,canvas.Screen,0_0_6_0,,skipped,7,38927.09999999963,,,38927.09999999963,,38927.20000000112,2021-10-26T17:25:56.305Z,39009.122,1635266765,full,ni_sequenzen,NI_Sequenzen,,,,,,,,,,,,,,
,Screen_2,canvas.Screen,0_0_6_1,,skipped,7,38928.09999999963,,,38927.09999999963,,38928.20000000112,2021-10-26T17:25:56.306Z,39009.122,1635266765,full,ni_sequenzen,NI_Sequenzen,,,,,,,,,,,,,,
,Screen_3,canvas.Screen,0_0_6_2,,skipped,7,38929.20000000112,,,38927.09999999963,,38929.300000000745,2021-10-26T17:25:56.307Z,39009.122,1635266765,full,ni_sequenzen,NI_Sequenzen,,,,,,,,,,,,,,
,Screen_4,canvas.Screen,0_0_6_3,,skipped,7,38930.20000000112,,,38927.09999999963,,38930.300000000745,2021-10-26T17:25:56.308Z,39009.122,1635266765,full,ni_sequenzen,NI_Sequenzen,,,,,,,,,,,,,,
,Sequence,flow.Sequence,0_0_6,,completion,7,38925.40000000037,,,38927.09999999963,,38930.40000000037,2021-10-26T17:25:56.308Z,39009.122,1635266765,full,ni_sequenzen,NI_Sequenzen,,,,,,,,,,,,,,
,Screen_1,canvas.Screen,0_0_7_0,,skipped,8,38931.90000000037,,,38931.90000000037,,38932,2021-10-26T17:25:56.310Z,39009.122,1635266765,full,ni_sequenzen,NI_Sequenzen,,,,,,,,,,,,,,
,Screen_2,canvas.Screen,0_0_7_1,,skipped,8,38932.90000000037,,,38931.90000000037,,38933,2021-10-26T17:25:56.311Z,39009.122,1635266765,full,ni_sequenzen,NI_Sequenzen,,,,,,,,,,,,,,
,Screen_3,canvas.Screen,0_0_7_2,,skipped,8,38933.90000000037,,,38931.90000000037,,38933.90000000037,2021-10-26T17:25:56.312Z,39009.122,1635266765,full,ni_sequenzen,NI_Sequenzen,,,,,,,,,,,,,,
,Screen_4,canvas.Screen,0_0_7_3,,skipped,8,38934.800000000745,,,38931.90000000037,,38934.800000000745,2021-10-26T17:25:56.312Z,39009.122,1635266765,full,ni_sequenzen,NI_Sequenzen,,,,,,,,,,,,,,
,Sequence,flow.Sequence,0_0_7,,completion,8,38930.800000000745,,,38931.90000000037,,38934.90000000037,2021-10-26T17:25:56.313Z,39009.122,1635266765,full,ni_sequenzen,NI_Sequenzen,,,,,,,,,,,,,,
,Screen_1,canvas.Screen,0_0_8_0,,skipped,9,38936.300000000745,,,38936.300000000745,,38936.40000000037,2021-10-26T17:25:56.314Z,39009.122,1635266765,full,ni_sequenzen,NI_Sequenzen,,,,,,,,,,,,,,
,Screen_2,canvas.Screen,0_0_8_1,,skipped,9,38937.09999999963,,,38936.300000000745,,38937.300000000745,2021-10-26T17:25:56.315Z,39009.122,1635266765,full,ni_sequenzen,NI_Sequenzen,,,,,,,,,,,,,,
,Screen_3,canvas.Screen,0_0_8_2,,skipped,9,38938.20000000112,,,38936.300000000745,,38938.300000000745,2021-10-26T17:25:56.316Z,39009.122,1635266765,full,ni_sequenzen,NI_Sequenzen,,,,,,,,,,,,,,
,Screen_4,canvas.Screen,0_0_8_3,,skipped,9,38939.40000000037,,,38936.300000000745,,38939.40000000037,2021-10-26T17:25:56.317Z,39009.122,1635266765,full,ni_sequenzen,NI_Sequenzen,,,,,,,,,,,,,,
,Sequence,flow.Sequence,0_0_8,,completion,9,38935.300000000745,,,38936.300000000745,,38939.59999999963,2021-10-26T17:25:56.317Z,39009.122,1635266765,full,ni_sequenzen,NI_Sequenzen,,,,,,,,,,,,,,
,Screen_1,canvas.Screen,0_0_9_0,,skipped,10,38940.90000000037,,,38940.90000000037,,38940.90000000037,2021-10-26T17:25:56.319Z,39009.122,1635266765,full,ni_sequenzen,NI_Sequenzen,,,,,,,,,,,,,,
,Screen_2,canvas.Screen,0_0_9_1,,skipped,10,38944.300000000745,,,38940.90000000037,,38944.59999999963,2021-10-26T17:25:56.322Z,39009.122,1635266765,full,ni_sequenzen,NI_Sequenzen,,,,,,,,,,,,,,
,Screen_3,canvas.Screen,0_0_9_2,,skipped,10,38946.300000000745,,,38940.90000000037,,38946.5,2021-10-26T17:25:56.324Z,39009.122,1635266765,full,ni_sequenzen,NI_Sequenzen,,,,,,,,,,,,,,
,Screen_4,canvas.Screen,0_0_9_3,,skipped,10,38947.5,,,38940.90000000037,,38947.59999999963,2021-10-26T17:25:56.325Z,39009.122,1635266765,full,ni_sequenzen,NI_Sequenzen,,,,,,,,,,,,,,
,Sequence,flow.Sequence,0_0_9,,completion,10,38940,,,38940.90000000037,,38947.70000000112,2021-10-26T17:25:56.325Z,39009.122,1635266765,full,ni_sequenzen,NI_Sequenzen,,,,,,,,,,,,,,
,Screen_1,canvas.Screen,0_0_10_0,,skipped,11,38948.90000000037,,,38948.90000000037,,38948.90000000037,2021-10-26T17:25:56.326Z,39009.122,1635266765,full,ni_sequenzen,NI_Sequenzen,,,,,,,,,,,,,,
,Screen_2,canvas.Screen,0_0_10_1,,skipped,11,38949.59999999963,,,38948.90000000037,,38949.70000000112,2021-10-26T17:25:56.327Z,39009.122,1635266765,full,ni_sequenzen,NI_Sequenzen,,,,,,,,,,,,,,
,Screen_3,canvas.Screen,0_0_10_2,,skipped,11,38950.70000000112,,,38948.90000000037,,38950.70000000112,2021-10-26T17:25:56.328Z,39009.122,1635266765,full,ni_sequenzen,NI_Sequenzen,,,,,,,,,,,,,,
,Screen_4,canvas.Screen,0_0_10_3,,skipped,11,38951.59999999963,,,38948.90000000037,,38951.59999999963,2021-10-26T17:25:56.329Z,39009.122,1635266765,full,ni_sequenzen,NI_Sequenzen,,,,,,,,,,,,,,
,Sequence,flow.Sequence,0_0_10,,completion,11,38948.09999999963,,,38948.90000000037,,38951.800000000745,2021-10-26T17:25:56.329Z,39009.122,1635266765,full,ni_sequenzen,NI_Sequenzen,,,,,,,,,,,,,,
,Screen_1,canvas.Screen,0_0_11_0,,skipped,12,38953.5,,,38953.5,,38954.20000000112,2021-10-26T17:25:56.332Z,39009.122,1635266765,full,ni_sequenzen,NI_Sequenzen,,,,,,,,,,,,,,
,Screen_2,canvas.Screen,0_0_11_1,,skipped,12,38955.300000000745,,,38953.5,,38955.40000000037,2021-10-26T17:25:56.333Z,39009.122,1635266765,full,ni_sequenzen,NI_Sequenzen,,,,,,,,,,,,,,
,Screen_3,canvas.Screen,0_0_11_2,,skipped,12,38956.20000000112,,,38953.5,,38956.300000000745,2021-10-26T17:25:56.334Z,39009.122,1635266765,full,ni_sequenzen,NI_Sequenzen,,,,,,,,,,,,,,
,Screen_4,canvas.Screen,0_0_11_3,,skipped,12,38957,,,38953.5,,38957,2021-10-26T17:25:56.335Z,39009.122,1635266765,full,ni_sequenzen,NI_Sequenzen,,,,,,,,,,,,,,
,Sequence,flow.Sequence,0_0_11,,completion,12,38952.59999999963,,,38953.5,,38957.20000000112,2021-10-26T17:25:56.335Z,39009.122,1635266765,full,ni_sequenzen,NI_Sequenzen,,,,,,,,,,,,,,
,Screen_1,canvas.Screen,0_0_12_0,,skipped,13,38958.09999999963,,,38958.09999999963,,38958.20000000112,2021-10-26T17:25:56.336Z,39009.122,1635266765,full,ni_sequenzen,NI_Sequenzen,,,,,,,,,,,,,,
,Screen_2,canvas.Screen,0_0_12_1,,skipped,13,38958.800000000745,,,38958.09999999963,,38958.800000000745,2021-10-26T17:25:56.336Z,39009.122,1635266765,full,ni_sequenzen,NI_Sequenzen,,,,,,,,,,,,,,
,Screen_3,canvas.Screen,0_0_12_2,,skipped,13,38959.5,,,38958.09999999963,,38959.5,2021-10-26T17:25:56.337Z,39009.122,1635266765,full,ni_sequenzen,NI_Sequenzen,,,,,,,,,,,,,,
,Screen_4,canvas.Screen,0_0_12_3,,skipped,13,38961.20000000112,,,38958.09999999963,,38961.300000000745,2021-10-26T17:25:56.339Z,39009.122,1635266765,full,ni_sequenzen,NI_Sequenzen,,,,,,,,,,,,,,
,Sequence,flow.Sequence,0_0_12,,completion,13,38957.40000000037,,,38958.09999999963,,38961.40000000037,2021-10-26T17:25:56.339Z,39009.122,1635266765,full,ni_sequenzen,NI_Sequenzen,,,,,,,,,,,,,,
,Screen_1,canvas.Screen,0_0_13_0,,skipped,14,38962.40000000037,,,38962.40000000037,,38962.5,2021-10-26T17:25:56.340Z,39009.122,1635266765,full,ni_sequenzen,NI_Sequenzen,,,,,,,,,,,,,,
,Screen_2,canvas.Screen,0_0_13_1,,skipped,14,38963,,,38962.40000000037,,38963,2021-10-26T17:25:56.341Z,39009.122,1635266765,full,ni_sequenzen,NI_Sequenzen,,,,,,,,,,,,,,
,Screen_3,canvas.Screen,0_0_13_2,,skipped,14,38963.70000000112,,,38962.40000000037,,38963.70000000112,2021-10-26T17:25:56.341Z,39009.122,1635266765,full,ni_sequenzen,NI_Sequenzen,,,,,,,,,,,,,,
,Screen_4,canvas.Screen,0_0_13_3,,skipped,14,38964.20000000112,,,38962.40000000037,,38964.300000000745,2021-10-26T17:25:56.342Z,39009.122,1635266765,full,ni_sequenzen,NI_Sequenzen,,,,,,,,,,,,,,
,Sequence,flow.Sequence,0_0_13,,completion,14,38961.70000000112,,,38962.40000000037,,38964.40000000037,2021-10-26T17:25:56.342Z,39009.122,1635266765,full,ni_sequenzen,NI_Sequenzen,,,,,,,,,,,,,,
,Screen_1,canvas.Screen,0_0_14_0,,skipped,15,38965.20000000112,,,38965.20000000112,,38965.20000000112,2021-10-26T17:25:56.343Z,39009.122,1635266765,full,ni_sequenzen,NI_Sequenzen,,,,,,,,,,,,,,
,Screen_2,canvas.Screen,0_0_14_1,,skipped,15,38965.800000000745,,,38965.20000000112,,38965.800000000745,2021-10-26T17:25:56.343Z,39009.122,1635266765,full,ni_sequenzen,NI_Sequenzen,,,,,,,,,,,,,,
,Screen_3,canvas.Screen,0_0_14_2,,skipped,15,38966.300000000745,,,38965.20000000112,,38966.40000000037,2021-10-26T17:25:56.344Z,39009.122,1635266765,full,ni_sequenzen,NI_Sequenzen,,,,,,,,,,,,,,
,Screen_4,canvas.Screen,0_0_14_3,,skipped,15,38966.90000000037,,,38965.20000000112,,38967,2021-10-26T17:25:56.345Z,39009.122,1635266765,full,ni_sequenzen,NI_Sequenzen,,,,,,,,,,,,,,
,Sequence,flow.Sequence,0_0_14,,completion,15,38964.59999999963,,,38965.20000000112,,38967.09999999963,2021-10-26T17:25:56.345Z,39009.122,1635266765,full,ni_sequenzen,NI_Sequenzen,,,,,,,,,,,,,,
,Screen_1,canvas.Screen,0_0_15_0,,skipped,16,38968,,,38968,,38968,2021-10-26T17:25:56.346Z,39009.122,1635266765,full,ni_sequenzen,NI_Sequenzen,,,,,,,,,,,,,,
,Screen_2,canvas.Screen,0_0_15_1,,skipped,16,38969,,,38968,,38969.09999999963,2021-10-26T17:25:56.347Z,39009.122,1635266765,full,ni_sequenzen,NI_Sequenzen,,,,,,,,,,,,,,
,Screen_3,canvas.Screen,0_0_15_2,,skipped,16,38969.800000000745,,,38968,,38970.5,2021-10-26T17:25:56.348Z,39009.122,1635266765,full,ni_sequenzen,NI_Sequenzen,,,,,,,,,,,,,,
,Screen_4,canvas.Screen,0_0_15_3,,skipped,16,38971.40000000037,,,38968,,38971.5,2021-10-26T17:25:56.349Z,39009.122,1635266765,full,ni_sequenzen,NI_Sequenzen,,,,,,,,,,,,,,
,Sequence,flow.Sequence,0_0_15,,completion,16,38967.40000000037,,,38968,,38971.59999999963,2021-10-26T17:25:56.349Z,39009.122,1635266765,full,ni_sequenzen,NI_Sequenzen,,,,,,,,,,,,,,
,Screen_1,canvas.Screen,0_0_16_0,,skipped,17,38973.09999999963,,,38973.09999999963,,38973.20000000112,2021-10-26T17:25:56.351Z,39009.122,1635266765,full,ni_sequenzen,NI_Sequenzen,,,,,,,,,,,,,,
,Screen_2,canvas.Screen,0_0_16_1,,skipped,17,38973.800000000745,,,38973.09999999963,,38973.90000000037,2021-10-26T17:25:56.351Z,39009.122,1635266765,full,ni_sequenzen,NI_Sequenzen,,,,,,,,,,,,,,
,Screen_3,canvas.Screen,0_0_16_2,,skipped,17,38974.40000000037,,,38973.09999999963,,38974.5,2021-10-26T17:25:56.352Z,39009.122,1635266765,full,ni_sequenzen,NI_Sequenzen,,,,,,,,,,,,,,
,Screen_4,canvas.Screen,0_0_16_3,,skipped,17,38975.09999999963,,,38973.09999999963,,38975.09999999963,2021-10-26T17:25:56.353Z,39009.122,1635266765,full,ni_sequenzen,NI_Sequenzen,,,,,,,,,,,,,,
,Sequence,flow.Sequence,0_0_16,,completion,17,38971.800000000745,,,38973.09999999963,,38975.09999999963,2021-10-26T17:25:56.353Z,39009.122,1635266765,full,ni_sequenzen,NI_Sequenzen,,,,,,,,,,,,,,
,Screen_1,canvas.Screen,0_0_17_0,,skipped,18,38975.90000000037,,,38975.90000000037,,38976,2021-10-26T17:25:56.353Z,39009.122,1635266765,full,ni_sequenzen,NI_Sequenzen,,,,,,,,,,,,,,
,Screen_2,canvas.Screen,0_0_17_1,,skipped,18,38976.5,,,38975.90000000037,,38976.5,2021-10-26T17:25:56.354Z,39009.122,1635266765,full,ni_sequenzen,NI_Sequenzen,,,,,,,,,,,,,,
,Screen_3,canvas.Screen,0_0_17_2,,skipped,18,38977.09999999963,,,38975.90000000037,,38977.09999999963,2021-10-26T17:25:56.355Z,39009.122,1635266765,full,ni_sequenzen,NI_Sequenzen,,,,,,,,,,,,,,
,Screen_4,canvas.Screen,0_0_17_3,,skipped,18,38977.800000000745,,,38975.90000000037,,38977.90000000037,2021-10-26T17:25:56.355Z,39009.122,1635266765,full,ni_sequenzen,NI_Sequenzen,,,,,,,,,,,,,,
,Sequence,flow.Sequence,0_0_17,,completion,18,38975.40000000037,,,38975.90000000037,,38977.90000000037,2021-10-26T17:25:56.356Z,39009.122,1635266765,full,ni_sequenzen,NI_Sequenzen,,,,,,,,,,,,,,
,Screen_1,canvas.Screen,0_0_18_0,,skipped,19,38978.70000000112,,,38978.70000000112,,38978.800000000745,2021-10-26T17:25:56.356Z,39009.122,1635266765,full,ni_sequenzen,NI_Sequenzen,,,,,,,,,,,,,,
,Screen_2,canvas.Screen,0_0_18_1,,skipped,19,38979.300000000745,,,38978.70000000112,,38979.300000000745,2021-10-26T17:25:56.357Z,39009.122,1635266765,full,ni_sequenzen,NI_Sequenzen,,,,,,,,,,,,,,
,Screen_3,canvas.Screen,0_0_18_2,,skipped,19,38979.800000000745,,,38978.70000000112,,38979.800000000745,2021-10-26T17:25:56.357Z,39009.122,1635266765,full,ni_sequenzen,NI_Sequenzen,,,,,,,,,,,,,,
,Screen_4,canvas.Screen,0_0_18_3,,skipped,19,38980.300000000745,,,38978.70000000112,,38980.300000000745,2021-10-26T17:25:56.358Z,39009.122,1635266765,full,ni_sequenzen,NI_Sequenzen,,,,,,,,,,,,,,
,Sequence,flow.Sequence,0_0_18,,completion,19,38978.20000000112,,,38978.70000000112,,38980.300000000745,2021-10-26T17:25:56.358Z,39009.122,1635266765,full,ni_sequenzen,NI_Sequenzen,,,,,,,,,,,,,,
,Screen_1,canvas.Screen,0_0_19_0,,skipped,20,38980.90000000037,,,38980.90000000037,,38981,2021-10-26T17:25:56.359Z,39009.122,1635266765,full,ni_sequenzen,NI_Sequenzen,,,,,,,,,,,,,,
,Screen_2,canvas.Screen,0_0_19_1,,skipped,20,38982,,,38980.90000000037,,38982.09999999963,2021-10-26T17:25:56.360Z,39009.122,1635266765,full,ni_sequenzen,NI_Sequenzen,,,,,,,,,,,,,,
,Screen_3,canvas.Screen,0_0_19_2,,skipped,20,38982.70000000112,,,38980.90000000037,,38982.800000000745,2021-10-26T17:25:56.360Z,39009.122,1635266765,full,ni_sequenzen,NI_Sequenzen,,,,,,,,,,,,,,
,Screen_4,canvas.Screen,0_0_19_3,,skipped,20,38983.300000000745,,,38980.90000000037,,38983.40000000037,2021-10-26T17:25:56.361Z,39009.122,1635266765,full,ni_sequenzen,NI_Sequenzen,,,,,,,,,,,,,,
,Sequence,flow.Sequence,0_0_19,,completion,20,38980.59999999963,,,38980.90000000037,,38983.40000000037,2021-10-26T17:25:56.361Z,39009.122,1635266765,full,ni_sequenzen,NI_Sequenzen,,,,,,,,,,,,,,
,Instructions_I,flow.Loop,0_0,,completion,,500.40000000037253,588.376,621.708,38980.90000000037,38359.192000000374,38983.5,2021-10-26T17:25:56.361Z,39009.122,1635266765,full,ni_sequenzen,NI_Sequenzen,,,,,,,,,,,,,,
,Move,canvas.Screen,0_1_0_0,right,response,,38991.800000000745,38992.456,39009.122,39051.90000000037,42.7780000003695,39059.300000000745,2021-10-26T17:25:56.437Z,39075.786,1635266765,full,ni_sequenzen,NI_Sequenzen,1,,,,,,,,,,,,,
,Move,canvas.Screen,0_1_0_1,right,response,,39063.40000000037,39059.12,39075.786,39209.59999999963,133.8139999996274,39217.800000000745,2021-10-26T17:25:56.595Z,39225.78,1635266765,full,ni_sequenzen,NI_Sequenzen,2,,,,,,,,,,,,,
,Move,canvas.Screen,0_1_0_2,right,response,,39223.40000000037,39209.114,39225.78,40137.20000000112,911.4200000011188,40145.09999999963,2021-10-26T17:25:57.523Z,40159.076,1635266765,full,ni_sequenzen,NI_Sequenzen,3,,,,,,,,,,,,,
,Move,canvas.Screen,0_1_0_3,right,response,,40148.09999999963,40142.41,40159.076,40295.20000000112,136.12400000111666,40303.09999999963,2021-10-26T17:25:57.681Z,40309.07,1635266765,full,ni_sequenzen,NI_Sequenzen,4,,,,,,,,,,,,,
,Move,canvas.Screen,0_1_0_4,right,response,,40306.20000000112,40292.404,40309.07,40421,111.93000000000029,40428.59999999963,2021-10-26T17:25:57.806Z,40442.398,1635266765,full,ni_sequenzen,NI_Sequenzen,5,,,,,,,,,,,,,
,Move,canvas.Screen,0_1_0_5,down,response,,40431.59999999963,40425.732,40442.398,40978.300000000745,535.902000000744,40986.70000000112,2021-10-26T17:25:58.364Z,40992.376,1635266765,full,ni_sequenzen,NI_Sequenzen,6,,,,,,,,,,,,,
,Move,canvas.Screen,0_1_0_6,down,response,,40989.5,40975.71,40992.376,41114.300000000745,121.92400000074849,41122,2021-10-26T17:25:58.499Z,41142.37,1635266765,full,ni_sequenzen,NI_Sequenzen,7,,,,,,,,,,,,,
,Move,canvas.Screen,0_1_0_7,down,response,,41125.20000000112,41125.704,41142.37,41333,190.62999999999738,41340.90000000037,2021-10-26T17:25:58.718Z,41359.028,1635266765,full,ni_sequenzen,NI_Sequenzen,8,,,,,,,,,,,,,
,Move,canvas.Screen,0_1_0_8,down,response,,41343.59999999963,41342.362,41359.028,41537.09999999963,178.07199999962904,41545.20000000112,2021-10-26T17:25:58.923Z,41559.02,1635266765,full,ni_sequenzen,NI_Sequenzen,9,,,,,,,,,,,,,
,Move,canvas.Screen,0_1_0_9,left,response,,41548.09999999963,41542.354,41559.02,41709,149.9800000000032,41716.800000000745,2021-10-26T17:25:59.094Z,41725.68,1635266765,full,ni_sequenzen,NI_Sequenzen,10,,,,,,,,,,,,,
,Move,canvas.Screen,0_1_0_10,left,response,,41719.70000000112,41709.014,41725.68,41855.09999999963,129.41999999962718,41863.40000000037,2021-10-26T17:25:59.241Z,41875.674,1635266765,full,ni_sequenzen,NI_Sequenzen,11,,,,,,,,,,,,,
,Move,canvas.Screen,0_1_0_11,left,response,,41867,41859.008,41875.674,42011.70000000112,136.02600000111852,42019.20000000112,2021-10-26T17:25:59.397Z,42025.668,1635266765,full,ni_sequenzen,NI_Sequenzen,12,,,,,,,,,,,,,
,Move,canvas.Screen,0_1_0_12,left,response,,42022.59999999963,42009.002,42025.668,42176,150.33200000000215,42184.09999999963,2021-10-26T17:25:59.561Z,42192.328,1635266765,full,ni_sequenzen,NI_Sequenzen,13,,,,,,,,,,,,,
,Move,canvas.Screen,0_1_0_13,down,response,,42186.800000000745,42175.662,42192.328,42409.59999999963,217.27199999962613,42417.40000000037,2021-10-26T17:25:59.795Z,42425.652,1635266765,full,ni_sequenzen,NI_Sequenzen,14,,,,,,,,,,,,,
,Move,canvas.Screen,0_1_0_14,down,response,,42420.40000000037,42408.986,42425.652,42572,146.34799999999814,42580.09999999963,2021-10-26T17:25:59.957Z,42592.312,1635266765,full,ni_sequenzen,NI_Sequenzen,15,,,,,,,,,,,,,
,Move,canvas.Screen,0_1_0_15,down,response,,42582.800000000745,42575.646,42592.312,42729.90000000037,137.58800000037445,42737.800000000745,2021-10-26T17:26:00.115Z,42742.306,1635266765,full,ni_sequenzen,NI_Sequenzen,16,,,,,,,,,,,,,
,Move,canvas.Screen,0_1_0_16,down,response,,42741,42725.64,42742.306,42836.300000000745,93.9940000007482,42843.90000000037,2021-10-26T17:26:00.221Z,42858.968,1635266765,full,ni_sequenzen,NI_Sequenzen,17,,,,,,,,,,,,,
,Move,canvas.Screen,0_1_0_17,down,response,,42846.70000000112,42842.302,42858.968,42992.59999999963,133.63199999962671,43001.300000000745,2021-10-26T17:26:00.379Z,43008.962,1635266765,full,ni_sequenzen,NI_Sequenzen,18,,,,,,,,,,,,,
,Move,canvas.Screen,0_1_0_18,right,response,,43004.5,42992.296,43008.962,43225.90000000037,216.938000000373,43234.300000000745,2021-10-26T17:26:00.612Z,43242.286,1635266765,full,ni_sequenzen,NI_Sequenzen,19,,,,,,,,,,,,,
,Move,canvas.Screen,0_1_0_19,right,response,,43237.90000000037,43225.62,43242.286,43388.800000000745,146.514000000745,43397,2021-10-26T17:26:00.774Z,43408.946,1635266765,full,ni_sequenzen,NI_Sequenzen,20,,,,,,,,,,,,,
,Move,canvas.Screen,0_1_0_20,right,response,,43400.09999999963,43392.28,43408.946,43544.09999999963,135.15399999962392,43551.90000000037,2021-10-26T17:26:00.929Z,43558.94,1635266765,full,ni_sequenzen,NI_Sequenzen,21,,,,,,,,,,,,,
,Move,canvas.Screen,0_1_0_21,right,response,,43554.90000000037,43542.274,43558.94,43649,90.05999999999767,43656.40000000037,2021-10-26T17:26:01.034Z,43675.602,1635266765,full,ni_sequenzen,NI_Sequenzen,22,,,,,,,,,,,,,
,Move,canvas.Screen,0_1_0_22,right,response,,43659.40000000037,43658.936,43675.602,43776,100.39800000000105,43784.59999999963,2021-10-26T17:26:01.162Z,43792.264,1635266765,full,ni_sequenzen,NI_Sequenzen,23,,,,,,,,,,,,,
,Move,canvas.Screen,0_1_0_23,down,response,,43788,43775.598,43792.264,43985,192.73599999999715,43992.40000000037,2021-10-26T17:26:01.370Z,44008.922,1635266765,full,ni_sequenzen,NI_Sequenzen,24,,,,,,,,,,,,,
,Move,canvas.Screen,0_1_0_24,down,response,,43995.40000000037,43992.256,44008.922,44140,131.07800000000134,44147.70000000112,2021-10-26T17:26:01.525Z,44158.916,1635266765,full,ni_sequenzen,NI_Sequenzen,25,,,,,,,,,,,,,
,Move,canvas.Screen,0_1_0_25,down,response,,44150.800000000745,44142.25,44158.916,44291.20000000112,132.28400000112015,44298.90000000037,2021-10-26T17:26:01.676Z,44308.91,1635266765,full,ni_sequenzen,NI_Sequenzen,26,,,,,,,,,,,,,
,Move,canvas.Screen,0_1_0_26,down,response,,44301.5,44292.244,44308.91,44412,103.08999999999651,44419.70000000112,2021-10-26T17:26:01.797Z,44425.572,1635266765,full,ni_sequenzen,NI_Sequenzen,27,,,,,,,,,,,,,
,Move,canvas.Screen,0_1_0_27,left,response,,44423.09999999963,44408.906,44425.572,44735,309.4279999999999,44755.59999999963,2021-10-26T17:26:02.133Z,44775.558,1635266765,full,ni_sequenzen,NI_Sequenzen,28,,,,,,,,,,,,,
,Move,canvas.Screen,0_1_0_28,left,response,,44757.300000000745,44758.892,44775.558,44887,111.44200000000274,44894.70000000112,2021-10-26T17:26:02.272Z,44908.886,1635266765,full,ni_sequenzen,NI_Sequenzen,29,,,,,,,,,,,,,
,Move,canvas.Screen,0_1_0_29,left,response,,44897.800000000745,44892.22,44908.886,45074.09999999963,165.21399999962887,45081.59999999963,2021-10-26T17:26:02.459Z,45142.21,1635266765,full,ni_sequenzen,NI_Sequenzen,30,,,,,,,,,,,,,
,Loop,flow.Loop,0_1_0,-999,completion,,38990.20000000112,38992.456,39009.122,45074.09999999963,6064.977999999624,45081.800000000745,2021-10-26T17:26:02.459Z,45142.21,1635266765,full,ni_sequenzen,NI_Sequenzen,,,,,,,,,,,,,,
,Training_I,flow.Sequence,0_1,,completion,,38983.70000000112,38992.456,39009.122,45074.09999999963,6064.977999999624,45082,2021-10-26T17:26:02.459Z,45142.21,1635266765,full,ni_sequenzen,NI_Sequenzen,,,,,,,,,,,,,,
,Screen_1,canvas.Screen,0_2_0_0,cont,response,1,45126.59999999963,45125.544,45142.21,46109.90000000037,967.6900000003734,46117.59999999963,2021-10-26T17:26:03.495Z,46192.168,1635266765,full,ni_sequenzen,NI_Sequenzen,,,,,,,,,,,,,,
,Screen_2,canvas.Screen,0_2_0_1,cont,response,1,46189.800000000745,46175.502,46192.168,46919.90000000037,727.7320000003747,46927.800000000745,2021-10-26T17:26:04.305Z,46942.138,1635266765,full,ni_sequenzen,NI_Sequenzen,,,,,,,,,,,,,,
,Screen_3,canvas.Screen,0_2_0_2,cont,response,1,46930.90000000037,46925.472,46942.138,47255.59999999963,313.46199999962846,47263.90000000037,2021-10-26T17:26:04.641Z,47358.788,1635266765,full,ni_sequenzen,NI_Sequenzen,,,,,,,,,,,,,,
,Screen_4,canvas.Screen,0_2_0_3,cont,response,1,47341.800000000745,47342.122,47358.788,47427,68.21199999999953,47435.20000000112,2021-10-26T17:26:04.812Z,47442.118,1635266765,full,ni_sequenzen,NI_Sequenzen,,,,,,,,,,,,,,
,Screen_5,canvas.Screen,0_2_0_4,cont,response,1,47437.90000000037,47425.452,47442.118,47816.90000000037,374.7820000003703,47824.70000000112,2021-10-26T17:26:05.202Z,47908.766,1635266765,full,ni_sequenzen,NI_Sequenzen,,,,,,,,,,,,,,
,Screen_6,canvas.Screen,0_2_0_5,cont,response,1,47906.5,47892.1,47908.766,48231,322.23399999999674,48238.800000000745,2021-10-26T17:26:05.616Z,48425.412,1635266765,full,ni_sequenzen,NI_Sequenzen,,,,,,,,,,,,,,
,Sequence,flow.Sequence,0_2_0,,completion,1,45125.20000000112,45125.544,45142.21,48231,3088.790000000001,48239.20000000112,2021-10-26T17:26:05.616Z,48425.412,1635266765,full,ni_sequenzen,NI_Sequenzen,,,,,,,,,,,,,,
,Screen_1,canvas.Screen,0_2_1_0,,skipped,2,48243.90000000037,,,48243.90000000037,,48244,2021-10-26T17:26:05.621Z,48425.412,1635266765,full,ni_sequenzen,NI_Sequenzen,,,,,,,,,,,,,,
,Screen_2,canvas.Screen,0_2_1_1,,skipped,2,48245.70000000112,,,48243.90000000037,,48245.800000000745,2021-10-26T17:26:05.623Z,48425.412,1635266765,full,ni_sequenzen,NI_Sequenzen,,,,,,,,,,,,,,
,Screen_3,canvas.Screen,0_2_1_2,,skipped,2,48247.09999999963,,,48243.90000000037,,48247.300000000745,2021-10-26T17:26:05.624Z,48425.412,1635266765,full,ni_sequenzen,NI_Sequenzen,,,,,,,,,,,,,,
,Screen_4,canvas.Screen,0_2_1_3,,skipped,2,48248.5,,,48243.90000000037,,48248.70000000112,2021-10-26T17:26:05.626Z,48425.412,1635266765,full,ni_sequenzen,NI_Sequenzen,,,,,,,,,,,,,,
,Screen_5,canvas.Screen,0_2_1_4,,skipped,2,48249.800000000745,,,48243.90000000037,,48250,2021-10-26T17:26:05.627Z,48425.412,1635266765,full,ni_sequenzen,NI_Sequenzen,,,,,,,,,,,,,,
,Screen_6,canvas.Screen,0_2_1_5,,skipped,2,48251.20000000112,,,48243.90000000037,,48251.300000000745,2021-10-26T17:26:05.628Z,48425.412,1635266765,full,ni_sequenzen,NI_Sequenzen,,,,,,,,,,,,,,
,Sequence,flow.Sequence,0_2_1,,completion,2,48242.09999999963,,,48243.90000000037,,48251.40000000037,2021-10-26T17:26:05.629Z,48425.412,1635266765,full,ni_sequenzen,NI_Sequenzen,,,,,,,,,,,,,,
,Screen_1,canvas.Screen,0_2_2_0,,skipped,3,48252.90000000037,,,48252.90000000037,,48252.90000000037,2021-10-26T17:26:05.630Z,48425.412,1635266765,full,ni_sequenzen,NI_Sequenzen,,,,,,,,,,,,,,
,Screen_2,canvas.Screen,0_2_2_1,,skipped,3,48253.800000000745,,,48252.90000000037,,48253.90000000037,2021-10-26T17:26:05.631Z,48425.412,1635266765,full,ni_sequenzen,NI_Sequenzen,,,,,,,,,,,,,,
,Screen_3,canvas.Screen,0_2_2_2,,skipped,3,48254.70000000112,,,48252.90000000037,,48254.800000000745,2021-10-26T17:26:05.632Z,48425.412,1635266765,full,ni_sequenzen,NI_Sequenzen,,,,,,,,,,,,,,
,Screen_4,canvas.Screen,0_2_2_3,,skipped,3,48255.59999999963,,,48252.90000000037,,48255.70000000112,2021-10-26T17:26:05.633Z,48425.412,1635266765,full,ni_sequenzen,NI_Sequenzen,,,,,,,,,,,,,,
,Screen_5,canvas.Screen,0_2_2_4,,skipped,3,48267.40000000037,,,48252.90000000037,,48267.70000000112,2021-10-26T17:26:05.645Z,48425.412,1635266765,full,ni_sequenzen,NI_Sequenzen,,,,,,,,,,,,,,
,Screen_6,canvas.Screen,0_2_2_5,,skipped,3,48269.300000000745,,,48252.90000000037,,48269.40000000037,2021-10-26T17:26:05.647Z,48425.412,1635266765,full,ni_sequenzen,NI_Sequenzen,,,,,,,,,,,,,,
,Sequence,flow.Sequence,0_2_2,,completion,3,48251.800000000745,,,48252.90000000037,,48269.5,2021-10-26T17:26:05.647Z,48425.412,1635266765,full,ni_sequenzen,NI_Sequenzen,,,,,,,,,,,,,,
,Screen_1,canvas.Screen,0_2_3_0,,skipped,4,48270.90000000037,,,48270.90000000037,,48271,2021-10-26T17:26:05.648Z,48425.412,1635266765,full,ni_sequenzen,NI_Sequenzen,,,,,,,,,,,,,,
,Screen_2,canvas.Screen,0_2_3_1,,skipped,4,48272.09999999963,,,48270.90000000037,,48272.09999999963,2021-10-26T17:26:05.649Z,48425.412,1635266765,full,ni_sequenzen,NI_Sequenzen,,,,,,,,,,,,,,
,Screen_3,canvas.Screen,0_2_3_2,,skipped,4,48273.09999999963,,,48270.90000000037,,48273.09999999963,2021-10-26T17:26:05.650Z,48425.412,1635266765,full,ni_sequenzen,NI_Sequenzen,,,,,,,,,,,,,,
,Screen_4,canvas.Screen,0_2_3_3,,skipped,4,48273.90000000037,,,48270.90000000037,,48273.90000000037,2021-10-26T17:26:05.651Z,48425.412,1635266765,full,ni_sequenzen,NI_Sequenzen,,,,,,,,,,,,,,
,Screen_5,canvas.Screen,0_2_3_4,,skipped,4,48274.70000000112,,,48270.90000000037,,48274.800000000745,2021-10-26T17:26:05.652Z,48425.412,1635266765,full,ni_sequenzen,NI_Sequenzen,,,,,,,,,,,,,,
,Screen_6,canvas.Screen,0_2_3_5,,skipped,4,48275.5,,,48270.90000000037,,48275.59999999963,2021-10-26T17:26:05.653Z,48425.412,1635266765,full,ni_sequenzen,NI_Sequenzen,,,,,,,,,,,,,,
,Sequence,flow.Sequence,0_2_3,,completion,4,48270,,,48270.90000000037,,48275.70000000112,2021-10-26T17:26:05.653Z,48425.412,1635266765,full,ni_sequenzen,NI_Sequenzen,,,,,,,,,,,,,,
,Screen_1,canvas.Screen,0_2_4_0,,skipped,5,48276.90000000037,,,48276.90000000037,,48277,2021-10-26T17:26:05.654Z,48425.412,1635266765,full,ni_sequenzen,NI_Sequenzen,,,,,,,,,,,,,,
,Screen_2,canvas.Screen,0_2_4_1,,skipped,5,48277.90000000037,,,48276.90000000037,,48277.90000000037,2021-10-26T17:26:05.655Z,48425.412,1635266765,full,ni_sequenzen,NI_Sequenzen,,,,,,,,,,,,,,
,Screen_3,canvas.Screen,0_2_4_2,,skipped,5,48278.70000000112,,,48276.90000000037,,48278.800000000745,2021-10-26T17:26:05.656Z,48425.412,1635266765,full,ni_sequenzen,NI_Sequenzen,,,,,,,,,,,,,,
,Screen_4,canvas.Screen,0_2_4_3,,skipped,5,48279.5,,,48276.90000000037,,48279.59999999963,2021-10-26T17:26:05.657Z,48425.412,1635266765,full,ni_sequenzen,NI_Sequenzen,,,,,,,,,,,,,,
,Screen_5,canvas.Screen,0_2_4_4,,skipped,5,48280.40000000037,,,48276.90000000037,,48280.40000000037,2021-10-26T17:26:05.658Z,48425.412,1635266765,full,ni_sequenzen,NI_Sequenzen,,,,,,,,,,,,,,
,Screen_6,canvas.Screen,0_2_4_5,,skipped,5,48281.20000000112,,,48276.90000000037,,48281.300000000745,2021-10-26T17:26:05.658Z,48425.412,1635266765,full,ni_sequenzen,NI_Sequenzen,,,,,,,,,,,,,,
,Sequence,flow.Sequence,0_2_4,,completion,5,48276.09999999963,,,48276.90000000037,,48281.40000000037,2021-10-26T17:26:05.659Z,48425.412,1635266765,full,ni_sequenzen,NI_Sequenzen,,,,,,,,,,,,,,
,Screen_1,canvas.Screen,0_2_5_0,,skipped,6,48282.5,,,48282.5,,48282.59999999963,2021-10-26T17:26:05.660Z,48425.412,1635266765,full,ni_sequenzen,NI_Sequenzen,,,,,,,,,,,,,,
,Screen_2,canvas.Screen,0_2_5_1,,skipped,6,48283.40000000037,,,48282.5,,48283.40000000037,2021-10-26T17:26:05.661Z,48425.412,1635266765,full,ni_sequenzen,NI_Sequenzen,,,,,,,,,,,,,,
,Screen_3,canvas.Screen,0_2_5_2,,skipped,6,48284.20000000112,,,48282.5,,48284.20000000112,2021-10-26T17:26:05.661Z,48425.412,1635266765,full,ni_sequenzen,NI_Sequenzen,,,,,,,,,,,,,,
,Screen_4,canvas.Screen,0_2_5_3,,skipped,6,48285.5,,,48282.5,,48285.59999999963,2021-10-26T17:26:05.663Z,48425.412,1635266765,full,ni_sequenzen,NI_Sequenzen,,,,,,,,,,,,,,
,Screen_5,canvas.Screen,0_2_5_4,,skipped,6,48288,,,48282.5,,48288.09999999963,2021-10-26T17:26:05.665Z,48425.412,1635266765,full,ni_sequenzen,NI_Sequenzen,,,,,,,,,,,,,,
,Screen_6,canvas.Screen,0_2_5_5,,skipped,6,48289.40000000037,,,48282.5,,48289.5,2021-10-26T17:26:05.667Z,48425.412,1635266765,full,ni_sequenzen,NI_Sequenzen,,,,,,,,,,,,,,
,Sequence,flow.Sequence,0_2_5,,completion,6,48281.70000000112,,,48282.5,,48289.59999999963,2021-10-26T17:26:05.667Z,48425.412,1635266765,full,ni_sequenzen,NI_Sequenzen,,,,,,,,,,,,,,
,Screen_1,canvas.Screen,0_2_6_0,,skipped,7,48291.09999999963,,,48291.09999999963,,48291.20000000112,2021-10-26T17:26:05.668Z,48425.412,1635266765,full,ni_sequenzen,NI_Sequenzen,,,,,,,,,,,,,,
,Screen_2,canvas.Screen,0_2_6_1,,skipped,7,48292,,,48291.09999999963,,48292,2021-10-26T17:26:05.669Z,48425.412,1635266765,full,ni_sequenzen,NI_Sequenzen,,,,,,,,,,,,,,
,Screen_3,canvas.Screen,0_2_6_2,,skipped,7,48292.800000000745,,,48291.09999999963,,48293,2021-10-26T17:26:05.670Z,48425.412,1635266765,full,ni_sequenzen,NI_Sequenzen,,,,,,,,,,,,,,
,Screen_4,canvas.Screen,0_2_6_3,,skipped,7,48293.70000000112,,,48291.09999999963,,48293.800000000745,2021-10-26T17:26:05.671Z,48425.412,1635266765,full,ni_sequenzen,NI_Sequenzen,,,,,,,,,,,,,,
,Screen_5,canvas.Screen,0_2_6_4,,skipped,7,48294.59999999963,,,48291.09999999963,,48294.59999999963,2021-10-26T17:26:05.672Z,48425.412,1635266765,full,ni_sequenzen,NI_Sequenzen,,,,,,,,,,,,,,
,Screen_6,canvas.Screen,0_2_6_5,,skipped,7,48295.300000000745,,,48291.09999999963,,48295.40000000037,2021-10-26T17:26:05.673Z,48425.412,1635266765,full,ni_sequenzen,NI_Sequenzen,,,,,,,,,,,,,,
,Sequence,flow.Sequence,0_2_6,,completion,7,48290.300000000745,,,48291.09999999963,,48295.59999999963,2021-10-26T17:26:05.673Z,48425.412,1635266765,full,ni_sequenzen,NI_Sequenzen,,,,,,,,,,,,,,
,Screen_1,canvas.Screen,0_2_7_0,,skipped,8,48296.90000000037,,,48296.90000000037,,48297,2021-10-26T17:26:05.674Z,48425.412,1635266765,full,ni_sequenzen,NI_Sequenzen,,,,,,,,,,,,,,
,Screen_2,canvas.Screen,0_2_7_1,,skipped,8,48297.800000000745,,,48296.90000000037,,48297.90000000037,2021-10-26T17:26:05.675Z,48425.412,1635266765,full,ni_sequenzen,NI_Sequenzen,,,,,,,,,,,,,,
,Screen_3,canvas.Screen,0_2_7_2,,skipped,8,48298.59999999963,,,48296.90000000037,,48298.70000000112,2021-10-26T17:26:05.676Z,48425.412,1635266765,full,ni_sequenzen,NI_Sequenzen,,,,,,,,,,,,,,
,Screen_4,canvas.Screen,0_2_7_3,,skipped,8,48299.5,,,48296.90000000037,,48299.5,2021-10-26T17:26:05.677Z,48425.412,1635266765,full,ni_sequenzen,NI_Sequenzen,,,,,,,,,,,,,,
,Screen_5,canvas.Screen,0_2_7_4,,skipped,8,48300.300000000745,,,48296.90000000037,,48300.300000000745,2021-10-26T17:26:05.678Z,48425.412,1635266765,full,ni_sequenzen,NI_Sequenzen,,,,,,,,,,,,,,
,Screen_6,canvas.Screen,0_2_7_5,,skipped,8,48301,,,48296.90000000037,,48301.09999999963,2021-10-26T17:26:05.678Z,48425.412,1635266765,full,ni_sequenzen,NI_Sequenzen,,,,,,,,,,,,,,
,Sequence,flow.Sequence,0_2_7,,completion,8,48295.90000000037,,,48296.90000000037,,48301.20000000112,2021-10-26T17:26:05.678Z,48425.412,1635266765,full,ni_sequenzen,NI_Sequenzen,,,,,,,,,,,,,,
,Screen_1,canvas.Screen,0_2_8_0,,skipped,9,48303,,,48303,,48303.09999999963,2021-10-26T17:26:05.680Z,48425.412,1635266765,full,ni_sequenzen,NI_Sequenzen,,,,,,,,,,,,,,
,Screen_2,canvas.Screen,0_2_8_1,,skipped,9,48303.90000000037,,,48303,,48304,2021-10-26T17:26:05.681Z,48425.412,1635266765,full,ni_sequenzen,NI_Sequenzen,,,,,,,,,,,,,,
,Screen_3,canvas.Screen,0_2_8_2,,skipped,9,48304.70000000112,,,48303,,48304.70000000112,2021-10-26T17:26:05.682Z,48425.412,1635266765,full,ni_sequenzen,NI_Sequenzen,,,,,,,,,,,,,,
,Screen_4,canvas.Screen,0_2_8_3,,skipped,9,48305.40000000037,,,48303,,48305.5,2021-10-26T17:26:05.683Z,48425.412,1635266765,full,ni_sequenzen,NI_Sequenzen,,,,,,,,,,,,,,
,Screen_5,canvas.Screen,0_2_8_4,,skipped,9,48306.09999999963,,,48303,,48306.20000000112,2021-10-26T17:26:05.683Z,48425.412,1635266765,full,ni_sequenzen,NI_Sequenzen,,,,,,,,,,,,,,
,Screen_6,canvas.Screen,0_2_8_5,,skipped,9,48306.90000000037,,,48303,,48307,2021-10-26T17:26:05.684Z,48425.412,1635266765,full,ni_sequenzen,NI_Sequenzen,,,,,,,,,,,,,,
,Sequence,flow.Sequence,0_2_8,,completion,9,48301.5,,,48303,,48307,2021-10-26T17:26:05.684Z,48425.412,1635266765,full,ni_sequenzen,NI_Sequenzen,,,,,,,,,,,,,,
,Screen_1,canvas.Screen,0_2_9_0,,skipped,10,48307.90000000037,,,48307.90000000037,,48307.90000000037,2021-10-26T17:26:05.685Z,48425.412,1635266765,full,ni_sequenzen,NI_Sequenzen,,,,,,,,,,,,,,
,Screen_2,canvas.Screen,0_2_9_1,,skipped,10,48308.59999999963,,,48307.90000000037,,48308.59999999963,2021-10-26T17:26:05.686Z,48425.412,1635266765,full,ni_sequenzen,NI_Sequenzen,,,,,,,,,,,,,,
,Screen_3,canvas.Screen,0_2_9_2,,skipped,10,48309.20000000112,,,48307.90000000037,,48309.20000000112,2021-10-26T17:26:05.686Z,48425.412,1635266765,full,ni_sequenzen,NI_Sequenzen,,,,,,,,,,,,,,
,Screen_4,canvas.Screen,0_2_9_3,,skipped,10,48309.800000000745,,,48307.90000000037,,48309.800000000745,2021-10-26T17:26:05.687Z,48425.412,1635266765,full,ni_sequenzen,NI_Sequenzen,,,,,,,,,,,,,,
,Screen_5,canvas.Screen,0_2_9_4,,skipped,10,48310.59999999963,,,48307.90000000037,,48310.70000000112,2021-10-26T17:26:05.688Z,48425.412,1635266765,full,ni_sequenzen,NI_Sequenzen,,,,,,,,,,,,,,
,Screen_6,canvas.Screen,0_2_9_5,,skipped,10,48311.5,,,48307.90000000037,,48311.70000000112,2021-10-26T17:26:05.689Z,48425.412,1635266765,full,ni_sequenzen,NI_Sequenzen,,,,,,,,,,,,,,
,Sequence,flow.Sequence,0_2_9,,completion,10,48307.20000000112,,,48307.90000000037,,48311.70000000112,2021-10-26T17:26:05.689Z,48425.412,1635266765,full,ni_sequenzen,NI_Sequenzen,,,,,,,,,,,,,,
,Screen_1,canvas.Screen,0_2_10_0,,skipped,11,48312.800000000745,,,48312.800000000745,,48312.800000000745,2021-10-26T17:26:05.690Z,48425.412,1635266765,full,ni_sequenzen,NI_Sequenzen,,,,,,,,,,,,,,
,Screen_2,canvas.Screen,0_2_10_1,,skipped,11,48313.40000000037,,,48312.800000000745,,48313.40000000037,2021-10-26T17:26:05.691Z,48425.412,1635266765,full,ni_sequenzen,NI_Sequenzen,,,,,,,,,,,,,,
,Screen_3,canvas.Screen,0_2_10_2,,skipped,11,48313.90000000037,,,48312.800000000745,,48313.90000000037,2021-10-26T17:26:05.691Z,48425.412,1635266765,full,ni_sequenzen,NI_Sequenzen,,,,,,,,,,,,,,
,Screen_4,canvas.Screen,0_2_10_3,,skipped,11,48314.5,,,48312.800000000745,,48314.5,2021-10-26T17:26:05.692Z,48425.412,1635266765,full,ni_sequenzen,NI_Sequenzen,,,,,,,,,,,,,,
,Screen_5,canvas.Screen,0_2_10_4,,skipped,11,48315,,,48312.800000000745,,48315.09999999963,2021-10-26T17:26:05.692Z,48425.412,1635266765,full,ni_sequenzen,NI_Sequenzen,,,,,,,,,,,,,,
,Screen_6,canvas.Screen,0_2_10_5,,skipped,11,48315.70000000112,,,48312.800000000745,,48315.70000000112,2021-10-26T17:26:05.693Z,48425.412,1635266765,full,ni_sequenzen,NI_Sequenzen,,,,,,,,,,,,,,
,Sequence,flow.Sequence,0_2_10,,completion,11,48312.09999999963,,,48312.800000000745,,48315.800000000745,2021-10-26T17:26:05.693Z,48425.412,1635266765,full,ni_sequenzen,NI_Sequenzen,,,,,,,,,,,,,,
,Screen_1,canvas.Screen,0_2_11_0,,skipped,12,48316.800000000745,,,48316.800000000745,,48316.800000000745,2021-10-26T17:26:05.694Z,48425.412,1635266765,full,ni_sequenzen,NI_Sequenzen,,,,,,,,,,,,,,
,Screen_2,canvas.Screen,0_2_11_1,,skipped,12,48317.5,,,48316.800000000745,,48317.5,2021-10-26T17:26:05.695Z,48425.412,1635266765,full,ni_sequenzen,NI_Sequenzen,,,,,,,,,,,,,,
,Screen_3,canvas.Screen,0_2_11_2,,skipped,12,48318.09999999963,,,48316.800000000745,,48318.20000000112,2021-10-26T17:26:05.695Z,48425.412,1635266765,full,ni_sequenzen,NI_Sequenzen,,,,,,,,,,,,,,
,Screen_4,canvas.Screen,0_2_11_3,,skipped,12,48318.800000000745,,,48316.800000000745,,48318.800000000745,2021-10-26T17:26:05.696Z,48425.412,1635266765,full,ni_sequenzen,NI_Sequenzen,,,,,,,,,,,,,,
,Screen_5,canvas.Screen,0_2_11_4,,skipped,12,48319.300000000745,,,48316.800000000745,,48319.40000000037,2021-10-26T17:26:05.697Z,48425.412,1635266765,full,ni_sequenzen,NI_Sequenzen,,,,,,,,,,,,,,
,Screen_6,canvas.Screen,0_2_11_5,,skipped,12,48319.800000000745,,,48316.800000000745,,48319.90000000037,2021-10-26T17:26:05.697Z,48425.412,1635266765,full,ni_sequenzen,NI_Sequenzen,,,,,,,,,,,,,,
,Sequence,flow.Sequence,0_2_11,,completion,12,48316.09999999963,,,48316.800000000745,,48320,2021-10-26T17:26:05.697Z,48425.412,1635266765,full,ni_sequenzen,NI_Sequenzen,,,,,,,,,,,,,,
,Screen_1,canvas.Screen,0_2_12_0,,skipped,13,48320.800000000745,,,48320.800000000745,,48320.90000000037,2021-10-26T17:26:05.698Z,48425.412,1635266765,full,ni_sequenzen,NI_Sequenzen,,,,,,,,,,,,,,
,Screen_2,canvas.Screen,0_2_12_1,,skipped,13,48321.40000000037,,,48320.800000000745,,48321.5,2021-10-26T17:26:05.699Z,48425.412,1635266765,full,ni_sequenzen,NI_Sequenzen,,,,,,,,,,,,,,
,Screen_3,canvas.Screen,0_2_12_2,,skipped,13,48321.90000000037,,,48320.800000000745,,48321.90000000037,2021-10-26T17:26:05.699Z,48425.412,1635266765,full,ni_sequenzen,NI_Sequenzen,,,,,,,,,,,,,,
,Screen_4,canvas.Screen,0_2_12_3,,skipped,13,48322.40000000037,,,48320.800000000745,,48322.40000000037,2021-10-26T17:26:05.700Z,48425.412,1635266765,full,ni_sequenzen,NI_Sequenzen,,,,,,,,,,,,,,
,Screen_5,canvas.Screen,0_2_12_4,,skipped,13,48323,,,48320.800000000745,,48323,2021-10-26T17:26:05.700Z,48425.412,1635266765,full,ni_sequenzen,NI_Sequenzen,,,,,,,,,,,,,,
,Screen_6,canvas.Screen,0_2_12_5,,skipped,13,48323.40000000037,,,48320.800000000745,,48323.59999999963,2021-10-26T17:26:05.701Z,48425.412,1635266765,full,ni_sequenzen,NI_Sequenzen,,,,,,,,,,,,,,
,Sequence,flow.Sequence,0_2_12,,completion,13,48320.20000000112,,,48320.800000000745,,48323.59999999963,2021-10-26T17:26:05.701Z,48425.412,1635266765,full,ni_sequenzen,NI_Sequenzen,,,,,,,,,,,,,,
,Screen_1,canvas.Screen,0_2_13_0,,skipped,14,48324.300000000745,,,48324.300000000745,,48324.40000000037,2021-10-26T17:26:05.702Z,48425.412,1635266765,full,ni_sequenzen,NI_Sequenzen,,,,,,,,,,,,,,
,Screen_2,canvas.Screen,0_2_13_1,,skipped,14,48325.800000000745,,,48324.300000000745,,48325.90000000037,2021-10-26T17:26:05.703Z,48425.412,1635266765,full,ni_sequenzen,NI_Sequenzen,,,,,,,,,,,,,,
,Screen_3,canvas.Screen,0_2_13_2,,skipped,14,48326.40000000037,,,48324.300000000745,,48326.40000000037,2021-10-26T17:26:05.704Z,48425.412,1635266765,full,ni_sequenzen,NI_Sequenzen,,,,,,,,,,,,,,
,Screen_4,canvas.Screen,0_2_13_3,,skipped,14,48326.90000000037,,,48324.300000000745,,48326.90000000037,2021-10-26T17:26:05.704Z,48425.412,1635266765,full,ni_sequenzen,NI_Sequenzen,,,,,,,,,,,,,,
,Screen_5,canvas.Screen,0_2_13_4,,skipped,14,48327.40000000037,,,48324.300000000745,,48327.5,2021-10-26T17:26:05.705Z,48425.412,1635266765,full,ni_sequenzen,NI_Sequenzen,,,,,,,,,,,,,,
,Screen_6,canvas.Screen,0_2_13_5,,skipped,14,48327.90000000037,,,48324.300000000745,,48327.90000000037,2021-10-26T17:26:05.705Z,48425.412,1635266765,full,ni_sequenzen,NI_Sequenzen,,,,,,,,,,,,,,
,Sequence,flow.Sequence,0_2_13,,completion,14,48323.800000000745,,,48324.300000000745,,48328,2021-10-26T17:26:05.705Z,48425.412,1635266765,full,ni_sequenzen,NI_Sequenzen,,,,,,,,,,,,,,
,Screen_1,canvas.Screen,0_2_14_0,,skipped,15,48328.59999999963,,,48328.59999999963,,48328.70000000112,2021-10-26T17:26:05.706Z,48425.412,1635266765,full,ni_sequenzen,NI_Sequenzen,,,,,,,,,,,,,,
,Screen_2,canvas.Screen,0_2_14_1,,skipped,15,48329.09999999963,,,48328.59999999963,,48329.09999999963,2021-10-26T17:26:05.706Z,48425.412,1635266765,full,ni_sequenzen,NI_Sequenzen,,,,,,,,,,,,,,
,Screen_3,canvas.Screen,0_2_14_2,,skipped,15,48329.70000000112,,,48328.59999999963,,48329.70000000112,2021-10-26T17:26:05.707Z,48425.412,1635266765,full,ni_sequenzen,NI_Sequenzen,,,,,,,,,,,,,,
,Screen_4,canvas.Screen,0_2_14_3,,skipped,15,48330.20000000112,,,48328.59999999963,,48330.20000000112,2021-10-26T17:26:05.707Z,48425.412,1635266765,full,ni_sequenzen,NI_Sequenzen,,,,,,,,,,,,,,
,Screen_5,canvas.Screen,0_2_14_4,,skipped,15,48330.800000000745,,,48328.59999999963,,48330.90000000037,2021-10-26T17:26:05.708Z,48425.412,1635266765,full,ni_sequenzen,NI_Sequenzen,,,,,,,,,,,,,,
,Screen_6,canvas.Screen,0_2_14_5,,skipped,15,48331.300000000745,,,48328.59999999963,,48331.300000000745,2021-10-26T17:26:05.709Z,48425.412,1635266765,full,ni_sequenzen,NI_Sequenzen,,,,,,,,,,,,,,
,Sequence,flow.Sequence,0_2_14,,completion,15,48328.20000000112,,,48328.59999999963,,48331.40000000037,2021-10-26T17:26:05.709Z,48425.412,1635266765,full,ni_sequenzen,NI_Sequenzen,,,,,,,,,,,,,,
,Screen_1,canvas.Screen,0_2_15_0,,skipped,16,48332.20000000112,,,48332.20000000112,,48332.20000000112,2021-10-26T17:26:05.709Z,48425.412,1635266765,full,ni_sequenzen,NI_Sequenzen,,,,,,,,,,,,,,
,Screen_2,canvas.Screen,0_2_15_1,,skipped,16,48332.70000000112,,,48332.20000000112,,48332.800000000745,2021-10-26T17:26:05.710Z,48425.412,1635266765,full,ni_sequenzen,NI_Sequenzen,,,,,,,,,,,,,,
,Screen_3,canvas.Screen,0_2_15_2,,skipped,16,48333.20000000112,,,48332.20000000112,,48333.20000000112,2021-10-26T17:26:05.710Z,48425.412,1635266765,full,ni_sequenzen,NI_Sequenzen,,,,,,,,,,,,,,
,Screen_4,canvas.Screen,0_2_15_3,,skipped,16,48333.59999999963,,,48332.20000000112,,48333.70000000112,2021-10-26T17:26:05.711Z,48425.412,1635266765,full,ni_sequenzen,NI_Sequenzen,,,,,,,,,,,,,,
,Screen_5,canvas.Screen,0_2_15_4,,skipped,16,48334.09999999963,,,48332.20000000112,,48334.09999999963,2021-10-26T17:26:05.711Z,48425.412,1635266765,full,ni_sequenzen,NI_Sequenzen,,,,,,,,,,,,,,
,Screen_6,canvas.Screen,0_2_15_5,,skipped,16,48334.70000000112,,,48332.20000000112,,48334.70000000112,2021-10-26T17:26:05.712Z,48425.412,1635266765,full,ni_sequenzen,NI_Sequenzen,,,,,,,,,,,,,,
,Sequence,flow.Sequence,0_2_15,,completion,16,48331.70000000112,,,48332.20000000112,,48334.800000000745,2021-10-26T17:26:05.712Z,48425.412,1635266765,full,ni_sequenzen,NI_Sequenzen,,,,,,,,,,,,,,
,Screen_1,canvas.Screen,0_2_16_0,,skipped,17,48335.40000000037,,,48335.40000000037,,48335.5,2021-10-26T17:26:05.713Z,48425.412,1635266765,full,ni_sequenzen,NI_Sequenzen,,,,,,,,,,,,,,
,Screen_2,canvas.Screen,0_2_16_1,,skipped,17,48336,,,48335.40000000037,,48336,2021-10-26T17:26:05.713Z,48425.412,1635266765,full,ni_sequenzen,NI_Sequenzen,,,,,,,,,,,,,,
,Screen_3,canvas.Screen,0_2_16_2,,skipped,17,48336.40000000037,,,48335.40000000037,,48336.5,2021-10-26T17:26:05.714Z,48425.412,1635266765,full,ni_sequenzen,NI_Sequenzen,,,,,,,,,,,,,,
,Screen_4,canvas.Screen,0_2_16_3,,skipped,17,48336.800000000745,,,48335.40000000037,,48336.90000000037,2021-10-26T17:26:05.714Z,48425.412,1635266765,full,ni_sequenzen,NI_Sequenzen,,,,,,,,,,,,,,
,Screen_5,canvas.Screen,0_2_16_4,,skipped,17,48337.300000000745,,,48335.40000000037,,48337.300000000745,2021-10-26T17:26:05.715Z,48425.412,1635266765,full,ni_sequenzen,NI_Sequenzen,,,,,,,,,,,,,,
,Screen_6,canvas.Screen,0_2_16_5,,skipped,17,48337.800000000745,,,48335.40000000037,,48337.800000000745,2021-10-26T17:26:05.715Z,48425.412,1635266765,full,ni_sequenzen,NI_Sequenzen,,,,,,,,,,,,,,
,Sequence,flow.Sequence,0_2_16,,completion,17,48334.90000000037,,,48335.40000000037,,48337.90000000037,2021-10-26T17:26:05.715Z,48425.412,1635266765,full,ni_sequenzen,NI_Sequenzen,,,,,,,,,,,,,,
,Screen_1,canvas.Screen,0_2_17_0,,skipped,18,48338.59999999963,,,48338.59999999963,,48338.70000000112,2021-10-26T17:26:05.716Z,48425.412,1635266765,full,ni_sequenzen,NI_Sequenzen,,,,,,,,,,,,,,
,Screen_2,canvas.Screen,0_2_17_1,,skipped,18,48339.09999999963,,,48338.59999999963,,48339.20000000112,2021-10-26T17:26:05.716Z,48425.412,1635266765,full,ni_sequenzen,NI_Sequenzen,,,,,,,,,,,,,,
,Screen_3,canvas.Screen,0_2_17_2,,skipped,18,48339.70000000112,,,48338.59999999963,,48339.800000000745,2021-10-26T17:26:05.717Z,48425.412,1635266765,full,ni_sequenzen,NI_Sequenzen,,,,,,,,,,,,,,
,Screen_4,canvas.Screen,0_2_17_3,,skipped,18,48340.300000000745,,,48338.59999999963,,48340.300000000745,2021-10-26T17:26:05.717Z,48425.412,1635266765,full,ni_sequenzen,NI_Sequenzen,,,,,,,,,,,,,,
,Screen_5,canvas.Screen,0_2_17_4,,skipped,18,48341.300000000745,,,48338.59999999963,,48341.40000000037,2021-10-26T17:26:05.719Z,48425.412,1635266765,full,ni_sequenzen,NI_Sequenzen,,,,,,,,,,,,,,
,Screen_6,canvas.Screen,0_2_17_5,,skipped,18,48342,,,48338.59999999963,,48342.09999999963,2021-10-26T17:26:05.719Z,48425.412,1635266765,full,ni_sequenzen,NI_Sequenzen,,,,,,,,,,,,,,
,Sequence,flow.Sequence,0_2_17,,completion,18,48338.09999999963,,,48338.59999999963,,48342.20000000112,2021-10-26T17:26:05.719Z,48425.412,1635266765,full,ni_sequenzen,NI_Sequenzen,,,,,,,,,,,,,,
,Screen_1,canvas.Screen,0_2_18_0,,skipped,19,48342.90000000037,,,48342.90000000037,,48342.90000000037,2021-10-26T17:26:05.720Z,48425.412,1635266765,full,ni_sequenzen,NI_Sequenzen,,,,,,,,,,,,,,
,Screen_2,canvas.Screen,0_2_18_1,,skipped,19,48343.40000000037,,,48342.90000000037,,48343.5,2021-10-26T17:26:05.721Z,48425.412,1635266765,full,ni_sequenzen,NI_Sequenzen,,,,,,,,,,,,,,
,Screen_3,canvas.Screen,0_2_18_2,,skipped,19,48343.90000000037,,,48342.90000000037,,48343.90000000037,2021-10-26T17:26:05.721Z,48425.412,1635266765,full,ni_sequenzen,NI_Sequenzen,,,,,,,,,,,,,,
,Screen_4,canvas.Screen,0_2_18_3,,skipped,19,48344.40000000037,,,48342.90000000037,,48344.40000000037,2021-10-26T17:26:05.722Z,48425.412,1635266765,full,ni_sequenzen,NI_Sequenzen,,,,,,,,,,,,,,
,Screen_5,canvas.Screen,0_2_18_4,,skipped,19,48344.90000000037,,,48342.90000000037,,48344.90000000037,2021-10-26T17:26:05.722Z,48425.412,1635266765,full,ni_sequenzen,NI_Sequenzen,,,,,,,,,,,,,,
,Screen_6,canvas.Screen,0_2_18_5,,skipped,19,48345.300000000745,,,48342.90000000037,,48345.40000000037,2021-10-26T17:26:05.723Z,48425.412,1635266765,full,ni_sequenzen,NI_Sequenzen,,,,,,,,,,,,,,
,Sequence,flow.Sequence,0_2_18,,completion,19,48342.300000000745,,,48342.90000000037,,48345.40000000037,2021-10-26T17:26:05.723Z,48425.412,1635266765,full,ni_sequenzen,NI_Sequenzen,,,,,,,,,,,,,,
,Screen_1,canvas.Screen,0_2_19_0,,skipped,20,48346.09999999963,,,48346.09999999963,,48346.20000000112,2021-10-26T17:26:05.723Z,48425.412,1635266765,full,ni_sequenzen,NI_Sequenzen,,,,,,,,,,,,,,
,Screen_2,canvas.Screen,0_2_19_1,,skipped,20,48346.59999999963,,,48346.09999999963,,48346.59999999963,2021-10-26T17:26:05.724Z,48425.412,1635266765,full,ni_sequenzen,NI_Sequenzen,,,,,,,,,,,,,,
,Screen_3,canvas.Screen,0_2_19_2,,skipped,20,48347.09999999963,,,48346.09999999963,,48347.09999999963,2021-10-26T17:26:05.724Z,48425.412,1635266765,full,ni_sequenzen,NI_Sequenzen,,,,,,,,,,,,,,
,Screen_4,canvas.Screen,0_2_19_3,,skipped,20,48347.5,,,48346.09999999963,,48347.59999999963,2021-10-26T17:26:05.725Z,48425.412,1635266765,full,ni_sequenzen,NI_Sequenzen,,,,,,,,,,,,,,
,Screen_5,canvas.Screen,0_2_19_4,,skipped,20,48348,,,48346.09999999963,,48348.09999999963,2021-10-26T17:26:05.725Z,48425.412,1635266765,full,ni_sequenzen,NI_Sequenzen,,,,,,,,,,,,,,
,Screen_6,canvas.Screen,0_2_19_5,,skipped,20,48348.5,,,48346.09999999963,,48348.59999999963,2021-10-26T17:26:05.726Z,48425.412,1635266765,full,ni_sequenzen,NI_Sequenzen,,,,,,,,,,,,,,
,Sequence,flow.Sequence,0_2_19,,completion,20,48345.70000000112,,,48346.09999999963,,48348.59999999963,2021-10-26T17:26:05.726Z,48425.412,1635266765,full,ni_sequenzen,NI_Sequenzen,,,,,,,,,,,,,,
,Screen_1,canvas.Screen,0_2_20_0,,skipped,21,48349.40000000037,,,48349.40000000037,,48349.5,2021-10-26T17:26:05.727Z,48425.412,1635266765,full,ni_sequenzen,NI_Sequenzen,,,,,,,,,,,,,,
,Screen_2,canvas.Screen,0_2_20_1,,skipped,21,48350,,,48349.40000000037,,48350,2021-10-26T17:26:05.727Z,48425.412,1635266765,full,ni_sequenzen,NI_Sequenzen,,,,,,,,,,,,,,
,Screen_3,canvas.Screen,0_2_20_2,,skipped,21,48350.40000000037,,,48349.40000000037,,48350.40000000037,2021-10-26T17:26:05.728Z,48425.412,1635266765,full,ni_sequenzen,NI_Sequenzen,,,,,,,,,,,,,,
,Screen_4,canvas.Screen,0_2_20_3,,skipped,21,48350.90000000037,,,48349.40000000037,,48350.90000000037,2021-10-26T17:26:05.728Z,48425.412,1635266765,full,ni_sequenzen,NI_Sequenzen,,,,,,,,,,,,,,
,Screen_5,canvas.Screen,0_2_20_4,,skipped,21,48351.300000000745,,,48349.40000000037,,48351.40000000037,2021-10-26T17:26:05.729Z,48425.412,1635266765,full,ni_sequenzen,NI_Sequenzen,,,,,,,,,,,,,,
,Screen_6,canvas.Screen,0_2_20_5,,skipped,21,48351.800000000745,,,48349.40000000037,,48351.800000000745,2021-10-26T17:26:05.729Z,48425.412,1635266765,full,ni_sequenzen,NI_Sequenzen,,,,,,,,,,,,,,
,Sequence,flow.Sequence,0_2_20,,completion,21,48348.800000000745,,,48349.40000000037,,48351.90000000037,2021-10-26T17:26:05.729Z,48425.412,1635266765,full,ni_sequenzen,NI_Sequenzen,,,,,,,,,,,,,,
,Screen_1,canvas.Screen,0_2_21_0,,skipped,22,48352.59999999963,,,48352.59999999963,,48352.59999999963,2021-10-26T17:26:05.730Z,48425.412,1635266765,full,ni_sequenzen,NI_Sequenzen,,,,,,,,,,,,,,
,Screen_2,canvas.Screen,0_2_21_1,,skipped,22,48353.09999999963,,,48352.59999999963,,48353.20000000112,2021-10-26T17:26:05.730Z,48425.412,1635266765,full,ni_sequenzen,NI_Sequenzen,,,,,,,,,,,,,,
,Screen_3,canvas.Screen,0_2_21_2,,skipped,22,48353.70000000112,,,48352.59999999963,,48353.70000000112,2021-10-26T17:26:05.731Z,48425.412,1635266765,full,ni_sequenzen,NI_Sequenzen,,,,,,,,,,,,,,
,Screen_4,canvas.Screen,0_2_21_3,,skipped,22,48354.300000000745,,,48352.59999999963,,48354.300000000745,2021-10-26T17:26:05.731Z,48425.412,1635266765,full,ni_sequenzen,NI_Sequenzen,,,,,,,,,,,,,,
,Screen_5,canvas.Screen,0_2_21_4,,skipped,22,48355.09999999963,,,48352.59999999963,,48355.20000000112,2021-10-26T17:26:05.732Z,48425.412,1635266765,full,ni_sequenzen,NI_Sequenzen,,,,,,,,,,,,,,
,Screen_6,canvas.Screen,0_2_21_5,,skipped,22,48355.70000000112,,,48352.59999999963,,48355.70000000112,2021-10-26T17:26:05.733Z,48425.412,1635266765,full,ni_sequenzen,NI_Sequenzen,,,,,,,,,,,,,,
,Sequence,flow.Sequence,0_2_21,,completion,22,48352,,,48352.59999999963,,48355.800000000745,2021-10-26T17:26:05.733Z,48425.412,1635266765,full,ni_sequenzen,NI_Sequenzen,,,,,,,,,,,,,,
,Screen_1,canvas.Screen,0_2_22_0,,skipped,23,48356.5,,,48356.5,,48356.5,2021-10-26T17:26:05.734Z,48425.412,1635266765,full,ni_sequenzen,NI_Sequenzen,,,,,,,,,,,,,,
,Screen_2,canvas.Screen,0_2_22_1,,skipped,23,48357.90000000037,,,48356.5,,48358,2021-10-26T17:26:05.735Z,48425.412,1635266765,full,ni_sequenzen,NI_Sequenzen,,,,,,,,,,,,,,
,Screen_3,canvas.Screen,0_2_22_2,,skipped,23,48358.800000000745,,,48356.5,,48358.90000000037,2021-10-26T17:26:05.736Z,48425.412,1635266765,full,ni_sequenzen,NI_Sequenzen,,,,,,,,,,,,,,
,Screen_4,canvas.Screen,0_2_22_3,,skipped,23,48359.70000000112,,,48356.5,,48359.70000000112,2021-10-26T17:26:05.737Z,48425.412,1635266765,full,ni_sequenzen,NI_Sequenzen,,,,,,,,,,,,,,
,Screen_5,canvas.Screen,0_2_22_4,,skipped,23,48360.300000000745,,,48356.5,,48360.40000000037,2021-10-26T17:26:05.738Z,48425.412,1635266765,full,ni_sequenzen,NI_Sequenzen,,,,,,,,,,,,,,
,Screen_6,canvas.Screen,0_2_22_5,,skipped,23,48360.90000000037,,,48356.5,,48361,2021-10-26T17:26:05.738Z,48425.412,1635266765,full,ni_sequenzen,NI_Sequenzen,,,,,,,,,,,,,,
,Sequence,flow.Sequence,0_2_22,,completion,23,48356.09999999963,,,48356.5,,48361,2021-10-26T17:26:05.738Z,48425.412,1635266765,full,ni_sequenzen,NI_Sequenzen,,,,,,,,,,,,,,
,Screen_1,canvas.Screen,0_2_23_0,,skipped,24,48361.800000000745,,,48361.800000000745,,48361.800000000745,2021-10-26T17:26:05.739Z,48425.412,1635266765,full,ni_sequenzen,NI_Sequenzen,,,,,,,,,,,,,,
,Screen_2,canvas.Screen,0_2_23_1,,skipped,24,48362.20000000112,,,48361.800000000745,,48362.300000000745,2021-10-26T17:26:05.739Z,48425.412,1635266765,full,ni_sequenzen,NI_Sequenzen,,,,,,,,,,,,,,
,Screen_3,canvas.Screen,0_2_23_2,,skipped,24,48362.70000000112,,,48361.800000000745,,48362.800000000745,2021-10-26T17:26:05.740Z,48425.412,1635266765,full,ni_sequenzen,NI_Sequenzen,,,,,,,,,,,,,,
,Screen_4,canvas.Screen,0_2_23_3,,skipped,24,48363.20000000112,,,48361.800000000745,,48363.300000000745,2021-10-26T17:26:05.740Z,48425.412,1635266765,full,ni_sequenzen,NI_Sequenzen,,,,,,,,,,,,,,
,Screen_5,canvas.Screen,0_2_23_4,,skipped,24,48363.70000000112,,,48361.800000000745,,48363.70000000112,2021-10-26T17:26:05.741Z,48425.412,1635266765,full,ni_sequenzen,NI_Sequenzen,,,,,,,,,,,,,,
,Screen_6,canvas.Screen,0_2_23_5,,skipped,24,48364.20000000112,,,48361.800000000745,,48364.20000000112,2021-10-26T17:26:05.741Z,48425.412,1635266765,full,ni_sequenzen,NI_Sequenzen,,,,,,,,,,,,,,
,Sequence,flow.Sequence,0_2_23,,completion,24,48361.20000000112,,,48361.800000000745,,48364.300000000745,2021-10-26T17:26:05.741Z,48425.412,1635266765,full,ni_sequenzen,NI_Sequenzen,,,,,,,,,,,,,,
,Screen_1,canvas.Screen,0_2_24_0,,skipped,25,48364.90000000037,,,48364.90000000037,,48365,2021-10-26T17:26:05.742Z,48425.412,1635266765,full,ni_sequenzen,NI_Sequenzen,,,,,,,,,,,,,,
,Screen_2,canvas.Screen,0_2_24_1,,skipped,25,48365.40000000037,,,48364.90000000037,,48365.5,2021-10-26T17:26:05.743Z,48425.412,1635266765,full,ni_sequenzen,NI_Sequenzen,,,,,,,,,,,,,,
,Screen_3,canvas.Screen,0_2_24_2,,skipped,25,48366,,,48364.90000000037,,48366,2021-10-26T17:26:05.743Z,48425.412,1635266765,full,ni_sequenzen,NI_Sequenzen,,,,,,,,,,,,,,
,Screen_4,canvas.Screen,0_2_24_3,,skipped,25,48366.5,,,48364.90000000037,,48366.5,2021-10-26T17:26:05.744Z,48425.412,1635266765,full,ni_sequenzen,NI_Sequenzen,,,,,,,,,,,,,,
,Screen_5,canvas.Screen,0_2_24_4,,skipped,25,48367,,,48364.90000000037,,48367,2021-10-26T17:26:05.744Z,48425.412,1635266765,full,ni_sequenzen,NI_Sequenzen,,,,,,,,,,,,,,
,Screen_6,canvas.Screen,0_2_24_5,,skipped,25,48367.40000000037,,,48364.90000000037,,48367.40000000037,2021-10-26T17:26:05.745Z,48425.412,1635266765,full,ni_sequenzen,NI_Sequenzen,,,,,,,,,,,,,,
,Sequence,flow.Sequence,0_2_24,,completion,25,48364.5,,,48364.90000000037,,48367.5,2021-10-26T17:26:05.745Z,48425.412,1635266765,full,ni_sequenzen,NI_Sequenzen,,,,,,,,,,,,,,
,Screen_1,canvas.Screen,0_2_25_0,,skipped,26,48368.20000000112,,,48368.20000000112,,48368.20000000112,2021-10-26T17:26:05.745Z,48425.412,1635266765,full,ni_sequenzen,NI_Sequenzen,,,,,,,,,,,,,,
,Screen_2,canvas.Screen,0_2_25_1,,skipped,26,48368.70000000112,,,48368.20000000112,,48368.70000000112,2021-10-26T17:26:05.746Z,48425.412,1635266765,full,ni_sequenzen,NI_Sequenzen,,,,,,,,,,,,,,
,Screen_3,canvas.Screen,0_2_25_2,,skipped,26,48369.09999999963,,,48368.20000000112,,48369.20000000112,2021-10-26T17:26:05.746Z,48425.412,1635266765,full,ni_sequenzen,NI_Sequenzen,,,,,,,,,,,,,,
,Screen_4,canvas.Screen,0_2_25_3,,skipped,26,48369.70000000112,,,48368.20000000112,,48369.70000000112,2021-10-26T17:26:05.747Z,48425.412,1635266765,full,ni_sequenzen,NI_Sequenzen,,,,,,,,,,,,,,
,Screen_5,canvas.Screen,0_2_25_4,,skipped,26,48370,,,48368.20000000112,,48370.20000000112,2021-10-26T17:26:05.747Z,48425.412,1635266765,full,ni_sequenzen,NI_Sequenzen,,,,,,,,,,,,,,
,Screen_6,canvas.Screen,0_2_25_5,,skipped,26,48370.5,,,48368.20000000112,,48370.5,2021-10-26T17:26:05.748Z,48425.412,1635266765,full,ni_sequenzen,NI_Sequenzen,,,,,,,,,,,,,,
,Sequence,flow.Sequence,0_2_25,,completion,26,48367.70000000112,,,48368.20000000112,,48370.59999999963,2021-10-26T17:26:05.748Z,48425.412,1635266765,full,ni_sequenzen,NI_Sequenzen,,,,,,,,,,,,,,
,Screen_1,canvas.Screen,0_2_26_0,,skipped,27,48371.300000000745,,,48371.300000000745,,48371.40000000037,2021-10-26T17:26:05.749Z,48425.412,1635266765,full,ni_sequenzen,NI_Sequenzen,,,,,,,,,,,,,,
,Screen_2,canvas.Screen,0_2_26_1,,skipped,27,48371.800000000745,,,48371.300000000745,,48371.90000000037,2021-10-26T17:26:05.749Z,48425.412,1635266765,full,ni_sequenzen,NI_Sequenzen,,,,,,,,,,,,,,
,Screen_3,canvas.Screen,0_2_26_2,,skipped,27,48372.59999999963,,,48371.300000000745,,48372.59999999963,2021-10-26T17:26:05.750Z,48425.412,1635266765,full,ni_sequenzen,NI_Sequenzen,,,,,,,,,,,,,,
,Screen_4,canvas.Screen,0_2_26_3,,skipped,27,48373.09999999963,,,48371.300000000745,,48373.09999999963,2021-10-26T17:26:05.750Z,48425.412,1635266765,full,ni_sequenzen,NI_Sequenzen,,,,,,,,,,,,,,
,Screen_5,canvas.Screen,0_2_26_4,,skipped,27,48373.59999999963,,,48371.300000000745,,48373.70000000112,2021-10-26T17:26:05.751Z,48425.412,1635266765,full,ni_sequenzen,NI_Sequenzen,,,,,,,,,,,,,,
,Screen_6,canvas.Screen,0_2_26_5,,skipped,27,48374.09999999963,,,48371.300000000745,,48374.09999999963,2021-10-26T17:26:05.751Z,48425.412,1635266765,full,ni_sequenzen,NI_Sequenzen,,,,,,,,,,,,,,
,Sequence,flow.Sequence,0_2_26,,completion,27,48370.800000000745,,,48371.300000000745,,48374.09999999963,2021-10-26T17:26:05.751Z,48425.412,1635266765,full,ni_sequenzen,NI_Sequenzen,,,,,,,,,,,,,,
,Screen_1,canvas.Screen,0_2_27_0,,skipped,28,48375.70000000112,,,48375.70000000112,,48375.800000000745,2021-10-26T17:26:05.753Z,48425.412,1635266765,full,ni_sequenzen,NI_Sequenzen,,,,,,,,,,,,,,
,Screen_2,canvas.Screen,0_2_27_1,,skipped,28,48376.5,,,48375.70000000112,,48376.5,2021-10-26T17:26:05.754Z,48425.412,1635266765,full,ni_sequenzen,NI_Sequenzen,,,,,,,,,,,,,,
,Screen_3,canvas.Screen,0_2_27_2,,skipped,28,48377,,,48375.70000000112,,48377,2021-10-26T17:26:05.754Z,48425.412,1635266765,full,ni_sequenzen,NI_Sequenzen,,,,,,,,,,,,,,
,Screen_4,canvas.Screen,0_2_27_3,,skipped,28,48377.40000000037,,,48375.70000000112,,48377.5,2021-10-26T17:26:05.755Z,48425.412,1635266765,full,ni_sequenzen,NI_Sequenzen,,,,,,,,,,,,,,
,Screen_5,canvas.Screen,0_2_27_4,,skipped,28,48378,,,48375.70000000112,,48378,2021-10-26T17:26:05.755Z,48425.412,1635266765,full,ni_sequenzen,NI_Sequenzen,,,,,,,,,,,,,,
,Screen_6,canvas.Screen,0_2_27_5,,skipped,28,48378.40000000037,,,48375.70000000112,,48378.5,2021-10-26T17:26:05.756Z,48425.412,1635266765,full,ni_sequenzen,NI_Sequenzen,,,,,,,,,,,,,,
,Sequence,flow.Sequence,0_2_27,,completion,28,48374.300000000745,,,48375.70000000112,,48378.5,2021-10-26T17:26:05.756Z,48425.412,1635266765,full,ni_sequenzen,NI_Sequenzen,,,,,,,,,,,,,,
,Screen_1,canvas.Screen,0_2_28_0,,skipped,29,48379.300000000745,,,48379.300000000745,,48379.300000000745,2021-10-26T17:26:05.756Z,48425.412,1635266765,full,ni_sequenzen,NI_Sequenzen,,,,,,,,,,,,,,
,Screen_2,canvas.Screen,0_2_28_1,,skipped,29,48379.800000000745,,,48379.300000000745,,48379.800000000745,2021-10-26T17:26:05.757Z,48425.412,1635266765,full,ni_sequenzen,NI_Sequenzen,,,,,,,,,,,,,,
,Screen_3,canvas.Screen,0_2_28_2,,skipped,29,48380.20000000112,,,48379.300000000745,,48380.20000000112,2021-10-26T17:26:05.757Z,48425.412,1635266765,full,ni_sequenzen,NI_Sequenzen,,,,,,,,,,,,,,
,Screen_4,canvas.Screen,0_2_28_3,,skipped,29,48380.70000000112,,,48379.300000000745,,48380.70000000112,2021-10-26T17:26:05.758Z,48425.412,1635266765,full,ni_sequenzen,NI_Sequenzen,,,,,,,,,,,,,,
,Screen_5,canvas.Screen,0_2_28_4,,skipped,29,48381.20000000112,,,48379.300000000745,,48381.20000000112,2021-10-26T17:26:05.758Z,48425.412,1635266765,full,ni_sequenzen,NI_Sequenzen,,,,,,,,,,,,,,
,Screen_6,canvas.Screen,0_2_28_5,,skipped,29,48381.59999999963,,,48379.300000000745,,48381.59999999963,2021-10-26T17:26:05.759Z,48425.412,1635266765,full,ni_sequenzen,NI_Sequenzen,,,,,,,,,,,,,,
,Sequence,flow.Sequence,0_2_28,,completion,29,48378.800000000745,,,48379.300000000745,,48381.70000000112,2021-10-26T17:26:05.759Z,48425.412,1635266765,full,ni_sequenzen,NI_Sequenzen,,,,,,,,,,,,,,
,Screen_1,canvas.Screen,0_2_29_0,,skipped,30,48382.40000000037,,,48382.40000000037,,48382.40000000037,2021-10-26T17:26:05.760Z,48425.412,1635266765,full,ni_sequenzen,NI_Sequenzen,,,,,,,,,,,,,,
,Screen_2,canvas.Screen,0_2_29_1,,skipped,30,48382.90000000037,,,48382.40000000037,,48382.90000000037,2021-10-26T17:26:05.760Z,48425.412,1635266765,full,ni_sequenzen,NI_Sequenzen,,,,,,,,,,,,,,
,Screen_3,canvas.Screen,0_2_29_2,,skipped,30,48383.40000000037,,,48382.40000000037,,48383.40000000037,2021-10-26T17:26:05.761Z,48425.412,1635266765,full,ni_sequenzen,NI_Sequenzen,,,,,,,,,,,,,,
,Screen_4,canvas.Screen,0_2_29_3,,skipped,30,48383.800000000745,,,48382.40000000037,,48383.90000000037,2021-10-26T17:26:05.761Z,48425.412,1635266765,full,ni_sequenzen,NI_Sequenzen,,,,,,,,,,,,,,
,Screen_5,canvas.Screen,0_2_29_4,,skipped,30,48384.20000000112,,,48382.40000000037,,48384.300000000745,2021-10-26T17:26:05.761Z,48425.412,1635266765,full,ni_sequenzen,NI_Sequenzen,,,,,,,,,,,,,,
,Screen_6,canvas.Screen,0_2_29_5,,skipped,30,48384.70000000112,,,48382.40000000037,,48384.70000000112,2021-10-26T17:26:05.762Z,48425.412,1635266765,full,ni_sequenzen,NI_Sequenzen,,,,,,,,,,,,,,
,Sequence,flow.Sequence,0_2_29,,completion,30,48381.90000000037,,,48382.40000000037,,48384.90000000037,2021-10-26T17:26:05.762Z,48425.412,1635266765,full,ni_sequenzen,NI_Sequenzen,,,,,,,,,,,,,,
,Instructions_II,flow.Loop,0_2,,completion,,45124.5,45125.544,45142.21,48382.40000000037,3240.1900000003734,48384.90000000037,2021-10-26T17:26:05.762Z,48425.412,1635266765,full,ni_sequenzen,NI_Sequenzen,,,,,,,,,,,,,,
,Move,canvas.Screen,0_3_0_0_0_0,right,response,,48407.09999999963,48408.746,,48421.40000000037,,48425.300000000745,2021-10-26T17:26:05.803Z,48442.078,1635266765,full,ni_sequenzen,NI_Sequenzen,1,0,,,,,,,,,,,,
,Move,canvas.Screen,0_3_0_0_0_1,right,response,,48429.300000000745,48425.412,48442.078,49231.90000000037,789.8220000003712,49239.5,2021-10-26T17:26:06.617Z,49252.119,1635266765,full,ni_sequenzen,NI_Sequenzen,2,0,,,,,,,,,,,,
,Move,canvas.Screen,0_3_0_0_0_2,right,response,,49243.5,49235.453,49252.119,49362.90000000037,110.78100000037375,49370.70000000112,2021-10-26T17:26:06.748Z,49385.447,1635266765,full,ni_sequenzen,NI_Sequenzen,3,0,,,,,,,,,,,,
,Move,canvas.Screen,0_3_0_0_0_3,right,response,,49374.5,49368.781,49385.447,49526.800000000745,141.35300000074494,49535,2021-10-26T17:26:06.912Z,49552.107,1635266765,full,ni_sequenzen,NI_Sequenzen,4,0,,,,,,,,,,,,
,Move,canvas.Screen,0_3_0_0_0_4,right,response,,49538.59999999963,49535.441,49552.107,49702.59999999963,150.49299999962386,49710.40000000037,2021-10-26T17:26:07.088Z,49718.767,1635266765,full,ni_sequenzen,NI_Sequenzen,5,0,,,,,,,,,,,,
,Move,canvas.Screen,0_3_0_0_0_5,down,response,,49717.20000000112,49702.101,49718.767,49726.5,7.733000000000175,49731.300000000745,2021-10-26T17:26:07.108Z,49752.099,1635266765,full,ni_sequenzen,NI_Sequenzen,6,0,,,,,,,,,,,,
,Move,canvas.Screen,0_3_0_0_0_6,right,response,,49734.40000000037,49735.433,49752.099,49834.59999999963,82.50099999962549,49842.300000000745,2021-10-26T17:26:07.219Z,49852.095,1635266765,full,ni_sequenzen,NI_Sequenzen,7,0,,,,,,,,,,,,
,Move,canvas.Screen,0_3_0_0_0_7,down,response,,49847.40000000037,49835.429,49852.095,49926.5,74.40499999999884,49938.300000000745,2021-10-26T17:26:07.315Z,49968.757,1635266765,full,ni_sequenzen,NI_Sequenzen,8,0,,,,,,,,,,,,
,Move,canvas.Screen,0_3_0_0_0_8,-999,skipped,,49942.20000000112,,,49926.5,,49942.300000000745,2021-10-26T17:26:07.319Z,49968.757,1635266765,full,ni_sequenzen,NI_Sequenzen,9,0,,,,,,,,,,,,
,Move,canvas.Screen,0_3_0_0_0_9,-999,skipped,,49945.09999999963,,,49926.5,,49945.20000000112,2021-10-26T17:26:07.322Z,49968.757,1635266765,full,ni_sequenzen,NI_Sequenzen,10,0,,,,,,,,,,,,
,Move,canvas.Screen,0_3_0_0_0_10,-999,skipped,,49947.40000000037,,,49926.5,,49947.5,2021-10-26T17:26:07.325Z,49968.757,1635266765,full,ni_sequenzen,NI_Sequenzen,11,0,,,,,,,,,,,,
,Move,canvas.Screen,0_3_0_0_0_11,-999,skipped,,49949.59999999963,,,49926.5,,49949.70000000112,2021-10-26T17:26:07.327Z,49968.757,1635266765,full,ni_sequenzen,NI_Sequenzen,12,0,,,,,,,,,,,,
,Move,canvas.Screen,0_3_0_0_0_12,-999,skipped,,49951.70000000112,,,49926.5,,49951.800000000745,2021-10-26T17:26:07.329Z,49968.757,1635266765,full,ni_sequenzen,NI_Sequenzen,13,0,,,,,,,,,,,,
,Move,canvas.Screen,0_3_0_0_0_13,-999,skipped,,49953.70000000112,,,49926.5,,49953.800000000745,2021-10-26T17:26:07.331Z,49968.757,1635266765,full,ni_sequenzen,NI_Sequenzen,14,0,,,,,,,,,,,,
,Move,canvas.Screen,0_3_0_0_0_14,-999,skipped,,49957.70000000112,,,49926.5,,49957.90000000037,2021-10-26T17:26:07.335Z,49968.757,1635266765,full,ni_sequenzen,NI_Sequenzen,15,0,,,,,,,,,,,,
,Loop,flow.Loop,0_3_0_0_0,-999,completion,,48403.70000000112,48408.746,48425.412,49926.5,1501.0880000000034,49958.09999999963,2021-10-26T17:26:07.335Z,49968.757,1635266765,full,ni_sequenzen,NI_Sequenzen,,0,,,,,,,,,,,,
,Feedback,canvas.Screen,0_3_0_0_1,,timeout,,49960.300000000745,49952.091,49968.757,53951.931,3999.840000000004,53954,2021-10-26T17:26:11.331Z,53968.597,1635266765,full,ni_sequenzen,NI_Sequenzen,,0,,,,,,,,,,,,
,Trial,flow.Sequence,0_3_0_0,,completion,,48394.40000000037,48408.746,48425.412,53951.931,5526.519,53954.20000000112,2021-10-26T17:26:11.331Z,53985.263,1635266765,full,ni_sequenzen,NI_Sequenzen,,0,,,,,,,,,,,,
,Move,canvas.Screen,0_3_0_1_0_0,left,response,,53966.59999999963,53968.597,53985.263,54587.800000000745,602.537000000746,54595.800000000745,2021-10-26T17:26:11.973Z,54601.905,1635266765,full,ni_sequenzen,NI_Sequenzen,1,1,,,,,,,,,,,,
,Move,canvas.Screen,0_3_0_1_0_1,right,response,,54599.70000000112,54585.239,54601.905,54960.59999999963,358.69499999962864,54968.5,2021-10-26T17:26:12.345Z,54985.223,1635266765,full,ni_sequenzen,NI_Sequenzen,2,1,,,,,,,,,,,,
,Move,canvas.Screen,0_3_0_1_0_2,right,response,,54972.20000000112,54968.557,54985.223,55248.09999999963,262.87699999962933,55255.70000000112,2021-10-26T17:26:12.633Z,55268.545,1635266765,full,ni_sequenzen,NI_Sequenzen,3,1,,,,,,,,,,,,
,Move,canvas.Screen,0_3_0_1_0_3,down,response,,55259.20000000112,55251.879,55268.545,55455,186.45500000000175,55462.70000000112,2021-10-26T17:26:12.840Z,55468.537,1635266765,full,ni_sequenzen,NI_Sequenzen,4,1,,,,,,,,,,,,
,Move,canvas.Screen,0_3_0_1_0_4,down,response,,55466.300000000745,55451.871,55468.537,55607.90000000037,139.3630000003759,55615.800000000745,2021-10-26T17:26:12.993Z,55635.197,1635266765,full,ni_sequenzen,NI_Sequenzen,5,1,,,,,,,,,,,,
,Move,canvas.Screen,0_3_0_1_0_5,down,response,,55619.300000000745,55618.531,55635.197,55773.90000000037,138.7030000003724,55781.59999999963,2021-10-26T17:26:13.159Z,55801.857,1635266765,full,ni_sequenzen,NI_Sequenzen,6,1,,,,,,,,,,,,
,Move,canvas.Screen,0_3_0_1_0_6,left,response,,55785.40000000037,55785.191,55801.857,56340.90000000037,539.0430000003689,56348.40000000037,2021-10-26T17:26:13.725Z,56385.167,1635266765,full,ni_sequenzen,NI_Sequenzen,7,1,,,,,,,,,,,,
,Move,canvas.Screen,0_3_0_1_0_7,-999,skipped,,56352.59999999963,,,56340.90000000037,,56352.70000000112,2021-10-26T17:26:13.730Z,56385.167,1635266765,full,ni_sequenzen,NI_Sequenzen,8,1,,,,,,,,,,,,
,Move,canvas.Screen,0_3_0_1_0_8,-999,skipped,,56355.70000000112,,,56340.90000000037,,56355.800000000745,2021-10-26T17:26:13.733Z,56385.167,1635266765,full,ni_sequenzen,NI_Sequenzen,9,1,,,,,,,,,,,,
,Move,canvas.Screen,0_3_0_1_0_9,-999,skipped,,56359.09999999963,,,56340.90000000037,,56359.20000000112,2021-10-26T17:26:13.736Z,56385.167,1635266765,full,ni_sequenzen,NI_Sequenzen,10,1,,,,,,,,,,,,
,Move,canvas.Screen,0_3_0_1_0_10,-999,skipped,,56362.20000000112,,,56340.90000000037,,56362.300000000745,2021-10-26T17:26:13.739Z,56385.167,1635266765,full,ni_sequenzen,NI_Sequenzen,11,1,,,,,,,,,,,,
,Move,canvas.Screen,0_3_0_1_0_11,-999,skipped,,56364.09999999963,,,56340.90000000037,,56364.20000000112,2021-10-26T17:26:13.741Z,56385.167,1635266765,full,ni_sequenzen,NI_Sequenzen,12,1,,,,,,,,,,,,
,Move,canvas.Screen,0_3_0_1_0_12,-999,skipped,,56366.20000000112,,,56340.90000000037,,56366.20000000112,2021-10-26T17:26:13.743Z,56385.167,1635266765,full,ni_sequenzen,NI_Sequenzen,13,1,,,,,,,,,,,,
,Move,canvas.Screen,0_3_0_1_0_13,-999,skipped,,56368.800000000745,,,56340.90000000037,,56368.90000000037,2021-10-26T17:26:13.746Z,56385.167,1635266765,full,ni_sequenzen,NI_Sequenzen,14,1,,,,,,,,,,,,
,Move,canvas.Screen,0_3_0_1_0_14,-999,skipped,,56371.09999999963,,,56340.90000000037,,56371.20000000112,2021-10-26T17:26:13.748Z,56385.167,1635266765,full,ni_sequenzen,NI_Sequenzen,15,1,,,,,,,,,,,,
,Loop,flow.Loop,0_3_0_1_0,-999,completion,,53963.90000000037,53968.597,53985.263,56340.90000000037,2355.6370000003735,56371.300000000745,2021-10-26T17:26:13.748Z,56385.167,1635266765,full,ni_sequenzen,NI_Sequenzen,,1,,,,,,,,,,,,
,Feedback,canvas.Screen,0_3_0_1_1,,timeout,,56373.800000000745,56368.501,56385.167,60368.341,3999.8399999999965,60371.59999999963,2021-10-26T17:26:17.748Z,60385.007,1635266765,full,ni_sequenzen,NI_Sequenzen,,1,,,,,,,,,,,,
,Trial,flow.Sequence,0_3_0_1,,completion,,53954.5,53968.597,53985.263,60368.341,6383.078000000001,60371.90000000037,2021-10-26T17:26:17.749Z,60401.673,1635266765,full,ni_sequenzen,NI_Sequenzen,,1,,,,,,,,,,,,
,Move,canvas.Screen,0_3_0_2_0_0,right,response,,60389.20000000112,60385.007,60401.673,64662.800000000745,4261.127000000743,64672.20000000112,2021-10-26T17:26:22.049Z,64684.835,1635266765,full,ni_sequenzen,NI_Sequenzen,1,2,,,,,,,,,,,,
,Move,canvas.Screen,0_3_0_2_0_1,down,response,,64676.5,64668.169,64684.835,64976.5,291.6650000000009,64984.300000000745,2021-10-26T17:26:22.361Z,64996.893,1635266765,full,ni_sequenzen,NI_Sequenzen,2,2,,,,,,,,,,,,
,Move,canvas.Screen,0_3_0_2_0_2,down,response,,64989,64980.227,64996.893,65137.90000000037,141.00700000037614,65145.59999999963,2021-10-26T17:26:22.522Z,65163.553,1635266765,full,ni_sequenzen,NI_Sequenzen,3,2,,,,,,,,,,,,
,Move,canvas.Screen,0_3_0_2_0_3,down,response,,65149.5,65146.887,65163.553,65276.800000000745,113.24700000074517,65284.59999999963,2021-10-26T17:26:22.661Z,65330.213,1635266765,full,ni_sequenzen,NI_Sequenzen,4,2,,,,,,,,,,,,
,Move,canvas.Screen,0_3_0_2_0_4,-999,skipped,,65288.40000000037,,,65276.800000000745,,65288.5,2021-10-26T17:26:22.665Z,65330.213,1635266765,full,ni_sequenzen,NI_Sequenzen,5,2,,,,,,,,,,,,
,Move,canvas.Screen,0_3_0_2_0_5,-999,skipped,,65291.09999999963,,,65276.800000000745,,65291.09999999963,2021-10-26T17:26:22.668Z,65330.213,1635266765,full,ni_sequenzen,NI_Sequenzen,6,2,,,,,,,,,,,,
,Move,canvas.Screen,0_3_0_2_0_6,-999,skipped,,65294.70000000112,,,65276.800000000745,,65294.800000000745,2021-10-26T17:26:22.671Z,65330.213,1635266765,full,ni_sequenzen,NI_Sequenzen,7,2,,,,,,,,,,,,
,Move,canvas.Screen,0_3_0_2_0_7,-999,skipped,,65297,,,65276.800000000745,,65297,2021-10-26T17:26:22.674Z,65330.213,1635266765,full,ni_sequenzen,NI_Sequenzen,8,2,,,,,,,,,,,,
,Move,canvas.Screen,0_3_0_2_0_8,-999,skipped,,65298.90000000037,,,65276.800000000745,,65299,2021-10-26T17:26:22.676Z,65330.213,1635266765,full,ni_sequenzen,NI_Sequenzen,9,2,,,,,,,,,,,,
,Move,canvas.Screen,0_3_0_2_0_9,-999,skipped,,65301.5,,,65276.800000000745,,65301.59999999963,2021-10-26T17:26:22.678Z,65330.213,1635266765,full,ni_sequenzen,NI_Sequenzen,10,2,,,,,,,,,,,,
,Move,canvas.Screen,0_3_0_2_0_10,-999,skipped,,65303.40000000037,,,65276.800000000745,,65303.5,2021-10-26T17:26:22.680Z,65330.213,1635266765,full,ni_sequenzen,NI_Sequenzen,11,2,,,,,,,,,,,,
,Move,canvas.Screen,0_3_0_2_0_11,-999,skipped,,65305.59999999963,,,65276.800000000745,,65305.70000000112,2021-10-26T17:26:22.682Z,65330.213,1635266765,full,ni_sequenzen,NI_Sequenzen,12,2,,,,,,,,,,,,
,Move,canvas.Screen,0_3_0_2_0_12,-999,skipped,,65308,,,65276.800000000745,,65308,2021-10-26T17:26:22.685Z,65330.213,1635266765,full,ni_sequenzen,NI_Sequenzen,13,2,,,,,,,,,,,,
,Move,canvas.Screen,0_3_0_2_0_13,-999,skipped,,65310.59999999963,,,65276.800000000745,,65310.59999999963,2021-10-26T17:26:22.687Z,65330.213,1635266765,full,ni_sequenzen,NI_Sequenzen,14,2,,,,,,,,,,,,
,Move,canvas.Screen,0_3_0_2_0_14,-999,skipped,,65312.5,,,65276.800000000745,,65312.59999999963,2021-10-26T17:26:22.689Z,65330.213,1635266765,full,ni_sequenzen,NI_Sequenzen,15,2,,,,,,,,,,,,
,Loop,flow.Loop,0_3_0_2_0,-999,completion,,60386.40000000037,60385.007,60401.673,65276.800000000745,4875.127000000743,65312.70000000112,2021-10-26T17:26:22.689Z,65330.213,1635266765,full,ni_sequenzen,NI_Sequenzen,,2,,,,,,,,,,,,
,Feedback,canvas.Screen,0_3_0_2_1,,timeout,,65314.300000000745,65313.547,65330.213,69313.387,3999.8399999999965,69317.40000000037,2021-10-26T17:26:26.694Z,69330.053,1635266765,full,ni_sequenzen,NI_Sequenzen,,2,,,,,,,,,,,,
,Trial,flow.Sequence,0_3_0_2,,completion,,60372.5,60385.007,60401.673,69313.387,8911.714,69317.59999999963,2021-10-26T17:26:26.694Z,69346.719,1635266765,full,ni_sequenzen,NI_Sequenzen,,2,,,,,,,,,,,,
,Move,canvas.Screen,0_3_0_3_0_0,right,response,,69338,69330.053,69346.719,72681.70000000112,3334.9810000011203,72690.20000000112,2021-10-26T17:26:30.066Z,72713.251,1635266765,full,ni_sequenzen,NI_Sequenzen,1,3,,,,,,,,,,,,
,Move,canvas.Screen,0_3_0_3_0_1,down,response,,72696.20000000112,72696.585,72713.251,72919.40000000037,206.1490000003687,72926.70000000112,2021-10-26T17:26:30.303Z,72946.575,1635266765,full,ni_sequenzen,NI_Sequenzen,2,3,,,,,,,,,,,,
,Move,canvas.Screen,0_3_0_3_0_2,down,response,,72931,72929.909,72946.575,73087.70000000112,141.1250000011205,73096,2021-10-26T17:26:30.472Z,73103.819,1635266765,full,ni_sequenzen,NI_Sequenzen,3,3,,,,,,,,,,,,
,Move,canvas.Screen,0_3_0_3_0_3,down,response,,73099.70000000112,73087.153,73103.819,73246.40000000037,142.5810000003694,73254.20000000112,2021-10-26T17:26:30.631Z,73287.145,1635266765,full,ni_sequenzen,NI_Sequenzen,4,3,,,,,,,,,,,,
,Move,canvas.Screen,0_3_0_3_0_4,-999,skipped,,73258,,,73246.40000000037,,73258.09999999963,2021-10-26T17:26:30.634Z,73287.145,1635266765,full,ni_sequenzen,NI_Sequenzen,5,3,,,,,,,,,,,,
,Move,canvas.Screen,0_3_0_3_0_5,-999,skipped,,73260.90000000037,,,73246.40000000037,,73261,2021-10-26T17:26:30.637Z,73287.145,1635266765,full,ni_sequenzen,NI_Sequenzen,6,3,,,,,,,,,,,,
,Move,canvas.Screen,0_3_0_3_0_6,-999,skipped,,73263.30000000075,,,73246.40000000037,,73263.5,2021-10-26T17:26:30.640Z,73287.145,1635266765,full,ni_sequenzen,NI_Sequenzen,7,3,,,,,,,,,,,,
,Move,canvas.Screen,0_3_0_3_0_7,-999,skipped,,73266.59999999963,,,73246.40000000037,,73266.70000000112,2021-10-26T17:26:30.643Z,73287.145,1635266765,full,ni_sequenzen,NI_Sequenzen,8,3,,,,,,,,,,,,
,Move,canvas.Screen,0_3_0_3_0_8,-999,skipped,,73268.5,,,73246.40000000037,,73268.59999999963,2021-10-26T17:26:30.645Z,73287.145,1635266765,full,ni_sequenzen,NI_Sequenzen,9,3,,,,,,,,,,,,
,Move,canvas.Screen,0_3_0_3_0_9,-999,skipped,,73270.40000000037,,,73246.40000000037,,73270.5,2021-10-26T17:26:30.647Z,73287.145,1635266765,full,ni_sequenzen,NI_Sequenzen,10,3,,,,,,,,,,,,
,Move,canvas.Screen,0_3_0_3_0_10,-999,skipped,,73273,,,73246.40000000037,,73273.09999999963,2021-10-26T17:26:30.649Z,73287.145,1635266765,full,ni_sequenzen,NI_Sequenzen,11,3,,,,,,,,,,,,
,Move,canvas.Screen,0_3_0_3_0_11,-999,skipped,,73275,,,73246.40000000037,,73275,2021-10-26T17:26:30.651Z,73287.145,1635266765,full,ni_sequenzen,NI_Sequenzen,12,3,,,,,,,,,,,,
,Move,canvas.Screen,0_3_0_3_0_12,-999,skipped,,73277.09999999963,,,73246.40000000037,,73277.09999999963,2021-10-26T17:26:30.653Z,73287.145,1635266765,full,ni_sequenzen,NI_Sequenzen,13,3,,,,,,,,,,,,
,Move,canvas.Screen,0_3_0_3_0_13,-999,skipped,,73279.20000000112,,,73246.40000000037,,73279.20000000112,2021-10-26T17:26:30.655Z,73287.145,1635266765,full,ni_sequenzen,NI_Sequenzen,14,3,,,,,,,,,,,,
,Move,canvas.Screen,0_3_0_3_0_14,-999,skipped,,73281.80000000075,,,73246.40000000037,,73282,2021-10-26T17:26:30.658Z,73287.145,1635266765,full,ni_sequenzen,NI_Sequenzen,15,3,,,,,,,,,,,,
,Loop,flow.Loop,0_3_0_3_0,-999,completion,,69335.59999999963,69330.053,69346.719,73246.40000000037,3899.681000000375,73282.09999999963,2021-10-26T17:26:30.658Z,73287.145,1635266765,full,ni_sequenzen,NI_Sequenzen,,3,,,,,,,,,,,,
,Feedback,canvas.Screen,0_3_0_3_1,,timeout,,73285.20000000112,73270.479,73287.145,77270.319,3999.8399999999965,77273.59999999963,2021-10-26T17:26:34.650Z,77286.985,1635266765,full,ni_sequenzen,NI_Sequenzen,,3,,,,,,,,,,,,
,Trial,flow.Sequence,0_3_0_3,,completion,,69318.30000000075,69330.053,69346.719,77270.319,7923.600000000006,77273.90000000037,2021-10-26T17:26:34.650Z,77303.651,1635266765,full,ni_sequenzen,NI_Sequenzen,,3,,,,,,,,,,,,
,Move,canvas.Screen,0_3_0_4_0_0,right,response,,77290.09999999963,77286.985,77303.651,79905.30000000075,2601.649000000747,79913.80000000075,2021-10-26T17:26:37.290Z,79920.213,1635266765,full,ni_sequenzen,NI_Sequenzen,1,4,,,,,,,,,,,,
,Move,canvas.Screen,0_3_0_4_0_1,right,response,,79917.20000000112,79903.547,79920.213,80070.90000000037,150.68700000036915,80079.09999999963,2021-10-26T17:26:37.455Z,80086.873,1635266765,full,ni_sequenzen,NI_Sequenzen,2,4,,,,,,,,,,,,
,Move,canvas.Screen,0_3_0_4_0_2,down,response,,80083,80070.207,80086.873,80429.30000000075,342.4270000007382,80437.30000000075,2021-10-26T17:26:37.813Z,80453.525,1635266765,full,ni_sequenzen,NI_Sequenzen,3,4,,,,,,,,,,,,
,Move,canvas.Screen,0_3_0_4_0_3,down,response,,80440.80000000075,80436.859,80453.525,80597.90000000037,144.37500000037835,80605.80000000075,2021-10-26T17:26:37.982Z,80636.851,1635266765,full,ni_sequenzen,NI_Sequenzen,4,4,,,,,,,,,,,,
,Move,canvas.Screen,0_3_0_4_0_4,-999,skipped,,80609.80000000075,,,80597.90000000037,,80609.90000000037,2021-10-26T17:26:37.986Z,80636.851,1635266765,full,ni_sequenzen,NI_Sequenzen,5,4,,,,,,,,,,,,
,Move,canvas.Screen,0_3_0_4_0_5,-999,skipped,,80612.5,,,80597.90000000037,,80612.59999999963,2021-10-26T17:26:37.989Z,80636.851,1635266765,full,ni_sequenzen,NI_Sequenzen,6,4,,,,,,,,,,,,
,Move,canvas.Screen,0_3_0_4_0_6,-999,skipped,,80614.90000000037,,,80597.90000000037,,80615,2021-10-26T17:26:37.991Z,80636.851,1635266765,full,ni_sequenzen,NI_Sequenzen,7,4,,,,,,,,,,,,
,Move,canvas.Screen,0_3_0_4_0_7,-999,skipped,,80618.40000000037,,,80597.90000000037,,80618.40000000037,2021-10-26T17:26:37.994Z,80636.851,1635266765,full,ni_sequenzen,NI_Sequenzen,8,4,,,,,,,,,,,,
,Move,canvas.Screen,0_3_0_4_0_8,-999,skipped,,80620.30000000075,,,80597.90000000037,,80620.5,2021-10-26T17:26:37.996Z,80636.851,1635266765,full,ni_sequenzen,NI_Sequenzen,9,4,,,,,,,,,,,,
,Move,canvas.Screen,0_3_0_4_0_9,-999,skipped,,80622.70000000112,,,80597.90000000037,,80622.70000000112,2021-10-26T17:26:37.999Z,80636.851,1635266765,full,ni_sequenzen,NI_Sequenzen,10,4,,,,,,,,,,,,
,Move,canvas.Screen,0_3_0_4_0_10,-999,skipped,,80625.80000000075,,,80597.90000000037,,80625.90000000037,2021-10-26T17:26:38.002Z,80636.851,1635266765,full,ni_sequenzen,NI_Sequenzen,11,4,,,,,,,,,,,,
,Move,canvas.Screen,0_3_0_4_0_11,-999,skipped,,80627.90000000037,,,80597.90000000037,,80627.90000000037,2021-10-26T17:26:38.004Z,80636.851,1635266765,full,ni_sequenzen,NI_Sequenzen,12,4,,,,,,,,,,,,
,Move,canvas.Screen,0_3_0_4_0_12,-999,skipped,,80629.80000000075,,,80597.90000000037,,80629.80000000075,2021-10-26T17:26:38.006Z,80636.851,1635266765,full,ni_sequenzen,NI_Sequenzen,13,4,,,,,,,,,,,,
,Move,canvas.Screen,0_3_0_4_0_13,-999,skipped,,80632.20000000112,,,80597.90000000037,,80632.40000000037,2021-10-26T17:26:38.008Z,80636.851,1635266765,full,ni_sequenzen,NI_Sequenzen,14,4,,,,,,,,,,,,
,Move,canvas.Screen,0_3_0_4_0_14,-999,skipped,,80634.20000000112,,,80597.90000000037,,80634.30000000075,2021-10-26T17:26:38.010Z,80636.851,1635266765,full,ni_sequenzen,NI_Sequenzen,15,4,,,,,,,,,,,,
,Loop,flow.Loop,0_3_0_4_0,-999,completion,,77287.09999999963,77286.985,77303.651,80597.90000000037,3294.2490000003745,80634.40000000037,2021-10-26T17:26:38.010Z,80636.851,1635266765,full,ni_sequenzen,NI_Sequenzen,,4,,,,,,,,,,,,
,Feedback,canvas.Screen,0_3_0_4_1,,timeout,,80636.20000000112,80620.185,80636.851,84620.025,3999.840000000011,84624.90000000037,2021-10-26T17:26:42.001Z,84636.691,1635266765,full,ni_sequenzen,NI_Sequenzen,,4,,,,,,,,,,,,
,Trial,flow.Sequence,0_3_0_4,,completion,,77274.5,77286.985,77303.651,84620.025,7316.373999999996,84625.09999999963,2021-10-26T17:26:42.001Z,84653.357,1635266765,full,ni_sequenzen,NI_Sequenzen,,4,,,,,,,,,,,,
,Move,canvas.Screen,0_3_0_5_0_0,left,response,,84645.70000000112,84636.691,84653.357,86371.40000000037,1718.043000000369,86379.59999999963,2021-10-26T17:26:43.755Z,86386.621,1635266765,full,ni_sequenzen,NI_Sequenzen,1,5,,,,,,,,,,,,
,Move,canvas.Screen,0_3_0_5_0_1,left,response,,86383.20000000112,86369.955,86386.621,86524.70000000112,138.0790000011184,86532.30000000075,2021-10-26T17:26:43.908Z,86545.392,1635266765,full,ni_sequenzen,NI_Sequenzen,2,5,,,,,,,,,,,,
,Move,canvas.Screen,0_3_0_5_0_2,down,response,,86536.30000000075,86528.726,86545.392,86805.09999999963,259.70799999962037,86812.59999999963,2021-10-26T17:26:44.188Z,86828.714,1635266765,full,ni_sequenzen,NI_Sequenzen,3,5,,,,,,,,,,,,
,Move,canvas.Screen,0_3_0_5_0_3,down,response,,86816.09999999963,86812.048,86828.714,86972.09999999963,143.38599999962025,86980.09999999963,2021-10-26T17:26:44.356Z,87012.04,1635266765,full,ni_sequenzen,NI_Sequenzen,4,5,,,,,,,,,,,,
,Move,canvas.Screen,0_3_0_5_0_4,-999,skipped,,86984.09999999963,,,86972.09999999963,,86984.20000000112,2021-10-26T17:26:44.360Z,87012.04,1635266765,full,ni_sequenzen,NI_Sequenzen,5,5,,,,,,,,,,,,
,Move,canvas.Screen,0_3_0_5_0_5,-999,skipped,,86986.80000000075,,,86972.09999999963,,86986.80000000075,2021-10-26T17:26:44.363Z,87012.04,1635266765,full,ni_sequenzen,NI_Sequenzen,6,5,,,,,,,,,,,,
,Move,canvas.Screen,0_3_0_5_0_6,-999,skipped,,86989.20000000112,,,86972.09999999963,,86989.30000000075,2021-10-26T17:26:44.365Z,87012.04,1635266765,full,ni_sequenzen,NI_Sequenzen,7,5,,,,,,,,,,,,
,Move,canvas.Screen,0_3_0_5_0_7,-999,skipped,,86992.80000000075,,,86972.09999999963,,86992.90000000037,2021-10-26T17:26:44.369Z,87012.04,1635266765,full,ni_sequenzen,NI_Sequenzen,8,5,,,,,,,,,,,,
,Move,canvas.Screen,0_3_0_5_0_8,-999,skipped,,86994.80000000075,,,86972.09999999963,,86994.90000000037,2021-10-26T17:26:44.371Z,87012.04,1635266765,full,ni_sequenzen,NI_Sequenzen,9,5,,,,,,,,,,,,
,Move,canvas.Screen,0_3_0_5_0_9,-999,skipped,,86996.70000000112,,,86972.09999999963,,86996.70000000112,2021-10-26T17:26:44.373Z,87012.04,1635266765,full,ni_sequenzen,NI_Sequenzen,10,5,,,,,,,,,,,,
,Move,canvas.Screen,0_3_0_5_0_10,-999,skipped,,86999.40000000037,,,86972.09999999963,,86999.40000000037,2021-10-26T17:26:44.375Z,87012.04,1635266765,full,ni_sequenzen,NI_Sequenzen,11,5,,,,,,,,,,,,
,Move,canvas.Screen,0_3_0_5_0_11,-999,skipped,,87001.30000000075,,,86972.09999999963,,87001.40000000037,2021-10-26T17:26:44.377Z,87012.04,1635266765,full,ni_sequenzen,NI_Sequenzen,12,5,,,,,,,,,,,,
,Move,canvas.Screen,0_3_0_5_0_12,-999,skipped,,87003.20000000112,,,86972.09999999963,,87003.20000000112,2021-10-26T17:26:44.379Z,87012.04,1635266765,full,ni_sequenzen,NI_Sequenzen,13,5,,,,,,,,,,,,
,Move,canvas.Screen,0_3_0_5_0_13,-999,skipped,,87005.59999999963,,,86972.09999999963,,87005.70000000112,2021-10-26T17:26:44.381Z,87012.04,1635266765,full,ni_sequenzen,NI_Sequenzen,14,5,,,,,,,,,,,,
,Move,canvas.Screen,0_3_0_5_0_14,-999,skipped,,87007.59999999963,,,86972.09999999963,,87007.80000000075,2021-10-26T17:26:44.384Z,87012.04,1635266765,full,ni_sequenzen,NI_Sequenzen,15,5,,,,,,,,,,,,
,Loop,flow.Loop,0_3_0_5_0,-999,completion,,84641.40000000037,84636.691,84653.357,86972.09999999963,2318.742999999624,87007.90000000037,2021-10-26T17:26:44.384Z,87012.04,1635266765,full,ni_sequenzen,NI_Sequenzen,,5,,,,,,,,,,,,
,Feedback,canvas.Screen,0_3_0_5_1,,timeout,,87009.5,86995.374,87012.04,90995.214,3999.840000000011,90999.80000000075,2021-10-26T17:26:48.375Z,91011.88,1635266765,full,ni_sequenzen,NI_Sequenzen,,5,,,,,,,,,,,,
,Trial,flow.Sequence,0_3_0_5,,completion,,84625.70000000112,84636.691,84653.357,90995.214,6341.857000000004,91000,2021-10-26T17:26:48.376Z,91028.546,1635266765,full,ni_sequenzen,NI_Sequenzen,,5,,,,,,,,,,,,
,Move,canvas.Screen,0_3_0_6_0_0,left,response,,91017.09999999963,91011.88,91028.546,91535,506.4539999999979,91543.70000000112,2021-10-26T17:26:48.919Z,91561.858,1635266765,full,ni_sequenzen,NI_Sequenzen,1,6,,,,,,,,,,,,
,Move,canvas.Screen,0_3_0_6_0_1,left,response,,91548,91545.192,91561.858,91701.59999999963,139.74199999963457,91709.5,2021-10-26T17:26:49.085Z,91728.518,1635266765,full,ni_sequenzen,NI_Sequenzen,2,6,,,,,,,,,,,,
,Move,canvas.Screen,0_3_0_6_0_2,down,response,,91712.90000000037,91711.852,91728.518,91947,218.4820000000036,91954.80000000075,2021-10-26T17:26:49.331Z,91961.842,1635266765,full,ni_sequenzen,NI_Sequenzen,3,6,,,,,,,,,,,,
,Move,canvas.Screen,0_3_0_6_0_3,down,response,,91958.80000000075,91945.176,91961.842,92110.5,148.6579999999958,92118.30000000075,2021-10-26T17:26:49.494Z,92161.834,1635266765,full,ni_sequenzen,NI_Sequenzen,4,6,,,,,,,,,,,,
,Move,canvas.Screen,0_3_0_6_0_4,-999,skipped,,92121.70000000112,,,92110.5,,92121.90000000037,2021-10-26T17:26:49.497Z,92161.834,1635266765,full,ni_sequenzen,NI_Sequenzen,5,6,,,,,,,,,,,,
,Move,canvas.Screen,0_3_0_6_0_5,-999,skipped,,92124.90000000037,,,92110.5,,92124.90000000037,2021-10-26T17:26:49.501Z,92161.834,1635266765,full,ni_sequenzen,NI_Sequenzen,6,6,,,,,,,,,,,,
,Move,canvas.Screen,0_3_0_6_0_6,-999,skipped,,92127.59999999963,,,92110.5,,92127.70000000112,2021-10-26T17:26:49.503Z,92161.834,1635266765,full,ni_sequenzen,NI_Sequenzen,7,6,,,,,,,,,,,,
,Move,canvas.Screen,0_3_0_6_0_7,-999,skipped,,92130,,,92110.5,,92130.09999999963,2021-10-26T17:26:49.506Z,92161.834,1635266765,full,ni_sequenzen,NI_Sequenzen,8,6,,,,,,,,,,,,
,Move,canvas.Screen,0_3_0_6_0_8,-999,skipped,,92131.90000000037,,,92110.5,,92131.90000000037,2021-10-26T17:26:49.508Z,92161.834,1635266765,full,ni_sequenzen,NI_Sequenzen,9,6,,,,,,,,,,,,
,Move,canvas.Screen,0_3_0_6_0_9,-999,skipped,,92134.59999999963,,,92110.5,,92134.70000000112,2021-10-26T17:26:49.510Z,92161.834,1635266765,full,ni_sequenzen,NI_Sequenzen,10,6,,,,,,,,,,,,
,Move,canvas.Screen,0_3_0_6_0_10,-999,skipped,,92136.5,,,92110.5,,92136.59999999963,2021-10-26T17:26:49.512Z,92161.834,1635266765,full,ni_sequenzen,NI_Sequenzen,11,6,,,,,,,,,,,,
,Move,canvas.Screen,0_3_0_6_0_11,-999,skipped,,92138.5,,,92110.5,,92138.59999999963,2021-10-26T17:26:49.514Z,92161.834,1635266765,full,ni_sequenzen,NI_Sequenzen,12,6,,,,,,,,,,,,
,Move,canvas.Screen,0_3_0_6_0_12,-999,skipped,,92140.30000000075,,,92110.5,,92140.40000000037,2021-10-26T17:26:49.516Z,92161.834,1635266765,full,ni_sequenzen,NI_Sequenzen,13,6,,,,,,,,,,,,
,Move,canvas.Screen,0_3_0_6_0_13,-999,skipped,,92142.20000000112,,,92110.5,,92142.20000000112,2021-10-26T17:26:49.518Z,92161.834,1635266765,full,ni_sequenzen,NI_Sequenzen,14,6,,,,,,,,,,,,
,Move,canvas.Screen,0_3_0_6_0_14,-999,skipped,,92144,,,92110.5,,92144.09999999963,2021-10-26T17:26:49.520Z,92161.834,1635266765,full,ni_sequenzen,NI_Sequenzen,15,6,,,,,,,,,,,,
,Loop,flow.Loop,0_3_0_6_0,-999,completion,,91014.09999999963,91011.88,91028.546,92110.5,1081.953999999998,92144.20000000112,2021-10-26T17:26:49.520Z,92161.834,1635266765,full,ni_sequenzen,NI_Sequenzen,,6,,,,,,,,,,,,
,Feedback,canvas.Screen,0_3_0_6_1,,timeout,,92145.90000000037,92145.168,92161.834,96145.008,3999.8399999999965,96148.09999999963,2021-10-26T17:26:53.524Z,96161.674,1635266765,full,ni_sequenzen,NI_Sequenzen,,6,,,,,,,,,,,,
,Trial,flow.Sequence,0_3_0_6,,completion,,91000.59999999963,91011.88,91028.546,96145.008,5116.4619999999995,96148.30000000075,2021-10-26T17:26:53.524Z,96178.34,1635266765,full,ni_sequenzen,NI_Sequenzen,,6,,,,,,,,,,,,
,Move,canvas.Screen,0_3_0_7_0_0,left,response,,96165.40000000037,96161.674,96178.34,97859.09999999963,1680.759999999631,97868.09999999963,2021-10-26T17:26:55.243Z,97878.272,1635266765,full,ni_sequenzen,NI_Sequenzen,1,7,,,,,,,,,,,,
,Move,canvas.Screen,0_3_0_7_0_1,left,response,,97872.5,97861.606,97878.272,98004.09999999963,125.82799999963026,98010.80000000075,2021-10-26T17:26:55.386Z,98025.535,1635266765,full,ni_sequenzen,NI_Sequenzen,2,7,,,,,,,,,,,,
,Move,canvas.Screen,0_3_0_7_0_2,down,response,,98014.5,98008.869,98025.535,98284.5,258.9649999999965,98292.30000000075,2021-10-26T17:26:55.668Z,98308.857,1635266765,full,ni_sequenzen,NI_Sequenzen,3,7,,,,,,,,,,,,
,Move,canvas.Screen,0_3_0_7_0_3,down,response,,98295.80000000075,98292.191,98308.857,98444.30000000075,135.44300000074145,98451.90000000037,2021-10-26T17:26:55.827Z,98492.183,1635266765,full,ni_sequenzen,NI_Sequenzen,4,7,,,,,,,,,,,,
,Move,canvas.Screen,0_3_0_7_0_4,-999,skipped,,98455.80000000075,,,98444.30000000075,,98456,2021-10-26T17:26:55.831Z,98492.183,1635266765,full,ni_sequenzen,NI_Sequenzen,5,7,,,,,,,,,,,,
,Move,canvas.Screen,0_3_0_7_0_5,-999,skipped,,98458.40000000037,,,98444.30000000075,,98458.59999999963,2021-10-26T17:26:55.834Z,98492.183,1635266765,full,ni_sequenzen,NI_Sequenzen,6,7,,,,,,,,,,,,
,Move,canvas.Screen,0_3_0_7_0_6,-999,skipped,,98461.80000000075,,,98444.30000000075,,98461.90000000037,2021-10-26T17:26:55.837Z,98492.183,1635266765,full,ni_sequenzen,NI_Sequenzen,7,7,,,,,,,,,,,,
,Move,canvas.Screen,0_3_0_7_0_7,-999,skipped,,98464.20000000112,,,98444.30000000075,,98464.30000000075,2021-10-26T17:26:55.840Z,98492.183,1635266765,full,ni_sequenzen,NI_Sequenzen,8,7,,,,,,,,,,,,
,Move,canvas.Screen,0_3_0_7_0_8,-999,skipped,,98466,,,98444.30000000075,,98466,2021-10-26T17:26:55.841Z,98492.183,1635266765,full,ni_sequenzen,NI_Sequenzen,9,7,,,,,,,,,,,,
,Move,canvas.Screen,0_3_0_7_0_9,-999,skipped,,98468.90000000037,,,98444.30000000075,,98469.09999999963,2021-10-26T17:26:55.844Z,98492.183,1635266765,full,ni_sequenzen,NI_Sequenzen,10,7,,,,,,,,,,,,
,Move,canvas.Screen,0_3_0_7_0_10,-999,skipped,,98471.30000000075,,,98444.30000000075,,98471.40000000037,2021-10-26T17:26:55.847Z,98492.183,1635266765,full,ni_sequenzen,NI_Sequenzen,11,7,,,,,,,,,,,,
,Move,canvas.Screen,0_3_0_7_0_11,-999,skipped,,98473.40000000037,,,98444.30000000075,,98473.59999999963,2021-10-26T17:26:55.849Z,98492.183,1635266765,full,ni_sequenzen,NI_Sequenzen,12,7,,,,,,,,,,,,
,Move,canvas.Screen,0_3_0_7_0_12,-999,skipped,,98476.09999999963,,,98444.30000000075,,98476.20000000112,2021-10-26T17:26:55.852Z,98492.183,1635266765,full,ni_sequenzen,NI_Sequenzen,13,7,,,,,,,,,,,,
,Move,canvas.Screen,0_3_0_7_0_13,-999,skipped,,98478.20000000112,,,98444.30000000075,,98478.30000000075,2021-10-26T17:26:55.854Z,98492.183,1635266765,full,ni_sequenzen,NI_Sequenzen,14,7,,,,,,,,,,,,
,Move,canvas.Screen,0_3_0_7_0_14,-999,skipped,,98480.09999999963,,,98444.30000000075,,98480.20000000112,2021-10-26T17:26:55.856Z,98492.183,1635266765,full,ni_sequenzen,NI_Sequenzen,15,7,,,,,,,,,,,,
,Loop,flow.Loop,0_3_0_7_0,-999,completion,,96162.20000000112,96161.674,96178.34,98444.30000000075,2265.9600000007486,98480.30000000075,2021-10-26T17:26:55.856Z,98492.183,1635266765,full,ni_sequenzen,NI_Sequenzen,,7,,,,,,,,,,,,
,Feedback,canvas.Screen,0_3_0_7_1,,timeout,,98482.09999999963,98475.517,98492.183,102475.357,3999.8399999999965,102477.5,2021-10-26T17:26:59.853Z,102492.023,1635266765,full,ni_sequenzen,NI_Sequenzen,,7,,,,,,,,,,,,
,Trial,flow.Sequence,0_3_0_7,,completion,,96148.90000000037,96161.674,96178.34,102475.357,6297.017000000007,102477.80000000075,2021-10-26T17:26:59.853Z,102508.689,1635266765,full,ni_sequenzen,NI_Sequenzen,,7,,,,,,,,,,,,
,Move,canvas.Screen,0_3_0_8_0_0,down,response,,102492.30000000075,102492.023,102508.689,103714.90000000037,1206.211000000374,103723.70000000112,2021-10-26T17:27:01.099Z,103741.973,1635266765,full,ni_sequenzen,NI_Sequenzen,1,8,,,,,,,,,,,,
,Move,canvas.Screen,0_3_0_8_0_1,down,response,,103727.59999999963,103725.307,103741.973,103965.30000000075,223.32700000074692,103973.30000000075,2021-10-26T17:27:01.349Z,103991.963,1635266765,full,ni_sequenzen,NI_Sequenzen,2,8,,,,,,,,,,,,
,Move,canvas.Screen,0_3_0_8_0_2,down,response,,103976.80000000075,103975.297,103991.963,104140.30000000075,148.33700000074168,104148.20000000112,2021-10-26T17:27:01.523Z,104158.623,1635266765,full,ni_sequenzen,NI_Sequenzen,3,8,,,,,,,,,,,,
,Move,canvas.Screen,0_3_0_8_0_3,right,response,,104152,104141.957,104158.623,104287.40000000037,128.77700000036566,104295.20000000112,2021-10-26T17:27:01.670Z,104308.617,1635266765,full,ni_sequenzen,NI_Sequenzen,4,8,,,,,,,,,,,,
,Move,canvas.Screen,0_3_0_8_0_4,right,response,,104298.59999999963,104291.951,104308.617,104453.30000000075,144.6830000007467,104461.09999999963,2021-10-26T17:27:01.836Z,104491.943,1635266765,full,ni_sequenzen,NI_Sequenzen,5,8,,,,,,,,,,,,
,Move,canvas.Screen,0_3_0_8_0_5,-999,skipped,,104465.09999999963,,,104453.30000000075,,104465.20000000112,2021-10-26T17:27:01.840Z,104491.943,1635266765,full,ni_sequenzen,NI_Sequenzen,6,8,,,,,,,,,,,,
,Move,canvas.Screen,0_3_0_8_0_6,-999,skipped,,104467.70000000112,,,104453.30000000075,,104467.80000000075,2021-10-26T17:27:01.843Z,104491.943,1635266765,full,ni_sequenzen,NI_Sequenzen,7,8,,,,,,,,,,,,
,Move,canvas.Screen,0_3_0_8_0_7,-999,skipped,,104470.30000000075,,,104453.30000000075,,104470.40000000037,2021-10-26T17:27:01.845Z,104491.943,1635266765,full,ni_sequenzen,NI_Sequenzen,8,8,,,,,,,,,,,,
,Move,canvas.Screen,0_3_0_8_0_8,-999,skipped,,104473.5,,,104453.30000000075,,104473.59999999963,2021-10-26T17:27:01.849Z,104491.943,1635266765,full,ni_sequenzen,NI_Sequenzen,9,8,,,,,,,,,,,,
,Move,canvas.Screen,0_3_0_8_0_9,-999,skipped,,104475.80000000075,,,104453.30000000075,,104476,2021-10-26T17:27:01.851Z,104491.943,1635266765,full,ni_sequenzen,NI_Sequenzen,10,8,,,,,,,,,,,,
,Move,canvas.Screen,0_3_0_8_0_10,-999,skipped,,104478,,,104453.30000000075,,104478.09999999963,2021-10-26T17:27:01.853Z,104491.943,1635266765,full,ni_sequenzen,NI_Sequenzen,11,8,,,,,,,,,,,,
,Move,canvas.Screen,0_3_0_8_0_11,-999,skipped,,104480.59999999963,,,104453.30000000075,,104480.80000000075,2021-10-26T17:27:01.856Z,104491.943,1635266765,full,ni_sequenzen,NI_Sequenzen,12,8,,,,,,,,,,,,
,Move,canvas.Screen,0_3_0_8_0_12,-999,skipped,,104482.5,,,104453.30000000075,,104482.59999999963,2021-10-26T17:27:01.858Z,104491.943,1635266765,full,ni_sequenzen,NI_Sequenzen,13,8,,,,,,,,,,,,
,Move,canvas.Screen,0_3_0_8_0_13,-999,skipped,,104484.40000000037,,,104453.30000000075,,104484.5,2021-10-26T17:27:01.860Z,104491.943,1635266765,full,ni_sequenzen,NI_Sequenzen,14,8,,,,,,,,,,,,
,Move,canvas.Screen,0_3_0_8_0_14,-999,skipped,,104486.20000000112,,,104453.30000000075,,104486.40000000037,2021-10-26T17:27:01.862Z,104491.943,1635266765,full,ni_sequenzen,NI_Sequenzen,15,8,,,,,,,,,,,,
,Loop,flow.Loop,0_3_0_8_0,-999,completion,,102489.80000000075,102492.023,102508.689,104453.30000000075,1944.6110000007466,104486.5,2021-10-26T17:27:01.862Z,104491.943,1635266765,full,ni_sequenzen,NI_Sequenzen,,8,,,,,,,,,,,,
