meta,sender,sender_type,sender_id,response,ended_on,instrCount,time_run,time_render,time_show,time_end,duration,time_commit,timestamp,time_switch,openLabId,type,task,project,move,trialN,blockN_Train,blockN,moveCount,currPP,points,movesTrial,visitedFields,diff,reward,Strategie,Zweck,Probleme
[object Object],Screen_1,canvas.Screen,0_0_0_0,cont,response,1,4192.399999999994,9750.26,9817.162,16940.600000000006,7123.438000000006,16944.899999999994,2021-11-03T20:35:37.532Z,17094.512,1635969522,full,ni_sequenzen,NI_Sequenzen,,,,,,,,,,,,,,
,Screen_2,canvas.Screen,0_0_0_1,cont,response,1,17088.199999999997,17077.846,17094.512,17628.100000000006,533.588000000007,17629.699999999997,2021-11-03T20:35:38.217Z,18893.021,1635969522,full,ni_sequenzen,NI_Sequenzen,,,,,,,,,,,,,,
,Screen_3,canvas.Screen,0_0_0_2,cont,response,1,18876.800000000003,18876.322,18893.021,19239.800000000003,346.77900000000227,19240.600000000006,2021-11-03T20:35:39.828Z,19259.39,1635969522,full,ni_sequenzen,NI_Sequenzen,,,,,,,,,,,,,,
,Screen_4,canvas.Screen,0_0_0_3,cont,response,1,19245.300000000003,19242.755,19259.39,19652.699999999997,393.3099999999977,19653.5,2021-11-03T20:35:40.241Z,20108.692,1635969522,full,ni_sequenzen,NI_Sequenzen,,,,,,,,,,,,,,
,Sequence,flow.Sequence,0_0_0,,completion,1,4078.100000000006,9750.26,9817.162,19652.699999999997,9835.537999999997,19654.100000000006,2021-11-03T20:35:40.242Z,20108.692,1635969522,full,ni_sequenzen,NI_Sequenzen,,,,,,,,,,,,,,
,Screen_1,canvas.Screen,0_0_1_0,,skipped,2,19658.300000000003,,,19658.399999999994,,19658.600000000006,2021-11-03T20:35:40.246Z,20108.692,1635969522,full,ni_sequenzen,NI_Sequenzen,,,,,,,,,,,,,,
,Screen_2,canvas.Screen,0_0_1_1,,skipped,2,19661.699999999997,,,19658.399999999994,,19661.899999999994,2021-11-03T20:35:40.249Z,20108.692,1635969522,full,ni_sequenzen,NI_Sequenzen,,,,,,,,,,,,,,
,Screen_3,canvas.Screen,0_0_1_2,,skipped,2,19664.899999999994,,,19658.399999999994,,19665,2021-11-03T20:35:40.253Z,20108.692,1635969522,full,ni_sequenzen,NI_Sequenzen,,,,,,,,,,,,,,
,Screen_4,canvas.Screen,0_0_1_3,,skipped,2,19667.600000000006,,,19658.399999999994,,19668.100000000006,2021-11-03T20:35:40.256Z,20108.692,1635969522,full,ni_sequenzen,NI_Sequenzen,,,,,,,,,,,,,,
,Sequence,flow.Sequence,0_0_1,,completion,2,19655.5,,,19658.399999999994,,19668.5,2021-11-03T20:35:40.256Z,20108.692,1635969522,full,ni_sequenzen,NI_Sequenzen,,,,,,,,,,,,,,
,Screen_1,canvas.Screen,0_0_2_0,,skipped,3,19671.600000000006,,,19671.600000000006,,19671.899999999994,2021-11-03T20:35:40.259Z,20108.692,1635969522,full,ni_sequenzen,NI_Sequenzen,,,,,,,,,,,,,,
,Screen_2,canvas.Screen,0_0_2_1,,skipped,3,19674,,,19671.600000000006,,19674.300000000003,2021-11-03T20:35:40.262Z,20108.692,1635969522,full,ni_sequenzen,NI_Sequenzen,,,,,,,,,,,,,,
,Screen_3,canvas.Screen,0_0_2_2,,skipped,3,19677.100000000006,,,19671.600000000006,,19677.300000000003,2021-11-03T20:35:40.265Z,20108.692,1635969522,full,ni_sequenzen,NI_Sequenzen,,,,,,,,,,,,,,
,Screen_4,canvas.Screen,0_0_2_3,,skipped,3,19679.600000000006,,,19671.600000000006,,19679.899999999994,2021-11-03T20:35:40.267Z,20108.692,1635969522,full,ni_sequenzen,NI_Sequenzen,,,,,,,,,,,,,,
,Sequence,flow.Sequence,0_0_2,,completion,3,19669.5,,,19671.600000000006,,19680.199999999997,2021-11-03T20:35:40.268Z,20108.692,1635969522,full,ni_sequenzen,NI_Sequenzen,,,,,,,,,,,,,,
,Screen_1,canvas.Screen,0_0_3_0,,skipped,4,19683,,,19683,,19683.199999999997,2021-11-03T20:35:40.271Z,20108.692,1635969522,full,ni_sequenzen,NI_Sequenzen,,,,,,,,,,,,,,
,Screen_2,canvas.Screen,0_0_3_1,,skipped,4,19685.5,,,19683,,19685.699999999997,2021-11-03T20:35:40.273Z,20108.692,1635969522,full,ni_sequenzen,NI_Sequenzen,,,,,,,,,,,,,,
,Screen_3,canvas.Screen,0_0_3_2,,skipped,4,19688.600000000006,,,19683,,19688.899999999994,2021-11-03T20:35:40.276Z,20108.692,1635969522,full,ni_sequenzen,NI_Sequenzen,,,,,,,,,,,,,,
,Screen_4,canvas.Screen,0_0_3_3,,skipped,4,19691.300000000003,,,19683,,19691.5,2021-11-03T20:35:40.279Z,20108.692,1635969522,full,ni_sequenzen,NI_Sequenzen,,,,,,,,,,,,,,
,Sequence,flow.Sequence,0_0_3,,completion,4,19681.100000000006,,,19683,,19691.899999999994,2021-11-03T20:35:40.279Z,20108.692,1635969522,full,ni_sequenzen,NI_Sequenzen,,,,,,,,,,,,,,
,Screen_1,canvas.Screen,0_0_4_0,,skipped,5,19697,,,19697,,19697.199999999997,2021-11-03T20:35:40.285Z,20108.692,1635969522,full,ni_sequenzen,NI_Sequenzen,,,,,,,,,,,,,,
,Screen_2,canvas.Screen,0_0_4_1,,skipped,5,19699.5,,,19697,,19700.100000000006,2021-11-03T20:35:40.288Z,20108.692,1635969522,full,ni_sequenzen,NI_Sequenzen,,,,,,,,,,,,,,
,Screen_3,canvas.Screen,0_0_4_2,,skipped,5,19702.399999999994,,,19697,,19702.600000000006,2021-11-03T20:35:40.290Z,20108.692,1635969522,full,ni_sequenzen,NI_Sequenzen,,,,,,,,,,,,,,
,Screen_4,canvas.Screen,0_0_4_3,,skipped,5,19705.399999999994,,,19697,,19705.600000000006,2021-11-03T20:35:40.293Z,20108.692,1635969522,full,ni_sequenzen,NI_Sequenzen,,,,,,,,,,,,,,
,Sequence,flow.Sequence,0_0_4,,completion,5,19693.899999999994,,,19697,,19705.899999999994,2021-11-03T20:35:40.293Z,20108.692,1635969522,full,ni_sequenzen,NI_Sequenzen,,,,,,,,,,,,,,
,Screen_1,canvas.Screen,0_0_5_0,,skipped,6,19708.800000000003,,,19708.800000000003,,19709,2021-11-03T20:35:40.296Z,20108.692,1635969522,full,ni_sequenzen,NI_Sequenzen,,,,,,,,,,,,,,
,Screen_2,canvas.Screen,0_0_5_1,,skipped,6,19711.100000000006,,,19708.800000000003,,19711.399999999994,2021-11-03T20:35:40.299Z,20108.692,1635969522,full,ni_sequenzen,NI_Sequenzen,,,,,,,,,,,,,,
,Screen_3,canvas.Screen,0_0_5_2,,skipped,6,19713.800000000003,,,19708.800000000003,,19714,2021-11-03T20:35:40.301Z,20108.692,1635969522,full,ni_sequenzen,NI_Sequenzen,,,,,,,,,,,,,,
,Screen_4,canvas.Screen,0_0_5_3,,skipped,6,19716.399999999994,,,19708.800000000003,,19716.5,2021-11-03T20:35:40.304Z,20108.692,1635969522,full,ni_sequenzen,NI_Sequenzen,,,,,,,,,,,,,,
,Sequence,flow.Sequence,0_0_5,,completion,6,19706.800000000003,,,19708.800000000003,,19716.800000000003,2021-11-03T20:35:40.304Z,20108.692,1635969522,full,ni_sequenzen,NI_Sequenzen,,,,,,,,,,,,,,
,Screen_1,canvas.Screen,0_0_6_0,,skipped,7,19719.699999999997,,,19719.699999999997,,19719.800000000003,2021-11-03T20:35:40.307Z,20108.692,1635969522,full,ni_sequenzen,NI_Sequenzen,,,,,,,,,,,,,,
,Screen_2,canvas.Screen,0_0_6_1,,skipped,7,19722.199999999997,,,19719.699999999997,,19722.300000000003,2021-11-03T20:35:40.310Z,20108.692,1635969522,full,ni_sequenzen,NI_Sequenzen,,,,,,,,,,,,,,
,Screen_3,canvas.Screen,0_0_6_2,,skipped,7,19724.899999999994,,,19719.699999999997,,19725.100000000006,2021-11-03T20:35:40.313Z,20108.692,1635969522,full,ni_sequenzen,NI_Sequenzen,,,,,,,,,,,,,,
,Screen_4,canvas.Screen,0_0_6_3,,skipped,7,19728.399999999994,,,19719.699999999997,,19728.600000000006,2021-11-03T20:35:40.316Z,20108.692,1635969522,full,ni_sequenzen,NI_Sequenzen,,,,,,,,,,,,,,
,Sequence,flow.Sequence,0_0_6,,completion,7,19717.800000000003,,,19719.699999999997,,19728.899999999994,2021-11-03T20:35:40.316Z,20108.692,1635969522,full,ni_sequenzen,NI_Sequenzen,,,,,,,,,,,,,,
,Screen_1,canvas.Screen,0_0_7_0,,skipped,8,19732.300000000003,,,19732.300000000003,,19732.5,2021-11-03T20:35:40.320Z,20108.692,1635969522,full,ni_sequenzen,NI_Sequenzen,,,,,,,,,,,,,,
,Screen_2,canvas.Screen,0_0_7_1,,skipped,8,19736.300000000003,,,19732.300000000003,,19736.5,2021-11-03T20:35:40.324Z,20108.692,1635969522,full,ni_sequenzen,NI_Sequenzen,,,,,,,,,,,,,,
,Screen_3,canvas.Screen,0_0_7_2,,skipped,8,19739.5,,,19732.300000000003,,19739.600000000006,2021-11-03T20:35:40.327Z,20108.692,1635969522,full,ni_sequenzen,NI_Sequenzen,,,,,,,,,,,,,,
,Screen_4,canvas.Screen,0_0_7_3,,skipped,8,19742.300000000003,,,19732.300000000003,,19742.5,2021-11-03T20:35:40.330Z,20108.692,1635969522,full,ni_sequenzen,NI_Sequenzen,,,,,,,,,,,,,,
,Sequence,flow.Sequence,0_0_7,,completion,8,19730.100000000006,,,19732.300000000003,,19743,2021-11-03T20:35:40.330Z,20108.692,1635969522,full,ni_sequenzen,NI_Sequenzen,,,,,,,,,,,,,,
,Screen_1,canvas.Screen,0_0_8_0,,skipped,9,19746.199999999997,,,19746.199999999997,,19746.5,2021-11-03T20:35:40.334Z,20108.692,1635969522,full,ni_sequenzen,NI_Sequenzen,,,,,,,,,,,,,,
,Screen_2,canvas.Screen,0_0_8_1,,skipped,9,19748.899999999994,,,19746.199999999997,,19749.100000000006,2021-11-03T20:35:40.337Z,20108.692,1635969522,full,ni_sequenzen,NI_Sequenzen,,,,,,,,,,,,,,
,Screen_3,canvas.Screen,0_0_8_2,,skipped,9,19751.300000000003,,,19746.199999999997,,19751.5,2021-11-03T20:35:40.339Z,20108.692,1635969522,full,ni_sequenzen,NI_Sequenzen,,,,,,,,,,,,,,
,Screen_4,canvas.Screen,0_0_8_3,,skipped,9,19753.5,,,19746.199999999997,,19753.699999999997,2021-11-03T20:35:40.341Z,20108.692,1635969522,full,ni_sequenzen,NI_Sequenzen,,,,,,,,,,,,,,
,Sequence,flow.Sequence,0_0_8,,completion,9,19743.899999999994,,,19746.199999999997,,19754.100000000006,2021-11-03T20:35:40.341Z,20108.692,1635969522,full,ni_sequenzen,NI_Sequenzen,,,,,,,,,,,,,,
,Screen_1,canvas.Screen,0_0_9_0,,skipped,10,19757.399999999994,,,19757.399999999994,,19757.5,2021-11-03T20:35:40.345Z,20108.692,1635969522,full,ni_sequenzen,NI_Sequenzen,,,,,,,,,,,,,,
,Screen_2,canvas.Screen,0_0_9_1,,skipped,10,19759.600000000006,,,19757.399999999994,,19759.800000000003,2021-11-03T20:35:40.347Z,20108.692,1635969522,full,ni_sequenzen,NI_Sequenzen,,,,,,,,,,,,,,
,Screen_3,canvas.Screen,0_0_9_2,,skipped,10,19766.100000000006,,,19757.399999999994,,19766.300000000003,2021-11-03T20:35:40.354Z,20108.692,1635969522,full,ni_sequenzen,NI_Sequenzen,,,,,,,,,,,,,,
,Screen_4,canvas.Screen,0_0_9_3,,skipped,10,19769,,,19757.399999999994,,19769.899999999994,2021-11-03T20:35:40.357Z,20108.692,1635969522,full,ni_sequenzen,NI_Sequenzen,,,,,,,,,,,,,,
,Sequence,flow.Sequence,0_0_9,,completion,10,19755.100000000006,,,19757.399999999994,,19770.399999999994,2021-11-03T20:35:40.358Z,20108.692,1635969522,full,ni_sequenzen,NI_Sequenzen,,,,,,,,,,,,,,
,Screen_1,canvas.Screen,0_0_10_0,,skipped,11,19775.699999999997,,,19776,,19776.399999999994,2021-11-03T20:35:40.364Z,20108.692,1635969522,full,ni_sequenzen,NI_Sequenzen,,,,,,,,,,,,,,
,Screen_2,canvas.Screen,0_0_10_1,,skipped,11,19779.199999999997,,,19776,,19779.399999999994,2021-11-03T20:35:40.367Z,20108.692,1635969522,full,ni_sequenzen,NI_Sequenzen,,,,,,,,,,,,,,
,Screen_3,canvas.Screen,0_0_10_2,,skipped,11,19783.100000000006,,,19776,,19783.199999999997,2021-11-03T20:35:40.371Z,20108.692,1635969522,full,ni_sequenzen,NI_Sequenzen,,,,,,,,,,,,,,
,Screen_4,canvas.Screen,0_0_10_3,,skipped,11,19785.399999999994,,,19776,,19785.600000000006,2021-11-03T20:35:40.373Z,20108.692,1635969522,full,ni_sequenzen,NI_Sequenzen,,,,,,,,,,,,,,
,Sequence,flow.Sequence,0_0_10,,completion,11,19771.5,,,19776,,19785.899999999994,2021-11-03T20:35:40.373Z,20108.692,1635969522,full,ni_sequenzen,NI_Sequenzen,,,,,,,,,,,,,,
,Screen_1,canvas.Screen,0_0_11_0,,skipped,12,19788.100000000006,,,19788.100000000006,,19788.399999999994,2021-11-03T20:35:40.376Z,20108.692,1635969522,full,ni_sequenzen,NI_Sequenzen,,,,,,,,,,,,,,
,Screen_2,canvas.Screen,0_0_11_1,,skipped,12,19791,,,19788.100000000006,,19792.699999999997,2021-11-03T20:35:40.380Z,20108.692,1635969522,full,ni_sequenzen,NI_Sequenzen,,,,,,,,,,,,,,
,Screen_3,canvas.Screen,0_0_11_2,,skipped,12,19795.100000000006,,,19788.100000000006,,19795.300000000003,2021-11-03T20:35:40.383Z,20108.692,1635969522,full,ni_sequenzen,NI_Sequenzen,,,,,,,,,,,,,,
,Screen_4,canvas.Screen,0_0_11_3,,skipped,12,19797.300000000003,,,19788.100000000006,,19797.5,2021-11-03T20:35:40.385Z,20108.692,1635969522,full,ni_sequenzen,NI_Sequenzen,,,,,,,,,,,,,,
,Sequence,flow.Sequence,0_0_11,,completion,12,19786.600000000006,,,19788.100000000006,,19797.800000000003,2021-11-03T20:35:40.385Z,20108.692,1635969522,full,ni_sequenzen,NI_Sequenzen,,,,,,,,,,,,,,
,Screen_1,canvas.Screen,0_0_12_0,,skipped,13,19800.300000000003,,,19800.300000000003,,19800.399999999994,2021-11-03T20:35:40.388Z,20108.692,1635969522,full,ni_sequenzen,NI_Sequenzen,,,,,,,,,,,,,,
,Screen_2,canvas.Screen,0_0_12_1,,skipped,13,19802.399999999994,,,19800.300000000003,,19802.600000000006,2021-11-03T20:35:40.390Z,20108.692,1635969522,full,ni_sequenzen,NI_Sequenzen,,,,,,,,,,,,,,
,Screen_3,canvas.Screen,0_0_12_2,,skipped,13,19813.600000000006,,,19800.300000000003,,19813.800000000003,2021-11-03T20:35:40.401Z,20108.692,1635969522,full,ni_sequenzen,NI_Sequenzen,,,,,,,,,,,,,,
,Screen_4,canvas.Screen,0_0_12_3,,skipped,13,19815.899999999994,,,19800.300000000003,,19816.100000000006,2021-11-03T20:35:40.404Z,20108.692,1635969522,full,ni_sequenzen,NI_Sequenzen,,,,,,,,,,,,,,
,Sequence,flow.Sequence,0_0_12,,completion,13,19798.600000000006,,,19800.300000000003,,19816.300000000003,2021-11-03T20:35:40.404Z,20108.692,1635969522,full,ni_sequenzen,NI_Sequenzen,,,,,,,,,,,,,,
,Screen_1,canvas.Screen,0_0_13_0,,skipped,14,19819,,,19819,,19819.199999999997,2021-11-03T20:35:40.407Z,20108.692,1635969522,full,ni_sequenzen,NI_Sequenzen,,,,,,,,,,,,,,
,Screen_2,canvas.Screen,0_0_13_1,,skipped,14,19821,,,19819,,19821.199999999997,2021-11-03T20:35:40.409Z,20108.692,1635969522,full,ni_sequenzen,NI_Sequenzen,,,,,,,,,,,,,,
,Screen_3,canvas.Screen,0_0_13_2,,skipped,14,19823.100000000006,,,19819,,19823.300000000003,2021-11-03T20:35:40.411Z,20108.692,1635969522,full,ni_sequenzen,NI_Sequenzen,,,,,,,,,,,,,,
,Screen_4,canvas.Screen,0_0_13_3,,skipped,14,19825.300000000003,,,19819,,19825.5,2021-11-03T20:35:40.413Z,20108.692,1635969522,full,ni_sequenzen,NI_Sequenzen,,,,,,,,,,,,,,
,Sequence,flow.Sequence,0_0_13,,completion,14,19817.199999999997,,,19819,,19825.699999999997,2021-11-03T20:35:40.413Z,20108.692,1635969522,full,ni_sequenzen,NI_Sequenzen,,,,,,,,,,,,,,
,Screen_1,canvas.Screen,0_0_14_0,,skipped,15,19828.199999999997,,,19828.199999999997,,19828.399999999994,2021-11-03T20:35:40.416Z,20108.692,1635969522,full,ni_sequenzen,NI_Sequenzen,,,,,,,,,,,,,,
,Screen_2,canvas.Screen,0_0_14_1,,skipped,15,19830.300000000003,,,19828.199999999997,,19830.399999999994,2021-11-03T20:35:40.418Z,20108.692,1635969522,full,ni_sequenzen,NI_Sequenzen,,,,,,,,,,,,,,
,Screen_3,canvas.Screen,0_0_14_2,,skipped,15,19832.5,,,19828.199999999997,,19832.699999999997,2021-11-03T20:35:40.420Z,20108.692,1635969522,full,ni_sequenzen,NI_Sequenzen,,,,,,,,,,,,,,
,Screen_4,canvas.Screen,0_0_14_3,,skipped,15,19834.699999999997,,,19828.199999999997,,19834.800000000003,2021-11-03T20:35:40.422Z,20108.692,1635969522,full,ni_sequenzen,NI_Sequenzen,,,,,,,,,,,,,,
,Sequence,flow.Sequence,0_0_14,,completion,15,19826.5,,,19828.199999999997,,19835.399999999994,2021-11-03T20:35:40.423Z,20108.692,1635969522,full,ni_sequenzen,NI_Sequenzen,,,,,,,,,,,,,,
,Screen_1,canvas.Screen,0_0_15_0,,skipped,16,19838,,,19838.100000000006,,19838.300000000003,2021-11-03T20:35:40.426Z,20108.692,1635969522,full,ni_sequenzen,NI_Sequenzen,,,,,,,,,,,,,,
,Screen_2,canvas.Screen,0_0_15_1,,skipped,16,19840.5,,,19838.100000000006,,19840.699999999997,2021-11-03T20:35:40.428Z,20108.692,1635969522,full,ni_sequenzen,NI_Sequenzen,,,,,,,,,,,,,,
,Screen_3,canvas.Screen,0_0_15_2,,skipped,16,19842.600000000006,,,19838.100000000006,,19842.800000000003,2021-11-03T20:35:40.430Z,20108.692,1635969522,full,ni_sequenzen,NI_Sequenzen,,,,,,,,,,,,,,
,Screen_4,canvas.Screen,0_0_15_3,,skipped,16,19849.699999999997,,,19838.100000000006,,19850.100000000006,2021-11-03T20:35:40.438Z,20108.692,1635969522,full,ni_sequenzen,NI_Sequenzen,,,,,,,,,,,,,,
,Sequence,flow.Sequence,0_0_15,,completion,16,19836.199999999997,,,19838.100000000006,,19850.399999999994,2021-11-03T20:35:40.438Z,20108.692,1635969522,full,ni_sequenzen,NI_Sequenzen,,,,,,,,,,,,,,
,Screen_1,canvas.Screen,0_0_16_0,,skipped,17,19854.800000000003,,,19854.800000000003,,19855.100000000006,2021-11-03T20:35:40.443Z,20108.692,1635969522,full,ni_sequenzen,NI_Sequenzen,,,,,,,,,,,,,,
,Screen_2,canvas.Screen,0_0_16_1,,skipped,17,19856.800000000003,,,19854.800000000003,,19857,2021-11-03T20:35:40.444Z,20108.692,1635969522,full,ni_sequenzen,NI_Sequenzen,,,,,,,,,,,,,,
,Screen_3,canvas.Screen,0_0_16_2,,skipped,17,19858.899999999994,,,19854.800000000003,,19859.100000000006,2021-11-03T20:35:40.447Z,20108.692,1635969522,full,ni_sequenzen,NI_Sequenzen,,,,,,,,,,,,,,
,Screen_4,canvas.Screen,0_0_16_3,,skipped,17,19861.199999999997,,,19854.800000000003,,19861.399999999994,2021-11-03T20:35:40.449Z,20108.692,1635969522,full,ni_sequenzen,NI_Sequenzen,,,,,,,,,,,,,,
,Sequence,flow.Sequence,0_0_16,,completion,17,19851.800000000003,,,19854.800000000003,,19861.699999999997,2021-11-03T20:35:40.449Z,20108.692,1635969522,full,ni_sequenzen,NI_Sequenzen,,,,,,,,,,,,,,
,Screen_1,canvas.Screen,0_0_17_0,,skipped,18,19864.199999999997,,,19864.199999999997,,19864.399999999994,2021-11-03T20:35:40.452Z,20108.692,1635969522,full,ni_sequenzen,NI_Sequenzen,,,,,,,,,,,,,,
,Screen_2,canvas.Screen,0_0_17_1,,skipped,18,19866.699999999997,,,19864.199999999997,,19866.899999999994,2021-11-03T20:35:40.454Z,20108.692,1635969522,full,ni_sequenzen,NI_Sequenzen,,,,,,,,,,,,,,
,Screen_3,canvas.Screen,0_0_17_2,,skipped,18,19869,,,19864.199999999997,,19869.199999999997,2021-11-03T20:35:40.457Z,20108.692,1635969522,full,ni_sequenzen,NI_Sequenzen,,,,,,,,,,,,,,
,Screen_4,canvas.Screen,0_0_17_3,,skipped,18,19871.100000000006,,,19864.199999999997,,19871.300000000003,2021-11-03T20:35:40.459Z,20108.692,1635969522,full,ni_sequenzen,NI_Sequenzen,,,,,,,,,,,,,,
,Sequence,flow.Sequence,0_0_17,,completion,18,19862.5,,,19864.199999999997,,19871.5,2021-11-03T20:35:40.459Z,20108.692,1635969522,full,ni_sequenzen,NI_Sequenzen,,,,,,,,,,,,,,
,Screen_1,canvas.Screen,0_0_18_0,,skipped,19,19873.899999999994,,,19873.899999999994,,19874.100000000006,2021-11-03T20:35:40.462Z,20108.692,1635969522,full,ni_sequenzen,NI_Sequenzen,,,,,,,,,,,,,,
,Screen_2,canvas.Screen,0_0_18_1,,skipped,19,19875.899999999994,,,19873.899999999994,,19876.100000000006,2021-11-03T20:35:40.464Z,20108.692,1635969522,full,ni_sequenzen,NI_Sequenzen,,,,,,,,,,,,,,
,Screen_3,canvas.Screen,0_0_18_2,,skipped,19,19878.199999999997,,,19873.899999999994,,19878.300000000003,2021-11-03T20:35:40.466Z,20108.692,1635969522,full,ni_sequenzen,NI_Sequenzen,,,,,,,,,,,,,,
,Screen_4,canvas.Screen,0_0_18_3,,skipped,19,19880.399999999994,,,19873.899999999994,,19880.5,2021-11-03T20:35:40.468Z,20108.692,1635969522,full,ni_sequenzen,NI_Sequenzen,,,,,,,,,,,,,,
,Sequence,flow.Sequence,0_0_18,,completion,19,19872.300000000003,,,19873.899999999994,,19880.899999999994,2021-11-03T20:35:40.468Z,20108.692,1635969522,full,ni_sequenzen,NI_Sequenzen,,,,,,,,,,,,,,
,Screen_1,canvas.Screen,0_0_19_0,,skipped,20,19884.399999999994,,,19884.399999999994,,19884.5,2021-11-03T20:35:40.472Z,20108.692,1635969522,full,ni_sequenzen,NI_Sequenzen,,,,,,,,,,,,,,
,Screen_2,canvas.Screen,0_0_19_1,,skipped,20,19886.5,,,19884.399999999994,,19886.800000000003,2021-11-03T20:35:40.474Z,20108.692,1635969522,full,ni_sequenzen,NI_Sequenzen,,,,,,,,,,,,,,
,Screen_3,canvas.Screen,0_0_19_2,,skipped,20,19889.399999999994,,,19884.399999999994,,19889.5,2021-11-03T20:35:40.477Z,20108.692,1635969522,full,ni_sequenzen,NI_Sequenzen,,,,,,,,,,,,,,
,Screen_4,canvas.Screen,0_0_19_3,,skipped,20,19891.899999999994,,,19884.399999999994,,19892,2021-11-03T20:35:40.480Z,20108.692,1635969522,full,ni_sequenzen,NI_Sequenzen,,,,,,,,,,,,,,
,Sequence,flow.Sequence,0_0_19,,completion,20,19881.699999999997,,,19884.399999999994,,19892.300000000003,2021-11-03T20:35:40.480Z,20108.692,1635969522,full,ni_sequenzen,NI_Sequenzen,,,,,,,,,,,,,,
,Instructions_I,flow.Loop,0_0,,completion,,4076.100000000006,9750.26,9817.162,19884.399999999994,10067.237999999994,19892.600000000006,2021-11-03T20:35:40.480Z,20108.692,1635969522,full,ni_sequenzen,NI_Sequenzen,,,,,,,,,,,,,,
,Move,canvas.Screen,0_1_0_0,left,response,,20095.600000000006,20092.079,20108.692,23851.5,3742.808000000001,23852.5,2021-11-03T20:35:44.440Z,23872.273,1635969522,full,ni_sequenzen,NI_Sequenzen,1,,,,,,,,,,,,,
,Move,canvas.Screen,0_1_0_1,down,response,,23858,23855.652,23872.273,24301.399999999994,429.12699999999313,24302.600000000006,2021-11-03T20:35:44.890Z,24321.987,1635969522,full,ni_sequenzen,NI_Sequenzen,2,,,,,,,,,,,,,
,Move,canvas.Screen,0_1_0_2,right,response,,24313.199999999997,24305.22,24321.987,24849.600000000006,527.6130000000048,24851.300000000003,2021-11-03T20:35:45.439Z,24871.553,1635969522,full,ni_sequenzen,NI_Sequenzen,3,,,,,,,,,,,,,
,Move,canvas.Screen,0_1_0_3,left,response,,24858.600000000006,24854.813,24871.553,25155.300000000003,283.747000000003,25156,2021-11-03T20:35:45.743Z,25171.203,1635969522,full,ni_sequenzen,NI_Sequenzen,4,,,,,,,,,,,,,
,Move,canvas.Screen,0_1_0_4,down,response,,25159,25154.548,25171.203,25355.300000000003,184.09700000000157,25355.899999999994,2021-11-03T20:35:45.943Z,25371.088,1635969522,full,ni_sequenzen,NI_Sequenzen,5,,,,,,,,,,,,,
,Move,canvas.Screen,0_1_0_5,left,response,,25358.300000000003,25354.399,25371.088,25526.699999999997,155.61199999999735,25527.5,2021-11-03T20:35:46.115Z,25537.57,1635969522,full,ni_sequenzen,NI_Sequenzen,6,,,,,,,,,,,,,
,Move,canvas.Screen,0_1_0_6,right,response,,25530.199999999997,25520.941,25537.57,25676.300000000003,138.7300000000032,25677,2021-11-03T20:35:46.264Z,25687.449,1635969522,full,ni_sequenzen,NI_Sequenzen,7,,,,,,,,,,,,,
,Move,canvas.Screen,0_1_0_7,left,response,,25679.699999999997,25670.817,25687.449,25827,139.55099999999948,25827.699999999997,2021-11-03T20:35:46.415Z,25837.345,1635969522,full,ni_sequenzen,NI_Sequenzen,8,,,,,,,,,,,,,
,Move,canvas.Screen,0_1_0_8,right,response,,25830.399999999994,25820.679,25837.345,25958,120.65499999999884,25958.800000000003,2021-11-03T20:35:46.546Z,25970.559,1635969522,full,ni_sequenzen,NI_Sequenzen,9,,,,,,,,,,,,,
,Move,canvas.Screen,0_1_0_9,down,response,,25961.399999999994,25953.906,25970.559,26724.399999999994,753.8409999999931,26725.100000000006,2021-11-03T20:35:47.313Z,26736.564,1635969522,full,ni_sequenzen,NI_Sequenzen,10,,,,,,,,,,,,,
,Move,canvas.Screen,0_1_0_10,down,response,,26727.600000000006,26719.907,26736.564,26920.600000000006,184.03600000000733,26921.199999999997,2021-11-03T20:35:47.509Z,26936.418,1635969522,full,ni_sequenzen,NI_Sequenzen,11,,,,,,,,,,,,,
,Move,canvas.Screen,0_1_0_11,down,response,,26924.5,26919.77,26936.418,27086.899999999994,150.4819999999927,27087.800000000003,2021-11-03T20:35:47.675Z,27104.104,1635969522,full,ni_sequenzen,NI_Sequenzen,12,,,,,,,,,,,,,
,Move,canvas.Screen,0_1_0_12,down,response,,27091.600000000006,27086.288,27104.104,27238.100000000006,133.99600000000646,27238.800000000003,2021-11-03T20:35:47.826Z,27252.838,1635969522,full,ni_sequenzen,NI_Sequenzen,13,,,,,,,,,,,,,
,Move,canvas.Screen,0_1_0_13,right,response,,27242.199999999997,27236.177,27252.838,27407.199999999997,154.36199999999735,27408,2021-11-03T20:35:47.995Z,27419.358,1635969522,full,ni_sequenzen,NI_Sequenzen,14,,,,,,,,,,,,,
,Move,canvas.Screen,0_1_0_14,right,response,,27411.199999999997,27402.723,27419.358,27668.300000000003,248.94200000000274,27669,2021-11-03T20:35:48.256Z,27685.83,1635969522,full,ni_sequenzen,NI_Sequenzen,15,,,,,,,,,,,,,
,Move,canvas.Screen,0_1_0_15,right,response,,27671.899999999994,27669.126,27685.83,27876.899999999994,191.06999999999243,27887.899999999994,2021-11-03T20:35:48.475Z,27902.297,1635969522,full,ni_sequenzen,NI_Sequenzen,16,,,,,,,,,,,,,
,Move,canvas.Screen,0_1_0_16,left,response,,27892.5,27885.645,27902.297,28023.399999999994,121.10299999999552,28024.100000000006,2021-11-03T20:35:48.612Z,28052.177,1635969522,full,ni_sequenzen,NI_Sequenzen,17,,,,,,,,,,,,,
,Move,canvas.Screen,0_1_0_17,down,response,,28026.699999999997,28018.874,28052.177,28212.600000000006,160.42300000000614,28213.5,2021-11-03T20:35:48.801Z,28218.701,1635969522,full,ni_sequenzen,NI_Sequenzen,18,,,,,,,,,,,,,
,Move,canvas.Screen,0_1_0_18,left,response,,28216.899999999994,28202.047,28218.701,28412.100000000006,193.3990000000049,28412.800000000003,2021-11-03T20:35:49.000Z,28418.555,1635969522,full,ni_sequenzen,NI_Sequenzen,19,,,,,,,,,,,,,
,Move,canvas.Screen,0_1_0_19,down,response,,28416.399999999994,28401.885,28418.555,28600.5,181.9449999999997,28601.199999999997,2021-11-03T20:35:49.189Z,28618.386,1635969522,full,ni_sequenzen,NI_Sequenzen,20,,,,,,,,,,,,,
,Move,canvas.Screen,0_1_0_20,down,response,,28604.600000000006,28601.731,28618.386,28978.399999999994,360.0139999999956,28979.100000000006,2021-11-03T20:35:49.567Z,28984.733,1635969522,full,ni_sequenzen,NI_Sequenzen,21,,,,,,,,,,,,,
,Move,canvas.Screen,0_1_0_21,down,response,,28982.899999999994,28968.073,28984.733,29146.300000000003,161.56700000000274,29147.199999999997,2021-11-03T20:35:49.735Z,29167.924,1635969522,full,ni_sequenzen,NI_Sequenzen,22,,,,,,,,,,,,,
,Move,canvas.Screen,0_1_0_22,down,response,,29151.199999999997,29151.304,29167.924,29360.300000000003,192.37600000000384,29361,2021-11-03T20:35:49.948Z,29367.762,1635969522,full,ni_sequenzen,NI_Sequenzen,23,,,,,,,,,,,,,
,Move,canvas.Screen,0_1_0_23,right,response,,29365.399999999994,29351.103,29367.762,29587,219.2380000000012,29587.800000000003,2021-11-03T20:35:50.175Z,29600.913,1635969522,full,ni_sequenzen,NI_Sequenzen,24,,,,,,,,,,,,,
,Move,canvas.Screen,0_1_0_24,right,response,,29591.699999999997,29584.25,29600.913,29827.699999999997,226.78699999999662,29828.300000000003,2021-11-03T20:35:50.416Z,29834.051,1635969522,full,ni_sequenzen,NI_Sequenzen,25,,,,,,,,,,,,,
,Move,canvas.Screen,0_1_0_25,right,response,,29831.300000000003,29817.389,29834.051,30068.600000000006,234.54900000000634,30069.399999999994,2021-11-03T20:35:50.657Z,30083.853,1635969522,full,ni_sequenzen,NI_Sequenzen,26,,,,,,,,,,,,,
,Move,canvas.Screen,0_1_0_26,left,response,,30073.5,30067.182,30083.853,30225.699999999997,141.84699999999793,30226.5,2021-11-03T20:35:50.814Z,30233.708,1635969522,full,ni_sequenzen,NI_Sequenzen,27,,,,,,,,,,,,,
,Move,canvas.Screen,0_1_0_27,left,response,,30229.399999999994,30217.067,30233.708,30546.199999999997,312.49199999999837,30546.699999999997,2021-11-03T20:35:51.134Z,30567.712,1635969522,full,ni_sequenzen,NI_Sequenzen,28,,,,,,,,,,,,,
,Move,canvas.Screen,0_1_0_28,down,response,,30549.399999999994,30533.474,30567.712,30751.600000000006,183.8880000000063,30752.199999999997,2021-11-03T20:35:51.340Z,30766.618,1635969522,full,ni_sequenzen,NI_Sequenzen,29,,,,,,,,,,,,,
,Move,canvas.Screen,0_1_0_29,down,response,,30754.899999999994,30749.95,30766.618,31071.199999999997,304.5819999999985,31072.800000000003,2021-11-03T20:35:51.660Z,31166.268,1635969522,full,ni_sequenzen,NI_Sequenzen,30,,,,,,,,,,,,,
,Loop,flow.Loop,0_1_0,-999,completion,,19923.800000000003,20092.079,20108.692,31071.199999999997,10962.507999999998,31074,2021-11-03T20:35:51.661Z,31166.268,1635969522,full,ni_sequenzen,NI_Sequenzen,,,,,,,,,,,,,,
,Training_I,flow.Sequence,0_1,,completion,,19893.600000000006,20092.079,20108.692,31071.199999999997,10962.507999999998,31075.5,2021-11-03T20:35:51.663Z,31166.268,1635969522,full,ni_sequenzen,NI_Sequenzen,,,,,,,,,,,,,,
,Screen_1,canvas.Screen,0_2_0_0,cont,response,1,31154.600000000006,31149.616,31166.268,31804.600000000006,638.3320000000058,31805.199999999997,2021-11-03T20:35:52.393Z,31949.012,1635969522,full,ni_sequenzen,NI_Sequenzen,,,,,,,,,,,,,,
,Screen_2,canvas.Screen,0_2_0_1,cont,response,1,31945.899999999994,31932.313,31949.012,32102.5,153.4880000000012,32117.399999999994,2021-11-03T20:35:52.705Z,32132.174,1635969522,full,ni_sequenzen,NI_Sequenzen,,,,,,,,,,,,,,
,Screen_3,canvas.Screen,0_2_0_2,cont,response,1,32125.199999999997,32115.511,32132.174,32362.800000000003,230.62600000000384,32363.5,2021-11-03T20:35:52.951Z,32515.176,1635969522,full,ni_sequenzen,NI_Sequenzen,,,,,,,,,,,,,,
,Screen_4,canvas.Screen,0_2_0_3,cont,response,1,32505.699999999997,32498.491,32515.176,32648.5,133.32400000000052,32649.100000000006,2021-11-03T20:35:53.237Z,32665.054,1635969522,full,ni_sequenzen,NI_Sequenzen,,,,,,,,,,,,,,
,Screen_5,canvas.Screen,0_2_0_4,cont,response,1,32651.800000000003,32648.399,32665.054,32896.600000000006,231.54600000000573,32897.2,2021-11-03T20:35:53.485Z,33014.786,1635969522,full,ni_sequenzen,NI_Sequenzen,,,,,,,,,,,,,,
,Screen_6,canvas.Screen,0_2_0_5,cont,response,1,33002.100000000006,32998.121,33014.786,33166.5,151.71399999999994,33167.100000000006,2021-11-03T20:35:53.755Z,33614.27,1635969522,full,ni_sequenzen,NI_Sequenzen,,,,,,,,,,,,,,
,Sequence,flow.Sequence,0_2_0,,completion,1,31152.100000000006,31149.616,31166.268,33166.5,2000.232,33167.399999999994,2021-11-03T20:35:53.755Z,33614.27,1635969522,full,ni_sequenzen,NI_Sequenzen,,,,,,,,,,,,,,
,Screen_1,canvas.Screen,0_2_1_0,,skipped,2,33170.399999999994,,,33170.399999999994,,33170.399999999994,2021-11-03T20:35:53.758Z,33614.27,1635969522,full,ni_sequenzen,NI_Sequenzen,,,,,,,,,,,,,,
,Screen_2,canvas.Screen,0_2_1_1,,skipped,2,33172.3,,,33170.399999999994,,33172.399999999994,2021-11-03T20:35:53.760Z,33614.27,1635969522,full,ni_sequenzen,NI_Sequenzen,,,,,,,,,,,,,,
,Screen_3,canvas.Screen,0_2_1_2,,skipped,2,33174.2,,,33170.399999999994,,33174.3,2021-11-03T20:35:53.762Z,33614.27,1635969522,full,ni_sequenzen,NI_Sequenzen,,,,,,,,,,,,,,
,Screen_4,canvas.Screen,0_2_1_3,,skipped,2,33176,,,33170.399999999994,,33176.100000000006,2021-11-03T20:35:53.764Z,33614.27,1635969522,full,ni_sequenzen,NI_Sequenzen,,,,,,,,,,,,,,
,Screen_5,canvas.Screen,0_2_1_4,,skipped,2,33178,,,33170.399999999994,,33178.2,2021-11-03T20:35:53.766Z,33614.27,1635969522,full,ni_sequenzen,NI_Sequenzen,,,,,,,,,,,,,,
,Screen_6,canvas.Screen,0_2_1_5,,skipped,2,33180,,,33170.399999999994,,33180.100000000006,2021-11-03T20:35:53.768Z,33614.27,1635969522,full,ni_sequenzen,NI_Sequenzen,,,,,,,,,,,,,,
,Sequence,flow.Sequence,0_2_1,,completion,2,33168.5,,,33170.399999999994,,33180.3,2021-11-03T20:35:53.768Z,33614.27,1635969522,full,ni_sequenzen,NI_Sequenzen,,,,,,,,,,,,,,
,Screen_1,canvas.Screen,0_2_2_0,,skipped,3,33182.399999999994,,,33182.399999999994,,33182.5,2021-11-03T20:35:53.770Z,33614.27,1635969522,full,ni_sequenzen,NI_Sequenzen,,,,,,,,,,,,,,
,Screen_2,canvas.Screen,0_2_2_1,,skipped,3,33184.100000000006,,,33182.399999999994,,33184.3,2021-11-03T20:35:53.772Z,33614.27,1635969522,full,ni_sequenzen,NI_Sequenzen,,,,,,,,,,,,,,
,Screen_3,canvas.Screen,0_2_2_2,,skipped,3,33186,,,33182.399999999994,,33186.100000000006,2021-11-03T20:35:53.774Z,33614.27,1635969522,full,ni_sequenzen,NI_Sequenzen,,,,,,,,,,,,,,
,Screen_4,canvas.Screen,0_2_2_3,,skipped,3,33187.5,,,33182.399999999994,,33187.600000000006,2021-11-03T20:35:53.775Z,33614.27,1635969522,full,ni_sequenzen,NI_Sequenzen,,,,,,,,,,,,,,
,Screen_5,canvas.Screen,0_2_2_4,,skipped,3,33189,,,33182.399999999994,,33189.2,2021-11-03T20:35:53.777Z,33614.27,1635969522,full,ni_sequenzen,NI_Sequenzen,,,,,,,,,,,,,,
,Screen_6,canvas.Screen,0_2_2_5,,skipped,3,33190.7,,,33182.399999999994,,33190.8,2021-11-03T20:35:53.778Z,33614.27,1635969522,full,ni_sequenzen,NI_Sequenzen,,,,,,,,,,,,,,
,Sequence,flow.Sequence,0_2_2,,completion,3,33180.899999999994,,,33182.399999999994,,33191,2021-11-03T20:35:53.779Z,33614.27,1635969522,full,ni_sequenzen,NI_Sequenzen,,,,,,,,,,,,,,
,Screen_1,canvas.Screen,0_2_3_0,,skipped,4,33193.399999999994,,,33193.399999999994,,33193.600000000006,2021-11-03T20:35:53.781Z,33614.27,1635969522,full,ni_sequenzen,NI_Sequenzen,,,,,,,,,,,,,,
,Screen_2,canvas.Screen,0_2_3_1,,skipped,4,33195.8,,,33193.399999999994,,33196,2021-11-03T20:35:53.783Z,33614.27,1635969522,full,ni_sequenzen,NI_Sequenzen,,,,,,,,,,,,,,
,Screen_3,canvas.Screen,0_2_3_2,,skipped,4,33197.899999999994,,,33193.399999999994,,33198,2021-11-03T20:35:53.785Z,33614.27,1635969522,full,ni_sequenzen,NI_Sequenzen,,,,,,,,,,,,,,
,Screen_4,canvas.Screen,0_2_3_3,,skipped,4,33200,,,33193.399999999994,,33200.2,2021-11-03T20:35:53.788Z,33614.27,1635969522,full,ni_sequenzen,NI_Sequenzen,,,,,,,,,,,,,,
,Screen_5,canvas.Screen,0_2_3_4,,skipped,4,33202.2,,,33193.399999999994,,33202.399999999994,2021-11-03T20:35:53.790Z,33614.27,1635969522,full,ni_sequenzen,NI_Sequenzen,,,,,,,,,,,,,,
,Screen_6,canvas.Screen,0_2_3_5,,skipped,4,33204.100000000006,,,33193.399999999994,,33204.2,2021-11-03T20:35:53.792Z,33614.27,1635969522,full,ni_sequenzen,NI_Sequenzen,,,,,,,,,,,,,,
,Sequence,flow.Sequence,0_2_3,,completion,4,33191.8,,,33193.399999999994,,33204.5,2021-11-03T20:35:53.792Z,33614.27,1635969522,full,ni_sequenzen,NI_Sequenzen,,,,,,,,,,,,,,
,Screen_1,canvas.Screen,0_2_4_0,,skipped,5,33206.5,,,33206.5,,33206.600000000006,2021-11-03T20:35:53.794Z,33614.27,1635969522,full,ni_sequenzen,NI_Sequenzen,,,,,,,,,,,,,,
,Screen_2,canvas.Screen,0_2_4_1,,skipped,5,33208.2,,,33206.5,,33208.399999999994,2021-11-03T20:35:53.796Z,33614.27,1635969522,full,ni_sequenzen,NI_Sequenzen,,,,,,,,,,,,,,
,Screen_3,canvas.Screen,0_2_4_2,,skipped,5,33210.2,,,33206.5,,33210.399999999994,2021-11-03T20:35:53.798Z,33614.27,1635969522,full,ni_sequenzen,NI_Sequenzen,,,,,,,,,,,,,,
,Screen_4,canvas.Screen,0_2_4_3,,skipped,5,33212.100000000006,,,33206.5,,33212.2,2021-11-03T20:35:53.800Z,33614.27,1635969522,full,ni_sequenzen,NI_Sequenzen,,,,,,,,,,,,,,
,Screen_5,canvas.Screen,0_2_4_4,,skipped,5,33214.100000000006,,,33206.5,,33214.2,2021-11-03T20:35:53.802Z,33614.27,1635969522,full,ni_sequenzen,NI_Sequenzen,,,,,,,,,,,,,,
,Screen_6,canvas.Screen,0_2_4_5,,skipped,5,33215.8,,,33206.5,,33215.899999999994,2021-11-03T20:35:53.803Z,33614.27,1635969522,full,ni_sequenzen,NI_Sequenzen,,,,,,,,,,,,,,
,Sequence,flow.Sequence,0_2_4,,completion,5,33205.2,,,33206.5,,33216.2,2021-11-03T20:35:53.804Z,33614.27,1635969522,full,ni_sequenzen,NI_Sequenzen,,,,,,,,,,,,,,
,Screen_1,canvas.Screen,0_2_5_0,,skipped,6,33218.2,,,33218.2,,33218.399999999994,2021-11-03T20:35:53.806Z,33614.27,1635969522,full,ni_sequenzen,NI_Sequenzen,,,,,,,,,,,,,,
,Screen_2,canvas.Screen,0_2_5_1,,skipped,6,33219.899999999994,,,33218.2,,33220.100000000006,2021-11-03T20:35:53.808Z,33614.27,1635969522,full,ni_sequenzen,NI_Sequenzen,,,,,,,,,,,,,,
,Screen_3,canvas.Screen,0_2_5_2,,skipped,6,33221.600000000006,,,33218.2,,33221.7,2021-11-03T20:35:53.809Z,33614.27,1635969522,full,ni_sequenzen,NI_Sequenzen,,,,,,,,,,,,,,
,Screen_4,canvas.Screen,0_2_5_3,,skipped,6,33223.2,,,33218.2,,33223.3,2021-11-03T20:35:53.811Z,33614.27,1635969522,full,ni_sequenzen,NI_Sequenzen,,,,,,,,,,,,,,
,Screen_5,canvas.Screen,0_2_5_4,,skipped,6,33225.100000000006,,,33218.2,,33225.3,2021-11-03T20:35:53.813Z,33614.27,1635969522,full,ni_sequenzen,NI_Sequenzen,,,,,,,,,,,,,,
,Screen_6,canvas.Screen,0_2_5_5,,skipped,6,33228.100000000006,,,33218.2,,33228.2,2021-11-03T20:35:53.816Z,33614.27,1635969522,full,ni_sequenzen,NI_Sequenzen,,,,,,,,,,,,,,
,Sequence,flow.Sequence,0_2_5,,completion,6,33216.899999999994,,,33218.2,,33228.5,2021-11-03T20:35:53.816Z,33614.27,1635969522,full,ni_sequenzen,NI_Sequenzen,,,,,,,,,,,,,,
,Screen_1,canvas.Screen,0_2_6_0,,skipped,7,33230.600000000006,,,33230.600000000006,,33230.7,2021-11-03T20:35:53.818Z,33614.27,1635969522,full,ni_sequenzen,NI_Sequenzen,,,,,,,,,,,,,,
,Screen_2,canvas.Screen,0_2_6_1,,skipped,7,33232.2,,,33230.600000000006,,33232.3,2021-11-03T20:35:53.820Z,33614.27,1635969522,full,ni_sequenzen,NI_Sequenzen,,,,,,,,,,,,,,
,Screen_3,canvas.Screen,0_2_6_2,,skipped,7,33233.7,,,33230.600000000006,,33233.8,2021-11-03T20:35:53.821Z,33614.27,1635969522,full,ni_sequenzen,NI_Sequenzen,,,,,,,,,,,,,,
,Screen_4,canvas.Screen,0_2_6_3,,skipped,7,33235.100000000006,,,33230.600000000006,,33235.2,2021-11-03T20:35:53.823Z,33614.27,1635969522,full,ni_sequenzen,NI_Sequenzen,,,,,,,,,,,,,,
,Screen_5,canvas.Screen,0_2_6_4,,skipped,7,33236.399999999994,,,33230.600000000006,,33236.600000000006,2021-11-03T20:35:53.824Z,33614.27,1635969522,full,ni_sequenzen,NI_Sequenzen,,,,,,,,,,,,,,
,Screen_6,canvas.Screen,0_2_6_5,,skipped,7,33237.899999999994,,,33230.600000000006,,33238,2021-11-03T20:35:53.825Z,33614.27,1635969522,full,ni_sequenzen,NI_Sequenzen,,,,,,,,,,,,,,
,Sequence,flow.Sequence,0_2_6,,completion,7,33229.100000000006,,,33230.600000000006,,33238.3,2021-11-03T20:35:53.826Z,33614.27,1635969522,full,ni_sequenzen,NI_Sequenzen,,,,,,,,,,,,,,
,Screen_1,canvas.Screen,0_2_7_0,,skipped,8,33239.899999999994,,,33240,,33240.100000000006,2021-11-03T20:35:53.828Z,33614.27,1635969522,full,ni_sequenzen,NI_Sequenzen,,,,,,,,,,,,,,
,Screen_2,canvas.Screen,0_2_7_1,,skipped,8,33241.5,,,33240,,33241.7,2021-11-03T20:35:53.829Z,33614.27,1635969522,full,ni_sequenzen,NI_Sequenzen,,,,,,,,,,,,,,
,Screen_3,canvas.Screen,0_2_7_2,,skipped,8,33243.3,,,33240,,33243.5,2021-11-03T20:35:53.831Z,33614.27,1635969522,full,ni_sequenzen,NI_Sequenzen,,,,,,,,,,,,,,
,Screen_4,canvas.Screen,0_2_7_3,,skipped,8,33244.8,,,33240,,33245,2021-11-03T20:35:53.832Z,33614.27,1635969522,full,ni_sequenzen,NI_Sequenzen,,,,,,,,,,,,,,
,Screen_5,canvas.Screen,0_2_7_4,,skipped,8,33246.399999999994,,,33240,,33246.5,2021-11-03T20:35:53.834Z,33614.27,1635969522,full,ni_sequenzen,NI_Sequenzen,,,,,,,,,,,,,,
,Screen_6,canvas.Screen,0_2_7_5,,skipped,8,33247.7,,,33240,,33247.899999999994,2021-11-03T20:35:53.835Z,33614.27,1635969522,full,ni_sequenzen,NI_Sequenzen,,,,,,,,,,,,,,
,Sequence,flow.Sequence,0_2_7,,completion,8,33238.8,,,33240,,33248,2021-11-03T20:35:53.836Z,33614.27,1635969522,full,ni_sequenzen,NI_Sequenzen,,,,,,,,,,,,,,
,Screen_1,canvas.Screen,0_2_8_0,,skipped,9,33250.100000000006,,,33250.100000000006,,33250.2,2021-11-03T20:35:53.838Z,33614.27,1635969522,full,ni_sequenzen,NI_Sequenzen,,,,,,,,,,,,,,
,Screen_2,canvas.Screen,0_2_8_1,,skipped,9,33251.899999999994,,,33250.100000000006,,33252,2021-11-03T20:35:53.839Z,33614.27,1635969522,full,ni_sequenzen,NI_Sequenzen,,,,,,,,,,,,,,
,Screen_3,canvas.Screen,0_2_8_2,,skipped,9,33253.3,,,33250.100000000006,,33253.5,2021-11-03T20:35:53.841Z,33614.27,1635969522,full,ni_sequenzen,NI_Sequenzen,,,,,,,,,,,,,,
,Screen_4,canvas.Screen,0_2_8_3,,skipped,9,33254.7,,,33250.100000000006,,33254.8,2021-11-03T20:35:53.842Z,33614.27,1635969522,full,ni_sequenzen,NI_Sequenzen,,,,,,,,,,,,,,
,Screen_5,canvas.Screen,0_2_8_4,,skipped,9,33256.100000000006,,,33250.100000000006,,33256.3,2021-11-03T20:35:53.844Z,33614.27,1635969522,full,ni_sequenzen,NI_Sequenzen,,,,,,,,,,,,,,
,Screen_6,canvas.Screen,0_2_8_5,,skipped,9,33257.5,,,33250.100000000006,,33257.600000000006,2021-11-03T20:35:53.845Z,33614.27,1635969522,full,ni_sequenzen,NI_Sequenzen,,,,,,,,,,,,,,
,Sequence,flow.Sequence,0_2_8,,completion,9,33248.7,,,33250.100000000006,,33257.899999999994,2021-11-03T20:35:53.845Z,33614.27,1635969522,full,ni_sequenzen,NI_Sequenzen,,,,,,,,,,,,,,
,Screen_1,canvas.Screen,0_2_9_0,,skipped,10,33260.5,,,33260.5,,33260.7,2021-11-03T20:35:53.848Z,33614.27,1635969522,full,ni_sequenzen,NI_Sequenzen,,,,,,,,,,,,,,
,Screen_2,canvas.Screen,0_2_9_1,,skipped,10,33262.600000000006,,,33260.5,,33262.8,2021-11-03T20:35:53.850Z,33614.27,1635969522,full,ni_sequenzen,NI_Sequenzen,,,,,,,,,,,,,,
,Screen_3,canvas.Screen,0_2_9_2,,skipped,10,33264.3,,,33260.5,,33264.5,2021-11-03T20:35:53.852Z,33614.27,1635969522,full,ni_sequenzen,NI_Sequenzen,,,,,,,,,,,,,,
,Screen_4,canvas.Screen,0_2_9_3,,skipped,10,33266.600000000006,,,33260.5,,33266.7,2021-11-03T20:35:53.854Z,33614.27,1635969522,full,ni_sequenzen,NI_Sequenzen,,,,,,,,,,,,,,
,Screen_5,canvas.Screen,0_2_9_4,,skipped,10,33268.600000000006,,,33260.5,,33268.7,2021-11-03T20:35:53.856Z,33614.27,1635969522,full,ni_sequenzen,NI_Sequenzen,,,,,,,,,,,,,,
,Screen_6,canvas.Screen,0_2_9_5,,skipped,10,33270.399999999994,,,33260.5,,33270.600000000006,2021-11-03T20:35:53.858Z,33614.27,1635969522,full,ni_sequenzen,NI_Sequenzen,,,,,,,,,,,,,,
,Sequence,flow.Sequence,0_2_9,,completion,10,33258.5,,,33260.5,,33270.899999999994,2021-11-03T20:35:53.858Z,33614.27,1635969522,full,ni_sequenzen,NI_Sequenzen,,,,,,,,,,,,,,
,Screen_1,canvas.Screen,0_2_10_0,,skipped,11,33273.399999999994,,,33273.399999999994,,33273.600000000006,2021-11-03T20:35:53.861Z,33614.27,1635969522,full,ni_sequenzen,NI_Sequenzen,,,,,,,,,,,,,,
,Screen_2,canvas.Screen,0_2_10_1,,skipped,11,33276.600000000006,,,33273.399999999994,,33276.7,2021-11-03T20:35:53.864Z,33614.27,1635969522,full,ni_sequenzen,NI_Sequenzen,,,,,,,,,,,,,,
,Screen_3,canvas.Screen,0_2_10_2,,skipped,11,33278.3,,,33273.399999999994,,33278.5,2021-11-03T20:35:53.866Z,33614.27,1635969522,full,ni_sequenzen,NI_Sequenzen,,,,,,,,,,,,,,
,Screen_4,canvas.Screen,0_2_10_3,,skipped,11,33279.899999999994,,,33273.399999999994,,33280,2021-11-03T20:35:53.868Z,33614.27,1635969522,full,ni_sequenzen,NI_Sequenzen,,,,,,,,,,,,,,
,Screen_5,canvas.Screen,0_2_10_4,,skipped,11,33281.600000000006,,,33273.399999999994,,33281.8,2021-11-03T20:35:53.869Z,33614.27,1635969522,full,ni_sequenzen,NI_Sequenzen,,,,,,,,,,,,,,
,Screen_6,canvas.Screen,0_2_10_5,,skipped,11,33283.3,,,33273.399999999994,,33283.5,2021-11-03T20:35:53.871Z,33614.27,1635969522,full,ni_sequenzen,NI_Sequenzen,,,,,,,,,,,,,,
,Sequence,flow.Sequence,0_2_10,,completion,11,33271.899999999994,,,33273.399999999994,,33283.8,2021-11-03T20:35:53.871Z,33614.27,1635969522,full,ni_sequenzen,NI_Sequenzen,,,,,,,,,,,,,,
,Screen_1,canvas.Screen,0_2_11_0,,skipped,12,33285.8,,,33285.8,,33286,2021-11-03T20:35:53.873Z,33614.27,1635969522,full,ni_sequenzen,NI_Sequenzen,,,,,,,,,,,,,,
,Screen_2,canvas.Screen,0_2_11_1,,skipped,12,33288.2,,,33285.8,,33288.399999999994,2021-11-03T20:35:53.876Z,33614.27,1635969522,full,ni_sequenzen,NI_Sequenzen,,,,,,,,,,,,,,
,Screen_3,canvas.Screen,0_2_11_2,,skipped,12,33290.3,,,33285.8,,33290.399999999994,2021-11-03T20:35:53.878Z,33614.27,1635969522,full,ni_sequenzen,NI_Sequenzen,,,,,,,,,,,,,,
,Screen_4,canvas.Screen,0_2_11_3,,skipped,12,33292.2,,,33285.8,,33292.399999999994,2021-11-03T20:35:53.880Z,33614.27,1635969522,full,ni_sequenzen,NI_Sequenzen,,,,,,,,,,,,,,
,Screen_5,canvas.Screen,0_2_11_4,,skipped,12,33293.899999999994,,,33285.8,,33294,2021-11-03T20:35:53.882Z,33614.27,1635969522,full,ni_sequenzen,NI_Sequenzen,,,,,,,,,,,,,,
,Screen_6,canvas.Screen,0_2_11_5,,skipped,12,33295.5,,,33285.8,,33295.600000000006,2021-11-03T20:35:53.883Z,33614.27,1635969522,full,ni_sequenzen,NI_Sequenzen,,,,,,,,,,,,,,
,Sequence,flow.Sequence,0_2_11,,completion,12,33284.5,,,33285.8,,33295.8,2021-11-03T20:35:53.883Z,33614.27,1635969522,full,ni_sequenzen,NI_Sequenzen,,,,,,,,,,,,,,
,Screen_1,canvas.Screen,0_2_12_0,,skipped,13,33297.5,,,33297.5,,33297.600000000006,2021-11-03T20:35:53.885Z,33614.27,1635969522,full,ni_sequenzen,NI_Sequenzen,,,,,,,,,,,,,,
,Screen_2,canvas.Screen,0_2_12_1,,skipped,13,33298.8,,,33297.5,,33298.899999999994,2021-11-03T20:35:53.886Z,33614.27,1635969522,full,ni_sequenzen,NI_Sequenzen,,,,,,,,,,,,,,
,Screen_3,canvas.Screen,0_2_12_2,,skipped,13,33300.100000000006,,,33297.5,,33300.3,2021-11-03T20:35:53.888Z,33614.27,1635969522,full,ni_sequenzen,NI_Sequenzen,,,,,,,,,,,,,,
,Screen_4,canvas.Screen,0_2_12_3,,skipped,13,33301.7,,,33297.5,,33302,2021-11-03T20:35:53.889Z,33614.27,1635969522,full,ni_sequenzen,NI_Sequenzen,,,,,,,,,,,,,,
,Screen_5,canvas.Screen,0_2_12_4,,skipped,13,33303.7,,,33297.5,,33303.899999999994,2021-11-03T20:35:53.891Z,33614.27,1635969522,full,ni_sequenzen,NI_Sequenzen,,,,,,,,,,,,,,
,Screen_6,canvas.Screen,0_2_12_5,,skipped,13,33305.3,,,33297.5,,33305.5,2021-11-03T20:35:53.893Z,33614.27,1635969522,full,ni_sequenzen,NI_Sequenzen,,,,,,,,,,,,,,
,Sequence,flow.Sequence,0_2_12,,completion,13,33296.3,,,33297.5,,33305.8,2021-11-03T20:35:53.893Z,33614.27,1635969522,full,ni_sequenzen,NI_Sequenzen,,,,,,,,,,,,,,
,Screen_1,canvas.Screen,0_2_13_0,,skipped,14,33307.7,,,33307.7,,33307.899999999994,2021-11-03T20:35:53.895Z,33614.27,1635969522,full,ni_sequenzen,NI_Sequenzen,,,,,,,,,,,,,,
,Screen_2,canvas.Screen,0_2_13_1,,skipped,14,33309.3,,,33307.7,,33309.5,2021-11-03T20:35:53.897Z,33614.27,1635969522,full,ni_sequenzen,NI_Sequenzen,,,,,,,,,,,,,,
,Screen_3,canvas.Screen,0_2_13_2,,skipped,14,33310.7,,,33307.7,,33310.8,2021-11-03T20:35:53.898Z,33614.27,1635969522,full,ni_sequenzen,NI_Sequenzen,,,,,,,,,,,,,,
,Screen_4,canvas.Screen,0_2_13_3,,skipped,14,33312,,,33307.7,,33312,2021-11-03T20:35:53.900Z,33614.27,1635969522,full,ni_sequenzen,NI_Sequenzen,,,,,,,,,,,,,,
,Screen_5,canvas.Screen,0_2_13_4,,skipped,14,33313.399999999994,,,33307.7,,33313.600000000006,2021-11-03T20:35:53.901Z,33614.27,1635969522,full,ni_sequenzen,NI_Sequenzen,,,,,,,,,,,,,,
,Screen_6,canvas.Screen,0_2_13_5,,skipped,14,33314.7,,,33307.7,,33314.8,2021-11-03T20:35:53.902Z,33614.27,1635969522,full,ni_sequenzen,NI_Sequenzen,,,,,,,,,,,,,,
,Sequence,flow.Sequence,0_2_13,,completion,14,33306.3,,,33307.7,,33315,2021-11-03T20:35:53.903Z,33614.27,1635969522,full,ni_sequenzen,NI_Sequenzen,,,,,,,,,,,,,,
,Screen_1,canvas.Screen,0_2_14_0,,skipped,15,33316.600000000006,,,33316.600000000006,,33316.7,2021-11-03T20:35:53.904Z,33614.27,1635969522,full,ni_sequenzen,NI_Sequenzen,,,,,,,,,,,,,,
,Screen_2,canvas.Screen,0_2_14_1,,skipped,15,33318.2,,,33316.600000000006,,33318.399999999994,2021-11-03T20:35:53.906Z,33614.27,1635969522,full,ni_sequenzen,NI_Sequenzen,,,,,,,,,,,,,,
,Screen_3,canvas.Screen,0_2_14_2,,skipped,15,33319.600000000006,,,33316.600000000006,,33319.7,2021-11-03T20:35:53.907Z,33614.27,1635969522,full,ni_sequenzen,NI_Sequenzen,,,,,,,,,,,,,,
,Screen_4,canvas.Screen,0_2_14_3,,skipped,15,33320.899999999994,,,33316.600000000006,,33321,2021-11-03T20:35:53.908Z,33614.27,1635969522,full,ni_sequenzen,NI_Sequenzen,,,,,,,,,,,,,,
,Screen_5,canvas.Screen,0_2_14_4,,skipped,15,33323.2,,,33316.600000000006,,33323.399999999994,2021-11-03T20:35:53.911Z,33614.27,1635969522,full,ni_sequenzen,NI_Sequenzen,,,,,,,,,,,,,,
,Screen_6,canvas.Screen,0_2_14_5,,skipped,15,33324.899999999994,,,33316.600000000006,,33325,2021-11-03T20:35:53.912Z,33614.27,1635969522,full,ni_sequenzen,NI_Sequenzen,,,,,,,,,,,,,,
,Sequence,flow.Sequence,0_2_14,,completion,15,33315.5,,,33316.600000000006,,33325.100000000006,2021-11-03T20:35:53.913Z,33614.27,1635969522,full,ni_sequenzen,NI_Sequenzen,,,,,,,,,,,,,,
,Screen_1,canvas.Screen,0_2_15_0,,skipped,16,33326.8,,,33326.8,,33327,2021-11-03T20:35:53.914Z,33614.27,1635969522,full,ni_sequenzen,NI_Sequenzen,,,,,,,,,,,,,,
,Screen_2,canvas.Screen,0_2_15_1,,skipped,16,33328,,,33326.8,,33328.100000000006,2021-11-03T20:35:53.916Z,33614.27,1635969522,full,ni_sequenzen,NI_Sequenzen,,,,,,,,,,,,,,
,Screen_3,canvas.Screen,0_2_15_2,,skipped,16,33329.2,,,33326.8,,33329.2,2021-11-03T20:35:53.917Z,33614.27,1635969522,full,ni_sequenzen,NI_Sequenzen,,,,,,,,,,,,,,
,Screen_4,canvas.Screen,0_2_15_3,,skipped,16,33330.2,,,33326.8,,33330.3,2021-11-03T20:35:53.918Z,33614.27,1635969522,full,ni_sequenzen,NI_Sequenzen,,,,,,,,,,,,,,
,Screen_5,canvas.Screen,0_2_15_4,,skipped,16,33332,,,33326.8,,33332.100000000006,2021-11-03T20:35:53.920Z,33614.27,1635969522,full,ni_sequenzen,NI_Sequenzen,,,,,,,,,,,,,,
,Screen_6,canvas.Screen,0_2_15_5,,skipped,16,33333.5,,,33326.8,,33333.600000000006,2021-11-03T20:35:53.921Z,33614.27,1635969522,full,ni_sequenzen,NI_Sequenzen,,,,,,,,,,,,,,
,Sequence,flow.Sequence,0_2_15,,completion,16,33325.7,,,33326.8,,33333.8,2021-11-03T20:35:53.921Z,33614.27,1635969522,full,ni_sequenzen,NI_Sequenzen,,,,,,,,,,,,,,
,Screen_1,canvas.Screen,0_2_16_0,,skipped,17,33335.2,,,33335.2,,33335.3,2021-11-03T20:35:53.923Z,33614.27,1635969522,full,ni_sequenzen,NI_Sequenzen,,,,,,,,,,,,,,
,Screen_2,canvas.Screen,0_2_16_1,,skipped,17,33336.5,,,33335.2,,33336.600000000006,2021-11-03T20:35:53.924Z,33614.27,1635969522,full,ni_sequenzen,NI_Sequenzen,,,,,,,,,,,,,,
,Screen_3,canvas.Screen,0_2_16_2,,skipped,17,33337.7,,,33335.2,,33337.7,2021-11-03T20:35:53.925Z,33614.27,1635969522,full,ni_sequenzen,NI_Sequenzen,,,,,,,,,,,,,,
,Screen_4,canvas.Screen,0_2_16_3,,skipped,17,33338.8,,,33335.2,,33339,2021-11-03T20:35:53.926Z,33614.27,1635969522,full,ni_sequenzen,NI_Sequenzen,,,,,,,,,,,,,,
,Screen_5,canvas.Screen,0_2_16_4,,skipped,17,33339.899999999994,,,33335.2,,33340.100000000006,2021-11-03T20:35:53.928Z,33614.27,1635969522,full,ni_sequenzen,NI_Sequenzen,,,,,,,,,,,,,,
,Screen_6,canvas.Screen,0_2_16_5,,skipped,17,33341.7,,,33335.2,,33341.899999999994,2021-11-03T20:35:53.929Z,33614.27,1635969522,full,ni_sequenzen,NI_Sequenzen,,,,,,,,,,,,,,
,Sequence,flow.Sequence,0_2_16,,completion,17,33334.2,,,33335.2,,33342.100000000006,2021-11-03T20:35:53.930Z,33614.27,1635969522,full,ni_sequenzen,NI_Sequenzen,,,,,,,,,,,,,,
,Screen_1,canvas.Screen,0_2_17_0,,skipped,18,33344.100000000006,,,33344.100000000006,,33344.2,2021-11-03T20:35:53.932Z,33614.27,1635969522,full,ni_sequenzen,NI_Sequenzen,,,,,,,,,,,,,,
,Screen_2,canvas.Screen,0_2_17_1,,skipped,18,33345.899999999994,,,33344.100000000006,,33346.100000000006,2021-11-03T20:35:53.934Z,33614.27,1635969522,full,ni_sequenzen,NI_Sequenzen,,,,,,,,,,,,,,
,Screen_3,canvas.Screen,0_2_17_2,,skipped,18,33347.7,,,33344.100000000006,,33347.899999999994,2021-11-03T20:35:53.935Z,33614.27,1635969522,full,ni_sequenzen,NI_Sequenzen,,,,,,,,,,,,,,
,Screen_4,canvas.Screen,0_2_17_3,,skipped,18,33349.5,,,33344.100000000006,,33349.7,2021-11-03T20:35:53.937Z,33614.27,1635969522,full,ni_sequenzen,NI_Sequenzen,,,,,,,,,,,,,,
,Screen_5,canvas.Screen,0_2_17_4,,skipped,18,33351.5,,,33344.100000000006,,33351.600000000006,2021-11-03T20:35:53.939Z,33614.27,1635969522,full,ni_sequenzen,NI_Sequenzen,,,,,,,,,,,,,,
,Screen_6,canvas.Screen,0_2_17_5,,skipped,18,33353.2,,,33344.100000000006,,33353.3,2021-11-03T20:35:53.941Z,33614.27,1635969522,full,ni_sequenzen,NI_Sequenzen,,,,,,,,,,,,,,
,Sequence,flow.Sequence,0_2_17,,completion,18,33342.8,,,33344.100000000006,,33353.600000000006,2021-11-03T20:35:53.941Z,33614.27,1635969522,full,ni_sequenzen,NI_Sequenzen,,,,,,,,,,,,,,
,Screen_1,canvas.Screen,0_2_18_0,,skipped,19,33355.399999999994,,,33355.399999999994,,33355.5,2021-11-03T20:35:53.943Z,33614.27,1635969522,full,ni_sequenzen,NI_Sequenzen,,,,,,,,,,,,,,
,Screen_2,canvas.Screen,0_2_18_1,,skipped,19,33357.100000000006,,,33355.399999999994,,33357.3,2021-11-03T20:35:53.945Z,33614.27,1635969522,full,ni_sequenzen,NI_Sequenzen,,,,,,,,,,,,,,
,Screen_3,canvas.Screen,0_2_18_2,,skipped,19,33359,,,33355.399999999994,,33359.3,2021-11-03T20:35:53.947Z,33614.27,1635969522,full,ni_sequenzen,NI_Sequenzen,,,,,,,,,,,,,,
,Screen_4,canvas.Screen,0_2_18_3,,skipped,19,33360.899999999994,,,33355.399999999994,,33361,2021-11-03T20:35:53.948Z,33614.27,1635969522,full,ni_sequenzen,NI_Sequenzen,,,,,,,,,,,,,,
,Screen_5,canvas.Screen,0_2_18_4,,skipped,19,33362.5,,,33355.399999999994,,33362.7,2021-11-03T20:35:53.950Z,33614.27,1635969522,full,ni_sequenzen,NI_Sequenzen,,,,,,,,,,,,,,
,Screen_6,canvas.Screen,0_2_18_5,,skipped,19,33364.100000000006,,,33355.399999999994,,33364.2,2021-11-03T20:35:53.952Z,33614.27,1635969522,full,ni_sequenzen,NI_Sequenzen,,,,,,,,,,,,,,
,Sequence,flow.Sequence,0_2_18,,completion,19,33354.2,,,33355.399999999994,,33364.399999999994,2021-11-03T20:35:53.952Z,33614.27,1635969522,full,ni_sequenzen,NI_Sequenzen,,,,,,,,,,,,,,
,Screen_1,canvas.Screen,0_2_19_0,,skipped,20,33366.399999999994,,,33366.399999999994,,33366.600000000006,2021-11-03T20:35:53.954Z,33614.27,1635969522,full,ni_sequenzen,NI_Sequenzen,,,,,,,,,,,,,,
,Screen_2,canvas.Screen,0_2_19_1,,skipped,20,33370,,,33366.399999999994,,33370.2,2021-11-03T20:35:53.958Z,33614.27,1635969522,full,ni_sequenzen,NI_Sequenzen,,,,,,,,,,,,,,
,Screen_3,canvas.Screen,0_2_19_2,,skipped,20,33371.899999999994,,,33366.399999999994,,33372.100000000006,2021-11-03T20:35:53.960Z,33614.27,1635969522,full,ni_sequenzen,NI_Sequenzen,,,,,,,,,,,,,,
,Screen_4,canvas.Screen,0_2_19_3,,skipped,20,33373.600000000006,,,33366.399999999994,,33373.8,2021-11-03T20:35:53.961Z,33614.27,1635969522,full,ni_sequenzen,NI_Sequenzen,,,,,,,,,,,,,,
,Screen_5,canvas.Screen,0_2_19_4,,skipped,20,33375.600000000006,,,33366.399999999994,,33375.8,2021-11-03T20:35:53.963Z,33614.27,1635969522,full,ni_sequenzen,NI_Sequenzen,,,,,,,,,,,,,,
,Screen_6,canvas.Screen,0_2_19_5,,skipped,20,33377.600000000006,,,33366.399999999994,,33377.7,2021-11-03T20:35:53.965Z,33614.27,1635969522,full,ni_sequenzen,NI_Sequenzen,,,,,,,,,,,,,,
,Sequence,flow.Sequence,0_2_19,,completion,20,33364.899999999994,,,33366.399999999994,,33378,2021-11-03T20:35:53.966Z,33614.27,1635969522,full,ni_sequenzen,NI_Sequenzen,,,,,,,,,,,,,,
,Screen_1,canvas.Screen,0_2_20_0,,skipped,21,33380.7,,,33380.7,,33380.8,2021-11-03T20:35:53.968Z,33614.27,1635969522,full,ni_sequenzen,NI_Sequenzen,,,,,,,,,,,,,,
,Screen_2,canvas.Screen,0_2_20_1,,skipped,21,33383.100000000006,,,33380.7,,33383.2,2021-11-03T20:35:53.971Z,33614.27,1635969522,full,ni_sequenzen,NI_Sequenzen,,,,,,,,,,,,,,
,Screen_3,canvas.Screen,0_2_20_2,,skipped,21,33385.8,,,33380.7,,33386,2021-11-03T20:35:53.973Z,33614.27,1635969522,full,ni_sequenzen,NI_Sequenzen,,,,,,,,,,,,,,
,Screen_4,canvas.Screen,0_2_20_3,,skipped,21,33388.2,,,33380.7,,33388.399999999994,2021-11-03T20:35:53.976Z,33614.27,1635969522,full,ni_sequenzen,NI_Sequenzen,,,,,,,,,,,,,,
,Screen_5,canvas.Screen,0_2_20_4,,skipped,21,33390.2,,,33380.7,,33390.399999999994,2021-11-03T20:35:53.978Z,33614.27,1635969522,full,ni_sequenzen,NI_Sequenzen,,,,,,,,,,,,,,
,Screen_6,canvas.Screen,0_2_20_5,,skipped,21,33392.899999999994,,,33380.7,,33393,2021-11-03T20:35:53.980Z,33614.27,1635969522,full,ni_sequenzen,NI_Sequenzen,,,,,,,,,,,,,,
,Sequence,flow.Sequence,0_2_20,,completion,21,33378.8,,,33380.7,,33393.2,2021-11-03T20:35:53.981Z,33614.27,1635969522,full,ni_sequenzen,NI_Sequenzen,,,,,,,,,,,,,,
,Screen_1,canvas.Screen,0_2_21_0,,skipped,22,33395.899999999994,,,33395.899999999994,,33396.100000000006,2021-11-03T20:35:53.983Z,33614.27,1635969522,full,ni_sequenzen,NI_Sequenzen,,,,,,,,,,,,,,
,Screen_2,canvas.Screen,0_2_21_1,,skipped,22,33397.899999999994,,,33395.899999999994,,33398.100000000006,2021-11-03T20:35:53.986Z,33614.27,1635969522,full,ni_sequenzen,NI_Sequenzen,,,,,,,,,,,,,,
,Screen_3,canvas.Screen,0_2_21_2,,skipped,22,33399.899999999994,,,33395.899999999994,,33400.2,2021-11-03T20:35:53.988Z,33614.27,1635969522,full,ni_sequenzen,NI_Sequenzen,,,,,,,,,,,,,,
,Screen_4,canvas.Screen,0_2_21_3,,skipped,22,33403.8,,,33395.899999999994,,33404.2,2021-11-03T20:35:53.992Z,33614.27,1635969522,full,ni_sequenzen,NI_Sequenzen,,,,,,,,,,,,,,
,Screen_5,canvas.Screen,0_2_21_4,,skipped,22,33407.399999999994,,,33395.899999999994,,33407.600000000006,2021-11-03T20:35:53.995Z,33614.27,1635969522,full,ni_sequenzen,NI_Sequenzen,,,,,,,,,,,,,,
,Screen_6,canvas.Screen,0_2_21_5,,skipped,22,33411.5,,,33395.899999999994,,33411.7,2021-11-03T20:35:53.999Z,33614.27,1635969522,full,ni_sequenzen,NI_Sequenzen,,,,,,,,,,,,,,
,Sequence,flow.Sequence,0_2_21,,completion,22,33394.100000000006,,,33395.899999999994,,33412.100000000006,2021-11-03T20:35:54.000Z,33614.27,1635969522,full,ni_sequenzen,NI_Sequenzen,,,,,,,,,,,,,,
,Screen_1,canvas.Screen,0_2_22_0,,skipped,23,33414.600000000006,,,33414.600000000006,,33414.8,2021-11-03T20:35:54.002Z,33614.27,1635969522,full,ni_sequenzen,NI_Sequenzen,,,,,,,,,,,,,,
,Screen_2,canvas.Screen,0_2_22_1,,skipped,23,33416.899999999994,,,33414.600000000006,,33417.100000000006,2021-11-03T20:35:54.005Z,33614.27,1635969522,full,ni_sequenzen,NI_Sequenzen,,,,,,,,,,,,,,
,Screen_3,canvas.Screen,0_2_22_2,,skipped,23,33419.2,,,33414.600000000006,,33419.3,2021-11-03T20:35:54.007Z,33614.27,1635969522,full,ni_sequenzen,NI_Sequenzen,,,,,,,,,,,,,,
,Screen_4,canvas.Screen,0_2_22_3,,skipped,23,33422,,,33414.600000000006,,33422.3,2021-11-03T20:35:54.010Z,33614.27,1635969522,full,ni_sequenzen,NI_Sequenzen,,,,,,,,,,,,,,
,Screen_5,canvas.Screen,0_2_22_4,,skipped,23,33424.5,,,33414.600000000006,,33424.899999999994,2021-11-03T20:35:54.012Z,33614.27,1635969522,full,ni_sequenzen,NI_Sequenzen,,,,,,,,,,,,,,
,Screen_6,canvas.Screen,0_2_22_5,,skipped,23,33428.8,,,33414.600000000006,,33429,2021-11-03T20:35:54.016Z,33614.27,1635969522,full,ni_sequenzen,NI_Sequenzen,,,,,,,,,,,,,,
,Sequence,flow.Sequence,0_2_22,,completion,23,33413,,,33414.600000000006,,33429.3,2021-11-03T20:35:54.017Z,33614.27,1635969522,full,ni_sequenzen,NI_Sequenzen,,,,,,,,,,,,,,
,Screen_1,canvas.Screen,0_2_23_0,,skipped,24,33432.399999999994,,,33432.399999999994,,33432.600000000006,2021-11-03T20:35:54.020Z,33614.27,1635969522,full,ni_sequenzen,NI_Sequenzen,,,,,,,,,,,,,,
,Screen_2,canvas.Screen,0_2_23_1,,skipped,24,33435.399999999994,,,33432.399999999994,,33435.600000000006,2021-11-03T20:35:54.023Z,33614.27,1635969522,full,ni_sequenzen,NI_Sequenzen,,,,,,,,,,,,,,
,Screen_3,canvas.Screen,0_2_23_2,,skipped,24,33438.100000000006,,,33432.399999999994,,33438.3,2021-11-03T20:35:54.026Z,33614.27,1635969522,full,ni_sequenzen,NI_Sequenzen,,,,,,,,,,,,,,
,Screen_4,canvas.Screen,0_2_23_3,,skipped,24,33440.100000000006,,,33432.399999999994,,33440.3,2021-11-03T20:35:54.028Z,33614.27,1635969522,full,ni_sequenzen,NI_Sequenzen,,,,,,,,,,,,,,
,Screen_5,canvas.Screen,0_2_23_4,,skipped,24,33443.399999999994,,,33432.399999999994,,33443.7,2021-11-03T20:35:54.031Z,33614.27,1635969522,full,ni_sequenzen,NI_Sequenzen,,,,,,,,,,,,,,
,Screen_6,canvas.Screen,0_2_23_5,,skipped,24,33447.600000000006,,,33432.399999999994,,33447.7,2021-11-03T20:35:54.035Z,33614.27,1635969522,full,ni_sequenzen,NI_Sequenzen,,,,,,,,,,,,,,
,Sequence,flow.Sequence,0_2_23,,completion,24,33430.7,,,33432.399999999994,,33448,2021-11-03T20:35:54.035Z,33614.27,1635969522,full,ni_sequenzen,NI_Sequenzen,,,,,,,,,,,,,,
,Screen_1,canvas.Screen,0_2_24_0,,skipped,25,33450.100000000006,,,33450.100000000006,,33450.3,2021-11-03T20:35:54.038Z,33614.27,1635969522,full,ni_sequenzen,NI_Sequenzen,,,,,,,,,,,,,,
,Screen_2,canvas.Screen,0_2_24_1,,skipped,25,33452,,,33450.100000000006,,33452.2,2021-11-03T20:35:54.040Z,33614.27,1635969522,full,ni_sequenzen,NI_Sequenzen,,,,,,,,,,,,,,
,Screen_3,canvas.Screen,0_2_24_2,,skipped,25,33454.2,,,33450.100000000006,,33454.5,2021-11-03T20:35:54.042Z,33614.27,1635969522,full,ni_sequenzen,NI_Sequenzen,,,,,,,,,,,,,,
,Screen_4,canvas.Screen,0_2_24_3,,skipped,25,33456.8,,,33450.100000000006,,33457,2021-11-03T20:35:54.044Z,33614.27,1635969522,full,ni_sequenzen,NI_Sequenzen,,,,,,,,,,,,,,
,Screen_5,canvas.Screen,0_2_24_4,,skipped,25,33459.100000000006,,,33450.100000000006,,33459.3,2021-11-03T20:35:54.047Z,33614.27,1635969522,full,ni_sequenzen,NI_Sequenzen,,,,,,,,,,,,,,
,Screen_6,canvas.Screen,0_2_24_5,,skipped,25,33463.899999999994,,,33450.100000000006,,33464.100000000006,2021-11-03T20:35:54.052Z,33614.27,1635969522,full,ni_sequenzen,NI_Sequenzen,,,,,,,,,,,,,,
,Sequence,flow.Sequence,0_2_24,,completion,25,33448.600000000006,,,33450.100000000006,,33464.3,2021-11-03T20:35:54.052Z,33614.27,1635969522,full,ni_sequenzen,NI_Sequenzen,,,,,,,,,,,,,,
,Screen_1,canvas.Screen,0_2_25_0,,skipped,26,33467.2,,,33467.2,,33467.600000000006,2021-11-03T20:35:54.055Z,33614.27,1635969522,full,ni_sequenzen,NI_Sequenzen,,,,,,,,,,,,,,
,Screen_2,canvas.Screen,0_2_25_1,,skipped,26,33469.3,,,33467.2,,33469.399999999994,2021-11-03T20:35:54.057Z,33614.27,1635969522,full,ni_sequenzen,NI_Sequenzen,,,,,,,,,,,,,,
,Screen_3,canvas.Screen,0_2_25_2,,skipped,26,33472.100000000006,,,33467.2,,33472.399999999994,2021-11-03T20:35:54.060Z,33614.27,1635969522,full,ni_sequenzen,NI_Sequenzen,,,,,,,,,,,,,,
,Screen_4,canvas.Screen,0_2_25_3,,skipped,26,33474.3,,,33467.2,,33474.5,2021-11-03T20:35:54.062Z,33614.27,1635969522,full,ni_sequenzen,NI_Sequenzen,,,,,,,,,,,,,,
,Screen_5,canvas.Screen,0_2_25_4,,skipped,26,33477.8,,,33467.2,,33478,2021-11-03T20:35:54.065Z,33614.27,1635969522,full,ni_sequenzen,NI_Sequenzen,,,,,,,,,,,,,,
,Screen_6,canvas.Screen,0_2_25_5,,skipped,26,33479.7,,,33467.2,,33480,2021-11-03T20:35:54.067Z,33614.27,1635969522,full,ni_sequenzen,NI_Sequenzen,,,,,,,,,,,,,,
,Sequence,flow.Sequence,0_2_25,,completion,26,33465,,,33467.2,,33480.2,2021-11-03T20:35:54.068Z,33614.27,1635969522,full,ni_sequenzen,NI_Sequenzen,,,,,,,,,,,,,,
,Screen_1,canvas.Screen,0_2_26_0,,skipped,27,33483.100000000006,,,33483.100000000006,,33483.2,2021-11-03T20:35:54.071Z,33614.27,1635969522,full,ni_sequenzen,NI_Sequenzen,,,,,,,,,,,,,,
,Screen_2,canvas.Screen,0_2_26_1,,skipped,27,33485,,,33483.100000000006,,33485.2,2021-11-03T20:35:54.073Z,33614.27,1635969522,full,ni_sequenzen,NI_Sequenzen,,,,,,,,,,,,,,
,Screen_3,canvas.Screen,0_2_26_2,,skipped,27,33486.600000000006,,,33483.100000000006,,33486.8,2021-11-03T20:35:54.074Z,33614.27,1635969522,full,ni_sequenzen,NI_Sequenzen,,,,,,,,,,,,,,
,Screen_4,canvas.Screen,0_2_26_3,,skipped,27,33491.3,,,33483.100000000006,,33492.100000000006,2021-11-03T20:35:54.080Z,33614.27,1635969522,full,ni_sequenzen,NI_Sequenzen,,,,,,,,,,,,,,
,Screen_5,canvas.Screen,0_2_26_4,,skipped,27,33494.3,,,33483.100000000006,,33494.399999999994,2021-11-03T20:35:54.082Z,33614.27,1635969522,full,ni_sequenzen,NI_Sequenzen,,,,,,,,,,,,,,
,Screen_6,canvas.Screen,0_2_26_5,,skipped,27,33495.7,,,33483.100000000006,,33495.8,2021-11-03T20:35:54.083Z,33614.27,1635969522,full,ni_sequenzen,NI_Sequenzen,,,,,,,,,,,,,,
,Sequence,flow.Sequence,0_2_26,,completion,27,33481,,,33483.100000000006,,33496,2021-11-03T20:35:54.083Z,33614.27,1635969522,full,ni_sequenzen,NI_Sequenzen,,,,,,,,,,,,,,
,Screen_1,canvas.Screen,0_2_27_0,,skipped,28,33499.2,,,33499.3,,33499.399999999994,2021-11-03T20:35:54.087Z,33614.27,1635969522,full,ni_sequenzen,NI_Sequenzen,,,,,,,,,,,,,,
,Screen_2,canvas.Screen,0_2_27_1,,skipped,28,33501.100000000006,,,33499.3,,33501.3,2021-11-03T20:35:54.089Z,33614.27,1635969522,full,ni_sequenzen,NI_Sequenzen,,,,,,,,,,,,,,
,Screen_3,canvas.Screen,0_2_27_2,,skipped,28,33503,,,33499.3,,33503.100000000006,2021-11-03T20:35:54.091Z,33614.27,1635969522,full,ni_sequenzen,NI_Sequenzen,,,,,,,,,,,,,,
,Screen_4,canvas.Screen,0_2_27_3,,skipped,28,33505,,,33499.3,,33505.2,2021-11-03T20:35:54.093Z,33614.27,1635969522,full,ni_sequenzen,NI_Sequenzen,,,,,,,,,,,,,,
,Screen_5,canvas.Screen,0_2_27_4,,skipped,28,33506.7,,,33499.3,,33507,2021-11-03T20:35:54.094Z,33614.27,1635969522,full,ni_sequenzen,NI_Sequenzen,,,,,,,,,,,,,,
,Screen_6,canvas.Screen,0_2_27_5,,skipped,28,33508.5,,,33499.3,,33508.7,2021-11-03T20:35:54.096Z,33614.27,1635969522,full,ni_sequenzen,NI_Sequenzen,,,,,,,,,,,,,,
,Sequence,flow.Sequence,0_2_27,,completion,28,33496.7,,,33499.3,,33508.899999999994,2021-11-03T20:35:54.096Z,33614.27,1635969522,full,ni_sequenzen,NI_Sequenzen,,,,,,,,,,,,,,
,Screen_1,canvas.Screen,0_2_28_0,,skipped,29,33511.100000000006,,,33511.100000000006,,33511.3,2021-11-03T20:35:54.099Z,33614.27,1635969522,full,ni_sequenzen,NI_Sequenzen,,,,,,,,,,,,,,
,Screen_2,canvas.Screen,0_2_28_1,,skipped,29,33512.8,,,33511.100000000006,,33512.899999999994,2021-11-03T20:35:54.100Z,33614.27,1635969522,full,ni_sequenzen,NI_Sequenzen,,,,,,,,,,,,,,
,Screen_3,canvas.Screen,0_2_28_2,,skipped,29,33514.2,,,33511.100000000006,,33514.3,2021-11-03T20:35:54.102Z,33614.27,1635969522,full,ni_sequenzen,NI_Sequenzen,,,,,,,,,,,,,,
,Screen_4,canvas.Screen,0_2_28_3,,skipped,29,33517.5,,,33511.100000000006,,33517.600000000006,2021-11-03T20:35:54.105Z,33614.27,1635969522,full,ni_sequenzen,NI_Sequenzen,,,,,,,,,,,,,,
,Screen_5,canvas.Screen,0_2_28_4,,skipped,29,33519.3,,,33511.100000000006,,33519.399999999994,2021-11-03T20:35:54.107Z,33614.27,1635969522,full,ni_sequenzen,NI_Sequenzen,,,,,,,,,,,,,,
,Screen_6,canvas.Screen,0_2_28_5,,skipped,29,33521,,,33511.100000000006,,33521.2,2021-11-03T20:35:54.109Z,33614.27,1635969522,full,ni_sequenzen,NI_Sequenzen,,,,,,,,,,,,,,
,Sequence,flow.Sequence,0_2_28,,completion,29,33509.7,,,33511.100000000006,,33521.399999999994,2021-11-03T20:35:54.109Z,33614.27,1635969522,full,ni_sequenzen,NI_Sequenzen,,,,,,,,,,,,,,
,Screen_1,canvas.Screen,0_2_29_0,,skipped,30,33524.3,,,33524.3,,33524.600000000006,2021-11-03T20:35:54.112Z,33614.27,1635969522,full,ni_sequenzen,NI_Sequenzen,,,,,,,,,,,,,,
,Screen_2,canvas.Screen,0_2_29_1,,skipped,30,33526.3,,,33524.3,,33526.5,2021-11-03T20:35:54.114Z,33614.27,1635969522,full,ni_sequenzen,NI_Sequenzen,,,,,,,,,,,,,,
,Screen_3,canvas.Screen,0_2_29_2,,skipped,30,33528.7,,,33524.3,,33528.8,2021-11-03T20:35:54.116Z,33614.27,1635969522,full,ni_sequenzen,NI_Sequenzen,,,,,,,,,,,,,,
,Screen_4,canvas.Screen,0_2_29_3,,skipped,30,33530.7,,,33524.3,,33530.899999999994,2021-11-03T20:35:54.118Z,33614.27,1635969522,full,ni_sequenzen,NI_Sequenzen,,,,,,,,,,,,,,
,Screen_5,canvas.Screen,0_2_29_4,,skipped,30,33532.399999999994,,,33524.3,,33532.600000000006,2021-11-03T20:35:54.120Z,33614.27,1635969522,full,ni_sequenzen,NI_Sequenzen,,,,,,,,,,,,,,
,Screen_6,canvas.Screen,0_2_29_5,,skipped,30,33534,,,33524.3,,33534.2,2021-11-03T20:35:54.122Z,33614.27,1635969522,full,ni_sequenzen,NI_Sequenzen,,,,,,,,,,,,,,
,Sequence,flow.Sequence,0_2_29,,completion,30,33522.8,,,33524.3,,33534.399999999994,2021-11-03T20:35:54.122Z,33614.27,1635969522,full,ni_sequenzen,NI_Sequenzen,,,,,,,,,,,,,,
,Instructions_II,flow.Loop,0_2,,completion,,31151,31149.616,31166.268,33524.3,2358.032000000003,33534.5,2021-11-03T20:35:54.122Z,33614.27,1635969522,full,ni_sequenzen,NI_Sequenzen,,,,,,,,,,,,,,
,Move,canvas.Screen,0_3_0_0_0_0,right,response,,33588.7,33580.958,33614.27,33683.100000000006,68.83000000000902,33684.2,2021-11-03T20:35:54.272Z,33697.542,1635969522,full,ni_sequenzen,NI_Sequenzen,1,0,,,,,,,,,,,,
,Move,canvas.Screen,0_3_0_0_0_1,down,response,,33695,33680.885,33697.542,35372.100000000006,1674.5580000000045,35372.7,2021-11-03T20:35:55.960Z,35379.496,1635969522,full,ni_sequenzen,NI_Sequenzen,2,0,,,,,,,,,,,,
,Move,canvas.Screen,0_3_0_0_0_2,left,response,,35376.7,35362.805,35379.496,35863.399999999994,483.903999999995,35864,2021-11-03T20:35:56.451Z,35879.101,1635969522,full,ni_sequenzen,NI_Sequenzen,3,0,,,,,,,,,,,,
,Move,canvas.Screen,0_3_0_0_0_3,left,response,,35868.3,35862.383,35879.101,39770.100000000006,3890.9990000000034,39771.70000000001,2021-11-03T20:36:00.359Z,39892.432,1635969522,full,ni_sequenzen,NI_Sequenzen,4,0,,,,,,,,,,,,
,Move,canvas.Screen,0_3_0_0_0_4,-999,skipped,,39784,,,39770.100000000006,,39784.29999999999,2021-11-03T20:36:00.372Z,39892.432,1635969522,full,ni_sequenzen,NI_Sequenzen,5,0,,,,,,,,,,,,
,Move,canvas.Screen,0_3_0_0_0_5,-999,skipped,,39798.899999999994,,,39770.100000000006,,39799.399999999994,2021-11-03T20:36:00.387Z,39892.432,1635969522,full,ni_sequenzen,NI_Sequenzen,6,0,,,,,,,,,,,,
,Move,canvas.Screen,0_3_0_0_0_6,-999,skipped,,39811.100000000006,,,39770.100000000006,,39811.399999999994,2021-11-03T20:36:00.399Z,39892.432,1635969522,full,ni_sequenzen,NI_Sequenzen,7,0,,,,,,,,,,,,
,Move,canvas.Screen,0_3_0_0_0_7,-999,skipped,,39821.70000000001,,,39770.100000000006,,39822.100000000006,2021-11-03T20:36:00.409Z,39892.432,1635969522,full,ni_sequenzen,NI_Sequenzen,8,0,,,,,,,,,,,,
,Move,canvas.Screen,0_3_0_0_0_8,-999,skipped,,39835,,,39770.100000000006,,39835.5,2021-11-03T20:36:00.423Z,39892.432,1635969522,full,ni_sequenzen,NI_Sequenzen,9,0,,,,,,,,,,,,
,Move,canvas.Screen,0_3_0_0_0_9,-999,skipped,,39849.70000000001,,,39770.100000000006,,39850,2021-11-03T20:36:00.437Z,39892.432,1635969522,full,ni_sequenzen,NI_Sequenzen,10,0,,,,,,,,,,,,
,Move,canvas.Screen,0_3_0_0_0_10,-999,skipped,,39863.899999999994,,,39770.100000000006,,39864.29999999999,2021-11-03T20:36:00.452Z,39892.432,1635969522,full,ni_sequenzen,NI_Sequenzen,11,0,,,,,,,,,,,,
,Move,canvas.Screen,0_3_0_0_0_11,-999,skipped,,39873.70000000001,,,39770.100000000006,,39873.79999999999,2021-11-03T20:36:00.461Z,39892.432,1635969522,full,ni_sequenzen,NI_Sequenzen,12,0,,,,,,,,,,,,
,Move,canvas.Screen,0_3_0_0_0_12,-999,skipped,,39877.79999999999,,,39770.100000000006,,39878,2021-11-03T20:36:00.465Z,39892.432,1635969522,full,ni_sequenzen,NI_Sequenzen,13,0,,,,,,,,,,,,
,Move,canvas.Screen,0_3_0_0_0_13,-999,skipped,,39881.600000000006,,,39770.100000000006,,39881.79999999999,2021-11-03T20:36:00.469Z,39892.432,1635969522,full,ni_sequenzen,NI_Sequenzen,14,0,,,,,,,,,,,,
,Move,canvas.Screen,0_3_0_0_0_14,-999,skipped,,39886.100000000006,,,39770.100000000006,,39886.20000000001,2021-11-03T20:36:00.474Z,39892.432,1635969522,full,ni_sequenzen,NI_Sequenzen,15,0,,,,,,,,,,,,
,Loop,flow.Loop,0_3_0_0_0,-999,completion,,33579.100000000006,33580.958,33614.27,39770.100000000006,6155.830000000009,39886.5,2021-11-03T20:36:00.474Z,39892.432,1635969522,full,ni_sequenzen,NI_Sequenzen,,0,,,,,,,,,,,,
,Feedback,canvas.Screen,0_3_0_0_1,,timeout,,39890.399999999994,39875.588,39892.432,43872.638,4030.1059999999998,43874.899999999994,2021-11-03T20:36:04.462Z,43922.538,1635969522,full,ni_sequenzen,NI_Sequenzen,,0,,,,,,,,,,,,
,Trial,flow.Sequence,0_3_0_0,,completion,,33559.899999999994,33580.958,33614.27,43872.638,10258.368000000002,43875.29999999999,2021-11-03T20:36:04.463Z,43939.178,1635969522,full,ni_sequenzen,NI_Sequenzen,,0,,,,,,,,,,,,
,Move,canvas.Screen,0_3_0_1_0_0,down,response,,43927.20000000001,43922.538,43939.178,44718.5,779.3220000000001,44720.600000000006,2021-11-03T20:36:05.308Z,44738.496,1635969522,full,ni_sequenzen,NI_Sequenzen,1,1,,,,,,,,,,,,
,Move,canvas.Screen,0_3_0_1_0_1,down,response,,44736.399999999994,44721.791,44738.496,44901.600000000006,163.10400000000664,44902.79999999999,2021-11-03T20:36:05.490Z,44921.71,1635969522,full,ni_sequenzen,NI_Sequenzen,2,1,,,,,,,,,,,,
,Move,canvas.Screen,0_3_0_1_0_2,down,response,,44914.100000000006,44905.04,44921.71,45170.399999999994,248.68999999999505,45171.70000000001,2021-11-03T20:36:05.759Z,45204.838,1635969522,full,ni_sequenzen,NI_Sequenzen,3,1,,,,,,,,,,,,
,Move,canvas.Screen,0_3_0_1_0_3,left,response,,45183.70000000001,45171.476,45204.838,45473.899999999994,269.0619999999908,45474.600000000006,2021-11-03T20:36:06.062Z,45487.851,1635969522,full,ni_sequenzen,NI_Sequenzen,4,1,,,,,,,,,,,,
,Move,canvas.Screen,0_3_0_1_0_4,left,response,,45479.100000000006,45471.195,45487.851,45886.600000000006,398.74900000000343,45887.29999999999,2021-11-03T20:36:06.475Z,45954.138,1635969522,full,ni_sequenzen,NI_Sequenzen,5,1,,,,,,,,,,,,
,Move,canvas.Screen,0_3_0_1_0_5,-999,skipped,,45900.70000000001,,,45886.600000000006,,45900.899999999994,2021-11-03T20:36:06.488Z,45954.138,1635969522,full,ni_sequenzen,NI_Sequenzen,6,1,,,,,,,,,,,,
,Move,canvas.Screen,0_3_0_1_0_6,-999,skipped,,45905.100000000006,,,45886.600000000006,,45905.20000000001,2021-11-03T20:36:06.493Z,45954.138,1635969522,full,ni_sequenzen,NI_Sequenzen,7,1,,,,,,,,,,,,
,Move,canvas.Screen,0_3_0_1_0_7,-999,skipped,,45909.600000000006,,,45886.600000000006,,45909.79999999999,2021-11-03T20:36:06.497Z,45954.138,1635969522,full,ni_sequenzen,NI_Sequenzen,8,1,,,,,,,,,,,,
,Move,canvas.Screen,0_3_0_1_0_8,-999,skipped,,45913.5,,,45886.600000000006,,45913.70000000001,2021-11-03T20:36:06.501Z,45954.138,1635969522,full,ni_sequenzen,NI_Sequenzen,9,1,,,,,,,,,,,,
,Move,canvas.Screen,0_3_0_1_0_9,-999,skipped,,45918.100000000006,,,45886.600000000006,,45918.20000000001,2021-11-03T20:36:06.506Z,45954.138,1635969522,full,ni_sequenzen,NI_Sequenzen,10,1,,,,,,,,,,,,
,Move,canvas.Screen,0_3_0_1_0_10,-999,skipped,,45922.79999999999,,,45886.600000000006,,45922.899999999994,2021-11-03T20:36:06.510Z,45954.138,1635969522,full,ni_sequenzen,NI_Sequenzen,11,1,,,,,,,,,,,,
,Move,canvas.Screen,0_3_0_1_0_11,-999,skipped,,45926.70000000001,,,45886.600000000006,,45926.899999999994,2021-11-03T20:36:06.514Z,45954.138,1635969522,full,ni_sequenzen,NI_Sequenzen,12,1,,,,,,,,,,,,
,Move,canvas.Screen,0_3_0_1_0_12,-999,skipped,,45931,,,45886.600000000006,,45931.100000000006,2021-11-03T20:36:06.519Z,45954.138,1635969522,full,ni_sequenzen,NI_Sequenzen,13,1,,,,,,,,,,,,
,Move,canvas.Screen,0_3_0_1_0_13,-999,skipped,,45934.600000000006,,,45886.600000000006,,45934.79999999999,2021-11-03T20:36:06.522Z,45954.138,1635969522,full,ni_sequenzen,NI_Sequenzen,14,1,,,,,,,,,,,,
,Move,canvas.Screen,0_3_0_1_0_14,-999,skipped,,45939,,,45886.600000000006,,45939.20000000001,2021-11-03T20:36:06.527Z,45954.138,1635969522,full,ni_sequenzen,NI_Sequenzen,15,1,,,,,,,,,,,,
,Loop,flow.Loop,0_3_0_1_0,-999,completion,,43914.20000000001,43922.538,43939.178,45886.600000000006,1947.422000000006,45939.5,2021-11-03T20:36:06.527Z,45954.138,1635969522,full,ni_sequenzen,NI_Sequenzen,,1,,,,,,,,,,,,
,Feedback,canvas.Screen,0_3_0_1_1,,timeout,,45942.79999999999,45937.459,45954.138,49934.472,4030.086000000003,49936.100000000006,2021-11-03T20:36:10.524Z,49984.224,1635969522,full,ni_sequenzen,NI_Sequenzen,,1,,,,,,,,,,,,
,Trial,flow.Sequence,0_3_0_1,,completion,,43876.399999999994,43922.538,43939.178,49934.472,5995.294000000002,49936.399999999994,2021-11-03T20:36:10.524Z,50000.879,1635969522,full,ni_sequenzen,NI_Sequenzen,,1,,,,,,,,,,,,
,Move,canvas.Screen,0_3_0_2_0_0,right,response,,49988.20000000001,49984.224,50000.879,51104.20000000001,1103.3210000000108,51106.100000000006,2021-11-03T20:36:11.694Z,51133.269,1635969522,full,ni_sequenzen,NI_Sequenzen,1,2,,,,,,,,,,,,
,Move,canvas.Screen,0_3_0_2_0_1,down,response,,51118.20000000001,51116.752,51133.269,51526,392.73099999999977,51527.29999999999,2021-11-03T20:36:12.115Z,51566.243,1635969522,full,ni_sequenzen,NI_Sequenzen,2,2,,,,,,,,,,,,
,Move,canvas.Screen,0_3_0_2_0_2,left,response,,51537.29999999999,51532.872,51566.243,51862.600000000006,296.3570000000036,51863.899999999994,2021-11-03T20:36:12.451Z,51882.679,1635969522,full,ni_sequenzen,NI_Sequenzen,3,2,,,,,,,,,,,,
,Move,canvas.Screen,0_3_0_2_0_3,right,response,,51876.79999999999,51865.965,51882.679,53666.29999999999,1783.620999999992,53666.899999999994,2021-11-03T20:36:14.254Z,53714.438,1635969522,full,ni_sequenzen,NI_Sequenzen,4,2,,,,,,,,,,,,
,Move,canvas.Screen,0_3_0_2_0_4,-999,skipped,,53670.899999999994,,,53666.29999999999,,53671,2021-11-03T20:36:14.258Z,53714.438,1635969522,full,ni_sequenzen,NI_Sequenzen,5,2,,,,,,,,,,,,
,Move,canvas.Screen,0_3_0_2_0_5,-999,skipped,,53674.70000000001,,,53666.29999999999,,53674.899999999994,2021-11-03T20:36:14.262Z,53714.438,1635969522,full,ni_sequenzen,NI_Sequenzen,6,2,,,,,,,,,,,,
,Move,canvas.Screen,0_3_0_2_0_6,-999,skipped,,53679.100000000006,,,53666.29999999999,,53679.20000000001,2021-11-03T20:36:14.267Z,53714.438,1635969522,full,ni_sequenzen,NI_Sequenzen,7,2,,,,,,,,,,,,
,Move,canvas.Screen,0_3_0_2_0_7,-999,skipped,,53682.5,,,53666.29999999999,,53682.70000000001,2021-11-03T20:36:14.270Z,53714.438,1635969522,full,ni_sequenzen,NI_Sequenzen,8,2,,,,,,,,,,,,
,Move,canvas.Screen,0_3_0_2_0_8,-999,skipped,,53686,,,53666.29999999999,,53686.100000000006,2021-11-03T20:36:14.274Z,53714.438,1635969522,full,ni_sequenzen,NI_Sequenzen,9,2,,,,,,,,,,,,
,Move,canvas.Screen,0_3_0_2_0_9,-999,skipped,,53690.20000000001,,,53666.29999999999,,53690.29999999999,2021-11-03T20:36:14.278Z,53714.438,1635969522,full,ni_sequenzen,NI_Sequenzen,10,2,,,,,,,,,,,,
,Move,canvas.Screen,0_3_0_2_0_10,-999,skipped,,53693.899999999994,,,53666.29999999999,,53694.100000000006,2021-11-03T20:36:14.282Z,53714.438,1635969522,full,ni_sequenzen,NI_Sequenzen,11,2,,,,,,,,,,,,
,Move,canvas.Screen,0_3_0_2_0_11,-999,skipped,,53697.399999999994,,,53666.29999999999,,53697.5,2021-11-03T20:36:14.285Z,53714.438,1635969522,full,ni_sequenzen,NI_Sequenzen,12,2,,,,,,,,,,,,
,Move,canvas.Screen,0_3_0_2_0_12,-999,skipped,,53701.5,,,53666.29999999999,,53701.600000000006,2021-11-03T20:36:14.289Z,53714.438,1635969522,full,ni_sequenzen,NI_Sequenzen,13,2,,,,,,,,,,,,
,Move,canvas.Screen,0_3_0_2_0_13,-999,skipped,,53705.20000000001,,,53666.29999999999,,53705.29999999999,2021-11-03T20:36:14.293Z,53714.438,1635969522,full,ni_sequenzen,NI_Sequenzen,14,2,,,,,,,,,,,,
,Move,canvas.Screen,0_3_0_2_0_14,-999,skipped,,53708.79999999999,,,53666.29999999999,,53709,2021-11-03T20:36:14.296Z,53714.438,1635969522,full,ni_sequenzen,NI_Sequenzen,15,2,,,,,,,,,,,,
,Loop,flow.Loop,0_3_0_2_0,-999,completion,,49978.100000000006,49984.224,50000.879,53666.29999999999,3665.4209999999875,53709.100000000006,2021-11-03T20:36:14.297Z,53714.438,1635969522,full,ni_sequenzen,NI_Sequenzen,,2,,,,,,,,,,,,
,Feedback,canvas.Screen,0_3_0_2_1,,timeout,,53712.70000000001,53697.732,53714.438,57694.507,3996.7180000000008,57695.29999999999,2021-11-03T20:36:18.283Z,57711.156,1635969522,full,ni_sequenzen,NI_Sequenzen,,2,,,,,,,,,,,,
,Trial,flow.Sequence,0_3_0_2,,completion,,49937.399999999994,49984.224,50000.879,57694.507,7693.627999999997,57695.399999999994,2021-11-03T20:36:18.283Z,57727.819,1635969522,full,ni_sequenzen,NI_Sequenzen,,2,,,,,,,,,,,,
,Move,canvas.Screen,0_3_0_3_0_0,down,response,,57718.20000000001,57711.156,57727.819,58482.70000000001,754.8810000000085,58483.399999999994,2021-11-03T20:36:19.071Z,58493.838,1635969522,full,ni_sequenzen,NI_Sequenzen,1,3,,,,,,,,,,,,
,Move,canvas.Screen,0_3_0_3_0_1,down,response,,58488.70000000001,58477.139,58493.838,58794.20000000001,300.36200000000827,58794.899999999994,2021-11-03T20:36:19.382Z,58810.248,1635969522,full,ni_sequenzen,NI_Sequenzen,2,3,,,,,,,,,,,,
,Move,canvas.Screen,0_3_0_3_0_2,right,response,,58799.899999999994,58793.583,58810.248,59289.399999999994,479.1519999999946,59290,2021-11-03T20:36:19.878Z,59309.851,1635969522,full,ni_sequenzen,NI_Sequenzen,3,3,,,,,,,,,,,,
,Move,canvas.Screen,0_3_0_3_0_3,right,response,,59294.399999999994,59293.173,59309.851,59579.100000000006,269.24900000000343,59579.70000000001,2021-11-03T20:36:20.167Z,59642.9,1635969522,full,ni_sequenzen,NI_Sequenzen,4,3,,,,,,,,,,,,
,Move,canvas.Screen,0_3_0_3_0_4,-999,skipped,,59583.600000000006,,,59579.100000000006,,59583.79999999999,2021-11-03T20:36:20.171Z,59642.9,1635969522,full,ni_sequenzen,NI_Sequenzen,5,3,,,,,,,,,,,,
,Move,canvas.Screen,0_3_0_3_0_5,-999,skipped,,59588.600000000006,,,59579.100000000006,,59588.79999999999,2021-11-03T20:36:20.176Z,59642.9,1635969522,full,ni_sequenzen,NI_Sequenzen,6,3,,,,,,,,,,,,
,Move,canvas.Screen,0_3_0_3_0_6,-999,skipped,,59593,,,59579.100000000006,,59593.20000000001,2021-11-03T20:36:20.181Z,59642.9,1635969522,full,ni_sequenzen,NI_Sequenzen,7,3,,,,,,,,,,,,
,Move,canvas.Screen,0_3_0_3_0_7,-999,skipped,,59597.20000000001,,,59579.100000000006,,59597.399999999994,2021-11-03T20:36:20.185Z,59642.9,1635969522,full,ni_sequenzen,NI_Sequenzen,8,3,,,,,,,,,,,,
,Move,canvas.Screen,0_3_0_3_0_8,-999,skipped,,59601.70000000001,,,59579.100000000006,,59601.899999999994,2021-11-03T20:36:20.189Z,59642.9,1635969522,full,ni_sequenzen,NI_Sequenzen,9,3,,,,,,,,,,,,
,Move,canvas.Screen,0_3_0_3_0_9,-999,skipped,,59605.70000000001,,,59579.100000000006,,59605.899999999994,2021-11-03T20:36:20.193Z,59642.9,1635969522,full,ni_sequenzen,NI_Sequenzen,10,3,,,,,,,,,,,,
,Move,canvas.Screen,0_3_0_3_0_10,-999,skipped,,59610.100000000006,,,59579.100000000006,,59610.20000000001,2021-11-03T20:36:20.198Z,59642.9,1635969522,full,ni_sequenzen,NI_Sequenzen,11,3,,,,,,,,,,,,
,Move,canvas.Screen,0_3_0_3_0_11,-999,skipped,,59614.70000000001,,,59579.100000000006,,59614.899999999994,2021-11-03T20:36:20.202Z,59642.9,1635969522,full,ni_sequenzen,NI_Sequenzen,12,3,,,,,,,,,,,,
,Move,canvas.Screen,0_3_0_3_0_12,-999,skipped,,59618.600000000006,,,59579.100000000006,,59618.70000000001,2021-11-03T20:36:20.206Z,59642.9,1635969522,full,ni_sequenzen,NI_Sequenzen,13,3,,,,,,,,,,,,
,Move,canvas.Screen,0_3_0_3_0_13,-999,skipped,,59622.5,,,59579.100000000006,,59622.600000000006,2021-11-03T20:36:20.210Z,59642.9,1635969522,full,ni_sequenzen,NI_Sequenzen,14,3,,,,,,,,,,,,
,Move,canvas.Screen,0_3_0_3_0_14,-999,skipped,,59626.79999999999,,,59579.100000000006,,59627,2021-11-03T20:36:20.214Z,59642.9,1635969522,full,ni_sequenzen,NI_Sequenzen,15,3,,,,,,,,,,,,
,Loop,flow.Loop,0_3_0_3_0,-999,completion,,57713.899999999994,57711.156,57727.819,59579.100000000006,1851.2810000000027,59627.20000000001,2021-11-03T20:36:20.215Z,59642.9,1635969522,full,ni_sequenzen,NI_Sequenzen,,3,,,,,,,,,,,,
,Feedback,canvas.Screen,0_3_0_3_1,,timeout,,59630.600000000006,59626.251,59642.9,63622.976,3996.7209999999977,63623.899999999994,2021-11-03T20:36:24.213Z,63639.621,1635969522,full,ni_sequenzen,NI_Sequenzen,,3,,,,,,,,,,,,
,Trial,flow.Sequence,0_3_0_3,,completion,,57695.899999999994,57711.156,57727.819,63622.976,5895.156999999999,63624.100000000006,2021-11-03T20:36:24.213Z,63656.277,1635969522,full,ni_sequenzen,NI_Sequenzen,,3,,,,,,,,,,,,
,Move,canvas.Screen,0_3_0_4_0_0,right,response,,63641.5,63639.621,63656.277,65561.70000000001,1905.4230000000098,65563.20000000001,2021-11-03T20:36:26.152Z,65588.077,1635969522,full,ni_sequenzen,NI_Sequenzen,1,4,,,,,,,,,,,,
,Move,canvas.Screen,0_3_0_4_0_1,down,response,,65573.70000000001,65571.252,65588.077,65920.4,332.3229999999894,65921.6,2021-11-03T20:36:26.511Z,65937.788,1635969522,full,ni_sequenzen,NI_Sequenzen,2,4,,,,,,,,,,,,
,Move,canvas.Screen,0_3_0_4_0_2,right,response,,65931.6,65921.066,65937.788,66203.79999999999,266.0119999999879,66204.5,2021-11-03T20:36:26.794Z,66220.835,1635969522,full,ni_sequenzen,NI_Sequenzen,3,4,,,,,,,,,,,,
,Move,canvas.Screen,0_3_0_4_0_3,down,response,,66209.20000000001,66204.163,66220.835,66499.1,278.2649999999994,66500.1,2021-11-03T20:36:27.089Z,66570.543,1635969522,full,ni_sequenzen,NI_Sequenzen,4,4,,,,,,,,,,,,
,Move,canvas.Screen,0_3_0_4_0_4,-999,skipped,,66504.5,,,66499.1,,66504.6,2021-11-03T20:36:27.094Z,66570.543,1635969522,full,ni_sequenzen,NI_Sequenzen,5,4,,,,,,,,,,,,
,Move,canvas.Screen,0_3_0_4_0_5,-999,skipped,,66508.79999999999,,,66499.1,,66509,2021-11-03T20:36:27.098Z,66570.543,1635969522,full,ni_sequenzen,NI_Sequenzen,6,4,,,,,,,,,,,,
,Move,canvas.Screen,0_3_0_4_0_6,-999,skipped,,66512.70000000001,,,66499.1,,66512.79999999999,2021-11-03T20:36:27.102Z,66570.543,1635969522,full,ni_sequenzen,NI_Sequenzen,7,4,,,,,,,,,,,,
,Move,canvas.Screen,0_3_0_4_0_7,-999,skipped,,66518,,,66499.1,,66518.1,2021-11-03T20:36:27.107Z,66570.543,1635969522,full,ni_sequenzen,NI_Sequenzen,8,4,,,,,,,,,,,,
,Move,canvas.Screen,0_3_0_4_0_8,-999,skipped,,66522,,,66499.1,,66522.1,2021-11-03T20:36:27.111Z,66570.543,1635969522,full,ni_sequenzen,NI_Sequenzen,9,4,,,,,,,,,,,,
,Move,canvas.Screen,0_3_0_4_0_9,-999,skipped,,66526.20000000001,,,66499.1,,66526.29999999999,2021-11-03T20:36:27.115Z,66570.543,1635969522,full,ni_sequenzen,NI_Sequenzen,10,4,,,,,,,,,,,,
,Move,canvas.Screen,0_3_0_4_0_10,-999,skipped,,66530.9,,,66499.1,,66531,2021-11-03T20:36:27.120Z,66570.543,1635969522,full,ni_sequenzen,NI_Sequenzen,11,4,,,,,,,,,,,,
,Move,canvas.Screen,0_3_0_4_0_11,-999,skipped,,66534.9,,,66499.1,,66535,2021-11-03T20:36:27.124Z,66570.543,1635969522,full,ni_sequenzen,NI_Sequenzen,12,4,,,,,,,,,,,,
,Move,canvas.Screen,0_3_0_4_0_12,-999,skipped,,66538.6,,,66499.1,,66538.79999999999,2021-11-03T20:36:27.128Z,66570.543,1635969522,full,ni_sequenzen,NI_Sequenzen,13,4,,,,,,,,,,,,
,Move,canvas.Screen,0_3_0_4_0_13,-999,skipped,,66545,,,66499.1,,66545.1,2021-11-03T20:36:27.134Z,66570.543,1635969522,full,ni_sequenzen,NI_Sequenzen,14,4,,,,,,,,,,,,
,Move,canvas.Screen,0_3_0_4_0_14,-999,skipped,,66549.79999999999,,,66499.1,,66550,2021-11-03T20:36:27.139Z,66570.543,1635969522,full,ni_sequenzen,NI_Sequenzen,15,4,,,,,,,,,,,,
,Loop,flow.Loop,0_3_0_4_0,-999,completion,,63636,63639.621,63656.277,66499.1,2842.823000000004,66550.29999999999,2021-11-03T20:36:27.139Z,66570.543,1635969522,full,ni_sequenzen,NI_Sequenzen,,4,,,,,,,,,,,,
,Feedback,canvas.Screen,0_3_0_4_1,,timeout,,66553.6,66537.231,66570.543,70550.764,4030.0999999999913,70552.29999999999,2021-11-03T20:36:31.141Z,70600.643,1635969522,full,ni_sequenzen,NI_Sequenzen,,4,,,,,,,,,,,,
,Trial,flow.Sequence,0_3_0_4,,completion,,63624.5,63639.621,63656.277,70550.764,6894.486999999994,70552.70000000001,2021-11-03T20:36:31.142Z,70617.268,1635969522,full,ni_sequenzen,NI_Sequenzen,,4,,,,,,,,,,,,
,Move,canvas.Screen,0_3_0_5_0_0,down,response,,70606.5,70600.643,70617.268,71632.9,1015.6319999999978,71633.6,2021-11-03T20:36:32.223Z,71649.708,1635969522,full,ni_sequenzen,NI_Sequenzen,1,5,,,,,,,,,,,,
,Move,canvas.Screen,0_3_0_5_0_1,left,response,,71636.79999999999,71632.994,71649.708,72617.9,968.1919999999955,72619.29999999999,2021-11-03T20:36:33.208Z,72649.115,1635969522,full,ni_sequenzen,NI_Sequenzen,2,5,,,,,,,,,,,,
,Move,canvas.Screen,0_3_0_5_0_2,right,response,,72634.6,72632.179,72649.115,73243.4,594.2849999999889,73244.79999999999,2021-11-03T20:36:33.834Z,73265.114,1635969522,full,ni_sequenzen,NI_Sequenzen,3,5,,,,,,,,,,,,
,Move,canvas.Screen,0_3_0_5_0_3,right,response,,73257.1,73248.367,73265.114,74240.6,975.4860000000044,74241.9,2021-11-03T20:36:34.831Z,74364.149,1635969522,full,ni_sequenzen,NI_Sequenzen,4,5,,,,,,,,,,,,
,Move,canvas.Screen,0_3_0_5_0_4,-999,skipped,,74259.9,,,74240.6,,74260.29999999999,2021-11-03T20:36:34.850Z,74364.149,1635969522,full,ni_sequenzen,NI_Sequenzen,5,5,,,,,,,,,,,,
,Move,canvas.Screen,0_3_0_5_0_5,-999,skipped,,74274,,,74240.6,,74274.4,2021-11-03T20:36:34.864Z,74364.149,1635969522,full,ni_sequenzen,NI_Sequenzen,6,5,,,,,,,,,,,,
,Move,canvas.Screen,0_3_0_5_0_6,-999,skipped,,74286.1,,,74240.6,,74286.5,2021-11-03T20:36:34.876Z,74364.149,1635969522,full,ni_sequenzen,NI_Sequenzen,7,5,,,,,,,,,,,,
,Move,canvas.Screen,0_3_0_5_0_7,-999,skipped,,74298.6,,,74240.6,,74299,2021-11-03T20:36:34.888Z,74364.149,1635969522,full,ni_sequenzen,NI_Sequenzen,8,5,,,,,,,,,,,,
,Move,canvas.Screen,0_3_0_5_0_8,-999,skipped,,74312.5,,,74240.6,,74312.79999999999,2021-11-03T20:36:34.902Z,74364.149,1635969522,full,ni_sequenzen,NI_Sequenzen,9,5,,,,,,,,,,,,
,Move,canvas.Screen,0_3_0_5_0_9,-999,skipped,,74323.6,,,74240.6,,74324,2021-11-03T20:36:34.913Z,74364.149,1635969522,full,ni_sequenzen,NI_Sequenzen,10,5,,,,,,,,,,,,
,Move,canvas.Screen,0_3_0_5_0_10,-999,skipped,,74336.4,,,74240.6,,74336.79999999999,2021-11-03T20:36:34.926Z,74364.149,1635969522,full,ni_sequenzen,NI_Sequenzen,11,5,,,,,,,,,,,,
,Move,canvas.Screen,0_3_0_5_0_11,-999,skipped,,74343.1,,,74240.6,,74343.20000000001,2021-11-03T20:36:34.932Z,74364.149,1635969522,full,ni_sequenzen,NI_Sequenzen,12,5,,,,,,,,,,,,
,Move,canvas.Screen,0_3_0_5_0_12,-999,skipped,,74347.5,,,74240.6,,74347.6,2021-11-03T20:36:34.937Z,74364.149,1635969522,full,ni_sequenzen,NI_Sequenzen,13,5,,,,,,,,,,,,
,Move,canvas.Screen,0_3_0_5_0_13,-999,skipped,,74350.9,,,74240.6,,74351,2021-11-03T20:36:34.940Z,74364.149,1635969522,full,ni_sequenzen,NI_Sequenzen,14,5,,,,,,,,,,,,
,Move,canvas.Screen,0_3_0_5_0_14,-999,skipped,,74354.20000000001,,,74240.6,,74354.29999999999,2021-11-03T20:36:34.943Z,74364.149,1635969522,full,ni_sequenzen,NI_Sequenzen,15,5,,,,,,,,,,,,
,Loop,flow.Loop,0_3_0_5_0,-999,completion,,70595.5,70600.643,70617.268,74240.6,3623.3320000000094,74354.5,2021-11-03T20:36:34.944Z,74364.149,1635969522,full,ni_sequenzen,NI_Sequenzen,,5,,,,,,,,,,,,
,Feedback,canvas.Screen,0_3_0_5_1,,timeout,,74358,74347.42,74364.149,78344.372,4030.030999999988,78346.1,2021-11-03T20:36:38.935Z,78394.18,1635969522,full,ni_sequenzen,NI_Sequenzen,,5,,,,,,,,,,,,
,Trial,flow.Sequence,0_3_0_5,,completion,,70553.70000000001,70600.643,70617.268,78344.372,7727.104000000007,78346.5,2021-11-03T20:36:38.936Z,78410.848,1635969522,full,ni_sequenzen,NI_Sequenzen,,5,,,,,,,,,,,,
,Move,canvas.Screen,0_3_0_6_0_0,left,response,,78396.1,78394.18,78410.848,80254.29999999999,1843.4519999999902,80255.6,2021-11-03T20:36:40.845Z,80276.029,1635969522,full,ni_sequenzen,NI_Sequenzen,1,6,,,,,,,,,,,,
,Move,canvas.Screen,0_3_0_6_0_1,down,response,,80267,80259.213,80276.029,80600.1,324.0710000000108,80601.70000000001,2021-11-03T20:36:41.191Z,80642.372,1635969522,full,ni_sequenzen,NI_Sequenzen,2,6,,,,,,,,,,,,
,Move,canvas.Screen,0_3_0_6_0_2,down,response,,80614.20000000001,80609.028,80642.372,81178.6,536.2280000000028,81180,2021-11-03T20:36:41.769Z,81208.571,1635969522,full,ni_sequenzen,NI_Sequenzen,3,6,,,,,,,,,,,,
,Move,canvas.Screen,0_3_0_6_0_3,left,response,,81192.29999999999,81191.834,81208.571,81523.4,314.8289999999979,81524.79999999999,2021-11-03T20:36:42.114Z,81624.868,1635969522,full,ni_sequenzen,NI_Sequenzen,4,6,,,,,,,,,,,,
,Move,canvas.Screen,0_3_0_6_0_4,-999,skipped,,81537.20000000001,,,81523.4,,81537.6,2021-11-03T20:36:42.127Z,81624.868,1635969522,full,ni_sequenzen,NI_Sequenzen,5,6,,,,,,,,,,,,
,Move,canvas.Screen,0_3_0_6_0_5,-999,skipped,,81551.29999999999,,,81523.4,,81551.70000000001,2021-11-03T20:36:42.141Z,81624.868,1635969522,full,ni_sequenzen,NI_Sequenzen,6,6,,,,,,,,,,,,
,Move,canvas.Screen,0_3_0_6_0_6,-999,skipped,,81567.20000000001,,,81523.4,,81567.5,2021-11-03T20:36:42.157Z,81624.868,1635969522,full,ni_sequenzen,NI_Sequenzen,7,6,,,,,,,,,,,,
,Move,canvas.Screen,0_3_0_6_0_7,-999,skipped,,81579.1,,,81523.4,,81579.5,2021-11-03T20:36:42.169Z,81624.868,1635969522,full,ni_sequenzen,NI_Sequenzen,8,6,,,,,,,,,,,,
,Move,canvas.Screen,0_3_0_6_0_8,-999,skipped,,81590.6,,,81523.4,,81590.9,2021-11-03T20:36:42.180Z,81624.868,1635969522,full,ni_sequenzen,NI_Sequenzen,9,6,,,,,,,,,,,,
,Move,canvas.Screen,0_3_0_6_0_9,-999,skipped,,81601.70000000001,,,81523.4,,81601.9,2021-11-03T20:36:42.191Z,81624.868,1635969522,full,ni_sequenzen,NI_Sequenzen,10,6,,,,,,,,,,,,
,Move,canvas.Screen,0_3_0_6_0_10,-999,skipped,,81605.29999999999,,,81523.4,,81605.4,2021-11-03T20:36:42.194Z,81624.868,1635969522,full,ni_sequenzen,NI_Sequenzen,11,6,,,,,,,,,,,,
,Move,canvas.Screen,0_3_0_6_0_11,-999,skipped,,81608.70000000001,,,81523.4,,81608.79999999999,2021-11-03T20:36:42.198Z,81624.868,1635969522,full,ni_sequenzen,NI_Sequenzen,12,6,,,,,,,,,,,,
,Move,canvas.Screen,0_3_0_6_0_12,-999,skipped,,81612.20000000001,,,81523.4,,81612.4,2021-11-03T20:36:42.201Z,81624.868,1635969522,full,ni_sequenzen,NI_Sequenzen,13,6,,,,,,,,,,,,
,Move,canvas.Screen,0_3_0_6_0_13,-999,skipped,,81616.29999999999,,,81523.4,,81616.4,2021-11-03T20:36:42.206Z,81624.868,1635969522,full,ni_sequenzen,NI_Sequenzen,14,6,,,,,,,,,,,,
,Move,canvas.Screen,0_3_0_6_0_14,-999,skipped,,81619.70000000001,,,81523.4,,81619.79999999999,2021-11-03T20:36:42.209Z,81624.868,1635969522,full,ni_sequenzen,NI_Sequenzen,15,6,,,,,,,,,,,,
,Loop,flow.Loop,0_3_0_6_0,-999,completion,,78391.70000000001,78394.18,78410.848,81523.4,3112.551999999996,81620,2021-11-03T20:36:42.209Z,81624.868,1635969522,full,ni_sequenzen,NI_Sequenzen,,6,,,,,,,,,,,,
,Feedback,canvas.Screen,0_3_0_6_1,,timeout,,81623.1,81608.164,81624.868,85604.972,4030.081999999995,85606.4,2021-11-03T20:36:46.196Z,85654.95,1635969522,full,ni_sequenzen,NI_Sequenzen,,6,,,,,,,,,,,,
,Trial,flow.Sequence,0_3_0_6,,completion,,78347.5,78394.18,78410.848,85604.972,7194.123999999996,85607,2021-11-03T20:36:46.196Z,85688.229,1635969522,full,ni_sequenzen,NI_Sequenzen,,6,,,,,,,,,,,,
,Move,canvas.Screen,0_3_0_7_0_0,down,response,,85664.1,85654.95,85688.229,86517,828.7709999999934,86518.29999999999,2021-11-03T20:36:47.107Z,86537.559,1635969522,full,ni_sequenzen,NI_Sequenzen,1,7,,,,,,,,,,,,
,Move,canvas.Screen,0_3_0_7_0_1,right,response,,86530.79999999999,86520.834,86537.559,87058.6,521.041000000012,87059.6,2021-11-03T20:36:47.649Z,87070.362,1635969522,full,ni_sequenzen,NI_Sequenzen,2,7,,,,,,,,,,,,
,Move,canvas.Screen,0_3_0_7_0_2,down,response,,87063.9,87053.771,87070.362,87615.79999999999,545.4379999999946,87616.5,2021-11-03T20:36:48.206Z,87636.598,1635969522,full,ni_sequenzen,NI_Sequenzen,3,7,,,,,,,,,,,,
,Move,canvas.Screen,0_3_0_7_0_3,right,response,,87620.70000000001,87619.916,87636.598,87961,324.40200000000186,87962.1,2021-11-03T20:36:48.551Z,88019.589,1635969522,full,ni_sequenzen,NI_Sequenzen,4,7,,,,,,,,,,,,
,Move,canvas.Screen,0_3_0_7_0_4,-999,skipped,,87966.4,,,87961,,87966.70000000001,2021-11-03T20:36:48.556Z,88019.589,1635969522,full,ni_sequenzen,NI_Sequenzen,5,7,,,,,,,,,,,,
,Move,canvas.Screen,0_3_0_7_0_5,-999,skipped,,87970.29999999999,,,87961,,87970.4,2021-11-03T20:36:48.560Z,88019.589,1635969522,full,ni_sequenzen,NI_Sequenzen,6,7,,,,,,,,,,,,
,Move,canvas.Screen,0_3_0_7_0_6,-999,skipped,,87974.29999999999,,,87961,,87974.4,2021-11-03T20:36:48.564Z,88019.589,1635969522,full,ni_sequenzen,NI_Sequenzen,7,7,,,,,,,,,,,,
,Move,canvas.Screen,0_3_0_7_0_7,-999,skipped,,87978.5,,,87961,,87978.6,2021-11-03T20:36:48.568Z,88019.589,1635969522,full,ni_sequenzen,NI_Sequenzen,8,7,,,,,,,,,,,,
,Move,canvas.Screen,0_3_0_7_0_8,-999,skipped,,87981.9,,,87961,,87981.9,2021-11-03T20:36:48.571Z,88019.589,1635969522,full,ni_sequenzen,NI_Sequenzen,9,7,,,,,,,,,,,,
,Move,canvas.Screen,0_3_0_7_0_9,-999,skipped,,87985.4,,,87961,,87985.4,2021-11-03T20:36:48.575Z,88019.589,1635969522,full,ni_sequenzen,NI_Sequenzen,10,7,,,,,,,,,,,,
,Move,canvas.Screen,0_3_0_7_0_10,-999,skipped,,87989.29999999999,,,87961,,87989.5,2021-11-03T20:36:48.579Z,88019.589,1635969522,full,ni_sequenzen,NI_Sequenzen,11,7,,,,,,,,,,,,
,Move,canvas.Screen,0_3_0_7_0_11,-999,skipped,,87993.29999999999,,,87961,,87993.4,2021-11-03T20:36:48.583Z,88019.589,1635969522,full,ni_sequenzen,NI_Sequenzen,12,7,,,,,,,,,,,,
,Move,canvas.Screen,0_3_0_7_0_12,-999,skipped,,87998.79999999999,,,87961,,87999,2021-11-03T20:36:48.588Z,88019.589,1635969522,full,ni_sequenzen,NI_Sequenzen,13,7,,,,,,,,,,,,
,Move,canvas.Screen,0_3_0_7_0_13,-999,skipped,,88002.6,,,87961,,88002.70000000001,2021-11-03T20:36:48.592Z,88019.589,1635969522,full,ni_sequenzen,NI_Sequenzen,14,7,,,,,,,,,,,,
,Move,canvas.Screen,0_3_0_7_0_14,-999,skipped,,88006.79999999999,,,87961,,88006.9,2021-11-03T20:36:48.596Z,88019.589,1635969522,full,ni_sequenzen,NI_Sequenzen,15,7,,,,,,,,,,,,
,Loop,flow.Loop,0_3_0_7_0,-999,completion,,85651.5,85654.95,85688.229,87961,2272.7709999999934,88007.20000000001,2021-11-03T20:36:48.596Z,88019.589,1635969522,full,ni_sequenzen,NI_Sequenzen,,7,,,,,,,,,,,,
,Feedback,canvas.Screen,0_3_0_7_1,,timeout,,88010,88002.963,88019.589,92000.185,4030.0889999999927,92001.6,2021-11-03T20:36:52.591Z,92049.678,1635969522,full,ni_sequenzen,NI_Sequenzen,,7,,,,,,,,,,,,
,Trial,flow.Sequence,0_3_0_7,,completion,,85608,85654.95,85688.229,92000.185,6311.955999999991,92002.1,2021-11-03T20:36:52.591Z,92066.326,1635969522,full,ni_sequenzen,NI_Sequenzen,,7,,,,,,,,,,,,
,Move,canvas.Screen,0_3_0_8_0_0,down,response,,92060.70000000001,92049.678,92066.326,92857.9,791.5739999999932,92859.4,2021-11-03T20:36:53.448Z,92898.971,1635969522,full,ni_sequenzen,NI_Sequenzen,1,8,,,,,,,,,,,,
,Move,canvas.Screen,0_3_0_8_0_1,right,response,,92868.9,92865.581,92898.971,93387.20000000001,488.22900000000664,93388.6,2021-11-03T20:36:53.978Z,93415.644,1635969522,full,ni_sequenzen,NI_Sequenzen,2,8,,,,,,,,,,,,
,Move,canvas.Screen,0_3_0_8_0_2,right,response,,93399.4,93398.496,93415.644,93647.70000000001,232.0560000000114,93649,2021-11-03T20:36:54.238Z,93665.011,1635969522,full,ni_sequenzen,NI_Sequenzen,3,8,,,,,,,,,,,,
,Move,canvas.Screen,0_3_0_8_0_3,down,response,,93658.4,93648.34,93665.011,94040.79999999999,375.78899999998976,94042.1,2021-11-03T20:36:54.631Z,94114.594,1635969522,full,ni_sequenzen,NI_Sequenzen,4,8,,,,,,,,,,,,
,Move,canvas.Screen,0_3_0_8_0_4,-999,skipped,,94051.5,,,94040.79999999999,,94052,2021-11-03T20:36:54.641Z,94114.594,1635969522,full,ni_sequenzen,NI_Sequenzen,5,8,,,,,,,,,,,,
,Move,canvas.Screen,0_3_0_8_0_5,-999,skipped,,94060.79999999999,,,94040.79999999999,,94061.20000000001,2021-11-03T20:36:54.650Z,94114.594,1635969522,full,ni_sequenzen,NI_Sequenzen,6,8,,,,,,,,,,,,
,Move,canvas.Screen,0_3_0_8_0_6,-999,skipped,,94069.6,,,94040.79999999999,,94070,2021-11-03T20:36:54.659Z,94114.594,1635969522,full,ni_sequenzen,NI_Sequenzen,7,8,,,,,,,,,,,,
,Move,canvas.Screen,0_3_0_8_0_7,-999,skipped,,94080.4,,,94040.79999999999,,94080.5,2021-11-03T20:36:54.670Z,94114.594,1635969522,full,ni_sequenzen,NI_Sequenzen,8,8,,,,,,,,,,,,
,Move,canvas.Screen,0_3_0_8_0_8,-999,skipped,,94083.29999999999,,,94040.79999999999,,94083.4,2021-11-03T20:36:54.673Z,94114.594,1635969522,full,ni_sequenzen,NI_Sequenzen,9,8,,,,,,,,,,,,
,Move,canvas.Screen,0_3_0_8_0_9,-999,skipped,,94086.1,,,94040.79999999999,,94086.1,2021-11-03T20:36:54.675Z,94114.594,1635969522,full,ni_sequenzen,NI_Sequenzen,10,8,,,,,,,,,,,,
,Move,canvas.Screen,0_3_0_8_0_10,-999,skipped,,94089.29999999999,,,94040.79999999999,,94089.4,2021-11-03T20:36:54.678Z,94114.594,1635969522,full,ni_sequenzen,NI_Sequenzen,11,8,,,,,,,,,,,,
,Move,canvas.Screen,0_3_0_8_0_11,-999,skipped,,94093.70000000001,,,94040.79999999999,,94093.79999999999,2021-11-03T20:36:54.683Z,94114.594,1635969522,full,ni_sequenzen,NI_Sequenzen,12,8,,,,,,,,,,,,
,Move,canvas.Screen,0_3_0_8_0_12,-999,skipped,,94097.1,,,94040.79999999999,,94097.20000000001,2021-11-03T20:36:54.686Z,94114.594,1635969522,full,ni_sequenzen,NI_Sequenzen,13,8,,,,,,,,,,,,
,Move,canvas.Screen,0_3_0_8_0_13,-999,skipped,,94100.4,,,94040.79999999999,,94100.5,2021-11-03T20:36:54.690Z,94114.594,1635969522,full,ni_sequenzen,NI_Sequenzen,14,8,,,,,,,,,,,,
,Move,canvas.Screen,0_3_0_8_0_14,-999,skipped,,94104.20000000001,,,94040.79999999999,,94104.29999999999,2021-11-03T20:36:54.693Z,94114.594,1635969522,full,ni_sequenzen,NI_Sequenzen,15,8,,,,,,,,,,,,
,Loop,flow.Loop,0_3_0_8_0,-999,completion,,92049.4,92049.678,92066.326,94040.79999999999,1974.4739999999874,94104.5,2021-11-03T20:36:54.694Z,94114.594,1635969522,full,ni_sequenzen,NI_Sequenzen,,8,,,,,,,,,,,,
,Feedback,canvas.Screen,0_3_0_8_1,,timeout,,94107.4,94097.967,94114.594,98094.66,3996.718000000008,98095.6,2021-11-03T20:36:58.685Z,98111.312,1635969522,full,ni_sequenzen,NI_Sequenzen,,8,,,,,,,,,,,,
,Trial,flow.Sequence,0_3_0_8,,completion,,92003.20000000001,92049.678,92066.326,98094.66,6028.334000000003,98095.79999999999,2021-11-03T20:36:58.685Z,98127.97,1635969522,full,ni_sequenzen,NI_Sequenzen,,8,,,,,,,,,,,,
,Move,canvas.Screen,0_3_0_9_0_0,down,response,,98115.79999999999,98111.312,98127.97,99513,1385.0299999999988,99513.79999999999,2021-11-03T20:37:00.103Z,99526.815,1635969522,full,ni_sequenzen,NI_Sequenzen,1,9,,,,,,,,,,,,
,Move,canvas.Screen,0_3_0_9_0_1,right,response,,99518.6,99510.101,99526.815,99946.9,420.08499999999185,99948,2021-11-03T20:37:00.537Z,99993.102,1635969522,full,ni_sequenzen,NI_Sequenzen,2,9,,,,,,,,,,,,
,Move,canvas.Screen,0_3_0_9_0_2,right,response,,99958.1,99943.124,99993.102,100263.6,270.49800000000687,100264.29999999999,2021-11-03T20:37:00.853Z,100276.21,1635969522,full,ni_sequenzen,NI_Sequenzen,3,9,,,,,,,,,,,,
,Move,canvas.Screen,0_3_0_9_0_3,down,response,,100268.4,100259.554,100276.21,100541.79999999999,265.58999999998196,100543.29999999999,2021-11-03T20:37:01.132Z,100642.577,1635969522,full,ni_sequenzen,NI_Sequenzen,4,9,,,,,,,,,,,,
,Move,canvas.Screen,0_3_0_9_0_4,-999,skipped,,100554.1,,,100541.79999999999,,100554.70000000001,2021-11-03T20:37:01.144Z,100642.577,1635969522,full,ni_sequenzen,NI_Sequenzen,5,9,,,,,,,,,,,,
,Move,canvas.Screen,0_3_0_9_0_5,-999,skipped,,100565.5,,,100541.79999999999,,100565.9,2021-11-03T20:37:01.155Z,100642.577,1635969522,full,ni_sequenzen,NI_Sequenzen,6,9,,,,,,,,,,,,
,Move,canvas.Screen,0_3_0_9_0_6,-999,skipped,,100578.29999999999,,,100541.79999999999,,100578.70000000001,2021-11-03T20:37:01.168Z,100642.577,1635969522,full,ni_sequenzen,NI_Sequenzen,7,9,,,,,,,,,,,,
,Move,canvas.Screen,0_3_0_9_0_7,-999,skipped,,100589.5,,,100541.79999999999,,100589.79999999999,2021-11-03T20:37:01.179Z,100642.577,1635969522,full,ni_sequenzen,NI_Sequenzen,8,9,,,,,,,,,,,,
,Move,canvas.Screen,0_3_0_9_0_8,-999,skipped,,100601.1,,,100541.79999999999,,100601.5,2021-11-03T20:37:01.191Z,100642.577,1635969522,full,ni_sequenzen,NI_Sequenzen,9,9,,,,,,,,,,,,
,Move,canvas.Screen,0_3_0_9_0_9,-999,skipped,,100614,,,100541.79999999999,,100614.4,2021-11-03T20:37:01.204Z,100642.577,1635969522,full,ni_sequenzen,NI_Sequenzen,10,9,,,,,,,,,,,,
,Move,canvas.Screen,0_3_0_9_0_10,-999,skipped,,100622,,,100541.79999999999,,100622.1,2021-11-03T20:37:01.211Z,100642.577,1635969522,full,ni_sequenzen,NI_Sequenzen,11,9,,,,,,,,,,,,
,Move,canvas.Screen,0_3_0_9_0_11,-999,skipped,,100625.5,,,100541.79999999999,,100625.6,2021-11-03T20:37:01.215Z,100642.577,1635969522,full,ni_sequenzen,NI_Sequenzen,12,9,,,,,,,,,,,,
,Move,canvas.Screen,0_3_0_9_0_12,-999,skipped,,100629.70000000001,,,100541.79999999999,,100629.79999999999,2021-11-03T20:37:01.219Z,100642.577,1635969522,full,ni_sequenzen,NI_Sequenzen,13,9,,,,,,,,,,,,
,Move,canvas.Screen,0_3_0_9_0_13,-999,skipped,,100633.20000000001,,,100541.79999999999,,100633.20000000001,2021-11-03T20:37:01.222Z,100642.577,1635969522,full,ni_sequenzen,NI_Sequenzen,14,9,,,,,,,,,,,,
,Move,canvas.Screen,0_3_0_9_0_14,-999,skipped,,100636.4,,,100541.79999999999,,100636.4,2021-11-03T20:37:01.226Z,100642.577,1635969522,full,ni_sequenzen,NI_Sequenzen,15,9,,,,,,,,,,,,
,Loop,flow.Loop,0_3_0_9_0,-999,completion,,98110.79999999999,98111.312,98127.97,100541.79999999999,2413.829999999987,100636.70000000001,2021-11-03T20:37:01.226Z,100642.577,1635969522,full,ni_sequenzen,NI_Sequenzen,,9,,,,,,,,,,,,
,Feedback,canvas.Screen,0_3_0_9_1,,timeout,,100639.4,100625.932,100642.577,104622.712,4279.851999999999,104624.4,2021-11-03T20:37:05.213Z,104922.429,1635969522,full,ni_sequenzen,NI_Sequenzen,,9,,,,,,,,,,,,
,Trial,flow.Sequence,0_3_0_9,,completion,,98096.1,98111.312,98127.97,104622.712,6494.741999999998,104624.70000000001,2021-11-03T20:37:05.214Z,104972.416,1635969522,full,ni_sequenzen,NI_Sequenzen,,9,,,,,,,,,,,,
