meta,sender,sender_type,sender_id,response,ended_on,instrCount,time_run,time_render,time_show,time_end,duration,time_commit,timestamp,time_switch,openLabId,type,task,project,move,trialN,blockN_Train,blockN,moveCount,currPP,points,movesTrial,visitedFields,diff,reward,Strategie,Zweck,Probleme
[object Object],Screen_1,canvas.Screen,0_0_0_0,cont,response,1,686.6999999999534,671.834,738.444,39091.80000000005,38353.35600000004,39099.5,2021-10-26T19:09:46.793Z,39216.858,1635275335,full,ni_sequenzen,NI_Sequenzen,,,,,,,,,,,,,,
,Screen_2,canvas.Screen,0_0_0_1,cont,response,1,39213.59999999986,39200.24,39216.858,48253.59999999986,9036.74199999986,48254.80000000005,2021-10-26T19:09:55.948Z,48373.306,1635275335,full,ni_sequenzen,NI_Sequenzen,,,,,,,,,,,,,,
,Screen_3,canvas.Screen,0_0_0_2,cont,response,1,48340,48324.83,48373.306,62220,13846.694000000003,62221.30000000005,2021-10-26T19:10:09.915Z,62243.958,1635275335,full,ni_sequenzen,NI_Sequenzen,,,,,,,,,,,,,,
,Screen_4,canvas.Screen,0_0_0_3,cont,response,1,62229.59999999986,62227.933,62243.958,65367.09999999986,3123.1419999998616,65368.39999999991,2021-10-26T19:10:13.062Z,65507.322,1635275335,full,ni_sequenzen,NI_Sequenzen,,,,,,,,,,,,,,
,Sequence,flow.Sequence,0_0_0,,completion,1,641.5,671.834,738.444,65367.09999999986,64628.65599999986,65372.30000000005,2021-10-26T19:10:13.066Z,65507.322,1635275335,full,ni_sequenzen,NI_Sequenzen,,,,,,,,,,,,,,
,Screen_1,canvas.Screen,0_0_1_0,,skipped,2,65377.30000000005,,,65377.30000000005,,65377.59999999986,2021-10-26T19:10:13.071Z,65507.322,1635275335,full,ni_sequenzen,NI_Sequenzen,,,,,,,,,,,,,,
,Screen_2,canvas.Screen,0_0_1_1,,skipped,2,65381.09999999986,,,65377.30000000005,,65381.30000000005,2021-10-26T19:10:13.075Z,65507.322,1635275335,full,ni_sequenzen,NI_Sequenzen,,,,,,,,,,,,,,
,Screen_3,canvas.Screen,0_0_1_2,,skipped,2,65384.80000000005,,,65377.30000000005,,65385.09999999986,2021-10-26T19:10:13.079Z,65507.322,1635275335,full,ni_sequenzen,NI_Sequenzen,,,,,,,,,,,,,,
,Screen_4,canvas.Screen,0_0_1_3,,skipped,2,65388.5,,,65377.30000000005,,65388.89999999991,2021-10-26T19:10:13.083Z,65507.322,1635275335,full,ni_sequenzen,NI_Sequenzen,,,,,,,,,,,,,,
,Sequence,flow.Sequence,0_0_1,,completion,2,65373.89999999991,,,65377.30000000005,,65389.5,2021-10-26T19:10:13.083Z,65507.322,1635275335,full,ni_sequenzen,NI_Sequenzen,,,,,,,,,,,,,,
,Screen_1,canvas.Screen,0_0_2_0,,skipped,3,65392.80000000005,,,65392.80000000005,,65393.09999999986,2021-10-26T19:10:13.087Z,65507.322,1635275335,full,ni_sequenzen,NI_Sequenzen,,,,,,,,,,,,,,
,Screen_2,canvas.Screen,0_0_2_1,,skipped,3,65395.80000000005,,,65392.80000000005,,65396.09999999986,2021-10-26T19:10:13.090Z,65507.322,1635275335,full,ni_sequenzen,NI_Sequenzen,,,,,,,,,,,,,,
,Screen_3,canvas.Screen,0_0_2_2,,skipped,3,65399,,,65392.80000000005,,65399.19999999995,2021-10-26T19:10:13.093Z,65507.322,1635275335,full,ni_sequenzen,NI_Sequenzen,,,,,,,,,,,,,,
,Screen_4,canvas.Screen,0_0_2_3,,skipped,3,65401.89999999991,,,65392.80000000005,,65402.09999999986,2021-10-26T19:10:13.096Z,65507.322,1635275335,full,ni_sequenzen,NI_Sequenzen,,,,,,,,,,,,,,
,Sequence,flow.Sequence,0_0_2,,completion,3,65390.59999999986,,,65392.80000000005,,65402.5,2021-10-26T19:10:13.096Z,65507.322,1635275335,full,ni_sequenzen,NI_Sequenzen,,,,,,,,,,,,,,
,Screen_1,canvas.Screen,0_0_3_0,,skipped,4,65405.69999999995,,,65405.69999999995,,65405.89999999991,2021-10-26T19:10:13.100Z,65507.322,1635275335,full,ni_sequenzen,NI_Sequenzen,,,,,,,,,,,,,,
,Screen_2,canvas.Screen,0_0_3_1,,skipped,4,65408.30000000005,,,65405.69999999995,,65410.59999999986,2021-10-26T19:10:13.104Z,65507.322,1635275335,full,ni_sequenzen,NI_Sequenzen,,,,,,,,,,,,,,
,Screen_3,canvas.Screen,0_0_3_2,,skipped,4,65411.80000000005,,,65405.69999999995,,65411.89999999991,2021-10-26T19:10:13.106Z,65507.322,1635275335,full,ni_sequenzen,NI_Sequenzen,,,,,,,,,,,,,,
,Screen_4,canvas.Screen,0_0_3_3,,skipped,4,65412.69999999995,,,65405.69999999995,,65412.80000000005,2021-10-26T19:10:13.107Z,65507.322,1635275335,full,ni_sequenzen,NI_Sequenzen,,,,,,,,,,,,,,
,Sequence,flow.Sequence,0_0_3,,completion,4,65403.5,,,65405.69999999995,,65412.89999999991,2021-10-26T19:10:13.107Z,65507.322,1635275335,full,ni_sequenzen,NI_Sequenzen,,,,,,,,,,,,,,
,Screen_1,canvas.Screen,0_0_4_0,,skipped,5,65413.89999999991,,,65413.89999999991,,65413.89999999991,2021-10-26T19:10:13.108Z,65507.322,1635275335,full,ni_sequenzen,NI_Sequenzen,,,,,,,,,,,,,,
,Screen_2,canvas.Screen,0_0_4_1,,skipped,5,65414.5,,,65413.89999999991,,65414.59999999986,2021-10-26T19:10:13.108Z,65507.322,1635275335,full,ni_sequenzen,NI_Sequenzen,,,,,,,,,,,,,,
,Screen_3,canvas.Screen,0_0_4_2,,skipped,5,65415.30000000005,,,65413.89999999991,,65415.39999999991,2021-10-26T19:10:13.109Z,65507.322,1635275335,full,ni_sequenzen,NI_Sequenzen,,,,,,,,,,,,,,
,Screen_4,canvas.Screen,0_0_4_3,,skipped,5,65416.19999999995,,,65413.89999999991,,65416.30000000005,2021-10-26T19:10:13.110Z,65507.322,1635275335,full,ni_sequenzen,NI_Sequenzen,,,,,,,,,,,,,,
,Sequence,flow.Sequence,0_0_4,,completion,5,65413.19999999995,,,65413.89999999991,,65416.39999999991,2021-10-26T19:10:13.110Z,65507.322,1635275335,full,ni_sequenzen,NI_Sequenzen,,,,,,,,,,,,,,
,Screen_1,canvas.Screen,0_0_5_0,,skipped,6,65417.30000000005,,,65417.30000000005,,65417.39999999991,2021-10-26T19:10:13.111Z,65507.322,1635275335,full,ni_sequenzen,NI_Sequenzen,,,,,,,,,,,,,,
,Screen_2,canvas.Screen,0_0_5_1,,skipped,6,65418.09999999986,,,65417.30000000005,,65418.09999999986,2021-10-26T19:10:13.112Z,65507.322,1635275335,full,ni_sequenzen,NI_Sequenzen,,,,,,,,,,,,,,
,Screen_3,canvas.Screen,0_0_5_2,,skipped,6,65418.89999999991,,,65417.30000000005,,65418.89999999991,2021-10-26T19:10:13.113Z,65507.322,1635275335,full,ni_sequenzen,NI_Sequenzen,,,,,,,,,,,,,,
,Screen_4,canvas.Screen,0_0_5_3,,skipped,6,65419.69999999995,,,65417.30000000005,,65419.80000000005,2021-10-26T19:10:13.113Z,65507.322,1635275335,full,ni_sequenzen,NI_Sequenzen,,,,,,,,,,,,,,
,Sequence,flow.Sequence,0_0_5,,completion,6,65416.59999999986,,,65417.30000000005,,65419.80000000005,2021-10-26T19:10:13.114Z,65507.322,1635275335,full,ni_sequenzen,NI_Sequenzen,,,,,,,,,,,,,,
,Screen_1,canvas.Screen,0_0_6_0,,skipped,7,65420.80000000005,,,65420.80000000005,,65420.80000000005,2021-10-26T19:10:13.115Z,65507.322,1635275335,full,ni_sequenzen,NI_Sequenzen,,,,,,,,,,,,,,
,Screen_2,canvas.Screen,0_0_6_1,,skipped,7,65421.39999999991,,,65420.80000000005,,65421.5,2021-10-26T19:10:13.115Z,65507.322,1635275335,full,ni_sequenzen,NI_Sequenzen,,,,,,,,,,,,,,
,Screen_3,canvas.Screen,0_0_6_2,,skipped,7,65423.09999999986,,,65420.80000000005,,65423.19999999995,2021-10-26T19:10:13.117Z,65507.322,1635275335,full,ni_sequenzen,NI_Sequenzen,,,,,,,,,,,,,,
,Screen_4,canvas.Screen,0_0_6_3,,skipped,7,65424,,,65420.80000000005,,65424.09999999986,2021-10-26T19:10:13.118Z,65507.322,1635275335,full,ni_sequenzen,NI_Sequenzen,,,,,,,,,,,,,,
,Sequence,flow.Sequence,0_0_6,,completion,7,65420.19999999995,,,65420.80000000005,,65424.30000000005,2021-10-26T19:10:13.118Z,65507.322,1635275335,full,ni_sequenzen,NI_Sequenzen,,,,,,,,,,,,,,
,Screen_1,canvas.Screen,0_0_7_0,,skipped,8,65425.19999999995,,,65425.19999999995,,65425.30000000005,2021-10-26T19:10:13.119Z,65507.322,1635275335,full,ni_sequenzen,NI_Sequenzen,,,,,,,,,,,,,,
,Screen_2,canvas.Screen,0_0_7_1,,skipped,8,65426.09999999986,,,65425.19999999995,,65426.09999999986,2021-10-26T19:10:13.120Z,65507.322,1635275335,full,ni_sequenzen,NI_Sequenzen,,,,,,,,,,,,,,
,Screen_3,canvas.Screen,0_0_7_2,,skipped,8,65426.80000000005,,,65425.19999999995,,65426.80000000005,2021-10-26T19:10:13.121Z,65507.322,1635275335,full,ni_sequenzen,NI_Sequenzen,,,,,,,,,,,,,,
,Screen_4,canvas.Screen,0_0_7_3,,skipped,8,65427.59999999986,,,65425.19999999995,,65427.59999999986,2021-10-26T19:10:13.121Z,65507.322,1635275335,full,ni_sequenzen,NI_Sequenzen,,,,,,,,,,,,,,
,Sequence,flow.Sequence,0_0_7,,completion,8,65424.59999999986,,,65425.19999999995,,65427.69999999995,2021-10-26T19:10:13.121Z,65507.322,1635275335,full,ni_sequenzen,NI_Sequenzen,,,,,,,,,,,,,,
,Screen_1,canvas.Screen,0_0_8_0,,skipped,9,65428.59999999986,,,65428.69999999995,,65428.80000000005,2021-10-26T19:10:13.122Z,65507.322,1635275335,full,ni_sequenzen,NI_Sequenzen,,,,,,,,,,,,,,
,Screen_2,canvas.Screen,0_0_8_1,,skipped,9,65429.39999999991,,,65428.69999999995,,65429.39999999991,2021-10-26T19:10:13.123Z,65507.322,1635275335,full,ni_sequenzen,NI_Sequenzen,,,,,,,,,,,,,,
,Screen_3,canvas.Screen,0_0_8_2,,skipped,9,65430.19999999995,,,65428.69999999995,,65430.19999999995,2021-10-26T19:10:13.124Z,65507.322,1635275335,full,ni_sequenzen,NI_Sequenzen,,,,,,,,,,,,,,
,Screen_4,canvas.Screen,0_0_8_3,,skipped,9,65430.89999999991,,,65428.69999999995,,65431,2021-10-26T19:10:13.125Z,65507.322,1635275335,full,ni_sequenzen,NI_Sequenzen,,,,,,,,,,,,,,
,Sequence,flow.Sequence,0_0_8,,completion,9,65428.09999999986,,,65428.69999999995,,65431.09999999986,2021-10-26T19:10:13.125Z,65507.322,1635275335,full,ni_sequenzen,NI_Sequenzen,,,,,,,,,,,,,,
,Screen_1,canvas.Screen,0_0_9_0,,skipped,10,65432.09999999986,,,65432.09999999986,,65432.19999999995,2021-10-26T19:10:13.126Z,65507.322,1635275335,full,ni_sequenzen,NI_Sequenzen,,,,,,,,,,,,,,
,Screen_2,canvas.Screen,0_0_9_1,,skipped,10,65433,,,65432.09999999986,,65433,2021-10-26T19:10:13.127Z,65507.322,1635275335,full,ni_sequenzen,NI_Sequenzen,,,,,,,,,,,,,,
,Screen_3,canvas.Screen,0_0_9_2,,skipped,10,65433.69999999995,,,65432.09999999986,,65433.80000000005,2021-10-26T19:10:13.127Z,65507.322,1635275335,full,ni_sequenzen,NI_Sequenzen,,,,,,,,,,,,,,
,Screen_4,canvas.Screen,0_0_9_3,,skipped,10,65434.5,,,65432.09999999986,,65434.59999999986,2021-10-26T19:10:13.128Z,65507.322,1635275335,full,ni_sequenzen,NI_Sequenzen,,,,,,,,,,,,,,
,Sequence,flow.Sequence,0_0_9,,completion,10,65431.39999999991,,,65432.09999999986,,65434.69999999995,2021-10-26T19:10:13.128Z,65507.322,1635275335,full,ni_sequenzen,NI_Sequenzen,,,,,,,,,,,,,,
,Screen_1,canvas.Screen,0_0_10_0,,skipped,11,65436.80000000005,,,65436.80000000005,,65436.89999999991,2021-10-26T19:10:13.131Z,65507.322,1635275335,full,ni_sequenzen,NI_Sequenzen,,,,,,,,,,,,,,
,Screen_2,canvas.Screen,0_0_10_1,,skipped,11,65437.5,,,65436.80000000005,,65437.59999999986,2021-10-26T19:10:13.131Z,65507.322,1635275335,full,ni_sequenzen,NI_Sequenzen,,,,,,,,,,,,,,
,Screen_3,canvas.Screen,0_0_10_2,,skipped,11,65438.30000000005,,,65436.80000000005,,65438.39999999991,2021-10-26T19:10:13.132Z,65507.322,1635275335,full,ni_sequenzen,NI_Sequenzen,,,,,,,,,,,,,,
,Screen_4,canvas.Screen,0_0_10_3,,skipped,11,65439,,,65436.80000000005,,65439.09999999986,2021-10-26T19:10:13.133Z,65507.322,1635275335,full,ni_sequenzen,NI_Sequenzen,,,,,,,,,,,,,,
,Sequence,flow.Sequence,0_0_10,,completion,11,65435.89999999991,,,65436.80000000005,,65439.30000000005,2021-10-26T19:10:13.133Z,65507.322,1635275335,full,ni_sequenzen,NI_Sequenzen,,,,,,,,,,,,,,
,Screen_1,canvas.Screen,0_0_11_0,,skipped,12,65441.80000000005,,,65441.80000000005,,65441.80000000005,2021-10-26T19:10:13.136Z,65507.322,1635275335,full,ni_sequenzen,NI_Sequenzen,,,,,,,,,,,,,,
,Screen_2,canvas.Screen,0_0_11_1,,skipped,12,65442.89999999991,,,65441.80000000005,,65443,2021-10-26T19:10:13.137Z,65507.322,1635275335,full,ni_sequenzen,NI_Sequenzen,,,,,,,,,,,,,,
,Screen_3,canvas.Screen,0_0_11_2,,skipped,12,65443.89999999991,,,65441.80000000005,,65443.89999999991,2021-10-26T19:10:13.138Z,65507.322,1635275335,full,ni_sequenzen,NI_Sequenzen,,,,,,,,,,,,,,
,Screen_4,canvas.Screen,0_0_11_3,,skipped,12,65444.80000000005,,,65441.80000000005,,65444.80000000005,2021-10-26T19:10:13.139Z,65507.322,1635275335,full,ni_sequenzen,NI_Sequenzen,,,,,,,,,,,,,,
,Sequence,flow.Sequence,0_0_11,,completion,12,65440,,,65441.80000000005,,65445,2021-10-26T19:10:13.139Z,65507.322,1635275335,full,ni_sequenzen,NI_Sequenzen,,,,,,,,,,,,,,
,Screen_1,canvas.Screen,0_0_12_0,,skipped,13,65446.19999999995,,,65446.19999999995,,65446.30000000005,2021-10-26T19:10:13.140Z,65507.322,1635275335,full,ni_sequenzen,NI_Sequenzen,,,,,,,,,,,,,,
,Screen_2,canvas.Screen,0_0_12_1,,skipped,13,65447.09999999986,,,65446.19999999995,,65447.09999999986,2021-10-26T19:10:13.141Z,65507.322,1635275335,full,ni_sequenzen,NI_Sequenzen,,,,,,,,,,,,,,
,Screen_3,canvas.Screen,0_0_12_2,,skipped,13,65448.19999999995,,,65446.19999999995,,65448.30000000005,2021-10-26T19:10:13.142Z,65507.322,1635275335,full,ni_sequenzen,NI_Sequenzen,,,,,,,,,,,,,,
,Screen_4,canvas.Screen,0_0_12_3,,skipped,13,65449,,,65446.19999999995,,65449,2021-10-26T19:10:13.143Z,65507.322,1635275335,full,ni_sequenzen,NI_Sequenzen,,,,,,,,,,,,,,
,Sequence,flow.Sequence,0_0_12,,completion,13,65445.39999999991,,,65446.19999999995,,65449.09999999986,2021-10-26T19:10:13.143Z,65507.322,1635275335,full,ni_sequenzen,NI_Sequenzen,,,,,,,,,,,,,,
,Screen_1,canvas.Screen,0_0_13_0,,skipped,14,65450.09999999986,,,65450.09999999986,,65450.09999999986,2021-10-26T19:10:13.144Z,65507.322,1635275335,full,ni_sequenzen,NI_Sequenzen,,,,,,,,,,,,,,
,Screen_2,canvas.Screen,0_0_13_1,,skipped,14,65451.5,,,65450.09999999986,,65451.59999999986,2021-10-26T19:10:13.145Z,65507.322,1635275335,full,ni_sequenzen,NI_Sequenzen,,,,,,,,,,,,,,
,Screen_3,canvas.Screen,0_0_13_2,,skipped,14,65452.59999999986,,,65450.09999999986,,65452.59999999986,2021-10-26T19:10:13.146Z,65507.322,1635275335,full,ni_sequenzen,NI_Sequenzen,,,,,,,,,,,,,,
,Screen_4,canvas.Screen,0_0_13_3,,skipped,14,65453.5,,,65450.09999999986,,65453.5,2021-10-26T19:10:13.147Z,65507.322,1635275335,full,ni_sequenzen,NI_Sequenzen,,,,,,,,,,,,,,
,Sequence,flow.Sequence,0_0_13,,completion,14,65449.39999999991,,,65450.09999999986,,65453.59999999986,2021-10-26T19:10:13.147Z,65507.322,1635275335,full,ni_sequenzen,NI_Sequenzen,,,,,,,,,,,,,,
,Screen_1,canvas.Screen,0_0_14_0,,skipped,15,65454.59999999986,,,65454.69999999995,,65454.69999999995,2021-10-26T19:10:13.148Z,65507.322,1635275335,full,ni_sequenzen,NI_Sequenzen,,,,,,,,,,,,,,
,Screen_2,canvas.Screen,0_0_14_1,,skipped,15,65455.30000000005,,,65454.69999999995,,65455.39999999991,2021-10-26T19:10:13.149Z,65507.322,1635275335,full,ni_sequenzen,NI_Sequenzen,,,,,,,,,,,,,,
,Screen_3,canvas.Screen,0_0_14_2,,skipped,15,65456.09999999986,,,65454.69999999995,,65456.09999999986,2021-10-26T19:10:13.150Z,65507.322,1635275335,full,ni_sequenzen,NI_Sequenzen,,,,,,,,,,,,,,
,Screen_4,canvas.Screen,0_0_14_3,,skipped,15,65456.80000000005,,,65454.69999999995,,65456.80000000005,2021-10-26T19:10:13.151Z,65507.322,1635275335,full,ni_sequenzen,NI_Sequenzen,,,,,,,,,,,,,,
,Sequence,flow.Sequence,0_0_14,,completion,15,65454,,,65454.69999999995,,65457,2021-10-26T19:10:13.151Z,65507.322,1635275335,full,ni_sequenzen,NI_Sequenzen,,,,,,,,,,,,,,
,Screen_1,canvas.Screen,0_0_15_0,,skipped,16,65457.80000000005,,,65457.80000000005,,65457.89999999991,2021-10-26T19:10:13.152Z,65507.322,1635275335,full,ni_sequenzen,NI_Sequenzen,,,,,,,,,,,,,,
,Screen_2,canvas.Screen,0_0_15_1,,skipped,16,65459.09999999986,,,65457.80000000005,,65459.19999999995,2021-10-26T19:10:13.153Z,65507.322,1635275335,full,ni_sequenzen,NI_Sequenzen,,,,,,,,,,,,,,
,Screen_3,canvas.Screen,0_0_15_2,,skipped,16,65461.19999999995,,,65457.80000000005,,65461.39999999991,2021-10-26T19:10:13.155Z,65507.322,1635275335,full,ni_sequenzen,NI_Sequenzen,,,,,,,,,,,,,,
,Screen_4,canvas.Screen,0_0_15_3,,skipped,16,65470.19999999995,,,65457.80000000005,,65470.30000000005,2021-10-26T19:10:13.164Z,65507.322,1635275335,full,ni_sequenzen,NI_Sequenzen,,,,,,,,,,,,,,
,Sequence,flow.Sequence,0_0_15,,completion,16,65457.19999999995,,,65457.80000000005,,65470.39999999991,2021-10-26T19:10:13.164Z,65507.322,1635275335,full,ni_sequenzen,NI_Sequenzen,,,,,,,,,,,,,,
,Screen_1,canvas.Screen,0_0_16_0,,skipped,17,65471.69999999995,,,65471.69999999995,,65471.69999999995,2021-10-26T19:10:13.165Z,65507.322,1635275335,full,ni_sequenzen,NI_Sequenzen,,,,,,,,,,,,,,
,Screen_2,canvas.Screen,0_0_16_1,,skipped,17,65472.59999999986,,,65471.69999999995,,65472.69999999995,2021-10-26T19:10:13.166Z,65507.322,1635275335,full,ni_sequenzen,NI_Sequenzen,,,,,,,,,,,,,,
,Screen_3,canvas.Screen,0_0_16_2,,skipped,17,65473.5,,,65471.69999999995,,65473.59999999986,2021-10-26T19:10:13.167Z,65507.322,1635275335,full,ni_sequenzen,NI_Sequenzen,,,,,,,,,,,,,,
,Screen_4,canvas.Screen,0_0_16_3,,skipped,17,65474.30000000005,,,65471.69999999995,,65474.39999999991,2021-10-26T19:10:13.168Z,65507.322,1635275335,full,ni_sequenzen,NI_Sequenzen,,,,,,,,,,,,,,
,Sequence,flow.Sequence,0_0_16,,completion,17,65470.89999999991,,,65471.69999999995,,65474.5,2021-10-26T19:10:13.168Z,65507.322,1635275335,full,ni_sequenzen,NI_Sequenzen,,,,,,,,,,,,,,
,Screen_1,canvas.Screen,0_0_17_0,,skipped,18,65475.80000000005,,,65475.80000000005,,65475.89999999991,2021-10-26T19:10:13.170Z,65507.322,1635275335,full,ni_sequenzen,NI_Sequenzen,,,,,,,,,,,,,,
,Screen_2,canvas.Screen,0_0_17_1,,skipped,18,65476.59999999986,,,65475.80000000005,,65476.69999999995,2021-10-26T19:10:13.170Z,65507.322,1635275335,full,ni_sequenzen,NI_Sequenzen,,,,,,,,,,,,,,
,Screen_3,canvas.Screen,0_0_17_2,,skipped,18,65477.69999999995,,,65475.80000000005,,65477.69999999995,2021-10-26T19:10:13.171Z,65507.322,1635275335,full,ni_sequenzen,NI_Sequenzen,,,,,,,,,,,,,,
,Screen_4,canvas.Screen,0_0_17_3,,skipped,18,65478.39999999991,,,65475.80000000005,,65478.5,2021-10-26T19:10:13.172Z,65507.322,1635275335,full,ni_sequenzen,NI_Sequenzen,,,,,,,,,,,,,,
,Sequence,flow.Sequence,0_0_17,,completion,18,65474.89999999991,,,65475.80000000005,,65478.59999999986,2021-10-26T19:10:13.172Z,65507.322,1635275335,full,ni_sequenzen,NI_Sequenzen,,,,,,,,,,,,,,
,Screen_1,canvas.Screen,0_0_18_0,,skipped,19,65479.5,,,65479.5,,65479.59999999986,2021-10-26T19:10:13.173Z,65507.322,1635275335,full,ni_sequenzen,NI_Sequenzen,,,,,,,,,,,,,,
,Screen_2,canvas.Screen,0_0_18_1,,skipped,19,65480.09999999986,,,65479.5,,65480.19999999995,2021-10-26T19:10:13.174Z,65507.322,1635275335,full,ni_sequenzen,NI_Sequenzen,,,,,,,,,,,,,,
,Screen_3,canvas.Screen,0_0_18_2,,skipped,19,65480.80000000005,,,65479.5,,65480.89999999991,2021-10-26T19:10:13.175Z,65507.322,1635275335,full,ni_sequenzen,NI_Sequenzen,,,,,,,,,,,,,,
,Screen_4,canvas.Screen,0_0_18_3,,skipped,19,65481.5,,,65479.5,,65481.59999999986,2021-10-26T19:10:13.175Z,65507.322,1635275335,full,ni_sequenzen,NI_Sequenzen,,,,,,,,,,,,,,
,Sequence,flow.Sequence,0_0_18,,completion,19,65478.80000000005,,,65479.5,,65481.69999999995,2021-10-26T19:10:13.176Z,65507.322,1635275335,full,ni_sequenzen,NI_Sequenzen,,,,,,,,,,,,,,
,Screen_1,canvas.Screen,0_0_19_0,,skipped,20,65482.59999999986,,,65482.59999999986,,65482.69999999995,2021-10-26T19:10:13.176Z,65507.322,1635275335,full,ni_sequenzen,NI_Sequenzen,,,,,,,,,,,,,,
,Screen_2,canvas.Screen,0_0_19_1,,skipped,20,65483.30000000005,,,65482.59999999986,,65483.39999999991,2021-10-26T19:10:13.177Z,65507.322,1635275335,full,ni_sequenzen,NI_Sequenzen,,,,,,,,,,,,,,
,Screen_3,canvas.Screen,0_0_19_2,,skipped,20,65484.89999999991,,,65482.59999999986,,65485.19999999995,2021-10-26T19:10:13.179Z,65507.322,1635275335,full,ni_sequenzen,NI_Sequenzen,,,,,,,,,,,,,,
,Screen_4,canvas.Screen,0_0_19_3,,skipped,20,65486.19999999995,,,65482.59999999986,,65486.19999999995,2021-10-26T19:10:13.180Z,65507.322,1635275335,full,ni_sequenzen,NI_Sequenzen,,,,,,,,,,,,,,
,Sequence,flow.Sequence,0_0_19,,completion,20,65482.09999999986,,,65482.59999999986,,65486.39999999991,2021-10-26T19:10:13.180Z,65507.322,1635275335,full,ni_sequenzen,NI_Sequenzen,,,,,,,,,,,,,,
,Instructions_I,flow.Loop,0_0,,completion,,639.5,671.834,738.444,65482.59999999986,64744.15599999986,65486.5,2021-10-26T19:10:13.180Z,65507.322,1635275335,full,ni_sequenzen,NI_Sequenzen,,,,,,,,,,,,,,
,Move,canvas.Screen,0_1_0_0,right,response,,65502.09999999986,65491.185,65507.322,67847.09999999986,2339.77799999986,67848.59999999986,2021-10-26T19:10:15.542Z,67871.721,1635275335,full,ni_sequenzen,NI_Sequenzen,1,,,,,,,,,,,,,
,Move,canvas.Screen,0_1_0_1,down,response,,67854.8999999999,67855.276,67871.721,68706.80000000005,835.0790000000416,68708.09999999986,2021-10-26T19:10:16.402Z,68720.868,1635275335,full,ni_sequenzen,NI_Sequenzen,2,,,,,,,,,,,,,
,Move,canvas.Screen,0_1_0_2,left,response,,68715.30000000005,68704.295,68720.868,70643.59999999986,1922.731999999858,70644.80000000005,2021-10-26T19:10:18.339Z,70668.905,1635275335,full,ni_sequenzen,NI_Sequenzen,3,,,,,,,,,,,,,
,Move,canvas.Screen,0_1_0_3,down,response,,70648.8999999999,70635.954,70668.905,71352.3999999999,683.494999999908,71353.5,2021-10-26T19:10:19.047Z,71368.211,1635275335,full,ni_sequenzen,NI_Sequenzen,4,,,,,,,,,,,,,
,Move,canvas.Screen,0_1_0_4,left,response,,71357.80000000005,71351.746,71368.211,73367,1998.7890000000043,73368.09999999986,2021-10-26T19:10:21.062Z,73382.913,1635275335,full,ni_sequenzen,NI_Sequenzen,5,,,,,,,,,,,,,
,Move,canvas.Screen,0_1_0_5,down,response,,73372.09999999986,73366.67,73382.913,73940.09999999986,557.1869999998598,73941.09999999986,2021-10-26T19:10:21.635Z,73965.631,1635275335,full,ni_sequenzen,NI_Sequenzen,6,,,,,,,,,,,,,
,Move,canvas.Screen,0_1_0_6,down,response,,73945.19999999995,73932.421,73965.631,75486.19999999995,1520.5689999999595,75487.5,2021-10-26T19:10:23.181Z,75497.42,1635275335,full,ni_sequenzen,NI_Sequenzen,7,,,,,,,,,,,,,
,Move,canvas.Screen,0_1_0_7,down,response,,75492.09999999986,75481.012,75497.42,75779.5,282.08000000000175,75780.5,2021-10-26T19:10:23.474Z,75797.133,1635275335,full,ni_sequenzen,NI_Sequenzen,8,,,,,,,,,,,,,
,Move,canvas.Screen,0_1_0_8,right,response,,75784.59999999986,75780.582,75797.133,76128.59999999986,331.4669999998587,76130,2021-10-26T19:10:23.824Z,76146.799,1635275335,full,ni_sequenzen,NI_Sequenzen,9,,,,,,,,,,,,,
,Move,canvas.Screen,0_1_0_9,down,response,,76134,76130.274,76146.799,76916.59999999986,769.8009999998612,76917.80000000005,2021-10-26T19:10:24.612Z,76929.321,1635275335,full,ni_sequenzen,NI_Sequenzen,10,,,,,,,,,,,,,
,Move,canvas.Screen,0_1_0_10,right,response,,76922.5,76912.799,76929.321,77225.8999999999,296.5789999999106,77227,2021-10-26T19:10:24.921Z,77245.695,1635275335,full,ni_sequenzen,NI_Sequenzen,11,,,,,,,,,,,,,
,Move,canvas.Screen,0_1_0_11,down,response,,77231.5,77229.123,77245.695,77495.09999999986,249.40499999985332,77496,2021-10-26T19:10:25.190Z,77528.691,1635275335,full,ni_sequenzen,NI_Sequenzen,12,,,,,,,,,,,,,
,Move,canvas.Screen,0_1_0_12,left,response,,77500.09999999986,77495.483,77528.691,78921.09999999986,1392.4089999998541,78922.09999999986,2021-10-26T19:10:26.616Z,78944.081,1635275335,full,ni_sequenzen,NI_Sequenzen,13,,,,,,,,,,,,,
,Move,canvas.Screen,0_1_0_13,left,response,,78926.80000000005,78910.868,78944.081,79174.3999999999,230.31899999990128,79175.30000000005,2021-10-26T19:10:26.869Z,79193.813,1635275335,full,ni_sequenzen,NI_Sequenzen,14,,,,,,,,,,,,,
,Move,canvas.Screen,0_1_0_14,down,response,,79179.30000000005,79177.176,79193.813,81678.80000000005,2484.987000000052,81680,2021-10-26T19:10:29.374Z,81691.296,1635275335,full,ni_sequenzen,NI_Sequenzen,15,,,,,,,,,,,,,
,Move,canvas.Screen,0_1_0_15,right,response,,81684,81675.03,81691.296,82019.80000000005,328.50400000004447,82021,2021-10-26T19:10:29.715Z,82040.962,1635275335,full,ni_sequenzen,NI_Sequenzen,16,,,,,,,,,,,,,
,Move,canvas.Screen,0_1_0_16,right,response,,82025.69999999995,82024.344,82040.962,82479.8999999999,438.93799999990733,82480.3999999999,2021-10-26T19:10:30.174Z,82490.449,1635275335,full,ni_sequenzen,NI_Sequenzen,17,,,,,,,,,,,,,
,Move,canvas.Screen,0_1_0_17,left,response,,82481.80000000005,82473.927,82490.449,82933.3999999999,442.9509999999136,82934.09999999986,2021-10-26T19:10:30.628Z,82939.98,1635275335,full,ni_sequenzen,NI_Sequenzen,18,,,,,,,,,,,,,
,Move,canvas.Screen,0_1_0_18,right,response,,82935.59999999986,82923.384,82939.98,84240.30000000005,1300.3200000000506,84241.30000000005,2021-10-26T19:10:31.935Z,84255.445,1635275335,full,ni_sequenzen,NI_Sequenzen,19,,,,,,,,,,,,,
,Move,canvas.Screen,0_1_0_19,down,response,,84246.59999999986,84238.814,84255.445,85155.69999999995,900.2549999999464,85156.59999999986,2021-10-26T19:10:32.850Z,85171.162,1635275335,full,ni_sequenzen,NI_Sequenzen,20,,,,,,,,,,,,,
,Move,canvas.Screen,0_1_0_20,down,response,,85160.5,85154.611,85171.162,85489.19999999995,318.0379999999568,85490.30000000005,2021-10-26T19:10:33.184Z,85504.173,1635275335,full,ni_sequenzen,NI_Sequenzen,21,,,,,,,,,,,,,
,Move,canvas.Screen,0_1_0_21,left,response,,85494.59999999986,85487.57,85504.173,88112.80000000005,2608.6270000000513,88115,2021-10-26T19:10:35.809Z,88135.002,1635275335,full,ni_sequenzen,NI_Sequenzen,22,,,,,,,,,,,,,
,Move,canvas.Screen,0_1_0_22,down,response,,88119.69999999995,88118.571,88135.002,88629.5,494.49800000000687,88630.59999999986,2021-10-26T19:10:36.324Z,88651.154,1635275335,full,ni_sequenzen,NI_Sequenzen,23,,,,,,,,,,,,,
,Move,canvas.Screen,0_1_0_23,right,response,,88634.59999999986,88634.494,88651.154,89465.3999999999,814.2459999999119,89466.30000000005,2021-10-26T19:10:37.160Z,89483.549,1635275335,full,ni_sequenzen,NI_Sequenzen,24,,,,,,,,,,,,,
,Move,canvas.Screen,0_1_0_24,down,response,,89470.5,89467.042,89483.549,89886.30000000005,402.7510000000475,89887.3999999999,2021-10-26T19:10:37.581Z,89899.781,1635275335,full,ni_sequenzen,NI_Sequenzen,25,,,,,,,,,,,,,
,Move,canvas.Screen,0_1_0_25,down,response,,89892.09999999986,89883.202,89899.781,90115.69999999995,215.91899999995076,90116.59999999986,2021-10-26T19:10:37.810Z,90132.901,1635275335,full,ni_sequenzen,NI_Sequenzen,26,,,,,,,,,,,,,
,Move,canvas.Screen,0_1_0_26,right,response,,90120.69999999995,90116.355,90132.901,90456.80000000005,323.89900000004855,90457.8999999999,2021-10-26T19:10:38.152Z,90482.555,1635275335,full,ni_sequenzen,NI_Sequenzen,27,,,,,,,,,,,,,
,Move,canvas.Screen,0_1_0_27,down,response,,90461.8999999999,90449.33,90482.555,90774.09999999986,291.5449999998673,90775.09999999986,2021-10-26T19:10:38.469Z,90782.264,1635275335,full,ni_sequenzen,NI_Sequenzen,28,,,,,,,,,,,,,
,Move,canvas.Screen,0_1_0_28,down,response,,90780.5,90765.673,90782.264,91004,221.73600000000442,91006,2021-10-26T19:10:38.700Z,91037.34,1635275335,full,ni_sequenzen,NI_Sequenzen,29,,,,,,,,,,,,,
,Move,canvas.Screen,0_1_0_29,left,response,,91013.8999999999,90998.785,91037.34,92756.8999999999,1719.5599999999104,92758.09999999986,2021-10-26T19:10:40.452Z,92846.903,1635275335,full,ni_sequenzen,NI_Sequenzen,30,,,,,,,,,,,,,
,Loop,flow.Loop,0_1_0,-999,completion,,65499,65491.185,65507.322,92756.8999999999,27249.577999999907,92758.59999999986,2021-10-26T19:10:40.452Z,92846.903,1635275335,full,ni_sequenzen,NI_Sequenzen,,,,,,,,,,,,,,
,Training_I,flow.Sequence,0_1,,completion,,65486.89999999991,65491.185,65507.322,92756.8999999999,27249.577999999907,92758.8999999999,2021-10-26T19:10:40.453Z,92846.903,1635275335,full,ni_sequenzen,NI_Sequenzen,,,,,,,,,,,,,,
,Screen_1,canvas.Screen,0_2_0_0,cont,response,1,92830.59999999986,92830.425,92846.903,101090,8243.096999999994,101091.30000000005,2021-10-26T19:10:48.785Z,101221.872,1635275335,full,ni_sequenzen,NI_Sequenzen,,,,,,,,,,,,,,
,Screen_2,canvas.Screen,0_2_0_1,cont,response,1,101210.80000000005,101206.105,101221.872,120319.30000000005,19097.428000000044,120320.5,2021-10-26T19:11:08.014Z,120352.782,1635275335,full,ni_sequenzen,NI_Sequenzen,,,,,,,,,,,,,,
,Screen_3,canvas.Screen,0_2_0_2,cont,response,1,120327.80000000005,120321.678,120352.782,129402.3999999999,9049.6179999999,129403.69999999995,2021-10-26T19:11:17.095Z,129510.379,1635275335,full,ni_sequenzen,NI_Sequenzen,,,,,,,,,,,,,,
,Screen_4,canvas.Screen,0_2_0_3,cont,response,1,129500.19999999995,129494.761,129510.379,142857.09999999986,13346.72099999986,142858.30000000005,2021-10-26T19:11:30.550Z,142880.351,1635275335,full,ni_sequenzen,NI_Sequenzen,,,,,,,,,,,,,,
,Screen_5,canvas.Screen,0_2_0_4,cont,response,1,142865,142865.349,142880.351,148716.5,5836.149000000005,148717.59999999986,2021-10-26T19:11:36.409Z,148824.444,1635275335,full,ni_sequenzen,NI_Sequenzen,,,,,,,,,,,,,,
,Screen_6,canvas.Screen,0_2_0_5,cont,response,1,148805.80000000005,148791.797,148824.444,158379.8999999999,9555.455999999918,158381,2021-10-26T19:11:46.073Z,158597.928,1635275335,full,ni_sequenzen,NI_Sequenzen,,,,,,,,,,,,,,
,Sequence,flow.Sequence,0_2_0,,completion,1,92829.5,92830.425,92846.903,158379.8999999999,65532.9969999999,158384.8999999999,2021-10-26T19:11:46.076Z,158597.928,1635275335,full,ni_sequenzen,NI_Sequenzen,,,,,,,,,,,,,,
,Screen_1,canvas.Screen,0_2_1_0,,skipped,2,158393.30000000005,,,158393.30000000005,,158393.5,2021-10-26T19:11:46.085Z,158597.928,1635275335,full,ni_sequenzen,NI_Sequenzen,,,,,,,,,,,,,,
,Screen_2,canvas.Screen,0_2_1_1,,skipped,2,158396.3999999999,,,158393.30000000005,,158396.59999999986,2021-10-26T19:11:46.088Z,158597.928,1635275335,full,ni_sequenzen,NI_Sequenzen,,,,,,,,,,,,,,
,Screen_3,canvas.Screen,0_2_1_2,,skipped,2,158399.80000000005,,,158393.30000000005,,158400,2021-10-26T19:11:46.092Z,158597.928,1635275335,full,ni_sequenzen,NI_Sequenzen,,,,,,,,,,,,,,
,Screen_4,canvas.Screen,0_2_1_3,,skipped,2,158402.69999999995,,,158393.30000000005,,158402.8999999999,2021-10-26T19:11:46.094Z,158597.928,1635275335,full,ni_sequenzen,NI_Sequenzen,,,,,,,,,,,,,,
,Screen_5,canvas.Screen,0_2_1_4,,skipped,2,158405.59999999986,,,158393.30000000005,,158405.80000000005,2021-10-26T19:11:46.097Z,158597.928,1635275335,full,ni_sequenzen,NI_Sequenzen,,,,,,,,,,,,,,
,Screen_6,canvas.Screen,0_2_1_5,,skipped,2,158408.69999999995,,,158393.30000000005,,158408.8999999999,2021-10-26T19:11:46.100Z,158597.928,1635275335,full,ni_sequenzen,NI_Sequenzen,,,,,,,,,,,,,,
,Sequence,flow.Sequence,0_2_1,,completion,2,158389.8999999999,,,158393.30000000005,,158409.30000000005,2021-10-26T19:11:46.101Z,158597.928,1635275335,full,ni_sequenzen,NI_Sequenzen,,,,,,,,,,,,,,
,Screen_1,canvas.Screen,0_2_2_0,,skipped,3,158412.59999999986,,,158412.59999999986,,158412.8999999999,2021-10-26T19:11:46.104Z,158597.928,1635275335,full,ni_sequenzen,NI_Sequenzen,,,,,,,,,,,,,,
,Screen_2,canvas.Screen,0_2_2_1,,skipped,3,158415,,,158412.59999999986,,158415.30000000005,2021-10-26T19:11:46.107Z,158597.928,1635275335,full,ni_sequenzen,NI_Sequenzen,,,,,,,,,,,,,,
,Screen_3,canvas.Screen,0_2_2_2,,skipped,3,158417.5,,,158412.59999999986,,158417.69999999995,2021-10-26T19:11:46.109Z,158597.928,1635275335,full,ni_sequenzen,NI_Sequenzen,,,,,,,,,,,,,,
,Screen_4,canvas.Screen,0_2_2_3,,skipped,3,158420.19999999995,,,158412.59999999986,,158420.3999999999,2021-10-26T19:11:46.112Z,158597.928,1635275335,full,ni_sequenzen,NI_Sequenzen,,,,,,,,,,,,,,
,Screen_5,canvas.Screen,0_2_2_4,,skipped,3,158422.8999999999,,,158412.59999999986,,158423.09999999986,2021-10-26T19:11:46.115Z,158597.928,1635275335,full,ni_sequenzen,NI_Sequenzen,,,,,,,,,,,,,,
,Screen_6,canvas.Screen,0_2_2_5,,skipped,3,158425.3999999999,,,158412.59999999986,,158425.5,2021-10-26T19:11:46.117Z,158597.928,1635275335,full,ni_sequenzen,NI_Sequenzen,,,,,,,,,,,,,,
,Sequence,flow.Sequence,0_2_2,,completion,3,158410.30000000005,,,158412.59999999986,,158425.80000000005,2021-10-26T19:11:46.117Z,158597.928,1635275335,full,ni_sequenzen,NI_Sequenzen,,,,,,,,,,,,,,
,Screen_1,canvas.Screen,0_2_3_0,,skipped,4,158427.8999999999,,,158427.8999999999,,158428,2021-10-26T19:11:46.120Z,158597.928,1635275335,full,ni_sequenzen,NI_Sequenzen,,,,,,,,,,,,,,
,Screen_2,canvas.Screen,0_2_3_1,,skipped,4,158429.69999999995,,,158427.8999999999,,158429.69999999995,2021-10-26T19:11:46.121Z,158597.928,1635275335,full,ni_sequenzen,NI_Sequenzen,,,,,,,,,,,,,,
,Screen_3,canvas.Screen,0_2_3_2,,skipped,4,158430.5,,,158427.8999999999,,158430.59999999986,2021-10-26T19:11:46.122Z,158597.928,1635275335,full,ni_sequenzen,NI_Sequenzen,,,,,,,,,,,,,,
,Screen_4,canvas.Screen,0_2_3_3,,skipped,4,158431.19999999995,,,158427.8999999999,,158431.30000000005,2021-10-26T19:11:46.123Z,158597.928,1635275335,full,ni_sequenzen,NI_Sequenzen,,,,,,,,,,,,,,
,Screen_5,canvas.Screen,0_2_3_4,,skipped,4,158431.8999999999,,,158427.8999999999,,158432,2021-10-26T19:11:46.123Z,158597.928,1635275335,full,ni_sequenzen,NI_Sequenzen,,,,,,,,,,,,,,
,Screen_6,canvas.Screen,0_2_3_5,,skipped,4,158432.59999999986,,,158427.8999999999,,158432.59999999986,2021-10-26T19:11:46.124Z,158597.928,1635275335,full,ni_sequenzen,NI_Sequenzen,,,,,,,,,,,,,,
,Sequence,flow.Sequence,0_2_3,,completion,4,158426.8999999999,,,158427.8999999999,,158432.69999999995,2021-10-26T19:11:46.124Z,158597.928,1635275335,full,ni_sequenzen,NI_Sequenzen,,,,,,,,,,,,,,
,Screen_1,canvas.Screen,0_2_4_0,,skipped,5,158433.59999999986,,,158433.59999999986,,158433.59999999986,2021-10-26T19:11:46.125Z,158597.928,1635275335,full,ni_sequenzen,NI_Sequenzen,,,,,,,,,,,,,,
,Screen_2,canvas.Screen,0_2_4_1,,skipped,5,158434.19999999995,,,158433.59999999986,,158434.30000000005,2021-10-26T19:11:46.126Z,158597.928,1635275335,full,ni_sequenzen,NI_Sequenzen,,,,,,,,,,,,,,
,Screen_3,canvas.Screen,0_2_4_2,,skipped,5,158434.8999999999,,,158433.59999999986,,158435,2021-10-26T19:11:46.127Z,158597.928,1635275335,full,ni_sequenzen,NI_Sequenzen,,,,,,,,,,,,,,
,Screen_4,canvas.Screen,0_2_4_3,,skipped,5,158435.59999999986,,,158433.59999999986,,158435.69999999995,2021-10-26T19:11:46.127Z,158597.928,1635275335,full,ni_sequenzen,NI_Sequenzen,,,,,,,,,,,,,,
,Screen_5,canvas.Screen,0_2_4_4,,skipped,5,158436.30000000005,,,158433.59999999986,,158436.30000000005,2021-10-26T19:11:46.128Z,158597.928,1635275335,full,ni_sequenzen,NI_Sequenzen,,,,,,,,,,,,,,
,Screen_6,canvas.Screen,0_2_4_5,,skipped,5,158436.8999999999,,,158433.59999999986,,158436.8999999999,2021-10-26T19:11:46.129Z,158597.928,1635275335,full,ni_sequenzen,NI_Sequenzen,,,,,,,,,,,,,,
,Sequence,flow.Sequence,0_2_4,,completion,5,158433,,,158433.59999999986,,158437.09999999986,2021-10-26T19:11:46.129Z,158597.928,1635275335,full,ni_sequenzen,NI_Sequenzen,,,,,,,,,,,,,,
,Screen_1,canvas.Screen,0_2_5_0,,skipped,6,158438,,,158438,,158438,2021-10-26T19:11:46.130Z,158597.928,1635275335,full,ni_sequenzen,NI_Sequenzen,,,,,,,,,,,,,,
,Screen_2,canvas.Screen,0_2_5_1,,skipped,6,158438.59999999986,,,158438,,158438.59999999986,2021-10-26T19:11:46.130Z,158597.928,1635275335,full,ni_sequenzen,NI_Sequenzen,,,,,,,,,,,,,,
,Screen_3,canvas.Screen,0_2_5_2,,skipped,6,158439.3999999999,,,158438,,158439.3999999999,2021-10-26T19:11:46.131Z,158597.928,1635275335,full,ni_sequenzen,NI_Sequenzen,,,,,,,,,,,,,,
,Screen_4,canvas.Screen,0_2_5_3,,skipped,6,158440,,,158438,,158440.09999999986,2021-10-26T19:11:46.132Z,158597.928,1635275335,full,ni_sequenzen,NI_Sequenzen,,,,,,,,,,,,,,
,Screen_5,canvas.Screen,0_2_5_4,,skipped,6,158441.59999999986,,,158438,,158441.80000000005,2021-10-26T19:11:46.133Z,158597.928,1635275335,full,ni_sequenzen,NI_Sequenzen,,,,,,,,,,,,,,
,Screen_6,canvas.Screen,0_2_5_5,,skipped,6,158442.3999999999,,,158438,,158442.5,2021-10-26T19:11:46.134Z,158597.928,1635275335,full,ni_sequenzen,NI_Sequenzen,,,,,,,,,,,,,,
,Sequence,flow.Sequence,0_2_5,,completion,6,158437.3999999999,,,158438,,158442.59999999986,2021-10-26T19:11:46.134Z,158597.928,1635275335,full,ni_sequenzen,NI_Sequenzen,,,,,,,,,,,,,,
,Screen_1,canvas.Screen,0_2_6_0,,skipped,7,158443.3999999999,,,158443.5,,158443.5,2021-10-26T19:11:46.135Z,158597.928,1635275335,full,ni_sequenzen,NI_Sequenzen,,,,,,,,,,,,,,
,Screen_2,canvas.Screen,0_2_6_1,,skipped,7,158444.09999999986,,,158443.5,,158444.19999999995,2021-10-26T19:11:46.136Z,158597.928,1635275335,full,ni_sequenzen,NI_Sequenzen,,,,,,,,,,,,,,
,Screen_3,canvas.Screen,0_2_6_2,,skipped,7,158444.8999999999,,,158443.5,,158444.8999999999,2021-10-26T19:11:46.136Z,158597.928,1635275335,full,ni_sequenzen,NI_Sequenzen,,,,,,,,,,,,,,
,Screen_4,canvas.Screen,0_2_6_3,,skipped,7,158445.5,,,158443.5,,158445.59999999986,2021-10-26T19:11:46.137Z,158597.928,1635275335,full,ni_sequenzen,NI_Sequenzen,,,,,,,,,,,,,,
,Screen_5,canvas.Screen,0_2_6_4,,skipped,7,158446.19999999995,,,158443.5,,158446.19999999995,2021-10-26T19:11:46.138Z,158597.928,1635275335,full,ni_sequenzen,NI_Sequenzen,,,,,,,,,,,,,,
,Screen_6,canvas.Screen,0_2_6_5,,skipped,7,158446.8999999999,,,158443.5,,158446.8999999999,2021-10-26T19:11:46.138Z,158597.928,1635275335,full,ni_sequenzen,NI_Sequenzen,,,,,,,,,,,,,,
,Sequence,flow.Sequence,0_2_6,,completion,7,158442.8999999999,,,158443.5,,158447,2021-10-26T19:11:46.139Z,158597.928,1635275335,full,ni_sequenzen,NI_Sequenzen,,,,,,,,,,,,,,
,Screen_1,canvas.Screen,0_2_7_0,,skipped,8,158447.8999999999,,,158447.8999999999,,158447.8999999999,2021-10-26T19:11:46.139Z,158597.928,1635275335,full,ni_sequenzen,NI_Sequenzen,,,,,,,,,,,,,,
,Screen_2,canvas.Screen,0_2_7_1,,skipped,8,158448.59999999986,,,158447.8999999999,,158448.59999999986,2021-10-26T19:11:46.140Z,158597.928,1635275335,full,ni_sequenzen,NI_Sequenzen,,,,,,,,,,,,,,
,Screen_3,canvas.Screen,0_2_7_2,,skipped,8,158449.19999999995,,,158447.8999999999,,158449.30000000005,2021-10-26T19:11:46.141Z,158597.928,1635275335,full,ni_sequenzen,NI_Sequenzen,,,,,,,,,,,,,,
,Screen_4,canvas.Screen,0_2_7_3,,skipped,8,158449.8999999999,,,158447.8999999999,,158450,2021-10-26T19:11:46.142Z,158597.928,1635275335,full,ni_sequenzen,NI_Sequenzen,,,,,,,,,,,,,,
,Screen_5,canvas.Screen,0_2_7_4,,skipped,8,158450.59999999986,,,158447.8999999999,,158450.59999999986,2021-10-26T19:11:46.142Z,158597.928,1635275335,full,ni_sequenzen,NI_Sequenzen,,,,,,,,,,,,,,
,Screen_6,canvas.Screen,0_2_7_5,,skipped,8,158451.19999999995,,,158447.8999999999,,158451.19999999995,2021-10-26T19:11:46.143Z,158597.928,1635275335,full,ni_sequenzen,NI_Sequenzen,,,,,,,,,,,,,,
,Sequence,flow.Sequence,0_2_7,,completion,8,158447.30000000005,,,158447.8999999999,,158451.30000000005,2021-10-26T19:11:46.143Z,158597.928,1635275335,full,ni_sequenzen,NI_Sequenzen,,,,,,,,,,,,,,
,Screen_1,canvas.Screen,0_2_8_0,,skipped,9,158452.19999999995,,,158452.30000000005,,158452.3999999999,2021-10-26T19:11:46.144Z,158597.928,1635275335,full,ni_sequenzen,NI_Sequenzen,,,,,,,,,,,,,,
,Screen_2,canvas.Screen,0_2_8_1,,skipped,9,158453.69999999995,,,158452.30000000005,,158453.80000000005,2021-10-26T19:11:46.145Z,158597.928,1635275335,full,ni_sequenzen,NI_Sequenzen,,,,,,,,,,,,,,
,Screen_3,canvas.Screen,0_2_8_2,,skipped,9,158454.3999999999,,,158452.30000000005,,158454.3999999999,2021-10-26T19:11:46.146Z,158597.928,1635275335,full,ni_sequenzen,NI_Sequenzen,,,,,,,,,,,,,,
,Screen_4,canvas.Screen,0_2_8_3,,skipped,9,158455.09999999986,,,158452.30000000005,,158455.19999999995,2021-10-26T19:11:46.147Z,158597.928,1635275335,full,ni_sequenzen,NI_Sequenzen,,,,,,,,,,,,,,
,Screen_5,canvas.Screen,0_2_8_4,,skipped,9,158455.69999999995,,,158452.30000000005,,158455.8999999999,2021-10-26T19:11:46.147Z,158597.928,1635275335,full,ni_sequenzen,NI_Sequenzen,,,,,,,,,,,,,,
,Screen_6,canvas.Screen,0_2_8_5,,skipped,9,158456.5,,,158452.30000000005,,158456.5,2021-10-26T19:11:46.148Z,158597.928,1635275335,full,ni_sequenzen,NI_Sequenzen,,,,,,,,,,,,,,
,Sequence,flow.Sequence,0_2_8,,completion,9,158451.69999999995,,,158452.30000000005,,158456.59999999986,2021-10-26T19:11:46.148Z,158597.928,1635275335,full,ni_sequenzen,NI_Sequenzen,,,,,,,,,,,,,,
,Screen_1,canvas.Screen,0_2_9_0,,skipped,10,158457.59999999986,,,158457.59999999986,,158457.69999999995,2021-10-26T19:11:46.149Z,158597.928,1635275335,full,ni_sequenzen,NI_Sequenzen,,,,,,,,,,,,,,
,Screen_2,canvas.Screen,0_2_9_1,,skipped,10,158458.5,,,158457.59999999986,,158458.5,2021-10-26T19:11:46.150Z,158597.928,1635275335,full,ni_sequenzen,NI_Sequenzen,,,,,,,,,,,,,,
,Screen_3,canvas.Screen,0_2_9_2,,skipped,10,158459.19999999995,,,158457.59999999986,,158459.30000000005,2021-10-26T19:11:46.151Z,158597.928,1635275335,full,ni_sequenzen,NI_Sequenzen,,,,,,,,,,,,,,
,Screen_4,canvas.Screen,0_2_9_3,,skipped,10,158459.80000000005,,,158457.59999999986,,158460,2021-10-26T19:11:46.151Z,158597.928,1635275335,full,ni_sequenzen,NI_Sequenzen,,,,,,,,,,,,,,
,Screen_5,canvas.Screen,0_2_9_4,,skipped,10,158460.8999999999,,,158457.59999999986,,158460.8999999999,2021-10-26T19:11:46.152Z,158597.928,1635275335,full,ni_sequenzen,NI_Sequenzen,,,,,,,,,,,,,,
,Screen_6,canvas.Screen,0_2_9_5,,skipped,10,158461.80000000005,,,158457.59999999986,,158461.8999999999,2021-10-26T19:11:46.153Z,158597.928,1635275335,full,ni_sequenzen,NI_Sequenzen,,,,,,,,,,,,,,
,Sequence,flow.Sequence,0_2_9,,completion,10,158457,,,158457.59999999986,,158462,2021-10-26T19:11:46.154Z,158597.928,1635275335,full,ni_sequenzen,NI_Sequenzen,,,,,,,,,,,,,,
,Screen_1,canvas.Screen,0_2_10_0,,skipped,11,158463.09999999986,,,158463.09999999986,,158463.19999999995,2021-10-26T19:11:46.155Z,158597.928,1635275335,full,ni_sequenzen,NI_Sequenzen,,,,,,,,,,,,,,
,Screen_2,canvas.Screen,0_2_10_1,,skipped,11,158463.80000000005,,,158463.09999999986,,158463.8999999999,2021-10-26T19:11:46.155Z,158597.928,1635275335,full,ni_sequenzen,NI_Sequenzen,,,,,,,,,,,,,,
,Screen_3,canvas.Screen,0_2_10_2,,skipped,11,158464.5,,,158463.09999999986,,158464.59999999986,2021-10-26T19:11:46.156Z,158597.928,1635275335,full,ni_sequenzen,NI_Sequenzen,,,,,,,,,,,,,,
,Screen_4,canvas.Screen,0_2_10_3,,skipped,11,158465.19999999995,,,158463.09999999986,,158465.30000000005,2021-10-26T19:11:46.157Z,158597.928,1635275335,full,ni_sequenzen,NI_Sequenzen,,,,,,,,,,,,,,
,Screen_5,canvas.Screen,0_2_10_4,,skipped,11,158465.80000000005,,,158463.09999999986,,158465.8999999999,2021-10-26T19:11:46.157Z,158597.928,1635275335,full,ni_sequenzen,NI_Sequenzen,,,,,,,,,,,,,,
,Screen_6,canvas.Screen,0_2_10_5,,skipped,11,158467.3999999999,,,158463.09999999986,,158467.59999999986,2021-10-26T19:11:46.159Z,158597.928,1635275335,full,ni_sequenzen,NI_Sequenzen,,,,,,,,,,,,,,
,Sequence,flow.Sequence,0_2_10,,completion,11,158462.3999999999,,,158463.09999999986,,158467.69999999995,2021-10-26T19:11:46.159Z,158597.928,1635275335,full,ni_sequenzen,NI_Sequenzen,,,,,,,,,,,,,,
,Screen_1,canvas.Screen,0_2_11_0,,skipped,12,158468.59999999986,,,158468.59999999986,,158468.69999999995,2021-10-26T19:11:46.160Z,158597.928,1635275335,full,ni_sequenzen,NI_Sequenzen,,,,,,,,,,,,,,
,Screen_2,canvas.Screen,0_2_11_1,,skipped,12,158469.30000000005,,,158468.59999999986,,158469.3999999999,2021-10-26T19:11:46.161Z,158597.928,1635275335,full,ni_sequenzen,NI_Sequenzen,,,,,,,,,,,,,,
,Screen_3,canvas.Screen,0_2_11_2,,skipped,12,158470,,,158468.59999999986,,158470.09999999986,2021-10-26T19:11:46.162Z,158597.928,1635275335,full,ni_sequenzen,NI_Sequenzen,,,,,,,,,,,,,,
,Screen_4,canvas.Screen,0_2_11_3,,skipped,12,158470.59999999986,,,158468.59999999986,,158470.69999999995,2021-10-26T19:11:46.162Z,158597.928,1635275335,full,ni_sequenzen,NI_Sequenzen,,,,,,,,,,,,,,
,Screen_5,canvas.Screen,0_2_11_4,,skipped,12,158471.30000000005,,,158468.59999999986,,158471.3999999999,2021-10-26T19:11:46.163Z,158597.928,1635275335,full,ni_sequenzen,NI_Sequenzen,,,,,,,,,,,,,,
,Screen_6,canvas.Screen,0_2_11_5,,skipped,12,158471.8999999999,,,158468.59999999986,,158472.09999999986,2021-10-26T19:11:46.164Z,158597.928,1635275335,full,ni_sequenzen,NI_Sequenzen,,,,,,,,,,,,,,
,Sequence,flow.Sequence,0_2_11,,completion,12,158468,,,158468.59999999986,,158472.09999999986,2021-10-26T19:11:46.164Z,158597.928,1635275335,full,ni_sequenzen,NI_Sequenzen,,,,,,,,,,,,,,
,Screen_1,canvas.Screen,0_2_12_0,,skipped,13,158473.09999999986,,,158473.09999999986,,158473.09999999986,2021-10-26T19:11:46.165Z,158597.928,1635275335,full,ni_sequenzen,NI_Sequenzen,,,,,,,,,,,,,,
,Screen_2,canvas.Screen,0_2_12_1,,skipped,13,158473.69999999995,,,158473.09999999986,,158473.80000000005,2021-10-26T19:11:46.165Z,158597.928,1635275335,full,ni_sequenzen,NI_Sequenzen,,,,,,,,,,,,,,
,Screen_3,canvas.Screen,0_2_12_2,,skipped,13,158474.3999999999,,,158473.09999999986,,158474.3999999999,2021-10-26T19:11:46.166Z,158597.928,1635275335,full,ni_sequenzen,NI_Sequenzen,,,,,,,,,,,,,,
,Screen_4,canvas.Screen,0_2_12_3,,skipped,13,158475.09999999986,,,158473.09999999986,,158475.09999999986,2021-10-26T19:11:46.167Z,158597.928,1635275335,full,ni_sequenzen,NI_Sequenzen,,,,,,,,,,,,,,
,Screen_5,canvas.Screen,0_2_12_4,,skipped,13,158475.69999999995,,,158473.09999999986,,158475.80000000005,2021-10-26T19:11:46.167Z,158597.928,1635275335,full,ni_sequenzen,NI_Sequenzen,,,,,,,,,,,,,,
,Screen_6,canvas.Screen,0_2_12_5,,skipped,13,158476.3999999999,,,158473.09999999986,,158476.3999999999,2021-10-26T19:11:46.168Z,158597.928,1635275335,full,ni_sequenzen,NI_Sequenzen,,,,,,,,,,,,,,
,Sequence,flow.Sequence,0_2_12,,completion,13,158472.3999999999,,,158473.09999999986,,158476.59999999986,2021-10-26T19:11:46.168Z,158597.928,1635275335,full,ni_sequenzen,NI_Sequenzen,,,,,,,,,,,,,,
,Screen_1,canvas.Screen,0_2_13_0,,skipped,14,158477.3999999999,,,158477.3999999999,,158477.3999999999,2021-10-26T19:11:46.169Z,158597.928,1635275335,full,ni_sequenzen,NI_Sequenzen,,,,,,,,,,,,,,
,Screen_2,canvas.Screen,0_2_13_1,,skipped,14,158478.09999999986,,,158477.3999999999,,158478.09999999986,2021-10-26T19:11:46.170Z,158597.928,1635275335,full,ni_sequenzen,NI_Sequenzen,,,,,,,,,,,,,,
,Screen_3,canvas.Screen,0_2_13_2,,skipped,14,158479.5,,,158477.3999999999,,158479.59999999986,2021-10-26T19:11:46.171Z,158597.928,1635275335,full,ni_sequenzen,NI_Sequenzen,,,,,,,,,,,,,,
,Screen_4,canvas.Screen,0_2_13_3,,skipped,14,158480.19999999995,,,158477.3999999999,,158480.30000000005,2021-10-26T19:11:46.172Z,158597.928,1635275335,full,ni_sequenzen,NI_Sequenzen,,,,,,,,,,,,,,
,Screen_5,canvas.Screen,0_2_13_4,,skipped,14,158481,,,158477.3999999999,,158481,2021-10-26T19:11:46.173Z,158597.928,1635275335,full,ni_sequenzen,NI_Sequenzen,,,,,,,,,,,,,,
,Screen_6,canvas.Screen,0_2_13_5,,skipped,14,158481.59999999986,,,158477.3999999999,,158481.69999999995,2021-10-26T19:11:46.173Z,158597.928,1635275335,full,ni_sequenzen,NI_Sequenzen,,,,,,,,,,,,,,
,Sequence,flow.Sequence,0_2_13,,completion,14,158476.80000000005,,,158477.3999999999,,158481.80000000005,2021-10-26T19:11:46.173Z,158597.928,1635275335,full,ni_sequenzen,NI_Sequenzen,,,,,,,,,,,,,,
,Screen_1,canvas.Screen,0_2_14_0,,skipped,15,158482.69999999995,,,158482.69999999995,,158482.69999999995,2021-10-26T19:11:46.174Z,158597.928,1635275335,full,ni_sequenzen,NI_Sequenzen,,,,,,,,,,,,,,
,Screen_2,canvas.Screen,0_2_14_1,,skipped,15,158483.30000000005,,,158482.69999999995,,158483.3999999999,2021-10-26T19:11:46.175Z,158597.928,1635275335,full,ni_sequenzen,NI_Sequenzen,,,,,,,,,,,,,,
,Screen_3,canvas.Screen,0_2_14_2,,skipped,15,158484,,,158482.69999999995,,158484,2021-10-26T19:11:46.176Z,158597.928,1635275335,full,ni_sequenzen,NI_Sequenzen,,,,,,,,,,,,,,
,Screen_4,canvas.Screen,0_2_14_3,,skipped,15,158484.69999999995,,,158482.69999999995,,158484.69999999995,2021-10-26T19:11:46.176Z,158597.928,1635275335,full,ni_sequenzen,NI_Sequenzen,,,,,,,,,,,,,,
,Screen_5,canvas.Screen,0_2_14_4,,skipped,15,158485.30000000005,,,158482.69999999995,,158485.3999999999,2021-10-26T19:11:46.177Z,158597.928,1635275335,full,ni_sequenzen,NI_Sequenzen,,,,,,,,,,,,,,
,Screen_6,canvas.Screen,0_2_14_5,,skipped,15,158485.8999999999,,,158482.69999999995,,158486,2021-10-26T19:11:46.178Z,158597.928,1635275335,full,ni_sequenzen,NI_Sequenzen,,,,,,,,,,,,,,
,Sequence,flow.Sequence,0_2_14,,completion,15,158482.09999999986,,,158482.69999999995,,158486.19999999995,2021-10-26T19:11:46.178Z,158597.928,1635275335,full,ni_sequenzen,NI_Sequenzen,,,,,,,,,,,,,,
,Screen_1,canvas.Screen,0_2_15_0,,skipped,16,158487.09999999986,,,158487.09999999986,,158487.19999999995,2021-10-26T19:11:46.179Z,158597.928,1635275335,full,ni_sequenzen,NI_Sequenzen,,,,,,,,,,,,,,
,Screen_2,canvas.Screen,0_2_15_1,,skipped,16,158487.80000000005,,,158487.09999999986,,158487.80000000005,2021-10-26T19:11:46.179Z,158597.928,1635275335,full,ni_sequenzen,NI_Sequenzen,,,,,,,,,,,,,,
,Screen_3,canvas.Screen,0_2_15_2,,skipped,16,158488.3999999999,,,158487.09999999986,,158488.5,2021-10-26T19:11:46.180Z,158597.928,1635275335,full,ni_sequenzen,NI_Sequenzen,,,,,,,,,,,,,,
,Screen_4,canvas.Screen,0_2_15_3,,skipped,16,158489.09999999986,,,158487.09999999986,,158489.19999999995,2021-10-26T19:11:46.181Z,158597.928,1635275335,full,ni_sequenzen,NI_Sequenzen,,,,,,,,,,,,,,
,Screen_5,canvas.Screen,0_2_15_4,,skipped,16,158489.80000000005,,,158487.09999999986,,158489.8999999999,2021-10-26T19:11:46.181Z,158597.928,1635275335,full,ni_sequenzen,NI_Sequenzen,,,,,,,,,,,,,,
,Screen_6,canvas.Screen,0_2_15_5,,skipped,16,158490.3999999999,,,158487.09999999986,,158491.19999999995,2021-10-26T19:11:46.183Z,158597.928,1635275335,full,ni_sequenzen,NI_Sequenzen,,,,,,,,,,,,,,
,Sequence,flow.Sequence,0_2_15,,completion,16,158486.5,,,158487.09999999986,,158491.30000000005,2021-10-26T19:11:46.183Z,158597.928,1635275335,full,ni_sequenzen,NI_Sequenzen,,,,,,,,,,,,,,
,Screen_1,canvas.Screen,0_2_16_0,,skipped,17,158492.19999999995,,,158492.19999999995,,158492.30000000005,2021-10-26T19:11:46.184Z,158597.928,1635275335,full,ni_sequenzen,NI_Sequenzen,,,,,,,,,,,,,,
,Screen_2,canvas.Screen,0_2_16_1,,skipped,17,158493,,,158492.19999999995,,158493,2021-10-26T19:11:46.185Z,158597.928,1635275335,full,ni_sequenzen,NI_Sequenzen,,,,,,,,,,,,,,
,Screen_3,canvas.Screen,0_2_16_2,,skipped,17,158493.59999999986,,,158492.19999999995,,158493.69999999995,2021-10-26T19:11:46.185Z,158597.928,1635275335,full,ni_sequenzen,NI_Sequenzen,,,,,,,,,,,,,,
,Screen_4,canvas.Screen,0_2_16_3,,skipped,17,158494.3999999999,,,158492.19999999995,,158494.3999999999,2021-10-26T19:11:46.186Z,158597.928,1635275335,full,ni_sequenzen,NI_Sequenzen,,,,,,,,,,,,,,
,Screen_5,canvas.Screen,0_2_16_4,,skipped,17,158495.30000000005,,,158492.19999999995,,158495.30000000005,2021-10-26T19:11:46.187Z,158597.928,1635275335,full,ni_sequenzen,NI_Sequenzen,,,,,,,,,,,,,,
,Screen_6,canvas.Screen,0_2_16_5,,skipped,17,158496.19999999995,,,158492.19999999995,,158496.19999999995,2021-10-26T19:11:46.188Z,158597.928,1635275335,full,ni_sequenzen,NI_Sequenzen,,,,,,,,,,,,,,
,Sequence,flow.Sequence,0_2_16,,completion,17,158491.69999999995,,,158492.19999999995,,158496.3999999999,2021-10-26T19:11:46.188Z,158597.928,1635275335,full,ni_sequenzen,NI_Sequenzen,,,,,,,,,,,,,,
,Screen_1,canvas.Screen,0_2_17_0,,skipped,18,158497.30000000005,,,158497.30000000005,,158497.30000000005,2021-10-26T19:11:46.189Z,158597.928,1635275335,full,ni_sequenzen,NI_Sequenzen,,,,,,,,,,,,,,
,Screen_2,canvas.Screen,0_2_17_1,,skipped,18,158498,,,158497.30000000005,,158498,2021-10-26T19:11:46.190Z,158597.928,1635275335,full,ni_sequenzen,NI_Sequenzen,,,,,,,,,,,,,,
,Screen_3,canvas.Screen,0_2_17_2,,skipped,18,158498.69999999995,,,158497.30000000005,,158498.69999999995,2021-10-26T19:11:46.190Z,158597.928,1635275335,full,ni_sequenzen,NI_Sequenzen,,,,,,,,,,,,,,
,Screen_4,canvas.Screen,0_2_17_3,,skipped,18,158499.19999999995,,,158497.30000000005,,158499.3999999999,2021-10-26T19:11:46.191Z,158597.928,1635275335,full,ni_sequenzen,NI_Sequenzen,,,,,,,,,,,,,,
,Screen_5,canvas.Screen,0_2_17_4,,skipped,18,158500,,,158497.30000000005,,158500,2021-10-26T19:11:46.192Z,158597.928,1635275335,full,ni_sequenzen,NI_Sequenzen,,,,,,,,,,,,,,
,Screen_6,canvas.Screen,0_2_17_5,,skipped,18,158500.59999999986,,,158497.30000000005,,158500.59999999986,2021-10-26T19:11:46.192Z,158597.928,1635275335,full,ni_sequenzen,NI_Sequenzen,,,,,,,,,,,,,,
,Sequence,flow.Sequence,0_2_17,,completion,18,158496.69999999995,,,158497.30000000005,,158500.80000000005,2021-10-26T19:11:46.192Z,158597.928,1635275335,full,ni_sequenzen,NI_Sequenzen,,,,,,,,,,,,,,
,Screen_1,canvas.Screen,0_2_18_0,,skipped,19,158501.59999999986,,,158501.59999999986,,158501.69999999995,2021-10-26T19:11:46.193Z,158597.928,1635275335,full,ni_sequenzen,NI_Sequenzen,,,,,,,,,,,,,,
,Screen_2,canvas.Screen,0_2_18_1,,skipped,19,158502.8999999999,,,158501.59999999986,,158503.09999999986,2021-10-26T19:11:46.195Z,158597.928,1635275335,full,ni_sequenzen,NI_Sequenzen,,,,,,,,,,,,,,
,Screen_3,canvas.Screen,0_2_18_2,,skipped,19,158503.80000000005,,,158501.59999999986,,158503.8999999999,2021-10-26T19:11:46.195Z,158597.928,1635275335,full,ni_sequenzen,NI_Sequenzen,,,,,,,,,,,,,,
,Screen_4,canvas.Screen,0_2_18_3,,skipped,19,158504.59999999986,,,158501.59999999986,,158504.59999999986,2021-10-26T19:11:46.196Z,158597.928,1635275335,full,ni_sequenzen,NI_Sequenzen,,,,,,,,,,,,,,
,Screen_5,canvas.Screen,0_2_18_4,,skipped,19,158505.19999999995,,,158501.59999999986,,158505.30000000005,2021-10-26T19:11:46.197Z,158597.928,1635275335,full,ni_sequenzen,NI_Sequenzen,,,,,,,,,,,,,,
,Screen_6,canvas.Screen,0_2_18_5,,skipped,19,158505.8999999999,,,158501.59999999986,,158506,2021-10-26T19:11:46.198Z,158597.928,1635275335,full,ni_sequenzen,NI_Sequenzen,,,,,,,,,,,,,,
,Sequence,flow.Sequence,0_2_18,,completion,19,158501,,,158501.59999999986,,158506.09999999986,2021-10-26T19:11:46.198Z,158597.928,1635275335,full,ni_sequenzen,NI_Sequenzen,,,,,,,,,,,,,,
,Screen_1,canvas.Screen,0_2_19_0,,skipped,20,158506.8999999999,,,158507,,158507.09999999986,2021-10-26T19:11:46.199Z,158597.928,1635275335,full,ni_sequenzen,NI_Sequenzen,,,,,,,,,,,,,,
,Screen_2,canvas.Screen,0_2_19_1,,skipped,20,158507.59999999986,,,158507,,158507.69999999995,2021-10-26T19:11:46.199Z,158597.928,1635275335,full,ni_sequenzen,NI_Sequenzen,,,,,,,,,,,,,,
,Screen_3,canvas.Screen,0_2_19_2,,skipped,20,158508.3999999999,,,158507,,158508.3999999999,2021-10-26T19:11:46.200Z,158597.928,1635275335,full,ni_sequenzen,NI_Sequenzen,,,,,,,,,,,,,,
,Screen_4,canvas.Screen,0_2_19_3,,skipped,20,158509,,,158507,,158509,2021-10-26T19:11:46.201Z,158597.928,1635275335,full,ni_sequenzen,NI_Sequenzen,,,,,,,,,,,,,,
,Screen_5,canvas.Screen,0_2_19_4,,skipped,20,158509.69999999995,,,158507,,158509.69999999995,2021-10-26T19:11:46.201Z,158597.928,1635275335,full,ni_sequenzen,NI_Sequenzen,,,,,,,,,,,,,,
,Screen_6,canvas.Screen,0_2_19_5,,skipped,20,158510.3999999999,,,158507,,158510.3999999999,2021-10-26T19:11:46.202Z,158597.928,1635275335,full,ni_sequenzen,NI_Sequenzen,,,,,,,,,,,,,,
,Sequence,flow.Sequence,0_2_19,,completion,20,158506.3999999999,,,158507,,158510.5,2021-10-26T19:11:46.202Z,158597.928,1635275335,full,ni_sequenzen,NI_Sequenzen,,,,,,,,,,,,,,
,Screen_1,canvas.Screen,0_2_20_0,,skipped,21,158511.30000000005,,,158511.30000000005,,158511.3999999999,2021-10-26T19:11:46.203Z,158597.928,1635275335,full,ni_sequenzen,NI_Sequenzen,,,,,,,,,,,,,,
,Screen_2,canvas.Screen,0_2_20_1,,skipped,21,158512.09999999986,,,158511.30000000005,,158512.09999999986,2021-10-26T19:11:46.204Z,158597.928,1635275335,full,ni_sequenzen,NI_Sequenzen,,,,,,,,,,,,,,
,Screen_3,canvas.Screen,0_2_20_2,,skipped,21,158512.69999999995,,,158511.30000000005,,158512.69999999995,2021-10-26T19:11:46.204Z,158597.928,1635275335,full,ni_sequenzen,NI_Sequenzen,,,,,,,,,,,,,,
,Screen_4,canvas.Screen,0_2_20_3,,skipped,21,158514.09999999986,,,158511.30000000005,,158514.19999999995,2021-10-26T19:11:46.206Z,158597.928,1635275335,full,ni_sequenzen,NI_Sequenzen,,,,,,,,,,,,,,
,Screen_5,canvas.Screen,0_2_20_4,,skipped,21,158514.80000000005,,,158511.30000000005,,158514.80000000005,2021-10-26T19:11:46.206Z,158597.928,1635275335,full,ni_sequenzen,NI_Sequenzen,,,,,,,,,,,,,,
,Screen_6,canvas.Screen,0_2_20_5,,skipped,21,158515.5,,,158511.30000000005,,158515.5,2021-10-26T19:11:46.207Z,158597.928,1635275335,full,ni_sequenzen,NI_Sequenzen,,,,,,,,,,,,,,
,Sequence,flow.Sequence,0_2_20,,completion,21,158510.80000000005,,,158511.30000000005,,158515.59999999986,2021-10-26T19:11:46.207Z,158597.928,1635275335,full,ni_sequenzen,NI_Sequenzen,,,,,,,,,,,,,,
,Screen_1,canvas.Screen,0_2_21_0,,skipped,22,158516.5,,,158516.59999999986,,158516.59999999986,2021-10-26T19:11:46.208Z,158597.928,1635275335,full,ni_sequenzen,NI_Sequenzen,,,,,,,,,,,,,,
,Screen_2,canvas.Screen,0_2_21_1,,skipped,22,158517.19999999995,,,158516.59999999986,,158517.30000000005,2021-10-26T19:11:46.209Z,158597.928,1635275335,full,ni_sequenzen,NI_Sequenzen,,,,,,,,,,,,,,
,Screen_3,canvas.Screen,0_2_21_2,,skipped,22,158517.8999999999,,,158516.59999999986,,158518,2021-10-26T19:11:46.210Z,158597.928,1635275335,full,ni_sequenzen,NI_Sequenzen,,,,,,,,,,,,,,
,Screen_4,canvas.Screen,0_2_21_3,,skipped,22,158518.5,,,158516.59999999986,,158518.59999999986,2021-10-26T19:11:46.210Z,158597.928,1635275335,full,ni_sequenzen,NI_Sequenzen,,,,,,,,,,,,,,
,Screen_5,canvas.Screen,0_2_21_4,,skipped,22,158519.80000000005,,,158516.59999999986,,158520,2021-10-26T19:11:46.212Z,158597.928,1635275335,full,ni_sequenzen,NI_Sequenzen,,,,,,,,,,,,,,
,Screen_6,canvas.Screen,0_2_21_5,,skipped,22,158520.69999999995,,,158516.59999999986,,158520.8999999999,2021-10-26T19:11:46.212Z,158597.928,1635275335,full,ni_sequenzen,NI_Sequenzen,,,,,,,,,,,,,,
,Sequence,flow.Sequence,0_2_21,,completion,22,158515.8999999999,,,158516.59999999986,,158520.8999999999,2021-10-26T19:11:46.213Z,158597.928,1635275335,full,ni_sequenzen,NI_Sequenzen,,,,,,,,,,,,,,
,Screen_1,canvas.Screen,0_2_22_0,,skipped,23,158522.09999999986,,,158522.09999999986,,158522.09999999986,2021-10-26T19:11:46.214Z,158597.928,1635275335,full,ni_sequenzen,NI_Sequenzen,,,,,,,,,,,,,,
,Screen_2,canvas.Screen,0_2_22_1,,skipped,23,158522.8999999999,,,158522.09999999986,,158523,2021-10-26T19:11:46.215Z,158597.928,1635275335,full,ni_sequenzen,NI_Sequenzen,,,,,,,,,,,,,,
,Screen_3,canvas.Screen,0_2_22_2,,skipped,23,158524.09999999986,,,158522.09999999986,,158524.19999999995,2021-10-26T19:11:46.216Z,158597.928,1635275335,full,ni_sequenzen,NI_Sequenzen,,,,,,,,,,,,,,
,Screen_4,canvas.Screen,0_2_22_3,,skipped,23,158525.30000000005,,,158522.09999999986,,158525.30000000005,2021-10-26T19:11:46.217Z,158597.928,1635275335,full,ni_sequenzen,NI_Sequenzen,,,,,,,,,,,,,,
,Screen_5,canvas.Screen,0_2_22_4,,skipped,23,158526,,,158522.09999999986,,158526.09999999986,2021-10-26T19:11:46.218Z,158597.928,1635275335,full,ni_sequenzen,NI_Sequenzen,,,,,,,,,,,,,,
,Screen_6,canvas.Screen,0_2_22_5,,skipped,23,158526.80000000005,,,158522.09999999986,,158526.80000000005,2021-10-26T19:11:46.218Z,158597.928,1635275335,full,ni_sequenzen,NI_Sequenzen,,,,,,,,,,,,,,
,Sequence,flow.Sequence,0_2_22,,completion,23,158521.30000000005,,,158522.09999999986,,158526.8999999999,2021-10-26T19:11:46.218Z,158597.928,1635275335,full,ni_sequenzen,NI_Sequenzen,,,,,,,,,,,,,,
,Screen_1,canvas.Screen,0_2_23_0,,skipped,24,158527.80000000005,,,158527.8999999999,,158527.8999999999,2021-10-26T19:11:46.219Z,158597.928,1635275335,full,ni_sequenzen,NI_Sequenzen,,,,,,,,,,,,,,
,Screen_2,canvas.Screen,0_2_23_1,,skipped,24,158529.30000000005,,,158527.8999999999,,158529.30000000005,2021-10-26T19:11:46.221Z,158597.928,1635275335,full,ni_sequenzen,NI_Sequenzen,,,,,,,,,,,,,,
,Screen_3,canvas.Screen,0_2_23_2,,skipped,24,158530,,,158527.8999999999,,158530.09999999986,2021-10-26T19:11:46.222Z,158597.928,1635275335,full,ni_sequenzen,NI_Sequenzen,,,,,,,,,,,,,,
,Screen_4,canvas.Screen,0_2_23_3,,skipped,24,158530.69999999995,,,158527.8999999999,,158530.69999999995,2021-10-26T19:11:46.222Z,158597.928,1635275335,full,ni_sequenzen,NI_Sequenzen,,,,,,,,,,,,,,
,Screen_5,canvas.Screen,0_2_23_4,,skipped,24,158531.30000000005,,,158527.8999999999,,158531.3999999999,2021-10-26T19:11:46.223Z,158597.928,1635275335,full,ni_sequenzen,NI_Sequenzen,,,,,,,,,,,,,,
,Screen_6,canvas.Screen,0_2_23_5,,skipped,24,158532,,,158527.8999999999,,158532.09999999986,2021-10-26T19:11:46.224Z,158597.928,1635275335,full,ni_sequenzen,NI_Sequenzen,,,,,,,,,,,,,,
,Sequence,flow.Sequence,0_2_23,,completion,24,158527.19999999995,,,158527.8999999999,,158532.19999999995,2021-10-26T19:11:46.224Z,158597.928,1635275335,full,ni_sequenzen,NI_Sequenzen,,,,,,,,,,,,,,
,Screen_1,canvas.Screen,0_2_24_0,,skipped,25,158533,,,158533,,158533.09999999986,2021-10-26T19:11:46.225Z,158597.928,1635275335,full,ni_sequenzen,NI_Sequenzen,,,,,,,,,,,,,,
,Screen_2,canvas.Screen,0_2_24_1,,skipped,25,158533.69999999995,,,158533,,158533.80000000005,2021-10-26T19:11:46.225Z,158597.928,1635275335,full,ni_sequenzen,NI_Sequenzen,,,,,,,,,,,,,,
,Screen_3,canvas.Screen,0_2_24_2,,skipped,25,158534.30000000005,,,158533,,158534.3999999999,2021-10-26T19:11:46.226Z,158597.928,1635275335,full,ni_sequenzen,NI_Sequenzen,,,,,,,,,,,,,,
,Screen_4,canvas.Screen,0_2_24_3,,skipped,25,158535,,,158533,,158535,2021-10-26T19:11:46.227Z,158597.928,1635275335,full,ni_sequenzen,NI_Sequenzen,,,,,,,,,,,,,,
,Screen_5,canvas.Screen,0_2_24_4,,skipped,25,158535.69999999995,,,158533,,158535.80000000005,2021-10-26T19:11:46.227Z,158597.928,1635275335,full,ni_sequenzen,NI_Sequenzen,,,,,,,,,,,,,,
,Screen_6,canvas.Screen,0_2_24_5,,skipped,25,158536.3999999999,,,158533,,158536.3999999999,2021-10-26T19:11:46.228Z,158597.928,1635275335,full,ni_sequenzen,NI_Sequenzen,,,,,,,,,,,,,,
,Sequence,flow.Sequence,0_2_24,,completion,25,158532.3999999999,,,158533,,158536.5,2021-10-26T19:11:46.228Z,158597.928,1635275335,full,ni_sequenzen,NI_Sequenzen,,,,,,,,,,,,,,
,Screen_1,canvas.Screen,0_2_25_0,,skipped,26,158537.3999999999,,,158537.3999999999,,158537.3999999999,2021-10-26T19:11:46.229Z,158597.928,1635275335,full,ni_sequenzen,NI_Sequenzen,,,,,,,,,,,,,,
,Screen_2,canvas.Screen,0_2_25_1,,skipped,26,158538,,,158537.3999999999,,158538.09999999986,2021-10-26T19:11:46.230Z,158597.928,1635275335,full,ni_sequenzen,NI_Sequenzen,,,,,,,,,,,,,,
,Screen_3,canvas.Screen,0_2_25_2,,skipped,26,158538.69999999995,,,158537.3999999999,,158538.69999999995,2021-10-26T19:11:46.230Z,158597.928,1635275335,full,ni_sequenzen,NI_Sequenzen,,,,,,,,,,,,,,
,Screen_4,canvas.Screen,0_2_25_3,,skipped,26,158539.30000000005,,,158537.3999999999,,158539.30000000005,2021-10-26T19:11:46.231Z,158597.928,1635275335,full,ni_sequenzen,NI_Sequenzen,,,,,,,,,,,,,,
,Screen_5,canvas.Screen,0_2_25_4,,skipped,26,158540.80000000005,,,158537.3999999999,,158540.80000000005,2021-10-26T19:11:46.232Z,158597.928,1635275335,full,ni_sequenzen,NI_Sequenzen,,,,,,,,,,,,,,
,Screen_6,canvas.Screen,0_2_25_5,,skipped,26,158541.3999999999,,,158537.3999999999,,158541.5,2021-10-26T19:11:46.233Z,158597.928,1635275335,full,ni_sequenzen,NI_Sequenzen,,,,,,,,,,,,,,
,Sequence,flow.Sequence,0_2_25,,completion,26,158536.69999999995,,,158537.3999999999,,158541.59999999986,2021-10-26T19:11:46.233Z,158597.928,1635275335,full,ni_sequenzen,NI_Sequenzen,,,,,,,,,,,,,,
,Screen_1,canvas.Screen,0_2_26_0,,skipped,27,158542.5,,,158542.5,,158542.5,2021-10-26T19:11:46.234Z,158597.928,1635275335,full,ni_sequenzen,NI_Sequenzen,,,,,,,,,,,,,,
,Screen_2,canvas.Screen,0_2_26_1,,skipped,27,158543.09999999986,,,158542.5,,158543.30000000005,2021-10-26T19:11:46.235Z,158597.928,1635275335,full,ni_sequenzen,NI_Sequenzen,,,,,,,,,,,,,,
,Screen_3,canvas.Screen,0_2_26_2,,skipped,27,158544.09999999986,,,158542.5,,158544.09999999986,2021-10-26T19:11:46.236Z,158597.928,1635275335,full,ni_sequenzen,NI_Sequenzen,,,,,,,,,,,,,,
,Screen_4,canvas.Screen,0_2_26_3,,skipped,27,158544.80000000005,,,158542.5,,158544.8999999999,2021-10-26T19:11:46.236Z,158597.928,1635275335,full,ni_sequenzen,NI_Sequenzen,,,,,,,,,,,,,,
,Screen_5,canvas.Screen,0_2_26_4,,skipped,27,158545.5,,,158542.5,,158545.5,2021-10-26T19:11:46.237Z,158597.928,1635275335,full,ni_sequenzen,NI_Sequenzen,,,,,,,,,,,,,,
,Screen_6,canvas.Screen,0_2_26_5,,skipped,27,158546.19999999995,,,158542.5,,158546.19999999995,2021-10-26T19:11:46.238Z,158597.928,1635275335,full,ni_sequenzen,NI_Sequenzen,,,,,,,,,,,,,,
,Sequence,flow.Sequence,0_2_26,,completion,27,158541.8999999999,,,158542.5,,158546.3999999999,2021-10-26T19:11:46.238Z,158597.928,1635275335,full,ni_sequenzen,NI_Sequenzen,,,,,,,,,,,,,,
,Screen_1,canvas.Screen,0_2_27_0,,skipped,28,158547.19999999995,,,158547.19999999995,,158547.30000000005,2021-10-26T19:11:46.239Z,158597.928,1635275335,full,ni_sequenzen,NI_Sequenzen,,,,,,,,,,,,,,
,Screen_2,canvas.Screen,0_2_27_1,,skipped,28,158547.8999999999,,,158547.19999999995,,158547.8999999999,2021-10-26T19:11:46.239Z,158597.928,1635275335,full,ni_sequenzen,NI_Sequenzen,,,,,,,,,,,,,,
,Screen_3,canvas.Screen,0_2_27_2,,skipped,28,158548.5,,,158547.19999999995,,158548.59999999986,2021-10-26T19:11:46.240Z,158597.928,1635275335,full,ni_sequenzen,NI_Sequenzen,,,,,,,,,,,,,,
,Screen_4,canvas.Screen,0_2_27_3,,skipped,28,158549.19999999995,,,158547.19999999995,,158549.19999999995,2021-10-26T19:11:46.241Z,158597.928,1635275335,full,ni_sequenzen,NI_Sequenzen,,,,,,,,,,,,,,
,Screen_5,canvas.Screen,0_2_27_4,,skipped,28,158549.80000000005,,,158547.19999999995,,158549.8999999999,2021-10-26T19:11:46.241Z,158597.928,1635275335,full,ni_sequenzen,NI_Sequenzen,,,,,,,,,,,,,,
,Screen_6,canvas.Screen,0_2_27_5,,skipped,28,158550.5,,,158547.19999999995,,158550.5,2021-10-26T19:11:46.242Z,158597.928,1635275335,full,ni_sequenzen,NI_Sequenzen,,,,,,,,,,,,,,
,Sequence,flow.Sequence,0_2_27,,completion,28,158546.59999999986,,,158547.19999999995,,158550.59999999986,2021-10-26T19:11:46.242Z,158597.928,1635275335,full,ni_sequenzen,NI_Sequenzen,,,,,,,,,,,,,,
,Screen_1,canvas.Screen,0_2_28_0,,skipped,29,158551.59999999986,,,158551.59999999986,,158551.69999999995,2021-10-26T19:11:46.243Z,158597.928,1635275335,full,ni_sequenzen,NI_Sequenzen,,,,,,,,,,,,,,
,Screen_2,canvas.Screen,0_2_28_1,,skipped,29,158552.19999999995,,,158551.59999999986,,158552.30000000005,2021-10-26T19:11:46.244Z,158597.928,1635275335,full,ni_sequenzen,NI_Sequenzen,,,,,,,,,,,,,,
,Screen_3,canvas.Screen,0_2_28_2,,skipped,29,158552.8999999999,,,158551.59999999986,,158553,2021-10-26T19:11:46.245Z,158597.928,1635275335,full,ni_sequenzen,NI_Sequenzen,,,,,,,,,,,,,,
,Screen_4,canvas.Screen,0_2_28_3,,skipped,29,158553.5,,,158551.59999999986,,158553.59999999986,2021-10-26T19:11:46.245Z,158597.928,1635275335,full,ni_sequenzen,NI_Sequenzen,,,,,,,,,,,,,,
,Screen_5,canvas.Screen,0_2_28_4,,skipped,29,158554.19999999995,,,158551.59999999986,,158554.30000000005,2021-10-26T19:11:46.246Z,158597.928,1635275335,full,ni_sequenzen,NI_Sequenzen,,,,,,,,,,,,,,
,Screen_6,canvas.Screen,0_2_28_5,,skipped,29,158554.80000000005,,,158551.59999999986,,158554.8999999999,2021-10-26T19:11:46.246Z,158597.928,1635275335,full,ni_sequenzen,NI_Sequenzen,,,,,,,,,,,,,,
,Sequence,flow.Sequence,0_2_28,,completion,29,158551,,,158551.59999999986,,158555,2021-10-26T19:11:46.247Z,158597.928,1635275335,full,ni_sequenzen,NI_Sequenzen,,,,,,,,,,,,,,
,Screen_1,canvas.Screen,0_2_29_0,,skipped,30,158555.8999999999,,,158555.8999999999,,158555.8999999999,2021-10-26T19:11:46.247Z,158597.928,1635275335,full,ni_sequenzen,NI_Sequenzen,,,,,,,,,,,,,,
,Screen_2,canvas.Screen,0_2_29_1,,skipped,30,158556.59999999986,,,158555.8999999999,,158556.59999999986,2021-10-26T19:11:46.248Z,158597.928,1635275335,full,ni_sequenzen,NI_Sequenzen,,,,,,,,,,,,,,
,Screen_3,canvas.Screen,0_2_29_2,,skipped,30,158557.19999999995,,,158555.8999999999,,158557.19999999995,2021-10-26T19:11:46.249Z,158597.928,1635275335,full,ni_sequenzen,NI_Sequenzen,,,,,,,,,,,,,,
,Screen_4,canvas.Screen,0_2_29_3,,skipped,30,158557.80000000005,,,158555.8999999999,,158557.8999999999,2021-10-26T19:11:46.249Z,158597.928,1635275335,full,ni_sequenzen,NI_Sequenzen,,,,,,,,,,,,,,
,Screen_5,canvas.Screen,0_2_29_4,,skipped,30,158558.5,,,158555.8999999999,,158558.5,2021-10-26T19:11:46.250Z,158597.928,1635275335,full,ni_sequenzen,NI_Sequenzen,,,,,,,,,,,,,,
,Screen_6,canvas.Screen,0_2_29_5,,skipped,30,158559.19999999995,,,158555.8999999999,,158559.19999999995,2021-10-26T19:11:46.251Z,158597.928,1635275335,full,ni_sequenzen,NI_Sequenzen,,,,,,,,,,,,,,
,Sequence,flow.Sequence,0_2_29,,completion,30,158555.30000000005,,,158555.8999999999,,158559.30000000005,2021-10-26T19:11:46.251Z,158597.928,1635275335,full,ni_sequenzen,NI_Sequenzen,,,,,,,,,,,,,,
,Instructions_II,flow.Loop,0_2,,completion,,92828.8999999999,92830.425,92846.903,158555.8999999999,65708.9969999999,158559.3999999999,2021-10-26T19:11:46.251Z,158597.928,1635275335,full,ni_sequenzen,NI_Sequenzen,,,,,,,,,,,,,,
,Move,canvas.Screen,0_3_0_0_0_0,down,response,,158589.5,158582.516,158597.928,166713.3999999999,8115.471999999892,166714.59999999986,2021-10-26T19:11:54.406Z,166739.867,1635275335,full,ni_sequenzen,NI_Sequenzen,1,0,,,,,,,,,,,,
,Move,canvas.Screen,0_3_0_0_0_1,left,response,,166732.09999999986,166724.13,166739.867,167580.69999999995,840.8329999999551,167581.80000000005,2021-10-26T19:11:55.273Z,167620.967,1635275335,full,ni_sequenzen,NI_Sequenzen,2,0,,,,,,,,,,,,
,Move,canvas.Screen,0_3_0_0_0_2,down,response,,167587.69999999995,167572.566,167620.967,168265.3999999999,644.4329999999027,168266.5,2021-10-26T19:11:55.958Z,168288.32,1635275335,full,ni_sequenzen,NI_Sequenzen,3,0,,,,,,,,,,,,
,Move,canvas.Screen,0_3_0_0_0_3,left,response,,168273,168271.822,168288.32,168975.8999999999,687.5799999998999,168977.09999999986,2021-10-26T19:11:56.669Z,169037.624,1635275335,full,ni_sequenzen,NI_Sequenzen,4,0,,,,,,,,,,,,
,Move,canvas.Screen,0_3_0_0_0_4,-999,skipped,,168983.3999999999,,,168975.8999999999,,168983.59999999986,2021-10-26T19:11:56.675Z,169037.624,1635275335,full,ni_sequenzen,NI_Sequenzen,5,0,,,,,,,,,,,,
,Move,canvas.Screen,0_3_0_0_0_5,-999,skipped,,168989.09999999986,,,168975.8999999999,,168989.30000000005,2021-10-26T19:11:56.681Z,169037.624,1635275335,full,ni_sequenzen,NI_Sequenzen,6,0,,,,,,,,,,,,
,Move,canvas.Screen,0_3_0_0_0_6,-999,skipped,,168994.80000000005,,,168975.8999999999,,168995,2021-10-26T19:11:56.687Z,169037.624,1635275335,full,ni_sequenzen,NI_Sequenzen,7,0,,,,,,,,,,,,
,Move,canvas.Screen,0_3_0_0_0_7,-999,skipped,,168998.80000000005,,,168975.8999999999,,168999,2021-10-26T19:11:56.691Z,169037.624,1635275335,full,ni_sequenzen,NI_Sequenzen,8,0,,,,,,,,,,,,
,Move,canvas.Screen,0_3_0_0_0_8,-999,skipped,,169002.69999999995,,,168975.8999999999,,169002.8999999999,2021-10-26T19:11:56.694Z,169037.624,1635275335,full,ni_sequenzen,NI_Sequenzen,9,0,,,,,,,,,,,,
,Move,canvas.Screen,0_3_0_0_0_9,-999,skipped,,169007.80000000005,,,168975.8999999999,,169007.8999999999,2021-10-26T19:11:56.699Z,169037.624,1635275335,full,ni_sequenzen,NI_Sequenzen,10,0,,,,,,,,,,,,
,Move,canvas.Screen,0_3_0_0_0_10,-999,skipped,,169011.69999999995,,,168975.8999999999,,169011.80000000005,2021-10-26T19:11:56.703Z,169037.624,1635275335,full,ni_sequenzen,NI_Sequenzen,11,0,,,,,,,,,,,,
,Move,canvas.Screen,0_3_0_0_0_11,-999,skipped,,169016.69999999995,,,168975.8999999999,,169016.80000000005,2021-10-26T19:11:56.708Z,169037.624,1635275335,full,ni_sequenzen,NI_Sequenzen,12,0,,,,,,,,,,,,
,Move,canvas.Screen,0_3_0_0_0_12,-999,skipped,,169020.80000000005,,,168975.8999999999,,169020.8999999999,2021-10-26T19:11:56.712Z,169037.624,1635275335,full,ni_sequenzen,NI_Sequenzen,13,0,,,,,,,,,,,,
,Move,canvas.Screen,0_3_0_0_0_13,-999,skipped,,169022.5,,,168975.8999999999,,169022.59999999986,2021-10-26T19:11:56.714Z,169037.624,1635275335,full,ni_sequenzen,NI_Sequenzen,14,0,,,,,,,,,,,,
,Move,canvas.Screen,0_3_0_0_0_14,-999,skipped,,169025.30000000005,,,168975.8999999999,,169025.3999999999,2021-10-26T19:11:56.717Z,169037.624,1635275335,full,ni_sequenzen,NI_Sequenzen,15,0,,,,,,,,,,,,
,Loop,flow.Loop,0_3_0_0_0,-999,completion,,158585.59999999986,158582.516,158597.928,168975.8999999999,10377.971999999892,169025.5,2021-10-26T19:11:56.717Z,169037.624,1635275335,full,ni_sequenzen,NI_Sequenzen,,0,,,,,,,,,,,,
,Feedback,canvas.Screen,0_3_0_0_1,,timeout,,169027.80000000005,169021.142,169037.624,173017.049,4012.6089999999967,173019.30000000005,2021-10-26T19:12:00.711Z,173050.233,1635275335,full,ni_sequenzen,NI_Sequenzen,,0,,,,,,,,,,,,
,Trial,flow.Sequence,0_3_0_0,,completion,,158573,158582.516,158597.928,173017.049,14419.120999999985,173019.59999999986,2021-10-26T19:12:00.711Z,173066.963,1635275335,full,ni_sequenzen,NI_Sequenzen,,0,,,,,,,,,,,,
,Move,canvas.Screen,0_3_0_1_0_0,down,response,,173051.09999999986,173050.233,173066.963,183782.80000000005,10715.837000000058,183784.09999999986,2021-10-26T19:12:11.476Z,183806.271,1635275335,full,ni_sequenzen,NI_Sequenzen,1,1,,,,,,,,,,,,
,Move,canvas.Screen,0_3_0_1_0_1,left,response,,183793.19999999995,183790.84,183806.271,184511.19999999995,704.9289999999455,184512.30000000005,2021-10-26T19:12:12.204Z,184538.857,1635275335,full,ni_sequenzen,NI_Sequenzen,2,1,,,,,,,,,,,,
,Move,canvas.Screen,0_3_0_1_0_2,down,response,,184517.80000000005,184505.69,184538.857,184940.59999999986,401.74299999987124,184941.80000000005,2021-10-26T19:12:12.633Z,184955.101,1635275335,full,ni_sequenzen,NI_Sequenzen,3,1,,,,,,,,,,,,
,Move,canvas.Screen,0_3_0_1_0_3,left,response,,184948.8999999999,184938.514,184955.101,186613.69999999995,1658.5989999999583,186614.8999999999,2021-10-26T19:12:14.306Z,186670.026,1635275335,full,ni_sequenzen,NI_Sequenzen,4,1,,,,,,,,,,,,
,Move,canvas.Screen,0_3_0_1_0_4,-999,skipped,,186620.8999999999,,,186613.69999999995,,186621.09999999986,2021-10-26T19:12:14.313Z,186670.026,1635275335,full,ni_sequenzen,NI_Sequenzen,5,1,,,,,,,,,,,,
,Move,canvas.Screen,0_3_0_1_0_5,-999,skipped,,186628.09999999986,,,186613.69999999995,,186628.30000000005,2021-10-26T19:12:14.320Z,186670.026,1635275335,full,ni_sequenzen,NI_Sequenzen,6,1,,,,,,,,,,,,
,Move,canvas.Screen,0_3_0_1_0_6,-999,skipped,,186634,,,186613.69999999995,,186634.19999999995,2021-10-26T19:12:14.326Z,186670.026,1635275335,full,ni_sequenzen,NI_Sequenzen,7,1,,,,,,,,,,,,
,Move,canvas.Screen,0_3_0_1_0_7,-999,skipped,,186639.59999999986,,,186613.69999999995,,186639.8999999999,2021-10-26T19:12:14.331Z,186670.026,1635275335,full,ni_sequenzen,NI_Sequenzen,8,1,,,,,,,,,,,,
,Move,canvas.Screen,0_3_0_1_0_8,-999,skipped,,186645.30000000005,,,186613.69999999995,,186645.69999999995,2021-10-26T19:12:14.337Z,186670.026,1635275335,full,ni_sequenzen,NI_Sequenzen,9,1,,,,,,,,,,,,
,Move,canvas.Screen,0_3_0_1_0_9,-999,skipped,,186649,,,186613.69999999995,,186649,2021-10-26T19:12:14.341Z,186670.026,1635275335,full,ni_sequenzen,NI_Sequenzen,10,1,,,,,,,,,,,,
,Move,canvas.Screen,0_3_0_1_0_10,-999,skipped,,186650.8999999999,,,186613.69999999995,,186651,2021-10-26T19:12:14.343Z,186670.026,1635275335,full,ni_sequenzen,NI_Sequenzen,11,1,,,,,,,,,,,,
,Move,canvas.Screen,0_3_0_1_0_11,-999,skipped,,186652.59999999986,,,186613.69999999995,,186652.69999999995,2021-10-26T19:12:14.344Z,186670.026,1635275335,full,ni_sequenzen,NI_Sequenzen,12,1,,,,,,,,,,,,
,Move,canvas.Screen,0_3_0_1_0_12,-999,skipped,,186654.80000000005,,,186613.69999999995,,186654.80000000005,2021-10-26T19:12:14.346Z,186670.026,1635275335,full,ni_sequenzen,NI_Sequenzen,13,1,,,,,,,,,,,,
,Move,canvas.Screen,0_3_0_1_0_13,-999,skipped,,186656.3999999999,,,186613.69999999995,,186656.5,2021-10-26T19:12:14.348Z,186670.026,1635275335,full,ni_sequenzen,NI_Sequenzen,14,1,,,,,,,,,,,,
,Move,canvas.Screen,0_3_0_1_0_14,-999,skipped,,186658.5,,,186613.69999999995,,186658.5,2021-10-26T19:12:14.350Z,186670.026,1635275335,full,ni_sequenzen,NI_Sequenzen,15,1,,,,,,,,,,,,
,Loop,flow.Loop,0_3_0_1_0,-999,completion,,173046.80000000005,173050.233,173066.963,186613.69999999995,13546.736999999965,186658.69999999995,2021-10-26T19:12:14.350Z,186670.026,1635275335,full,ni_sequenzen,NI_Sequenzen,,1,,,,,,,,,,,,
,Feedback,canvas.Screen,0_3_0_1_1,,timeout,,186660.3999999999,186653.738,186670.026,190649.485,3996.05799999999,190650.80000000005,2021-10-26T19:12:18.339Z,190666.084,1635275335,full,ni_sequenzen,NI_Sequenzen,,1,,,,,,,,,,,,
,Trial,flow.Sequence,0_3_0_1,,completion,,173020.3999999999,173050.233,173066.963,190649.485,17582.521999999997,190651,2021-10-26T19:12:18.339Z,190699.327,1635275335,full,ni_sequenzen,NI_Sequenzen,,1,,,,,,,,,,,,
,Move,canvas.Screen,0_3_0_2_0_0,down,response,,190681.5,190666.084,190699.327,195297.30000000005,4597.973000000056,195298.3999999999,2021-10-26T19:12:22.986Z,195311.484,1635275335,full,ni_sequenzen,NI_Sequenzen,1,2,,,,,,,,,,,,
,Move,canvas.Screen,0_3_0_2_0_1,left,response,,195305.5,195295.307,195311.484,195570.8999999999,259.4159999999101,195571.8999999999,2021-10-26T19:12:23.260Z,195594.49,1635275335,full,ni_sequenzen,NI_Sequenzen,2,2,,,,,,,,,,,,
,Move,canvas.Screen,0_3_0_2_0_2,down,response,,195580.09999999986,195578.041,195594.49,195848.69999999995,254.20999999996275,195849.80000000005,2021-10-26T19:12:23.538Z,195877.556,1635275335,full,ni_sequenzen,NI_Sequenzen,3,2,,,,,,,,,,,,
,Move,canvas.Screen,0_3_0_2_0_3,left,response,,195856,195844.338,195877.556,196165.3999999999,287.84399999989546,196166.59999999986,2021-10-26T19:12:23.854Z,196227.21,1635275335,full,ni_sequenzen,NI_Sequenzen,4,2,,,,,,,,,,,,
,Move,canvas.Screen,0_3_0_2_0_4,-999,skipped,,196173.69999999995,,,196165.3999999999,,196173.8999999999,2021-10-26T19:12:23.862Z,196227.21,1635275335,full,ni_sequenzen,NI_Sequenzen,5,2,,,,,,,,,,,,
,Move,canvas.Screen,0_3_0_2_0_5,-999,skipped,,196180.80000000005,,,196165.3999999999,,196181.19999999995,2021-10-26T19:12:23.869Z,196227.21,1635275335,full,ni_sequenzen,NI_Sequenzen,6,2,,,,,,,,,,,,
,Move,canvas.Screen,0_3_0_2_0_6,-999,skipped,,196186.5,,,196165.3999999999,,196186.80000000005,2021-10-26T19:12:23.875Z,196227.21,1635275335,full,ni_sequenzen,NI_Sequenzen,7,2,,,,,,,,,,,,
,Move,canvas.Screen,0_3_0_2_0_7,-999,skipped,,196193.80000000005,,,196165.3999999999,,196194,2021-10-26T19:12:23.882Z,196227.21,1635275335,full,ni_sequenzen,NI_Sequenzen,8,2,,,,,,,,,,,,
,Move,canvas.Screen,0_3_0_2_0_8,-999,skipped,,196199.3999999999,,,196165.3999999999,,196199.59999999986,2021-10-26T19:12:23.887Z,196227.21,1635275335,full,ni_sequenzen,NI_Sequenzen,9,2,,,,,,,,,,,,
,Move,canvas.Screen,0_3_0_2_0_9,-999,skipped,,196205,,,196165.3999999999,,196205.19999999995,2021-10-26T19:12:23.893Z,196227.21,1635275335,full,ni_sequenzen,NI_Sequenzen,10,2,,,,,,,,,,,,
,Move,canvas.Screen,0_3_0_2_0_10,-999,skipped,,196209.80000000005,,,196165.3999999999,,196209.8999999999,2021-10-26T19:12:23.898Z,196227.21,1635275335,full,ni_sequenzen,NI_Sequenzen,11,2,,,,,,,,,,,,
,Move,canvas.Screen,0_3_0_2_0_11,-999,skipped,,196211.5,,,196165.3999999999,,196211.59999999986,2021-10-26T19:12:23.899Z,196227.21,1635275335,full,ni_sequenzen,NI_Sequenzen,12,2,,,,,,,,,,,,
,Move,canvas.Screen,0_3_0_2_0_12,-999,skipped,,196213.09999999986,,,196165.3999999999,,196213.09999999986,2021-10-26T19:12:23.901Z,196227.21,1635275335,full,ni_sequenzen,NI_Sequenzen,13,2,,,,,,,,,,,,
,Move,canvas.Screen,0_3_0_2_0_13,-999,skipped,,196214.80000000005,,,196165.3999999999,,196214.8999999999,2021-10-26T19:12:23.903Z,196227.21,1635275335,full,ni_sequenzen,NI_Sequenzen,14,2,,,,,,,,,,,,
,Move,canvas.Screen,0_3_0_2_0_14,-999,skipped,,196217,,,196165.3999999999,,196217.09999999986,2021-10-26T19:12:23.905Z,196227.21,1635275335,full,ni_sequenzen,NI_Sequenzen,15,2,,,,,,,,,,,,
,Loop,flow.Loop,0_3_0_2_0,-999,completion,,190678.09999999986,190666.084,190699.327,196165.3999999999,5466.072999999917,196217.30000000005,2021-10-26T19:12:23.905Z,196227.21,1635275335,full,ni_sequenzen,NI_Sequenzen,,2,,,,,,,,,,,,
,Feedback,canvas.Screen,0_3_0_2_1,,timeout,,196218.59999999986,196210.607,196227.21,200206.632,4012.616000000009,200207.8999999999,2021-10-26T19:12:27.896Z,200239.826,1635275335,full,ni_sequenzen,NI_Sequenzen,,2,,,,,,,,,,,,
,Trial,flow.Sequence,0_3_0_2,,completion,,190651.69999999995,190666.084,190699.327,200206.632,9507.305000000022,200208.19999999995,2021-10-26T19:12:27.896Z,200256.578,1635275335,full,ni_sequenzen,NI_Sequenzen,,2,,,,,,,,,,,,
,Move,canvas.Screen,0_3_0_3_0_0,down,response,,200240.59999999986,200239.826,200256.578,208436.19999999995,8179.621999999945,208436.80000000005,2021-10-26T19:12:36.125Z,208448.301,1635275335,full,ni_sequenzen,NI_Sequenzen,1,3,,,,,,,,,,,,
,Move,canvas.Screen,0_3_0_3_0_1,right,response,,208440.09999999986,208432.661,208448.301,208648.30000000005,199.9990000000398,208648.80000000005,2021-10-26T19:12:36.337Z,208664.768,1635275335,full,ni_sequenzen,NI_Sequenzen,2,3,,,,,,,,,,,,
,Move,canvas.Screen,0_3_0_3_0_2,right,response,,208651.19999999995,208648.131,208664.768,212149.80000000005,3485.0320000000356,212150.80000000005,2021-10-26T19:12:39.839Z,212161.374,1635275335,full,ni_sequenzen,NI_Sequenzen,3,3,,,,,,,,,,,,
,Move,canvas.Screen,0_3_0_3_0_3,down,response,,212158.19999999995,212145.037,212161.374,212339.19999999995,177.82599999994272,212340.30000000005,2021-10-26T19:12:40.028Z,212411.093,1635275335,full,ni_sequenzen,NI_Sequenzen,4,3,,,,,,,,,,,,
,Move,canvas.Screen,0_3_0_3_0_4,-999,skipped,,212346.09999999986,,,212339.19999999995,,212346.3999999999,2021-10-26T19:12:40.034Z,212411.093,1635275335,full,ni_sequenzen,NI_Sequenzen,5,3,,,,,,,,,,,,
,Move,canvas.Screen,0_3_0_3_0_5,-999,skipped,,212352,,,212339.19999999995,,212352.30000000005,2021-10-26T19:12:40.040Z,212411.093,1635275335,full,ni_sequenzen,NI_Sequenzen,6,3,,,,,,,,,,,,
,Move,canvas.Screen,0_3_0_3_0_6,-999,skipped,,212357.5,,,212339.19999999995,,212357.80000000005,2021-10-26T19:12:40.046Z,212411.093,1635275335,full,ni_sequenzen,NI_Sequenzen,7,3,,,,,,,,,,,,
,Move,canvas.Screen,0_3_0_3_0_7,-999,skipped,,212366,,,212339.19999999995,,212366.19999999995,2021-10-26T19:12:40.054Z,212411.093,1635275335,full,ni_sequenzen,NI_Sequenzen,8,3,,,,,,,,,,,,
,Move,canvas.Screen,0_3_0_3_0_8,-999,skipped,,212372.19999999995,,,212339.19999999995,,212372.3999999999,2021-10-26T19:12:40.060Z,212411.093,1635275335,full,ni_sequenzen,NI_Sequenzen,9,3,,,,,,,,,,,,
,Move,canvas.Screen,0_3_0_3_0_9,-999,skipped,,212377.8999999999,,,212339.19999999995,,212378.09999999986,2021-10-26T19:12:40.066Z,212411.093,1635275335,full,ni_sequenzen,NI_Sequenzen,10,3,,,,,,,,,,,,
,Move,canvas.Screen,0_3_0_3_0_10,-999,skipped,,212383.59999999986,,,212339.19999999995,,212383.80000000005,2021-10-26T19:12:40.072Z,212411.093,1635275335,full,ni_sequenzen,NI_Sequenzen,11,3,,,,,,,,,,,,
,Move,canvas.Screen,0_3_0_3_0_11,-999,skipped,,212387.3999999999,,,212339.19999999995,,212387.59999999986,2021-10-26T19:12:40.075Z,212411.093,1635275335,full,ni_sequenzen,NI_Sequenzen,12,3,,,,,,,,,,,,
,Move,canvas.Screen,0_3_0_3_0_12,-999,skipped,,212391.19999999995,,,212339.19999999995,,212391.30000000005,2021-10-26T19:12:40.079Z,212411.093,1635275335,full,ni_sequenzen,NI_Sequenzen,13,3,,,,,,,,,,,,
,Move,canvas.Screen,0_3_0_3_0_13,-999,skipped,,212396,,,212339.19999999995,,212396.09999999986,2021-10-26T19:12:40.084Z,212411.093,1635275335,full,ni_sequenzen,NI_Sequenzen,14,3,,,,,,,,,,,,
,Move,canvas.Screen,0_3_0_3_0_14,-999,skipped,,212399.80000000005,,,212339.19999999995,,212399.8999999999,2021-10-26T19:12:40.088Z,212411.093,1635275335,full,ni_sequenzen,NI_Sequenzen,15,3,,,,,,,,,,,,
,Loop,flow.Loop,0_3_0_3_0,-999,completion,,200236.8999999999,200239.826,200256.578,212339.19999999995,12082.621999999945,212400.19999999995,2021-10-26T19:12:40.088Z,212411.093,1635275335,full,ni_sequenzen,NI_Sequenzen,,3,,,,,,,,,,,,
,Feedback,canvas.Screen,0_3_0_3_1,,timeout,,212403.30000000005,212394.515,212411.093,216390.594,4012.6780000000144,216391.8999999999,2021-10-26T19:12:44.080Z,216423.771,1635275335,full,ni_sequenzen,NI_Sequenzen,,3,,,,,,,,,,,,
,Trial,flow.Sequence,0_3_0_3,,completion,,200208.8999999999,200239.826,200256.578,216390.594,16134.016000000003,216392.09999999986,2021-10-26T19:12:44.080Z,216440.401,1635275335,full,ni_sequenzen,NI_Sequenzen,,3,,,,,,,,,,,,
,Move,canvas.Screen,0_3_0_4_0_0,left,response,,216430.80000000005,216423.771,216440.401,227810.80000000005,11370.399000000034,227812,2021-10-26T19:12:55.500Z,227829.043,1635275335,full,ni_sequenzen,NI_Sequenzen,1,4,,,,,,,,,,,,
,Move,canvas.Screen,0_3_0_4_0_1,down,response,,227818,227813.752,227829.043,228293,463.9569999999949,228294.09999999986,2021-10-26T19:12:55.982Z,228328.56,1635275335,full,ni_sequenzen,NI_Sequenzen,2,4,,,,,,,,,,,,
,Move,canvas.Screen,0_3_0_4_0_2,down,response,,228300,228295.361,228328.56,230142.3999999999,1813.8399999999092,230143.69999999995,2021-10-26T19:12:57.832Z,230160.055,1635275335,full,ni_sequenzen,NI_Sequenzen,3,4,,,,,,,,,,,,
,Move,canvas.Screen,0_3_0_4_0_3,left,response,,230150.80000000005,230143.648,230160.055,230450.8999999999,290.84499999991385,230452,2021-10-26T19:12:58.140Z,230509.664,1635275335,full,ni_sequenzen,NI_Sequenzen,4,4,,,,,,,,,,,,
,Move,canvas.Screen,0_3_0_4_0_4,-999,skipped,,230457.8999999999,,,230450.8999999999,,230458.09999999986,2021-10-26T19:12:58.146Z,230509.664,1635275335,full,ni_sequenzen,NI_Sequenzen,5,4,,,,,,,,,,,,
,Move,canvas.Screen,0_3_0_4_0_5,-999,skipped,,230465,,,230450.8999999999,,230465.19999999995,2021-10-26T19:12:58.153Z,230509.664,1635275335,full,ni_sequenzen,NI_Sequenzen,6,4,,,,,,,,,,,,
,Move,canvas.Screen,0_3_0_4_0_6,-999,skipped,,230470.69999999995,,,230450.8999999999,,230471,2021-10-26T19:12:58.159Z,230509.664,1635275335,full,ni_sequenzen,NI_Sequenzen,7,4,,,,,,,,,,,,
,Move,canvas.Screen,0_3_0_4_0_7,-999,skipped,,230476.3999999999,,,230450.8999999999,,230476.5,2021-10-26T19:12:58.164Z,230509.664,1635275335,full,ni_sequenzen,NI_Sequenzen,8,4,,,,,,,,,,,,
,Move,canvas.Screen,0_3_0_4_0_8,-999,skipped,,230483.59999999986,,,230450.8999999999,,230484,2021-10-26T19:12:58.172Z,230509.664,1635275335,full,ni_sequenzen,NI_Sequenzen,9,4,,,,,,,,,,,,
,Move,canvas.Screen,0_3_0_4_0_9,-999,skipped,,230489.3999999999,,,230450.8999999999,,230489.69999999995,2021-10-26T19:12:58.177Z,230509.664,1635275335,full,ni_sequenzen,NI_Sequenzen,10,4,,,,,,,,,,,,
,Move,canvas.Screen,0_3_0_4_0_10,-999,skipped,,230495.8999999999,,,230450.8999999999,,230496.19999999995,2021-10-26T19:12:58.184Z,230509.664,1635275335,full,ni_sequenzen,NI_Sequenzen,11,4,,,,,,,,,,,,
,Move,canvas.Screen,0_3_0_4_0_11,-999,skipped,,230500.09999999986,,,230450.8999999999,,230500.30000000005,2021-10-26T19:12:58.188Z,230509.664,1635275335,full,ni_sequenzen,NI_Sequenzen,12,4,,,,,,,,,,,,
,Move,canvas.Screen,0_3_0_4_0_12,-999,skipped,,230502.3999999999,,,230450.8999999999,,230502.5,2021-10-26T19:12:58.190Z,230509.664,1635275335,full,ni_sequenzen,NI_Sequenzen,13,4,,,,,,,,,,,,
,Move,canvas.Screen,0_3_0_4_0_13,-999,skipped,,230504,,,230450.8999999999,,230504,2021-10-26T19:12:58.192Z,230509.664,1635275335,full,ni_sequenzen,NI_Sequenzen,14,4,,,,,,,,,,,,
,Move,canvas.Screen,0_3_0_4_0_14,-999,skipped,,230505.5,,,230450.8999999999,,230505.5,2021-10-26T19:12:58.193Z,230509.664,1635275335,full,ni_sequenzen,NI_Sequenzen,15,4,,,,,,,,,,,,
,Loop,flow.Loop,0_3_0_4_0,-999,completion,,216426.69999999995,216423.771,216440.401,230450.8999999999,14010.498999999894,230505.69999999995,2021-10-26T19:12:58.193Z,230509.664,1635275335,full,ni_sequenzen,NI_Sequenzen,,4,,,,,,,,,,,,
,Feedback,canvas.Screen,0_3_0_4_1,,timeout,,230507.5,230493.158,230509.664,234489.227,4012.7330000000075,234490.3999999999,2021-10-26T19:13:02.178Z,234522.397,1635275335,full,ni_sequenzen,NI_Sequenzen,,4,,,,,,,,,,,,
,Trial,flow.Sequence,0_3_0_4,,completion,,216392.80000000005,216423.771,216440.401,234489.227,18048.826,234490.69999999995,2021-10-26T19:13:02.178Z,234538.999,1635275335,full,ni_sequenzen,NI_Sequenzen,,4,,,,,,,,,,,,
,Move,canvas.Screen,0_3_0_5_0_0,down,response,,234527.09999999986,234522.397,234538.999,236218.19999999995,1679.2009999999427,236219.19999999995,2021-10-26T19:13:03.907Z,236237.341,1635275335,full,ni_sequenzen,NI_Sequenzen,1,5,,,,,,,,,,,,
,Move,canvas.Screen,0_3_0_5_0_1,left,response,,236226.19999999995,236220.957,236237.341,236327.3999999999,90.05899999992107,236328.3999999999,2021-10-26T19:13:04.016Z,236337.275,1635275335,full,ni_sequenzen,NI_Sequenzen,2,5,,,,,,,,,,,,
,Move,canvas.Screen,0_3_0_5_0_2,down,response,,236334.5,236320.664,236337.275,236445.59999999986,108.32499999986612,236446.80000000005,2021-10-26T19:13:04.135Z,236486.023,1635275335,full,ni_sequenzen,NI_Sequenzen,3,5,,,,,,,,,,,,
,Move,canvas.Screen,0_3_0_5_0_3,left,response,,236452.69999999995,236437.207,236486.023,236546.8999999999,60.87699999992037,236548.09999999986,2021-10-26T19:13:04.236Z,236603.613,1635275335,full,ni_sequenzen,NI_Sequenzen,4,5,,,,,,,,,,,,
,Move,canvas.Screen,0_3_0_5_0_4,-999,skipped,,236555.19999999995,,,236546.8999999999,,236555.59999999986,2021-10-26T19:13:04.243Z,236603.613,1635275335,full,ni_sequenzen,NI_Sequenzen,5,5,,,,,,,,,,,,
,Move,canvas.Screen,0_3_0_5_0_5,-999,skipped,,236561.09999999986,,,236546.8999999999,,236561.3999999999,2021-10-26T19:13:04.249Z,236603.613,1635275335,full,ni_sequenzen,NI_Sequenzen,6,5,,,,,,,,,,,,
,Move,canvas.Screen,0_3_0_5_0_6,-999,skipped,,236566.69999999995,,,236546.8999999999,,236567,2021-10-26T19:13:04.255Z,236603.613,1635275335,full,ni_sequenzen,NI_Sequenzen,7,5,,,,,,,,,,,,
,Move,canvas.Screen,0_3_0_5_0_7,-999,skipped,,236572,,,236546.8999999999,,236572,2021-10-26T19:13:04.260Z,236603.613,1635275335,full,ni_sequenzen,NI_Sequenzen,8,5,,,,,,,,,,,,
,Move,canvas.Screen,0_3_0_5_0_8,-999,skipped,,236574.80000000005,,,236546.8999999999,,236574.8999999999,2021-10-26T19:13:04.263Z,236603.613,1635275335,full,ni_sequenzen,NI_Sequenzen,9,5,,,,,,,,,,,,
,Move,canvas.Screen,0_3_0_5_0_9,-999,skipped,,236577.59999999986,,,236546.8999999999,,236577.59999999986,2021-10-26T19:13:04.265Z,236603.613,1635275335,full,ni_sequenzen,NI_Sequenzen,10,5,,,,,,,,,,,,
,Move,canvas.Screen,0_3_0_5_0_10,-999,skipped,,236581.09999999986,,,236546.8999999999,,236581.19999999995,2021-10-26T19:13:04.269Z,236603.613,1635275335,full,ni_sequenzen,NI_Sequenzen,11,5,,,,,,,,,,,,
,Move,canvas.Screen,0_3_0_5_0_11,-999,skipped,,236583.8999999999,,,236546.8999999999,,236584,2021-10-26T19:13:04.272Z,236603.613,1635275335,full,ni_sequenzen,NI_Sequenzen,12,5,,,,,,,,,,,,
,Move,canvas.Screen,0_3_0_5_0_12,-999,skipped,,236586.69999999995,,,236546.8999999999,,236586.80000000005,2021-10-26T19:13:04.275Z,236603.613,1635275335,full,ni_sequenzen,NI_Sequenzen,13,5,,,,,,,,,,,,
,Move,canvas.Screen,0_3_0_5_0_13,-999,skipped,,236589.5,,,236546.8999999999,,236589.59999999986,2021-10-26T19:13:04.277Z,236603.613,1635275335,full,ni_sequenzen,NI_Sequenzen,14,5,,,,,,,,,,,,
,Move,canvas.Screen,0_3_0_5_0_14,-999,skipped,,236592.8999999999,,,236546.8999999999,,236593,2021-10-26T19:13:04.281Z,236603.613,1635275335,full,ni_sequenzen,NI_Sequenzen,15,5,,,,,,,,,,,,
,Loop,flow.Loop,0_3_0_5_0,-999,completion,,234520.59999999986,234522.397,234538.999,236546.8999999999,2007.9009999998962,236593.30000000005,2021-10-26T19:13:04.281Z,236603.613,1635275335,full,ni_sequenzen,NI_Sequenzen,,5,,,,,,,,,,,,
,Feedback,canvas.Screen,0_3_0_5_1,,timeout,,236595.59999999986,236587.014,236603.613,240583.042,4012.74099999998,240584.19999999995,2021-10-26T19:13:08.272Z,240616.354,1635275335,full,ni_sequenzen,NI_Sequenzen,,5,,,,,,,,,,,,
,Trial,flow.Sequence,0_3_0_5,,completion,,234491.30000000005,234522.397,234538.999,240583.042,6044.042999999976,240584.59999999986,2021-10-26T19:13:08.272Z,240632.934,1635275335,full,ni_sequenzen,NI_Sequenzen,,5,,,,,,,,,,,,
,Move,canvas.Screen,0_3_0_6_0_0,down,response,,240632.5,240616.354,240632.934,241052.80000000005,419.8660000000382,241053.8999999999,2021-10-26T19:13:08.742Z,241082.552,1635275335,full,ni_sequenzen,NI_Sequenzen,1,6,,,,,,,,,,,,
,Move,canvas.Screen,0_3_0_6_0_1,left,response,,241060,241049.306,241082.552,241166.8999999999,84.34799999991083,241168.09999999986,2021-10-26T19:13:08.856Z,241182.441,1635275335,full,ni_sequenzen,NI_Sequenzen,2,6,,,,,,,,,,,,
,Move,canvas.Screen,0_3_0_6_0_2,down,response,,241174.30000000005,241165.837,241182.441,241262.09999999986,79.65899999986868,241263.19999999995,2021-10-26T19:13:08.951Z,241282.386,1635275335,full,ni_sequenzen,NI_Sequenzen,3,6,,,,,,,,,,,,
,Move,canvas.Screen,0_3_0_6_0_3,left,response,,241268.59999999986,241265.761,241282.386,241394.30000000005,111.91400000004796,241395.5,2021-10-26T19:13:09.083Z,241465.449,1635275335,full,ni_sequenzen,NI_Sequenzen,4,6,,,,,,,,,,,,
,Move,canvas.Screen,0_3_0_6_0_4,-999,skipped,,241404.8999999999,,,241394.30000000005,,241405.30000000005,2021-10-26T19:13:09.093Z,241465.449,1635275335,full,ni_sequenzen,NI_Sequenzen,5,6,,,,,,,,,,,,
,Move,canvas.Screen,0_3_0_6_0_5,-999,skipped,,241414.5,,,241394.30000000005,,241414.80000000005,2021-10-26T19:13:09.103Z,241465.449,1635275335,full,ni_sequenzen,NI_Sequenzen,6,6,,,,,,,,,,,,
,Move,canvas.Screen,0_3_0_6_0_6,-999,skipped,,241418.30000000005,,,241394.30000000005,,241418.30000000005,2021-10-26T19:13:09.106Z,241465.449,1635275335,full,ni_sequenzen,NI_Sequenzen,7,6,,,,,,,,,,,,
,Move,canvas.Screen,0_3_0_6_0_7,-999,skipped,,241421.30000000005,,,241394.30000000005,,241421.5,2021-10-26T19:13:09.109Z,241465.449,1635275335,full,ni_sequenzen,NI_Sequenzen,8,6,,,,,,,,,,,,
,Move,canvas.Screen,0_3_0_6_0_8,-999,skipped,,241425.59999999986,,,241394.30000000005,,241425.80000000005,2021-10-26T19:13:09.114Z,241465.449,1635275335,full,ni_sequenzen,NI_Sequenzen,9,6,,,,,,,,,,,,
,Move,canvas.Screen,0_3_0_6_0_9,-999,skipped,,241429.5,,,241394.30000000005,,241429.59999999986,2021-10-26T19:13:09.117Z,241465.449,1635275335,full,ni_sequenzen,NI_Sequenzen,10,6,,,,,,,,,,,,
,Move,canvas.Screen,0_3_0_6_0_10,-999,skipped,,241433,,,241394.30000000005,,241433.09999999986,2021-10-26T19:13:09.121Z,241465.449,1635275335,full,ni_sequenzen,NI_Sequenzen,11,6,,,,,,,,,,,,
,Move,canvas.Screen,0_3_0_6_0_11,-999,skipped,,241453.5,,,241394.30000000005,,241453.69999999995,2021-10-26T19:13:09.141Z,241465.449,1635275335,full,ni_sequenzen,NI_Sequenzen,12,6,,,,,,,,,,,,
,Move,canvas.Screen,0_3_0_6_0_12,-999,skipped,,241456.30000000005,,,241394.30000000005,,241456.30000000005,2021-10-26T19:13:09.144Z,241465.449,1635275335,full,ni_sequenzen,NI_Sequenzen,13,6,,,,,,,,,,,,
,Move,canvas.Screen,0_3_0_6_0_13,-999,skipped,,241458,,,241394.30000000005,,241458,2021-10-26T19:13:09.146Z,241465.449,1635275335,full,ni_sequenzen,NI_Sequenzen,14,6,,,,,,,,,,,,
,Move,canvas.Screen,0_3_0_6_0_14,-999,skipped,,241459.59999999986,,,241394.30000000005,,241459.59999999986,2021-10-26T19:13:09.147Z,241465.449,1635275335,full,ni_sequenzen,NI_Sequenzen,15,6,,,,,,,,,,,,
,Loop,flow.Loop,0_3_0_6_0,-999,completion,,240628.69999999995,240616.354,240632.934,241394.30000000005,761.3660000000382,241459.69999999995,2021-10-26T19:13:09.148Z,241465.449,1635275335,full,ni_sequenzen,NI_Sequenzen,,6,,,,,,,,,,,,
,Feedback,canvas.Screen,0_3_0_6_1,,timeout,,241461.80000000005,241448.944,241465.449,245444.917,4012.728000000003,245446.09999999986,2021-10-26T19:13:13.134Z,245478.177,1635275335,full,ni_sequenzen,NI_Sequenzen,,6,,,,,,,,,,,,
,Trial,flow.Sequence,0_3_0_6,,completion,,240585.19999999995,240616.354,240632.934,245444.917,4811.982999999978,245446.59999999986,2021-10-26T19:13:13.134Z,245494.765,1635275335,full,ni_sequenzen,NI_Sequenzen,,6,,,,,,,,,,,,
,Move,canvas.Screen,0_3_0_7_0_0,down,response,,245486.69999999995,245478.177,245494.765,246162.09999999986,667.3349999998463,246163.19999999995,2021-10-26T19:13:13.851Z,246177.465,1635275335,full,ni_sequenzen,NI_Sequenzen,1,7,,,,,,,,,,,,
,Move,canvas.Screen,0_3_0_7_0_1,left,response,,246169.09999999986,246160.927,246177.465,246257.09999999986,79.6349999998638,246258,2021-10-26T19:13:13.946Z,246294.059,1635275335,full,ni_sequenzen,NI_Sequenzen,2,7,,,,,,,,,,,,
,Move,canvas.Screen,0_3_0_7_0_2,down,response,,246264.09999999986,246260.918,246294.059,246374.5,80.44099999999162,246375.59999999986,2021-10-26T19:13:14.063Z,246393.93,1635275335,full,ni_sequenzen,NI_Sequenzen,3,7,,,,,,,,,,,,
,Move,canvas.Screen,0_3_0_7_0_3,left,response,,246382.19999999995,246377.311,246393.93,246452.59999999986,58.66999999986729,246453.3999999999,2021-10-26T19:13:14.141Z,246510.453,1635275335,full,ni_sequenzen,NI_Sequenzen,4,7,,,,,,,,,,,,
,Move,canvas.Screen,0_3_0_7_0_4,-999,skipped,,246460,,,246452.59999999986,,246460.30000000005,2021-10-26T19:13:14.148Z,246510.453,1635275335,full,ni_sequenzen,NI_Sequenzen,5,7,,,,,,,,,,,,
,Move,canvas.Screen,0_3_0_7_0_5,-999,skipped,,246465.3999999999,,,246452.59999999986,,246465.5,2021-10-26T19:13:14.153Z,246510.453,1635275335,full,ni_sequenzen,NI_Sequenzen,6,7,,,,,,,,,,,,
,Move,canvas.Screen,0_3_0_7_0_6,-999,skipped,,246470.69999999995,,,246452.59999999986,,246470.8999999999,2021-10-26T19:13:14.159Z,246510.453,1635275335,full,ni_sequenzen,NI_Sequenzen,7,7,,,,,,,,,,,,
,Move,canvas.Screen,0_3_0_7_0_7,-999,skipped,,246476.3999999999,,,246452.59999999986,,246476.59999999986,2021-10-26T19:13:14.164Z,246510.453,1635275335,full,ni_sequenzen,NI_Sequenzen,8,7,,,,,,,,,,,,
,Move,canvas.Screen,0_3_0_7_0_8,-999,skipped,,246483.19999999995,,,246452.59999999986,,246483.5,2021-10-26T19:13:14.171Z,246510.453,1635275335,full,ni_sequenzen,NI_Sequenzen,9,7,,,,,,,,,,,,
,Move,canvas.Screen,0_3_0_7_0_9,-999,skipped,,246488.30000000005,,,246452.59999999986,,246488.5,2021-10-26T19:13:14.176Z,246510.453,1635275335,full,ni_sequenzen,NI_Sequenzen,10,7,,,,,,,,,,,,
,Move,canvas.Screen,0_3_0_7_0_10,-999,skipped,,246493.3999999999,,,246452.59999999986,,246493.5,2021-10-26T19:13:14.181Z,246510.453,1635275335,full,ni_sequenzen,NI_Sequenzen,11,7,,,,,,,,,,,,
,Move,canvas.Screen,0_3_0_7_0_11,-999,skipped,,246496.30000000005,,,246452.59999999986,,246496.3999999999,2021-10-26T19:13:14.184Z,246510.453,1635275335,full,ni_sequenzen,NI_Sequenzen,12,7,,,,,,,,,,,,
,Move,canvas.Screen,0_3_0_7_0_12,-999,skipped,,246497.8999999999,,,246452.59999999986,,246497.8999999999,2021-10-26T19:13:14.186Z,246510.453,1635275335,full,ni_sequenzen,NI_Sequenzen,13,7,,,,,,,,,,,,
,Move,canvas.Screen,0_3_0_7_0_13,-999,skipped,,246499.3999999999,,,246452.59999999986,,246499.5,2021-10-26T19:13:14.187Z,246510.453,1635275335,full,ni_sequenzen,NI_Sequenzen,14,7,,,,,,,,,,,,
,Move,canvas.Screen,0_3_0_7_0_14,-999,skipped,,246501.3999999999,,,246452.59999999986,,246501.3999999999,2021-10-26T19:13:14.189Z,246510.453,1635275335,full,ni_sequenzen,NI_Sequenzen,15,7,,,,,,,,,,,,
,Loop,flow.Loop,0_3_0_7_0,-999,completion,,245477.69999999995,245478.177,245494.765,246452.59999999986,957.8349999998463,246501.59999999986,2021-10-26T19:13:14.189Z,246510.453,1635275335,full,ni_sequenzen,NI_Sequenzen,,7,,,,,,,,,,,,
,Feedback,canvas.Screen,0_3_0_7_1,,timeout,,246503,246493.939,246510.453,250489.991,4012.709999999992,250491.19999999995,2021-10-26T19:13:18.185Z,250523.163,1635275335,full,ni_sequenzen,NI_Sequenzen,,7,,,,,,,,,,,,
,Trial,flow.Sequence,0_3_0_7,,completion,,245447.69999999995,245478.177,245494.765,250489.991,4995.225999999995,250491.3999999999,2021-10-26T19:13:18.185Z,250539.752,1635275335,full,ni_sequenzen,NI_Sequenzen,,7,,,,,,,,,,,,
,Move,canvas.Screen,0_3_0_8_0_0,down,response,,250530.59999999986,250523.163,250539.752,251317.30000000005,777.5480000000389,251318.59999999986,2021-10-26T19:13:19.012Z,251338.95,1635275335,full,ni_sequenzen,NI_Sequenzen,1,8,,,,,,,,,,,,
,Move,canvas.Screen,0_3_0_8_0_1,right,response,,251325.80000000005,251322.461,251338.95,251855.19999999995,516.2499999999418,251856.30000000005,2021-10-26T19:13:19.550Z,251871.776,1635275335,full,ni_sequenzen,NI_Sequenzen,2,8,,,,,,,,,,,,
,Move,canvas.Screen,0_3_0_8_0_2,right,response,,251862.19999999995,251855.282,251871.776,253385.09999999986,1513.3239999998477,253415.8999999999,2021-10-26T19:13:21.110Z,253436.871,1635275335,full,ni_sequenzen,NI_Sequenzen,3,8,,,,,,,,,,,,
,Move,canvas.Screen,0_3_0_8_0_3,down,response,,253420,253403.846,253436.871,253662.30000000005,225.42900000003283,253663.30000000005,2021-10-26T19:13:21.357Z,253719.899,1635275335,full,ni_sequenzen,NI_Sequenzen,4,8,,,,,,,,,,,,
,Move,canvas.Screen,0_3_0_8_0_4,-999,skipped,,253668.5,,,253662.30000000005,,253668.80000000005,2021-10-26T19:13:21.363Z,253719.899,1635275335,full,ni_sequenzen,NI_Sequenzen,5,8,,,,,,,,,,,,
,Move,canvas.Screen,0_3_0_8_0_5,-999,skipped,,253673.69999999995,,,253662.30000000005,,253673.8999999999,2021-10-26T19:13:21.368Z,253719.899,1635275335,full,ni_sequenzen,NI_Sequenzen,6,8,,,,,,,,,,,,
,Move,canvas.Screen,0_3_0_8_0_6,-999,skipped,,253680.59999999986,,,253662.30000000005,,253680.8999999999,2021-10-26T19:13:21.375Z,253719.899,1635275335,full,ni_sequenzen,NI_Sequenzen,7,8,,,,,,,,,,,,
,Move,canvas.Screen,0_3_0_8_0_7,-999,skipped,,253686.30000000005,,,253662.30000000005,,253686.5,2021-10-26T19:13:21.380Z,253719.899,1635275335,full,ni_sequenzen,NI_Sequenzen,8,8,,,,,,,,,,,,
,Move,canvas.Screen,0_3_0_8_0_8,-999,skipped,,253691.80000000005,,,253662.30000000005,,253691.8999999999,2021-10-26T19:13:21.386Z,253719.899,1635275335,full,ni_sequenzen,NI_Sequenzen,9,8,,,,,,,,,,,,
,Move,canvas.Screen,0_3_0_8_0_9,-999,skipped,,253699,,,253662.30000000005,,253699.19999999995,2021-10-26T19:13:21.393Z,253719.899,1635275335,full,ni_sequenzen,NI_Sequenzen,10,8,,,,,,,,,,,,
,Move,canvas.Screen,0_3_0_8_0_10,-999,skipped,,253705.80000000005,,,253662.30000000005,,253705.8999999999,2021-10-26T19:13:21.400Z,253719.899,1635275335,full,ni_sequenzen,NI_Sequenzen,11,8,,,,,,,,,,,,
,Move,canvas.Screen,0_3_0_8_0_11,-999,skipped,,253709.8999999999,,,253662.30000000005,,253710,2021-10-26T19:13:21.404Z,253719.899,1635275335,full,ni_sequenzen,NI_Sequenzen,12,8,,,,,,,,,,,,
,Move,canvas.Screen,0_3_0_8_0_12,-999,skipped,,253711.80000000005,,,253662.30000000005,,253711.8999999999,2021-10-26T19:13:21.406Z,253719.899,1635275335,full,ni_sequenzen,NI_Sequenzen,13,8,,,,,,,,,,,,
