meta,sender,sender_type,sender_id,response,ended_on,instrCount,time_run,time_render,time_show,time_end,duration,time_commit,timestamp,time_switch,openLabId,type,task,project,move,trialN,blockN_Train,blockN,moveCount,currPP,points,movesTrial,visitedFields,diff,reward,Strategie,Zweck,Probleme
[object Object],Screen_1,canvas.Screen,0_0_0_0,cont,response,1,304.89999997615814,315.82,332.463,16191.799999952316,15859.336999952317,16196.799999952316,2021-10-26T10:01:18.652Z,16249.461,1635242456,full,ni_sequenzen,NI_Sequenzen,,,,,,,,,,,,,,
,Screen_2,canvas.Screen,0_0_0_1,cont,response,1,16224.399999976158,16232.977,16249.461,65347.39999997616,49097.93899997616,65348.299999952316,2021-10-26T10:02:07.804Z,65366.894,1635242456,full,ni_sequenzen,NI_Sequenzen,,,,,,,,,,,,,,
,Screen_3,canvas.Screen,0_0_0_2,cont,response,1,65365.59999990463,65350.582,65366.894,92298.19999992847,26931.305999928474,92299.09999990463,2021-10-26T10:02:34.755Z,92317.368,1635242456,full,ni_sequenzen,NI_Sequenzen,,,,,,,,,,,,,,
,Screen_4,canvas.Screen,0_0_0_3,cont,response,1,92304.79999995232,92300.823,92317.368,98041.19999992847,5723.831999928472,98042,2021-10-26T10:02:40.498Z,98117.548,1635242456,full,ni_sequenzen,NI_Sequenzen,,,,,,,,,,,,,,
,Sequence,flow.Sequence,0_0_0,,completion,1,289.6999999284744,315.82,332.463,98041.19999992847,97708.73699992847,98047.09999990463,2021-10-26T10:02:40.503Z,98117.548,1635242456,full,ni_sequenzen,NI_Sequenzen,,,,,,,,,,,,,,
,Screen_1,canvas.Screen,0_0_1_0,,skipped,2,98048.29999995232,,,98048.29999995232,,98048.39999997616,2021-10-26T10:02:40.504Z,98117.548,1635242456,full,ni_sequenzen,NI_Sequenzen,,,,,,,,,,,,,,
,Screen_2,canvas.Screen,0_0_1_1,,skipped,2,98049.09999990463,,,98048.29999995232,,98049.09999990463,2021-10-26T10:02:40.505Z,98117.548,1635242456,full,ni_sequenzen,NI_Sequenzen,,,,,,,,,,,,,,
,Screen_3,canvas.Screen,0_0_1_2,,skipped,2,98049.89999997616,,,98048.29999995232,,98050,2021-10-26T10:02:40.506Z,98117.548,1635242456,full,ni_sequenzen,NI_Sequenzen,,,,,,,,,,,,,,
,Screen_4,canvas.Screen,0_0_1_3,,skipped,2,98050.69999992847,,,98048.29999995232,,98050.89999997616,2021-10-26T10:02:40.507Z,98117.548,1635242456,full,ni_sequenzen,NI_Sequenzen,,,,,,,,,,,,,,
,Sequence,flow.Sequence,0_0_1,,completion,2,98047.5,,,98048.29999995232,,98051,2021-10-26T10:02:40.507Z,98117.548,1635242456,full,ni_sequenzen,NI_Sequenzen,,,,,,,,,,,,,,
,Screen_1,canvas.Screen,0_0_2_0,,skipped,3,98051.69999992847,,,98051.69999992847,,98051.69999992847,2021-10-26T10:02:40.508Z,98117.548,1635242456,full,ni_sequenzen,NI_Sequenzen,,,,,,,,,,,,,,
,Screen_2,canvas.Screen,0_0_2_1,,skipped,3,98055.69999992847,,,98051.69999992847,,98055.69999992847,2021-10-26T10:02:40.512Z,98117.548,1635242456,full,ni_sequenzen,NI_Sequenzen,,,,,,,,,,,,,,
,Screen_3,canvas.Screen,0_0_2_2,,skipped,3,98056.5,,,98051.69999992847,,98056.5,2021-10-26T10:02:40.513Z,98117.548,1635242456,full,ni_sequenzen,NI_Sequenzen,,,,,,,,,,,,,,
,Screen_4,canvas.Screen,0_0_2_3,,skipped,3,98057.09999990463,,,98051.69999992847,,98057.09999990463,2021-10-26T10:02:40.513Z,98117.548,1635242456,full,ni_sequenzen,NI_Sequenzen,,,,,,,,,,,,,,
,Sequence,flow.Sequence,0_0_2,,completion,3,98051.19999992847,,,98051.69999992847,,98057.19999992847,2021-10-26T10:02:40.513Z,98117.548,1635242456,full,ni_sequenzen,NI_Sequenzen,,,,,,,,,,,,,,
,Screen_1,canvas.Screen,0_0_3_0,,skipped,4,98057.89999997616,,,98057.89999997616,,98057.89999997616,2021-10-26T10:02:40.514Z,98117.548,1635242456,full,ni_sequenzen,NI_Sequenzen,,,,,,,,,,,,,,
,Screen_2,canvas.Screen,0_0_3_1,,skipped,4,98058.29999995232,,,98057.89999997616,,98058.5,2021-10-26T10:02:40.514Z,98117.548,1635242456,full,ni_sequenzen,NI_Sequenzen,,,,,,,,,,,,,,
,Screen_3,canvas.Screen,0_0_3_2,,skipped,4,98058.89999997616,,,98057.89999997616,,98058.89999997616,2021-10-26T10:02:40.515Z,98117.548,1635242456,full,ni_sequenzen,NI_Sequenzen,,,,,,,,,,,,,,
,Screen_4,canvas.Screen,0_0_3_3,,skipped,4,98059.39999997616,,,98057.89999997616,,98059.5,2021-10-26T10:02:40.516Z,98117.548,1635242456,full,ni_sequenzen,NI_Sequenzen,,,,,,,,,,,,,,
,Sequence,flow.Sequence,0_0_3,,completion,4,98057.39999997616,,,98057.89999997616,,98059.5,2021-10-26T10:02:40.516Z,98117.548,1635242456,full,ni_sequenzen,NI_Sequenzen,,,,,,,,,,,,,,
,Screen_1,canvas.Screen,0_0_4_0,,skipped,5,98060.19999992847,,,98060.19999992847,,98060.19999992847,2021-10-26T10:02:40.516Z,98117.548,1635242456,full,ni_sequenzen,NI_Sequenzen,,,,,,,,,,,,,,
,Screen_2,canvas.Screen,0_0_4_1,,skipped,5,98060.59999990463,,,98060.19999992847,,98060.79999995232,2021-10-26T10:02:40.517Z,98117.548,1635242456,full,ni_sequenzen,NI_Sequenzen,,,,,,,,,,,,,,
,Screen_3,canvas.Screen,0_0_4_2,,skipped,5,98061.19999992847,,,98060.19999992847,,98061.19999992847,2021-10-26T10:02:40.517Z,98117.548,1635242456,full,ni_sequenzen,NI_Sequenzen,,,,,,,,,,,,,,
,Screen_4,canvas.Screen,0_0_4_3,,skipped,5,98061.59999990463,,,98060.19999992847,,98061.69999992847,2021-10-26T10:02:40.518Z,98117.548,1635242456,full,ni_sequenzen,NI_Sequenzen,,,,,,,,,,,,,,
,Sequence,flow.Sequence,0_0_4,,completion,5,98059.69999992847,,,98060.19999992847,,98061.79999995232,2021-10-26T10:02:40.518Z,98117.548,1635242456,full,ni_sequenzen,NI_Sequenzen,,,,,,,,,,,,,,
,Screen_1,canvas.Screen,0_0_5_0,,skipped,6,98062.5,,,98062.5,,98062.5,2021-10-26T10:02:40.519Z,98117.548,1635242456,full,ni_sequenzen,NI_Sequenzen,,,,,,,,,,,,,,
,Screen_2,canvas.Screen,0_0_5_1,,skipped,6,98063,,,98062.5,,98063.09999990463,2021-10-26T10:02:40.519Z,98117.548,1635242456,full,ni_sequenzen,NI_Sequenzen,,,,,,,,,,,,,,
,Screen_3,canvas.Screen,0_0_5_2,,skipped,6,98063.5,,,98062.5,,98063.5,2021-10-26T10:02:40.520Z,98117.548,1635242456,full,ni_sequenzen,NI_Sequenzen,,,,,,,,,,,,,,
,Screen_4,canvas.Screen,0_0_5_3,,skipped,6,98064.09999990463,,,98062.5,,98064.09999990463,2021-10-26T10:02:40.520Z,98117.548,1635242456,full,ni_sequenzen,NI_Sequenzen,,,,,,,,,,,,,,
,Sequence,flow.Sequence,0_0_5,,completion,6,98062,,,98062.5,,98064.19999992847,2021-10-26T10:02:40.520Z,98117.548,1635242456,full,ni_sequenzen,NI_Sequenzen,,,,,,,,,,,,,,
,Screen_1,canvas.Screen,0_0_6_0,,skipped,7,98065.09999990463,,,98065.09999990463,,98065.09999990463,2021-10-26T10:02:40.521Z,98117.548,1635242456,full,ni_sequenzen,NI_Sequenzen,,,,,,,,,,,,,,
,Screen_2,canvas.Screen,0_0_6_1,,skipped,7,98065.69999992847,,,98065.09999990463,,98065.69999992847,2021-10-26T10:02:40.522Z,98117.548,1635242456,full,ni_sequenzen,NI_Sequenzen,,,,,,,,,,,,,,
,Screen_3,canvas.Screen,0_0_6_2,,skipped,7,98066.19999992847,,,98065.09999990463,,98066.19999992847,2021-10-26T10:02:40.522Z,98117.548,1635242456,full,ni_sequenzen,NI_Sequenzen,,,,,,,,,,,,,,
,Screen_4,canvas.Screen,0_0_6_3,,skipped,7,98066.79999995232,,,98065.09999990463,,98066.79999995232,2021-10-26T10:02:40.523Z,98117.548,1635242456,full,ni_sequenzen,NI_Sequenzen,,,,,,,,,,,,,,
,Sequence,flow.Sequence,0_0_6,,completion,7,98064.69999992847,,,98065.09999990463,,98066.89999997616,2021-10-26T10:02:40.523Z,98117.548,1635242456,full,ni_sequenzen,NI_Sequenzen,,,,,,,,,,,,,,
,Screen_1,canvas.Screen,0_0_7_0,,skipped,8,98067.69999992847,,,98067.69999992847,,98067.69999992847,2021-10-26T10:02:40.524Z,98117.548,1635242456,full,ni_sequenzen,NI_Sequenzen,,,,,,,,,,,,,,
,Screen_2,canvas.Screen,0_0_7_1,,skipped,8,98068.19999992847,,,98067.69999992847,,98068.19999992847,2021-10-26T10:02:40.524Z,98117.548,1635242456,full,ni_sequenzen,NI_Sequenzen,,,,,,,,,,,,,,
,Screen_3,canvas.Screen,0_0_7_2,,skipped,8,98068.59999990463,,,98067.69999992847,,98068.69999992847,2021-10-26T10:02:40.525Z,98117.548,1635242456,full,ni_sequenzen,NI_Sequenzen,,,,,,,,,,,,,,
,Screen_4,canvas.Screen,0_0_7_3,,skipped,8,98069.09999990463,,,98067.69999992847,,98069.19999992847,2021-10-26T10:02:40.525Z,98117.548,1635242456,full,ni_sequenzen,NI_Sequenzen,,,,,,,,,,,,,,
,Sequence,flow.Sequence,0_0_7,,completion,8,98067.09999990463,,,98067.69999992847,,98069.29999995232,2021-10-26T10:02:40.525Z,98117.548,1635242456,full,ni_sequenzen,NI_Sequenzen,,,,,,,,,,,,,,
,Screen_1,canvas.Screen,0_0_8_0,,skipped,9,98070,,,98070,,98070,2021-10-26T10:02:40.526Z,98117.548,1635242456,full,ni_sequenzen,NI_Sequenzen,,,,,,,,,,,,,,
,Screen_2,canvas.Screen,0_0_8_1,,skipped,9,98070.5,,,98070,,98070.5,2021-10-26T10:02:40.527Z,98117.548,1635242456,full,ni_sequenzen,NI_Sequenzen,,,,,,,,,,,,,,
,Screen_3,canvas.Screen,0_0_8_2,,skipped,9,98070.89999997616,,,98070,,98071,2021-10-26T10:02:40.527Z,98117.548,1635242456,full,ni_sequenzen,NI_Sequenzen,,,,,,,,,,,,,,
,Screen_4,canvas.Screen,0_0_8_3,,skipped,9,98071.5,,,98070,,98071.5,2021-10-26T10:02:40.528Z,98117.548,1635242456,full,ni_sequenzen,NI_Sequenzen,,,,,,,,,,,,,,
,Sequence,flow.Sequence,0_0_8,,completion,9,98069.5,,,98070,,98071.59999990463,2021-10-26T10:02:40.528Z,98117.548,1635242456,full,ni_sequenzen,NI_Sequenzen,,,,,,,,,,,,,,
,Screen_1,canvas.Screen,0_0_9_0,,skipped,10,98072.29999995232,,,98072.29999995232,,98072.29999995232,2021-10-26T10:02:40.528Z,98117.548,1635242456,full,ni_sequenzen,NI_Sequenzen,,,,,,,,,,,,,,
,Screen_2,canvas.Screen,0_0_9_1,,skipped,10,98073.5,,,98072.29999995232,,98073.5,2021-10-26T10:02:40.530Z,98117.548,1635242456,full,ni_sequenzen,NI_Sequenzen,,,,,,,,,,,,,,
,Screen_3,canvas.Screen,0_0_9_2,,skipped,10,98074,,,98072.29999995232,,98074.09999990463,2021-10-26T10:02:40.530Z,98117.548,1635242456,full,ni_sequenzen,NI_Sequenzen,,,,,,,,,,,,,,
,Screen_4,canvas.Screen,0_0_9_3,,skipped,10,98074.5,,,98072.29999995232,,98074.59999990463,2021-10-26T10:02:40.531Z,98117.548,1635242456,full,ni_sequenzen,NI_Sequenzen,,,,,,,,,,,,,,
,Sequence,flow.Sequence,0_0_9,,completion,10,98071.79999995232,,,98072.29999995232,,98074.59999990463,2021-10-26T10:02:40.531Z,98117.548,1635242456,full,ni_sequenzen,NI_Sequenzen,,,,,,,,,,,,,,
,Screen_1,canvas.Screen,0_0_10_0,,skipped,11,98075.29999995232,,,98075.29999995232,,98075.29999995232,2021-10-26T10:02:40.531Z,98117.548,1635242456,full,ni_sequenzen,NI_Sequenzen,,,,,,,,,,,,,,
,Screen_2,canvas.Screen,0_0_10_1,,skipped,11,98075.79999995232,,,98075.29999995232,,98075.79999995232,2021-10-26T10:02:40.532Z,98117.548,1635242456,full,ni_sequenzen,NI_Sequenzen,,,,,,,,,,,,,,
,Screen_3,canvas.Screen,0_0_10_2,,skipped,11,98076.19999992847,,,98075.29999995232,,98076.19999992847,2021-10-26T10:02:40.532Z,98117.548,1635242456,full,ni_sequenzen,NI_Sequenzen,,,,,,,,,,,,,,
,Screen_4,canvas.Screen,0_0_10_3,,skipped,11,98076.69999992847,,,98075.29999995232,,98076.79999995232,2021-10-26T10:02:40.533Z,98117.548,1635242456,full,ni_sequenzen,NI_Sequenzen,,,,,,,,,,,,,,
,Sequence,flow.Sequence,0_0_10,,completion,11,98074.79999995232,,,98075.29999995232,,98076.89999997616,2021-10-26T10:02:40.533Z,98117.548,1635242456,full,ni_sequenzen,NI_Sequenzen,,,,,,,,,,,,,,
,Screen_1,canvas.Screen,0_0_11_0,,skipped,12,98078.39999997616,,,98078.39999997616,,98078.5,2021-10-26T10:02:40.535Z,98117.548,1635242456,full,ni_sequenzen,NI_Sequenzen,,,,,,,,,,,,,,
,Screen_2,canvas.Screen,0_0_11_1,,skipped,12,98079.19999992847,,,98078.39999997616,,98079.29999995232,2021-10-26T10:02:40.535Z,98117.548,1635242456,full,ni_sequenzen,NI_Sequenzen,,,,,,,,,,,,,,
,Screen_3,canvas.Screen,0_0_11_2,,skipped,12,98079.69999992847,,,98078.39999997616,,98079.79999995232,2021-10-26T10:02:40.536Z,98117.548,1635242456,full,ni_sequenzen,NI_Sequenzen,,,,,,,,,,,,,,
,Screen_4,canvas.Screen,0_0_11_3,,skipped,12,98080.29999995232,,,98078.39999997616,,98080.29999995232,2021-10-26T10:02:40.536Z,98117.548,1635242456,full,ni_sequenzen,NI_Sequenzen,,,,,,,,,,,,,,
,Sequence,flow.Sequence,0_0_11,,completion,12,98077.39999997616,,,98078.39999997616,,98080.39999997616,2021-10-26T10:02:40.536Z,98117.548,1635242456,full,ni_sequenzen,NI_Sequenzen,,,,,,,,,,,,,,
,Screen_1,canvas.Screen,0_0_12_0,,skipped,13,98081,,,98081,,98081.09999990463,2021-10-26T10:02:40.537Z,98117.548,1635242456,full,ni_sequenzen,NI_Sequenzen,,,,,,,,,,,,,,
,Screen_2,canvas.Screen,0_0_12_1,,skipped,13,98081.5,,,98081,,98081.59999990463,2021-10-26T10:02:40.538Z,98117.548,1635242456,full,ni_sequenzen,NI_Sequenzen,,,,,,,,,,,,,,
,Screen_3,canvas.Screen,0_0_12_2,,skipped,13,98082.89999997616,,,98081,,98082.89999997616,2021-10-26T10:02:40.539Z,98117.548,1635242456,full,ni_sequenzen,NI_Sequenzen,,,,,,,,,,,,,,
,Screen_4,canvas.Screen,0_0_12_3,,skipped,13,98083.39999997616,,,98081,,98083.5,2021-10-26T10:02:40.540Z,98117.548,1635242456,full,ni_sequenzen,NI_Sequenzen,,,,,,,,,,,,,,
,Sequence,flow.Sequence,0_0_12,,completion,13,98080.59999990463,,,98081,,98083.59999990463,2021-10-26T10:02:40.540Z,98117.548,1635242456,full,ni_sequenzen,NI_Sequenzen,,,,,,,,,,,,,,
,Screen_1,canvas.Screen,0_0_13_0,,skipped,14,98084.19999992847,,,98084.19999992847,,98084.19999992847,2021-10-26T10:02:40.540Z,98117.548,1635242456,full,ni_sequenzen,NI_Sequenzen,,,,,,,,,,,,,,
,Screen_2,canvas.Screen,0_0_13_1,,skipped,14,98084.69999992847,,,98084.19999992847,,98084.79999995232,2021-10-26T10:02:40.541Z,98117.548,1635242456,full,ni_sequenzen,NI_Sequenzen,,,,,,,,,,,,,,
,Screen_3,canvas.Screen,0_0_13_2,,skipped,14,98085.19999992847,,,98084.19999992847,,98085.29999995232,2021-10-26T10:02:40.541Z,98117.548,1635242456,full,ni_sequenzen,NI_Sequenzen,,,,,,,,,,,,,,
,Screen_4,canvas.Screen,0_0_13_3,,skipped,14,98085.69999992847,,,98084.19999992847,,98085.69999992847,2021-10-26T10:02:40.542Z,98117.548,1635242456,full,ni_sequenzen,NI_Sequenzen,,,,,,,,,,,,,,
,Sequence,flow.Sequence,0_0_13,,completion,14,98083.69999992847,,,98084.19999992847,,98085.69999992847,2021-10-26T10:02:40.542Z,98117.548,1635242456,full,ni_sequenzen,NI_Sequenzen,,,,,,,,,,,,,,
,Screen_1,canvas.Screen,0_0_14_0,,skipped,15,98086.39999997616,,,98086.39999997616,,98086.39999997616,2021-10-26T10:02:40.543Z,98117.548,1635242456,full,ni_sequenzen,NI_Sequenzen,,,,,,,,,,,,,,
,Screen_2,canvas.Screen,0_0_14_1,,skipped,15,98086.89999997616,,,98086.39999997616,,98086.89999997616,2021-10-26T10:02:40.543Z,98117.548,1635242456,full,ni_sequenzen,NI_Sequenzen,,,,,,,,,,,,,,
,Screen_3,canvas.Screen,0_0_14_2,,skipped,15,98087.29999995232,,,98086.39999997616,,98087.39999997616,2021-10-26T10:02:40.543Z,98117.548,1635242456,full,ni_sequenzen,NI_Sequenzen,,,,,,,,,,,,,,
,Screen_4,canvas.Screen,0_0_14_3,,skipped,15,98088,,,98086.39999997616,,98088.09999990463,2021-10-26T10:02:40.544Z,98117.548,1635242456,full,ni_sequenzen,NI_Sequenzen,,,,,,,,,,,,,,
,Sequence,flow.Sequence,0_0_14,,completion,15,98085.89999997616,,,98086.39999997616,,98088.19999992847,2021-10-26T10:02:40.544Z,98117.548,1635242456,full,ni_sequenzen,NI_Sequenzen,,,,,,,,,,,,,,
,Screen_1,canvas.Screen,0_0_15_0,,skipped,16,98088.89999997616,,,98088.89999997616,,98088.89999997616,2021-10-26T10:02:40.545Z,98117.548,1635242456,full,ni_sequenzen,NI_Sequenzen,,,,,,,,,,,,,,
,Screen_2,canvas.Screen,0_0_15_1,,skipped,16,98089.69999992847,,,98088.89999997616,,98089.69999992847,2021-10-26T10:02:40.546Z,98117.548,1635242456,full,ni_sequenzen,NI_Sequenzen,,,,,,,,,,,,,,
,Screen_3,canvas.Screen,0_0_15_2,,skipped,16,98090.69999992847,,,98088.89999997616,,98090.69999992847,2021-10-26T10:02:40.547Z,98117.548,1635242456,full,ni_sequenzen,NI_Sequenzen,,,,,,,,,,,,,,
,Screen_4,canvas.Screen,0_0_15_3,,skipped,16,98091.19999992847,,,98088.89999997616,,98091.29999995232,2021-10-26T10:02:40.547Z,98117.548,1635242456,full,ni_sequenzen,NI_Sequenzen,,,,,,,,,,,,,,
,Sequence,flow.Sequence,0_0_15,,completion,16,98088.39999997616,,,98088.89999997616,,98092,2021-10-26T10:02:40.548Z,98117.548,1635242456,full,ni_sequenzen,NI_Sequenzen,,,,,,,,,,,,,,
,Screen_1,canvas.Screen,0_0_16_0,,skipped,17,98092.69999992847,,,98092.69999992847,,98092.79999995232,2021-10-26T10:02:40.549Z,98117.548,1635242456,full,ni_sequenzen,NI_Sequenzen,,,,,,,,,,,,,,
,Screen_2,canvas.Screen,0_0_16_1,,skipped,17,98093.09999990463,,,98092.69999992847,,98093.09999990463,2021-10-26T10:02:40.549Z,98117.548,1635242456,full,ni_sequenzen,NI_Sequenzen,,,,,,,,,,,,,,
,Screen_3,canvas.Screen,0_0_16_2,,skipped,17,98093.69999992847,,,98092.69999992847,,98093.69999992847,2021-10-26T10:02:40.550Z,98117.548,1635242456,full,ni_sequenzen,NI_Sequenzen,,,,,,,,,,,,,,
,Screen_4,canvas.Screen,0_0_16_3,,skipped,17,98094.19999992847,,,98092.69999992847,,98094.19999992847,2021-10-26T10:02:40.550Z,98117.548,1635242456,full,ni_sequenzen,NI_Sequenzen,,,,,,,,,,,,,,
,Sequence,flow.Sequence,0_0_16,,completion,17,98092.19999992847,,,98092.69999992847,,98094.19999992847,2021-10-26T10:02:40.550Z,98117.548,1635242456,full,ni_sequenzen,NI_Sequenzen,,,,,,,,,,,,,,
,Screen_1,canvas.Screen,0_0_17_0,,skipped,18,98094.89999997616,,,98094.89999997616,,98094.89999997616,2021-10-26T10:02:40.551Z,98117.548,1635242456,full,ni_sequenzen,NI_Sequenzen,,,,,,,,,,,,,,
,Screen_2,canvas.Screen,0_0_17_1,,skipped,18,98095.19999992847,,,98094.89999997616,,98095.29999995232,2021-10-26T10:02:40.551Z,98117.548,1635242456,full,ni_sequenzen,NI_Sequenzen,,,,,,,,,,,,,,
,Screen_3,canvas.Screen,0_0_17_2,,skipped,18,98095.79999995232,,,98094.89999997616,,98095.79999995232,2021-10-26T10:02:40.552Z,98117.548,1635242456,full,ni_sequenzen,NI_Sequenzen,,,,,,,,,,,,,,
,Screen_4,canvas.Screen,0_0_17_3,,skipped,18,98096.19999992847,,,98094.89999997616,,98096.19999992847,2021-10-26T10:02:40.552Z,98117.548,1635242456,full,ni_sequenzen,NI_Sequenzen,,,,,,,,,,,,,,
,Sequence,flow.Sequence,0_0_17,,completion,18,98094.5,,,98094.89999997616,,98096.29999995232,2021-10-26T10:02:40.552Z,98117.548,1635242456,full,ni_sequenzen,NI_Sequenzen,,,,,,,,,,,,,,
,Screen_1,canvas.Screen,0_0_18_0,,skipped,19,98097,,,98097,,98097.09999990463,2021-10-26T10:02:40.553Z,98117.548,1635242456,full,ni_sequenzen,NI_Sequenzen,,,,,,,,,,,,,,
,Screen_2,canvas.Screen,0_0_18_1,,skipped,19,98097.5,,,98097,,98097.5,2021-10-26T10:02:40.554Z,98117.548,1635242456,full,ni_sequenzen,NI_Sequenzen,,,,,,,,,,,,,,
,Screen_3,canvas.Screen,0_0_18_2,,skipped,19,98097.89999997616,,,98097,,98098,2021-10-26T10:02:40.554Z,98117.548,1635242456,full,ni_sequenzen,NI_Sequenzen,,,,,,,,,,,,,,
,Screen_4,canvas.Screen,0_0_18_3,,skipped,19,98098.39999997616,,,98097,,98098.39999997616,2021-10-26T10:02:40.554Z,98117.548,1635242456,full,ni_sequenzen,NI_Sequenzen,,,,,,,,,,,,,,
,Sequence,flow.Sequence,0_0_18,,completion,19,98096.5,,,98097,,98098.5,2021-10-26T10:02:40.555Z,98117.548,1635242456,full,ni_sequenzen,NI_Sequenzen,,,,,,,,,,,,,,
,Screen_1,canvas.Screen,0_0_19_0,,skipped,20,98099,,,98099,,98099.09999990463,2021-10-26T10:02:40.555Z,98117.548,1635242456,full,ni_sequenzen,NI_Sequenzen,,,,,,,,,,,,,,
,Screen_2,canvas.Screen,0_0_19_1,,skipped,20,98099.39999997616,,,98099,,98100,2021-10-26T10:02:40.556Z,98117.548,1635242456,full,ni_sequenzen,NI_Sequenzen,,,,,,,,,,,,,,
,Screen_3,canvas.Screen,0_0_19_2,,skipped,20,98100.5,,,98099,,98100.59999990463,2021-10-26T10:02:40.557Z,98117.548,1635242456,full,ni_sequenzen,NI_Sequenzen,,,,,,,,,,,,,,
,Screen_4,canvas.Screen,0_0_19_3,,skipped,20,98101.09999990463,,,98099,,98101.19999992847,2021-10-26T10:02:40.557Z,98117.548,1635242456,full,ni_sequenzen,NI_Sequenzen,,,,,,,,,,,,,,
,Sequence,flow.Sequence,0_0_19,,completion,20,98098.59999990463,,,98099,,98101.19999992847,2021-10-26T10:02:40.557Z,98117.548,1635242456,full,ni_sequenzen,NI_Sequenzen,,,,,,,,,,,,,,
,Instructions_I,flow.Loop,0_0,,completion,,289.1999999284744,315.82,332.463,98099,97766.537,98101.29999995232,2021-10-26T10:02:40.557Z,98117.548,1635242456,full,ni_sequenzen,NI_Sequenzen,,,,,,,,,,,,,,
,Move,canvas.Screen,0_1_0_0,left,response,,98109.59999990463,98100.689,98117.548,100240.5,2122.952000000005,100241.5,2021-10-26T10:02:42.698Z,100250.845,1635242456,full,ni_sequenzen,NI_Sequenzen,1,,,,,,,,,,,,,
,Move,canvas.Screen,0_1_0_1,right,response,,100246.59999990463,100234.114,100250.845,102944.39999997616,2693.554999976157,102945.29999995232,2021-10-26T10:02:45.401Z,102972.435,1635242456,full,ni_sequenzen,NI_Sequenzen,2,,,,,,,,,,,,,
,Move,canvas.Screen,0_1_0_2,down,response,,102950.29999995232,102934.243,102972.435,105257,2284.5650000000023,105258,2021-10-26T10:02:47.714Z,105267.597,1635242456,full,ni_sequenzen,NI_Sequenzen,3,,,,,,,,,,,,,
,Move,canvas.Screen,0_1_0_3,down,response,,105261.79999995232,105250.97,105267.597,106020.09999990463,752.5029999046383,106021,2021-10-26T10:02:48.477Z,106034.393,1635242456,full,ni_sequenzen,NI_Sequenzen,4,,,,,,,,,,,,,
,Move,canvas.Screen,0_1_0_4,down,response,,106024.59999990463,106017.731,106034.393,106389.09999990463,354.7069999046362,106390,2021-10-26T10:02:48.846Z,106400.99,1635242456,full,ni_sequenzen,NI_Sequenzen,5,,,,,,,,,,,,,
,Move,canvas.Screen,0_1_0_5,right,response,,106393.79999995232,106384.424,106400.99,107426.79999995232,1025.809999952311,107427.89999997616,2021-10-26T10:02:49.884Z,107434.305,1635242456,full,ni_sequenzen,NI_Sequenzen,6,,,,,,,,,,,,,
,Move,canvas.Screen,0_1_0_6,down,response,,107431.29999995232,107417.582,107434.305,109052.19999992847,1617.8949999284814,109053.19999992847,2021-10-26T10:02:51.509Z,109067.819,1635242456,full,ni_sequenzen,NI_Sequenzen,7,,,,,,,,,,,,,
,Move,canvas.Screen,0_1_0_7,left,response,,109056,109051.1,109067.819,109491.89999997616,424.080999976155,109492.89999997616,2021-10-26T10:02:51.949Z,109500.999,1635242456,full,ni_sequenzen,NI_Sequenzen,8,,,,,,,,,,,,,
,Move,canvas.Screen,0_1_0_8,left,response,,109496.29999995232,109484.481,109500.999,109915.89999997616,414.900999976162,109917.09999990463,2021-10-26T10:02:52.373Z,109934.459,1635242456,full,ni_sequenzen,NI_Sequenzen,9,,,,,,,,,,,,,
,Move,canvas.Screen,0_1_0_9,left,response,,109920.59999990463,109917.657,109934.459,111321,1386.5409999999974,111321.89999997616,2021-10-26T10:02:53.778Z,111334.386,1635242456,full,ni_sequenzen,NI_Sequenzen,10,,,,,,,,,,,,,
,Move,canvas.Screen,0_1_0_10,right,response,,111325.5,111317.856,111334.386,113711.29999995232,2376.9139999523177,113712.29999995232,2021-10-26T10:02:56.168Z,113717.738,1635242456,full,ni_sequenzen,NI_Sequenzen,11,,,,,,,,,,,,,
,Move,canvas.Screen,0_1_0_11,down,response,,113713.39999997616,113701.015,113717.738,114657.29999995232,939.5619999523187,114658.19999992847,2021-10-26T10:02:57.114Z,114667.745,1635242456,full,ni_sequenzen,NI_Sequenzen,12,,,,,,,,,,,,,
,Move,canvas.Screen,0_1_0_12,down,response,,114661.69999992847,114651.187,114667.745,115076.69999992847,408.9549999284791,115077.59999990463,2021-10-26T10:02:57.534Z,115084.44,1635242456,full,ni_sequenzen,NI_Sequenzen,13,,,,,,,,,,,,,
,Move,canvas.Screen,0_1_0_13,right,response,,115081,115067.917,115084.44,115541.89999997616,457.4599999761558,115542.79999995232,2021-10-26T10:02:57.999Z,115551.139,1635242456,full,ni_sequenzen,NI_Sequenzen,14,,,,,,,,,,,,,
,Move,canvas.Screen,0_1_0_14,down,response,,115546.19999992847,115534.573,115551.139,116099.39999997616,548.2609999761626,116100.29999995232,2021-10-26T10:02:58.556Z,116117.924,1635242456,full,ni_sequenzen,NI_Sequenzen,15,,,,,,,,,,,,,
,Move,canvas.Screen,0_1_0_15,down,response,,116104.5,116101.254,116117.924,116368.39999997616,250.47599997615907,116369.29999995232,2021-10-26T10:02:58.825Z,116384.505,1635242456,full,ni_sequenzen,NI_Sequenzen,16,,,,,,,,,,,,,
,Move,canvas.Screen,0_1_0_16,right,response,,116372.89999997616,116368.01,116384.505,116692.79999995232,308.2949999523116,116693.69999992847,2021-10-26T10:02:59.150Z,116701.117,1635242456,full,ni_sequenzen,NI_Sequenzen,17,,,,,,,,,,,,,
,Move,canvas.Screen,0_1_0_17,right,response,,116697.19999992847,116684.691,116701.117,116981.29999995232,280.1829999523179,116981.89999997616,2021-10-26T10:02:59.438Z,117014.991,1635242456,full,ni_sequenzen,NI_Sequenzen,18,,,,,,,,,,,,,
,Move,canvas.Screen,0_1_0_18,down,response,,116983.59999990463,116967.95,117014.991,117465.79999995232,450.80899995232176,117466.69999992847,2021-10-26T10:02:59.923Z,117484.47,1635242456,full,ni_sequenzen,NI_Sequenzen,19,,,,,,,,,,,,,
,Move,canvas.Screen,0_1_0_19,down,response,,117470.89999997616,117467.94,117484.47,117754,269.52999999999884,117754.79999995232,2021-10-26T10:03:00.211Z,117767.876,1635242456,full,ni_sequenzen,NI_Sequenzen,20,,,,,,,,,,,,,
,Move,canvas.Screen,0_1_0_20,left,response,,117758.29999995232,117751.298,117767.876,118068.19999992847,300.3239999284706,118069.09999990463,2021-10-26T10:03:00.525Z,118084.645,1635242456,full,ni_sequenzen,NI_Sequenzen,21,,,,,,,,,,,,,
,Move,canvas.Screen,0_1_0_21,left,response,,118072.89999997616,118067.965,118084.645,118486.89999997616,402.25499997615407,118487.89999997616,2021-10-26T10:03:00.944Z,118501.175,1635242456,full,ni_sequenzen,NI_Sequenzen,22,,,,,,,,,,,,,
,Move,canvas.Screen,0_1_0_22,right,response,,118491.39999997616,118484.672,118501.175,119026.09999990463,524.9249999046297,119026.79999995232,2021-10-26T10:03:01.483Z,119034.523,1635242456,full,ni_sequenzen,NI_Sequenzen,23,,,,,,,,,,,,,
,Move,canvas.Screen,0_1_0_23,down,response,,119029.59999990463,119017.964,119034.523,119638.79999995232,604.2769999523152,119639.59999990463,2021-10-26T10:03:02.096Z,119651.181,1635242456,full,ni_sequenzen,NI_Sequenzen,24,,,,,,,,,,,,,
,Move,canvas.Screen,0_1_0_24,down,response,,119643.19999992847,119634.724,119651.181,119863.59999990463,212.4189999046357,119864.39999997616,2021-10-26T10:03:02.320Z,119884.672,1635242456,full,ni_sequenzen,NI_Sequenzen,25,,,,,,,,,,,,,
,Move,canvas.Screen,0_1_0_25,down,response,,119867.89999997616,119868.004,119884.672,120192.69999992847,308.0279999284685,120193.59999990463,2021-10-26T10:03:02.650Z,120201.171,1635242456,full,ni_sequenzen,NI_Sequenzen,26,,,,,,,,,,,,,
,Move,canvas.Screen,0_1_0_26,left,response,,120197.09999990463,120184.664,120201.171,120741.09999990463,539.9289999046305,120742,2021-10-26T10:03:03.198Z,120751.192,1635242456,full,ni_sequenzen,NI_Sequenzen,27,,,,,,,,,,,,,
,Move,canvas.Screen,0_1_0_27,right,response,,120746.79999995232,120734.671,120751.192,121698.79999995232,947.6079999523208,121699.69999992847,2021-10-26T10:03:04.156Z,121718.069,1635242456,full,ni_sequenzen,NI_Sequenzen,28,,,,,,,,,,,,,
,Move,canvas.Screen,0_1_0_28,down,response,,121703.29999995232,121701.328,121718.069,122037,318.93099999999686,122037.5,2021-10-26T10:03:04.494Z,122051.385,1635242456,full,ni_sequenzen,NI_Sequenzen,29,,,,,,,,,,,,,
,Move,canvas.Screen,0_1_0_29,down,response,,122038.89999997616,122034.678,122051.385,122286.79999995232,235.41499995232152,122287.69999992847,2021-10-26T10:03:04.744Z,122334.729,1635242456,full,ni_sequenzen,NI_Sequenzen,30,,,,,,,,,,,,,
,Loop,flow.Loop,0_1_0,-999,completion,,98108.09999990463,98100.689,98117.548,122286.79999995232,24169.25199995232,122288.09999990463,2021-10-26T10:03:04.744Z,122334.729,1635242456,full,ni_sequenzen,NI_Sequenzen,,,,,,,,,,,,,,
,Training_I,flow.Sequence,0_1,,completion,,98101.5,98100.689,98117.548,122286.79999995232,24169.25199995232,122288.39999997616,2021-10-26T10:03:04.744Z,122334.729,1635242456,full,ni_sequenzen,NI_Sequenzen,,,,,,,,,,,,,,
,Screen_1,canvas.Screen,0_2_0_0,cont,response,1,122318.59999990463,122318.113,122334.729,135489.5,13154.770999999993,135490.39999997616,2021-10-26T10:03:17.946Z,135518.058,1635242456,full,ni_sequenzen,NI_Sequenzen,,,,,,,,,,,,,,
,Screen_2,canvas.Screen,0_2_0_1,cont,response,1,135510.39999997616,135500.919,135518.058,146135.69999992847,10617.641999928484,146136.39999997616,2021-10-26T10:03:28.592Z,146151.651,1635242456,full,ni_sequenzen,NI_Sequenzen,,,,,,,,,,,,,,
,Screen_3,canvas.Screen,0_2_0_2,cont,response,1,146141.79999995232,146134.529,146151.651,170591.59999990463,24439.94899990462,170592.59999990463,2021-10-26T10:03:53.048Z,170618.717,1635242456,full,ni_sequenzen,NI_Sequenzen,,,,,,,,,,,,,,
,Screen_4,canvas.Screen,0_2_0_3,cont,response,1,170607.39999997616,170600.781,170618.717,194786.69999992847,24167.98299992847,194787.59999990463,2021-10-26T10:04:17.243Z,194802.46,1635242456,full,ni_sequenzen,NI_Sequenzen,,,,,,,,,,,,,,
,Screen_5,canvas.Screen,0_2_0_4,cont,response,1,194792.79999995232,194784.4,194802.46,199951.79999995232,5149.339999952324,199952.69999992847,2021-10-26T10:04:22.409Z,199986.03,1635242456,full,ni_sequenzen,NI_Sequenzen,,,,,,,,,,,,,,
,Screen_6,canvas.Screen,0_2_0_5,cont,response,1,199969.69999992847,199969.063,199986.03,208197,8210.970000000001,208197.79999995232,2021-10-26T10:04:30.654Z,208319.303,1635242456,full,ni_sequenzen,NI_Sequenzen,,,,,,,,,,,,,,
,Sequence,flow.Sequence,0_2_0,,completion,1,122317.59999990463,122318.113,122334.729,208197,85862.271,208201.19999992847,2021-10-26T10:04:30.657Z,208319.303,1635242456,full,ni_sequenzen,NI_Sequenzen,,,,,,,,,,,,,,
,Screen_1,canvas.Screen,0_2_1_0,,skipped,2,208203.09999990463,,,208203.09999990463,,208203.19999992847,2021-10-26T10:04:30.659Z,208319.303,1635242456,full,ni_sequenzen,NI_Sequenzen,,,,,,,,,,,,,,
,Screen_2,canvas.Screen,0_2_1_1,,skipped,2,208203.79999995232,,,208203.09999990463,,208203.89999997616,2021-10-26T10:04:30.660Z,208319.303,1635242456,full,ni_sequenzen,NI_Sequenzen,,,,,,,,,,,,,,
,Screen_3,canvas.Screen,0_2_1_2,,skipped,2,208204.39999997616,,,208203.09999990463,,208204.39999997616,2021-10-26T10:04:30.660Z,208319.303,1635242456,full,ni_sequenzen,NI_Sequenzen,,,,,,,,,,,,,,
,Screen_4,canvas.Screen,0_2_1_3,,skipped,2,208205,,,208203.09999990463,,208205,2021-10-26T10:04:30.661Z,208319.303,1635242456,full,ni_sequenzen,NI_Sequenzen,,,,,,,,,,,,,,
,Screen_5,canvas.Screen,0_2_1_4,,skipped,2,208205.5,,,208203.09999990463,,208205.59999990463,2021-10-26T10:04:30.661Z,208319.303,1635242456,full,ni_sequenzen,NI_Sequenzen,,,,,,,,,,,,,,
,Screen_6,canvas.Screen,0_2_1_5,,skipped,2,208206.5,,,208203.09999990463,,208206.59999990463,2021-10-26T10:04:30.662Z,208319.303,1635242456,full,ni_sequenzen,NI_Sequenzen,,,,,,,,,,,,,,
,Sequence,flow.Sequence,0_2_1,,completion,2,208202.29999995232,,,208203.09999990463,,208206.69999992847,2021-10-26T10:04:30.663Z,208319.303,1635242456,full,ni_sequenzen,NI_Sequenzen,,,,,,,,,,,,,,
,Screen_1,canvas.Screen,0_2_2_0,,skipped,3,208207.29999995232,,,208207.39999997616,,208207.5,2021-10-26T10:04:30.663Z,208319.303,1635242456,full,ni_sequenzen,NI_Sequenzen,,,,,,,,,,,,,,
,Screen_2,canvas.Screen,0_2_2_1,,skipped,3,208208,,,208207.39999997616,,208208,2021-10-26T10:04:30.664Z,208319.303,1635242456,full,ni_sequenzen,NI_Sequenzen,,,,,,,,,,,,,,
,Screen_3,canvas.Screen,0_2_2_2,,skipped,3,208208.39999997616,,,208207.39999997616,,208208.39999997616,2021-10-26T10:04:30.664Z,208319.303,1635242456,full,ni_sequenzen,NI_Sequenzen,,,,,,,,,,,,,,
,Screen_4,canvas.Screen,0_2_2_3,,skipped,3,208209.09999990463,,,208207.39999997616,,208209.09999990463,2021-10-26T10:04:30.665Z,208319.303,1635242456,full,ni_sequenzen,NI_Sequenzen,,,,,,,,,,,,,,
,Screen_5,canvas.Screen,0_2_2_4,,skipped,3,208209.5,,,208207.39999997616,,208209.59999990463,2021-10-26T10:04:30.665Z,208319.303,1635242456,full,ni_sequenzen,NI_Sequenzen,,,,,,,,,,,,,,
,Screen_6,canvas.Screen,0_2_2_5,,skipped,3,208210,,,208207.39999997616,,208210.09999990463,2021-10-26T10:04:30.666Z,208319.303,1635242456,full,ni_sequenzen,NI_Sequenzen,,,,,,,,,,,,,,
,Sequence,flow.Sequence,0_2_2,,completion,3,208206.89999997616,,,208207.39999997616,,208210.19999992847,2021-10-26T10:04:30.666Z,208319.303,1635242456,full,ni_sequenzen,NI_Sequenzen,,,,,,,,,,,,,,
,Screen_1,canvas.Screen,0_2_3_0,,skipped,4,208210.79999995232,,,208210.79999995232,,208210.79999995232,2021-10-26T10:04:30.667Z,208319.303,1635242456,full,ni_sequenzen,NI_Sequenzen,,,,,,,,,,,,,,
,Screen_2,canvas.Screen,0_2_3_1,,skipped,4,208211.19999992847,,,208210.79999995232,,208211.29999995232,2021-10-26T10:04:30.667Z,208319.303,1635242456,full,ni_sequenzen,NI_Sequenzen,,,,,,,,,,,,,,
,Screen_3,canvas.Screen,0_2_3_2,,skipped,4,208211.69999992847,,,208210.79999995232,,208211.79999995232,2021-10-26T10:04:30.668Z,208319.303,1635242456,full,ni_sequenzen,NI_Sequenzen,,,,,,,,,,,,,,
,Screen_4,canvas.Screen,0_2_3_3,,skipped,4,208212.19999992847,,,208210.79999995232,,208212.19999992847,2021-10-26T10:04:30.668Z,208319.303,1635242456,full,ni_sequenzen,NI_Sequenzen,,,,,,,,,,,,,,
,Screen_5,canvas.Screen,0_2_3_4,,skipped,4,208212.59999990463,,,208210.79999995232,,208212.69999992847,2021-10-26T10:04:30.668Z,208319.303,1635242456,full,ni_sequenzen,NI_Sequenzen,,,,,,,,,,,,,,
,Screen_6,canvas.Screen,0_2_3_5,,skipped,4,208213.09999990463,,,208210.79999995232,,208213.19999992847,2021-10-26T10:04:30.669Z,208319.303,1635242456,full,ni_sequenzen,NI_Sequenzen,,,,,,,,,,,,,,
,Sequence,flow.Sequence,0_2_3,,completion,4,208210.39999997616,,,208210.79999995232,,208213.29999995232,2021-10-26T10:04:30.669Z,208319.303,1635242456,full,ni_sequenzen,NI_Sequenzen,,,,,,,,,,,,,,
,Screen_1,canvas.Screen,0_2_4_0,,skipped,5,208213.79999995232,,,208213.79999995232,,208213.79999995232,2021-10-26T10:04:30.670Z,208319.303,1635242456,full,ni_sequenzen,NI_Sequenzen,,,,,,,,,,,,,,
,Screen_2,canvas.Screen,0_2_4_1,,skipped,5,208214.19999992847,,,208213.79999995232,,208214.29999995232,2021-10-26T10:04:30.670Z,208319.303,1635242456,full,ni_sequenzen,NI_Sequenzen,,,,,,,,,,,,,,
,Screen_3,canvas.Screen,0_2_4_2,,skipped,5,208214.69999992847,,,208213.79999995232,,208214.79999995232,2021-10-26T10:04:30.671Z,208319.303,1635242456,full,ni_sequenzen,NI_Sequenzen,,,,,,,,,,,,,,
,Screen_4,canvas.Screen,0_2_4_3,,skipped,5,208215.59999990463,,,208213.79999995232,,208215.69999992847,2021-10-26T10:04:30.671Z,208319.303,1635242456,full,ni_sequenzen,NI_Sequenzen,,,,,,,,,,,,,,
,Screen_5,canvas.Screen,0_2_4_4,,skipped,5,208216.09999990463,,,208213.79999995232,,208216.19999992847,2021-10-26T10:04:30.672Z,208319.303,1635242456,full,ni_sequenzen,NI_Sequenzen,,,,,,,,,,,,,,
,Screen_6,canvas.Screen,0_2_4_5,,skipped,5,208216.59999990463,,,208213.79999995232,,208216.59999990463,2021-10-26T10:04:30.672Z,208319.303,1635242456,full,ni_sequenzen,NI_Sequenzen,,,,,,,,,,,,,,
,Sequence,flow.Sequence,0_2_4,,completion,5,208213.39999997616,,,208213.79999995232,,208216.59999990463,2021-10-26T10:04:30.672Z,208319.303,1635242456,full,ni_sequenzen,NI_Sequenzen,,,,,,,,,,,,,,
,Screen_1,canvas.Screen,0_2_5_0,,skipped,6,208217.29999995232,,,208217.29999995232,,208217.29999995232,2021-10-26T10:04:30.673Z,208319.303,1635242456,full,ni_sequenzen,NI_Sequenzen,,,,,,,,,,,,,,
,Screen_2,canvas.Screen,0_2_5_1,,skipped,6,208217.79999995232,,,208217.29999995232,,208217.79999995232,2021-10-26T10:04:30.674Z,208319.303,1635242456,full,ni_sequenzen,NI_Sequenzen,,,,,,,,,,,,,,
,Screen_3,canvas.Screen,0_2_5_2,,skipped,6,208218.19999992847,,,208217.29999995232,,208218.29999995232,2021-10-26T10:04:30.674Z,208319.303,1635242456,full,ni_sequenzen,NI_Sequenzen,,,,,,,,,,,,,,
,Screen_4,canvas.Screen,0_2_5_3,,skipped,6,208218.69999992847,,,208217.29999995232,,208218.79999995232,2021-10-26T10:04:30.675Z,208319.303,1635242456,full,ni_sequenzen,NI_Sequenzen,,,,,,,,,,,,,,
,Screen_5,canvas.Screen,0_2_5_4,,skipped,6,208219.19999992847,,,208217.29999995232,,208219.19999992847,2021-10-26T10:04:30.675Z,208319.303,1635242456,full,ni_sequenzen,NI_Sequenzen,,,,,,,,,,,,,,
,Screen_6,canvas.Screen,0_2_5_5,,skipped,6,208219.79999995232,,,208217.29999995232,,208219.79999995232,2021-10-26T10:04:30.676Z,208319.303,1635242456,full,ni_sequenzen,NI_Sequenzen,,,,,,,,,,,,,,
,Sequence,flow.Sequence,0_2_5,,completion,6,208216.89999997616,,,208217.29999995232,,208219.79999995232,2021-10-26T10:04:30.676Z,208319.303,1635242456,full,ni_sequenzen,NI_Sequenzen,,,,,,,,,,,,,,
,Screen_1,canvas.Screen,0_2_6_0,,skipped,7,208220.59999990463,,,208220.59999990463,,208220.59999990463,2021-10-26T10:04:30.676Z,208319.303,1635242456,full,ni_sequenzen,NI_Sequenzen,,,,,,,,,,,,,,
,Screen_2,canvas.Screen,0_2_6_1,,skipped,7,208221,,,208220.59999990463,,208221,2021-10-26T10:04:30.677Z,208319.303,1635242456,full,ni_sequenzen,NI_Sequenzen,,,,,,,,,,,,,,
,Screen_3,canvas.Screen,0_2_6_2,,skipped,7,208221.39999997616,,,208220.59999990463,,208221.39999997616,2021-10-26T10:04:30.677Z,208319.303,1635242456,full,ni_sequenzen,NI_Sequenzen,,,,,,,,,,,,,,
,Screen_4,canvas.Screen,0_2_6_3,,skipped,7,208221.79999995232,,,208220.59999990463,,208221.89999997616,2021-10-26T10:04:30.678Z,208319.303,1635242456,full,ni_sequenzen,NI_Sequenzen,,,,,,,,,,,,,,
,Screen_5,canvas.Screen,0_2_6_4,,skipped,7,208222.29999995232,,,208220.59999990463,,208222.29999995232,2021-10-26T10:04:30.678Z,208319.303,1635242456,full,ni_sequenzen,NI_Sequenzen,,,,,,,,,,,,,,
,Screen_6,canvas.Screen,0_2_6_5,,skipped,7,208222.69999992847,,,208220.59999990463,,208222.69999992847,2021-10-26T10:04:30.679Z,208319.303,1635242456,full,ni_sequenzen,NI_Sequenzen,,,,,,,,,,,,,,
,Sequence,flow.Sequence,0_2_6,,completion,7,208220.09999990463,,,208220.59999990463,,208222.79999995232,2021-10-26T10:04:30.679Z,208319.303,1635242456,full,ni_sequenzen,NI_Sequenzen,,,,,,,,,,,,,,
,Screen_1,canvas.Screen,0_2_7_0,,skipped,8,208224,,,208224,,208224,2021-10-26T10:04:30.680Z,208319.303,1635242456,full,ni_sequenzen,NI_Sequenzen,,,,,,,,,,,,,,
,Screen_2,canvas.Screen,0_2_7_1,,skipped,8,208224.39999997616,,,208224,,208224.39999997616,2021-10-26T10:04:30.680Z,208319.303,1635242456,full,ni_sequenzen,NI_Sequenzen,,,,,,,,,,,,,,
,Screen_3,canvas.Screen,0_2_7_2,,skipped,8,208224.79999995232,,,208224,,208224.89999997616,2021-10-26T10:04:30.681Z,208319.303,1635242456,full,ni_sequenzen,NI_Sequenzen,,,,,,,,,,,,,,
,Screen_4,canvas.Screen,0_2_7_3,,skipped,8,208225.29999995232,,,208224,,208225.29999995232,2021-10-26T10:04:30.681Z,208319.303,1635242456,full,ni_sequenzen,NI_Sequenzen,,,,,,,,,,,,,,
,Screen_5,canvas.Screen,0_2_7_4,,skipped,8,208225.69999992847,,,208224,,208225.69999992847,2021-10-26T10:04:30.681Z,208319.303,1635242456,full,ni_sequenzen,NI_Sequenzen,,,,,,,,,,,,,,
,Screen_6,canvas.Screen,0_2_7_5,,skipped,8,208226.09999990463,,,208224,,208226.09999990463,2021-10-26T10:04:30.682Z,208319.303,1635242456,full,ni_sequenzen,NI_Sequenzen,,,,,,,,,,,,,,
,Sequence,flow.Sequence,0_2_7,,completion,8,208223.5,,,208224,,208226.19999992847,2021-10-26T10:04:30.682Z,208319.303,1635242456,full,ni_sequenzen,NI_Sequenzen,,,,,,,,,,,,,,
,Screen_1,canvas.Screen,0_2_8_0,,skipped,9,208226.79999995232,,,208226.79999995232,,208226.79999995232,2021-10-26T10:04:30.683Z,208319.303,1635242456,full,ni_sequenzen,NI_Sequenzen,,,,,,,,,,,,,,
,Screen_2,canvas.Screen,0_2_8_1,,skipped,9,208227.19999992847,,,208226.79999995232,,208227.29999995232,2021-10-26T10:04:30.683Z,208319.303,1635242456,full,ni_sequenzen,NI_Sequenzen,,,,,,,,,,,,,,
,Screen_3,canvas.Screen,0_2_8_2,,skipped,9,208227.59999990463,,,208226.79999995232,,208227.69999992847,2021-10-26T10:04:30.683Z,208319.303,1635242456,full,ni_sequenzen,NI_Sequenzen,,,,,,,,,,,,,,
,Screen_4,canvas.Screen,0_2_8_3,,skipped,9,208228.09999990463,,,208226.79999995232,,208228.09999990463,2021-10-26T10:04:30.684Z,208319.303,1635242456,full,ni_sequenzen,NI_Sequenzen,,,,,,,,,,,,,,
,Screen_5,canvas.Screen,0_2_8_4,,skipped,9,208228.5,,,208226.79999995232,,208228.59999990463,2021-10-26T10:04:30.684Z,208319.303,1635242456,full,ni_sequenzen,NI_Sequenzen,,,,,,,,,,,,,,
,Screen_6,canvas.Screen,0_2_8_5,,skipped,9,208228.89999997616,,,208226.79999995232,,208228.89999997616,2021-10-26T10:04:30.685Z,208319.303,1635242456,full,ni_sequenzen,NI_Sequenzen,,,,,,,,,,,,,,
,Sequence,flow.Sequence,0_2_8,,completion,9,208226.39999997616,,,208226.79999995232,,208229,2021-10-26T10:04:30.685Z,208319.303,1635242456,full,ni_sequenzen,NI_Sequenzen,,,,,,,,,,,,,,
,Screen_1,canvas.Screen,0_2_9_0,,skipped,10,208229.79999995232,,,208229.79999995232,,208229.79999995232,2021-10-26T10:04:30.686Z,208319.303,1635242456,full,ni_sequenzen,NI_Sequenzen,,,,,,,,,,,,,,
,Screen_2,canvas.Screen,0_2_9_1,,skipped,10,208230.19999992847,,,208229.79999995232,,208230.19999992847,2021-10-26T10:04:30.686Z,208319.303,1635242456,full,ni_sequenzen,NI_Sequenzen,,,,,,,,,,,,,,
,Screen_3,canvas.Screen,0_2_9_2,,skipped,10,208230.69999992847,,,208229.79999995232,,208230.79999995232,2021-10-26T10:04:30.687Z,208319.303,1635242456,full,ni_sequenzen,NI_Sequenzen,,,,,,,,,,,,,,
,Screen_4,canvas.Screen,0_2_9_3,,skipped,10,208231.59999990463,,,208229.79999995232,,208231.59999990463,2021-10-26T10:04:30.687Z,208319.303,1635242456,full,ni_sequenzen,NI_Sequenzen,,,,,,,,,,,,,,
,Screen_5,canvas.Screen,0_2_9_4,,skipped,10,208232.29999995232,,,208229.79999995232,,208232.39999997616,2021-10-26T10:04:30.688Z,208319.303,1635242456,full,ni_sequenzen,NI_Sequenzen,,,,,,,,,,,,,,
,Screen_6,canvas.Screen,0_2_9_5,,skipped,10,208232.89999997616,,,208229.79999995232,,208233,2021-10-26T10:04:30.689Z,208319.303,1635242456,full,ni_sequenzen,NI_Sequenzen,,,,,,,,,,,,,,
,Sequence,flow.Sequence,0_2_9,,completion,10,208229.29999995232,,,208229.79999995232,,208233.09999990463,2021-10-26T10:04:30.689Z,208319.303,1635242456,full,ni_sequenzen,NI_Sequenzen,,,,,,,,,,,,,,
,Screen_1,canvas.Screen,0_2_10_0,,skipped,11,208233.89999997616,,,208233.89999997616,,208233.89999997616,2021-10-26T10:04:30.690Z,208319.303,1635242456,full,ni_sequenzen,NI_Sequenzen,,,,,,,,,,,,,,
,Screen_2,canvas.Screen,0_2_10_1,,skipped,11,208234.39999997616,,,208233.89999997616,,208234.5,2021-10-26T10:04:30.690Z,208319.303,1635242456,full,ni_sequenzen,NI_Sequenzen,,,,,,,,,,,,,,
,Screen_3,canvas.Screen,0_2_10_2,,skipped,11,208234.89999997616,,,208233.89999997616,,208234.89999997616,2021-10-26T10:04:30.691Z,208319.303,1635242456,full,ni_sequenzen,NI_Sequenzen,,,,,,,,,,,,,,
,Screen_4,canvas.Screen,0_2_10_3,,skipped,11,208235.29999995232,,,208233.89999997616,,208235.39999997616,2021-10-26T10:04:30.691Z,208319.303,1635242456,full,ni_sequenzen,NI_Sequenzen,,,,,,,,,,,,,,
,Screen_5,canvas.Screen,0_2_10_4,,skipped,11,208235.79999995232,,,208233.89999997616,,208235.79999995232,2021-10-26T10:04:30.692Z,208319.303,1635242456,full,ni_sequenzen,NI_Sequenzen,,,,,,,,,,,,,,
,Screen_6,canvas.Screen,0_2_10_5,,skipped,11,208236.39999997616,,,208233.89999997616,,208236.39999997616,2021-10-26T10:04:30.692Z,208319.303,1635242456,full,ni_sequenzen,NI_Sequenzen,,,,,,,,,,,,,,
,Sequence,flow.Sequence,0_2_10,,completion,11,208233.19999992847,,,208233.89999997616,,208236.5,2021-10-26T10:04:30.692Z,208319.303,1635242456,full,ni_sequenzen,NI_Sequenzen,,,,,,,,,,,,,,
,Screen_1,canvas.Screen,0_2_11_0,,skipped,12,208237.19999992847,,,208237.19999992847,,208237.19999992847,2021-10-26T10:04:30.693Z,208319.303,1635242456,full,ni_sequenzen,NI_Sequenzen,,,,,,,,,,,,,,
,Screen_2,canvas.Screen,0_2_11_1,,skipped,12,208237.59999990463,,,208237.19999992847,,208237.59999990463,2021-10-26T10:04:30.693Z,208319.303,1635242456,full,ni_sequenzen,NI_Sequenzen,,,,,,,,,,,,,,
,Screen_3,canvas.Screen,0_2_11_2,,skipped,12,208237.89999997616,,,208237.19999992847,,208238.09999990463,2021-10-26T10:04:30.694Z,208319.303,1635242456,full,ni_sequenzen,NI_Sequenzen,,,,,,,,,,,,,,
,Screen_4,canvas.Screen,0_2_11_3,,skipped,12,208238.39999997616,,,208237.19999992847,,208238.39999997616,2021-10-26T10:04:30.694Z,208319.303,1635242456,full,ni_sequenzen,NI_Sequenzen,,,,,,,,,,,,,,
,Screen_5,canvas.Screen,0_2_11_4,,skipped,12,208238.79999995232,,,208237.19999992847,,208238.79999995232,2021-10-26T10:04:30.695Z,208319.303,1635242456,full,ni_sequenzen,NI_Sequenzen,,,,,,,,,,,,,,
,Screen_6,canvas.Screen,0_2_11_5,,skipped,12,208239.19999992847,,,208237.19999992847,,208239.19999992847,2021-10-26T10:04:30.695Z,208319.303,1635242456,full,ni_sequenzen,NI_Sequenzen,,,,,,,,,,,,,,
,Sequence,flow.Sequence,0_2_11,,completion,12,208236.69999992847,,,208237.19999992847,,208239.29999995232,2021-10-26T10:04:30.695Z,208319.303,1635242456,full,ni_sequenzen,NI_Sequenzen,,,,,,,,,,,,,,
,Screen_1,canvas.Screen,0_2_12_0,,skipped,13,208240.5,,,208240.5,,208240.59999990463,2021-10-26T10:04:30.696Z,208319.303,1635242456,full,ni_sequenzen,NI_Sequenzen,,,,,,,,,,,,,,
,Screen_2,canvas.Screen,0_2_12_1,,skipped,13,208241,,,208240.5,,208241,2021-10-26T10:04:30.697Z,208319.303,1635242456,full,ni_sequenzen,NI_Sequenzen,,,,,,,,,,,,,,
,Screen_3,canvas.Screen,0_2_12_2,,skipped,13,208241.39999997616,,,208240.5,,208241.5,2021-10-26T10:04:30.697Z,208319.303,1635242456,full,ni_sequenzen,NI_Sequenzen,,,,,,,,,,,,,,
,Screen_4,canvas.Screen,0_2_12_3,,skipped,13,208241.79999995232,,,208240.5,,208241.89999997616,2021-10-26T10:04:30.698Z,208319.303,1635242456,full,ni_sequenzen,NI_Sequenzen,,,,,,,,,,,,,,
,Screen_5,canvas.Screen,0_2_12_4,,skipped,13,208242.19999992847,,,208240.5,,208242.29999995232,2021-10-26T10:04:30.698Z,208319.303,1635242456,full,ni_sequenzen,NI_Sequenzen,,,,,,,,,,,,,,
,Screen_6,canvas.Screen,0_2_12_5,,skipped,13,208242.59999990463,,,208240.5,,208242.69999992847,2021-10-26T10:04:30.698Z,208319.303,1635242456,full,ni_sequenzen,NI_Sequenzen,,,,,,,,,,,,,,
,Sequence,flow.Sequence,0_2_12,,completion,13,208239.5,,,208240.5,,208242.69999992847,2021-10-26T10:04:30.699Z,208319.303,1635242456,full,ni_sequenzen,NI_Sequenzen,,,,,,,,,,,,,,
,Screen_1,canvas.Screen,0_2_13_0,,skipped,14,208243.29999995232,,,208243.29999995232,,208243.39999997616,2021-10-26T10:04:30.699Z,208319.303,1635242456,full,ni_sequenzen,NI_Sequenzen,,,,,,,,,,,,,,
,Screen_2,canvas.Screen,0_2_13_1,,skipped,14,208243.69999992847,,,208243.29999995232,,208243.89999997616,2021-10-26T10:04:30.700Z,208319.303,1635242456,full,ni_sequenzen,NI_Sequenzen,,,,,,,,,,,,,,
,Screen_3,canvas.Screen,0_2_13_2,,skipped,14,208244.19999992847,,,208243.29999995232,,208244.29999995232,2021-10-26T10:04:30.700Z,208319.303,1635242456,full,ni_sequenzen,NI_Sequenzen,,,,,,,,,,,,,,
,Screen_4,canvas.Screen,0_2_13_3,,skipped,14,208244.59999990463,,,208243.29999995232,,208244.69999992847,2021-10-26T10:04:30.700Z,208319.303,1635242456,full,ni_sequenzen,NI_Sequenzen,,,,,,,,,,,,,,
,Screen_5,canvas.Screen,0_2_13_4,,skipped,14,208245,,,208243.29999995232,,208245.09999990463,2021-10-26T10:04:30.701Z,208319.303,1635242456,full,ni_sequenzen,NI_Sequenzen,,,,,,,,,,,,,,
,Screen_6,canvas.Screen,0_2_13_5,,skipped,14,208245.39999997616,,,208243.29999995232,,208245.5,2021-10-26T10:04:30.701Z,208319.303,1635242456,full,ni_sequenzen,NI_Sequenzen,,,,,,,,,,,,,,
,Sequence,flow.Sequence,0_2_13,,completion,14,208242.89999997616,,,208243.29999995232,,208245.5,2021-10-26T10:04:30.701Z,208319.303,1635242456,full,ni_sequenzen,NI_Sequenzen,,,,,,,,,,,,,,
,Screen_1,canvas.Screen,0_2_14_0,,skipped,15,208246.19999992847,,,208246.19999992847,,208246.19999992847,2021-10-26T10:04:30.702Z,208319.303,1635242456,full,ni_sequenzen,NI_Sequenzen,,,,,,,,,,,,,,
,Screen_2,canvas.Screen,0_2_14_1,,skipped,15,208247.09999990463,,,208246.19999992847,,208247.09999990463,2021-10-26T10:04:30.703Z,208319.303,1635242456,full,ni_sequenzen,NI_Sequenzen,,,,,,,,,,,,,,
,Screen_3,canvas.Screen,0_2_14_2,,skipped,15,208247.59999990463,,,208246.19999992847,,208247.69999992847,2021-10-26T10:04:30.703Z,208319.303,1635242456,full,ni_sequenzen,NI_Sequenzen,,,,,,,,,,,,,,
,Screen_4,canvas.Screen,0_2_14_3,,skipped,15,208248,,,208246.19999992847,,208248.09999990463,2021-10-26T10:04:30.704Z,208319.303,1635242456,full,ni_sequenzen,NI_Sequenzen,,,,,,,,,,,,,,
,Screen_5,canvas.Screen,0_2_14_4,,skipped,15,208248.5,,,208246.19999992847,,208248.59999990463,2021-10-26T10:04:30.704Z,208319.303,1635242456,full,ni_sequenzen,NI_Sequenzen,,,,,,,,,,,,,,
,Screen_6,canvas.Screen,0_2_14_5,,skipped,15,208248.89999997616,,,208246.19999992847,,208248.89999997616,2021-10-26T10:04:30.705Z,208319.303,1635242456,full,ni_sequenzen,NI_Sequenzen,,,,,,,,,,,,,,
,Sequence,flow.Sequence,0_2_14,,completion,15,208245.69999992847,,,208246.19999992847,,208249.09999990463,2021-10-26T10:04:30.705Z,208319.303,1635242456,full,ni_sequenzen,NI_Sequenzen,,,,,,,,,,,,,,
,Screen_1,canvas.Screen,0_2_15_0,,skipped,16,208249.79999995232,,,208249.79999995232,,208249.79999995232,2021-10-26T10:04:30.706Z,208319.303,1635242456,full,ni_sequenzen,NI_Sequenzen,,,,,,,,,,,,,,
,Screen_2,canvas.Screen,0_2_15_1,,skipped,16,208250.29999995232,,,208249.79999995232,,208250.39999997616,2021-10-26T10:04:30.706Z,208319.303,1635242456,full,ni_sequenzen,NI_Sequenzen,,,,,,,,,,,,,,
,Screen_3,canvas.Screen,0_2_15_2,,skipped,16,208250.79999995232,,,208249.79999995232,,208250.79999995232,2021-10-26T10:04:30.707Z,208319.303,1635242456,full,ni_sequenzen,NI_Sequenzen,,,,,,,,,,,,,,
,Screen_4,canvas.Screen,0_2_15_3,,skipped,16,208251.19999992847,,,208249.79999995232,,208251.19999992847,2021-10-26T10:04:30.707Z,208319.303,1635242456,full,ni_sequenzen,NI_Sequenzen,,,,,,,,,,,,,,
,Screen_5,canvas.Screen,0_2_15_4,,skipped,16,208251.69999992847,,,208249.79999995232,,208251.79999995232,2021-10-26T10:04:30.708Z,208319.303,1635242456,full,ni_sequenzen,NI_Sequenzen,,,,,,,,,,,,,,
,Screen_6,canvas.Screen,0_2_15_5,,skipped,16,208252.09999990463,,,208249.79999995232,,208252.19999992847,2021-10-26T10:04:30.708Z,208319.303,1635242456,full,ni_sequenzen,NI_Sequenzen,,,,,,,,,,,,,,
,Sequence,flow.Sequence,0_2_15,,completion,16,208249.29999995232,,,208249.79999995232,,208252.19999992847,2021-10-26T10:04:30.708Z,208319.303,1635242456,full,ni_sequenzen,NI_Sequenzen,,,,,,,,,,,,,,
,Screen_1,canvas.Screen,0_2_16_0,,skipped,17,208252.89999997616,,,208252.89999997616,,208253,2021-10-26T10:04:30.709Z,208319.303,1635242456,full,ni_sequenzen,NI_Sequenzen,,,,,,,,,,,,,,
,Screen_2,canvas.Screen,0_2_16_1,,skipped,17,208253.39999997616,,,208252.89999997616,,208253.39999997616,2021-10-26T10:04:30.709Z,208319.303,1635242456,full,ni_sequenzen,NI_Sequenzen,,,,,,,,,,,,,,
,Screen_3,canvas.Screen,0_2_16_2,,skipped,17,208254.29999995232,,,208252.89999997616,,208254.29999995232,2021-10-26T10:04:30.710Z,208319.303,1635242456,full,ni_sequenzen,NI_Sequenzen,,,,,,,,,,,,,,
,Screen_4,canvas.Screen,0_2_16_3,,skipped,17,208254.79999995232,,,208252.89999997616,,208254.79999995232,2021-10-26T10:04:30.711Z,208319.303,1635242456,full,ni_sequenzen,NI_Sequenzen,,,,,,,,,,,,,,
,Screen_5,canvas.Screen,0_2_16_4,,skipped,17,208255.19999992847,,,208252.89999997616,,208255.29999995232,2021-10-26T10:04:30.711Z,208319.303,1635242456,full,ni_sequenzen,NI_Sequenzen,,,,,,,,,,,,,,
,Screen_6,canvas.Screen,0_2_16_5,,skipped,17,208255.59999990463,,,208252.89999997616,,208255.59999990463,2021-10-26T10:04:30.711Z,208319.303,1635242456,full,ni_sequenzen,NI_Sequenzen,,,,,,,,,,,,,,
,Sequence,flow.Sequence,0_2_16,,completion,17,208252.39999997616,,,208252.89999997616,,208255.69999992847,2021-10-26T10:04:30.711Z,208319.303,1635242456,full,ni_sequenzen,NI_Sequenzen,,,,,,,,,,,,,,
,Screen_1,canvas.Screen,0_2_17_0,,skipped,18,208256.29999995232,,,208256.29999995232,,208256.39999997616,2021-10-26T10:04:30.712Z,208319.303,1635242456,full,ni_sequenzen,NI_Sequenzen,,,,,,,,,,,,,,
,Screen_2,canvas.Screen,0_2_17_1,,skipped,18,208256.69999992847,,,208256.29999995232,,208256.69999992847,2021-10-26T10:04:30.713Z,208319.303,1635242456,full,ni_sequenzen,NI_Sequenzen,,,,,,,,,,,,,,
,Screen_3,canvas.Screen,0_2_17_2,,skipped,18,208257.19999992847,,,208256.29999995232,,208257.19999992847,2021-10-26T10:04:30.713Z,208319.303,1635242456,full,ni_sequenzen,NI_Sequenzen,,,,,,,,,,,,,,
,Screen_4,canvas.Screen,0_2_17_3,,skipped,18,208257.5,,,208256.29999995232,,208257.59999990463,2021-10-26T10:04:30.713Z,208319.303,1635242456,full,ni_sequenzen,NI_Sequenzen,,,,,,,,,,,,,,
,Screen_5,canvas.Screen,0_2_17_4,,skipped,18,208258,,,208256.29999995232,,208258,2021-10-26T10:04:30.714Z,208319.303,1635242456,full,ni_sequenzen,NI_Sequenzen,,,,,,,,,,,,,,
,Screen_6,canvas.Screen,0_2_17_5,,skipped,18,208258.39999997616,,,208256.29999995232,,208258.39999997616,2021-10-26T10:04:30.714Z,208319.303,1635242456,full,ni_sequenzen,NI_Sequenzen,,,,,,,,,,,,,,
,Sequence,flow.Sequence,0_2_17,,completion,18,208255.89999997616,,,208256.29999995232,,208258.5,2021-10-26T10:04:30.714Z,208319.303,1635242456,full,ni_sequenzen,NI_Sequenzen,,,,,,,,,,,,,,
,Screen_1,canvas.Screen,0_2_18_0,,skipped,19,208259,,,208259,,208259.09999990463,2021-10-26T10:04:30.715Z,208319.303,1635242456,full,ni_sequenzen,NI_Sequenzen,,,,,,,,,,,,,,
,Screen_2,canvas.Screen,0_2_18_1,,skipped,19,208259.5,,,208259,,208259.5,2021-10-26T10:04:30.715Z,208319.303,1635242456,full,ni_sequenzen,NI_Sequenzen,,,,,,,,,,,,,,
,Screen_3,canvas.Screen,0_2_18_2,,skipped,19,208259.89999997616,,,208259,,208260,2021-10-26T10:04:30.716Z,208319.303,1635242456,full,ni_sequenzen,NI_Sequenzen,,,,,,,,,,,,,,
,Screen_4,canvas.Screen,0_2_18_3,,skipped,19,208260.29999995232,,,208259,,208260.29999995232,2021-10-26T10:04:30.716Z,208319.303,1635242456,full,ni_sequenzen,NI_Sequenzen,,,,,,,,,,,,,,
,Screen_5,canvas.Screen,0_2_18_4,,skipped,19,208261.19999992847,,,208259,,208261.19999992847,2021-10-26T10:04:30.717Z,208319.303,1635242456,full,ni_sequenzen,NI_Sequenzen,,,,,,,,,,,,,,
,Screen_6,canvas.Screen,0_2_18_5,,skipped,19,208261.59999990463,,,208259,,208261.59999990463,2021-10-26T10:04:30.717Z,208319.303,1635242456,full,ni_sequenzen,NI_Sequenzen,,,,,,,,,,,,,,
,Sequence,flow.Sequence,0_2_18,,completion,19,208258.69999992847,,,208259,,208261.79999995232,2021-10-26T10:04:30.718Z,208319.303,1635242456,full,ni_sequenzen,NI_Sequenzen,,,,,,,,,,,,,,
,Screen_1,canvas.Screen,0_2_19_0,,skipped,20,208262.29999995232,,,208262.29999995232,,208262.29999995232,2021-10-26T10:04:30.718Z,208319.303,1635242456,full,ni_sequenzen,NI_Sequenzen,,,,,,,,,,,,,,
,Screen_2,canvas.Screen,0_2_19_1,,skipped,20,208262.89999997616,,,208262.29999995232,,208262.89999997616,2021-10-26T10:04:30.719Z,208319.303,1635242456,full,ni_sequenzen,NI_Sequenzen,,,,,,,,,,,,,,
,Screen_3,canvas.Screen,0_2_19_2,,skipped,20,208263.29999995232,,,208262.29999995232,,208263.29999995232,2021-10-26T10:04:30.719Z,208319.303,1635242456,full,ni_sequenzen,NI_Sequenzen,,,,,,,,,,,,,,
,Screen_4,canvas.Screen,0_2_19_3,,skipped,20,208263.69999992847,,,208262.29999995232,,208263.69999992847,2021-10-26T10:04:30.719Z,208319.303,1635242456,full,ni_sequenzen,NI_Sequenzen,,,,,,,,,,,,,,
,Screen_5,canvas.Screen,0_2_19_4,,skipped,20,208264,,,208262.29999995232,,208264.09999990463,2021-10-26T10:04:30.720Z,208319.303,1635242456,full,ni_sequenzen,NI_Sequenzen,,,,,,,,,,,,,,
,Screen_6,canvas.Screen,0_2_19_5,,skipped,20,208264.5,,,208262.29999995232,,208264.59999990463,2021-10-26T10:04:30.720Z,208319.303,1635242456,full,ni_sequenzen,NI_Sequenzen,,,,,,,,,,,,,,
,Sequence,flow.Sequence,0_2_19,,completion,20,208261.89999997616,,,208262.29999995232,,208264.59999990463,2021-10-26T10:04:30.720Z,208319.303,1635242456,full,ni_sequenzen,NI_Sequenzen,,,,,,,,,,,,,,
,Screen_1,canvas.Screen,0_2_20_0,,skipped,21,208265.19999992847,,,208265.19999992847,,208265.29999995232,2021-10-26T10:04:30.721Z,208319.303,1635242456,full,ni_sequenzen,NI_Sequenzen,,,,,,,,,,,,,,
,Screen_2,canvas.Screen,0_2_20_1,,skipped,21,208265.59999990463,,,208265.19999992847,,208265.69999992847,2021-10-26T10:04:30.721Z,208319.303,1635242456,full,ni_sequenzen,NI_Sequenzen,,,,,,,,,,,,,,
,Screen_3,canvas.Screen,0_2_20_2,,skipped,21,208266.09999990463,,,208265.19999992847,,208266.09999990463,2021-10-26T10:04:30.722Z,208319.303,1635242456,full,ni_sequenzen,NI_Sequenzen,,,,,,,,,,,,,,
,Screen_4,canvas.Screen,0_2_20_3,,skipped,21,208266.5,,,208265.19999992847,,208266.5,2021-10-26T10:04:30.722Z,208319.303,1635242456,full,ni_sequenzen,NI_Sequenzen,,,,,,,,,,,,,,
,Screen_5,canvas.Screen,0_2_20_4,,skipped,21,208267,,,208265.19999992847,,208267,2021-10-26T10:04:30.723Z,208319.303,1635242456,full,ni_sequenzen,NI_Sequenzen,,,,,,,,,,,,,,
,Screen_6,canvas.Screen,0_2_20_5,,skipped,21,208268.09999990463,,,208265.19999992847,,208268.09999990463,2021-10-26T10:04:30.724Z,208319.303,1635242456,full,ni_sequenzen,NI_Sequenzen,,,,,,,,,,,,,,
,Sequence,flow.Sequence,0_2_20,,completion,21,208264.79999995232,,,208265.19999992847,,208268.19999992847,2021-10-26T10:04:30.724Z,208319.303,1635242456,full,ni_sequenzen,NI_Sequenzen,,,,,,,,,,,,,,
,Screen_1,canvas.Screen,0_2_21_0,,skipped,22,208268.89999997616,,,208268.89999997616,,208268.89999997616,2021-10-26T10:04:30.725Z,208319.303,1635242456,full,ni_sequenzen,NI_Sequenzen,,,,,,,,,,,,,,
,Screen_2,canvas.Screen,0_2_21_1,,skipped,22,208269.29999995232,,,208268.89999997616,,208269.39999997616,2021-10-26T10:04:30.725Z,208319.303,1635242456,full,ni_sequenzen,NI_Sequenzen,,,,,,,,,,,,,,
,Screen_3,canvas.Screen,0_2_21_2,,skipped,22,208269.79999995232,,,208268.89999997616,,208269.79999995232,2021-10-26T10:04:30.726Z,208319.303,1635242456,full,ni_sequenzen,NI_Sequenzen,,,,,,,,,,,,,,
,Screen_4,canvas.Screen,0_2_21_3,,skipped,22,208270.19999992847,,,208268.89999997616,,208270.29999995232,2021-10-26T10:04:30.726Z,208319.303,1635242456,full,ni_sequenzen,NI_Sequenzen,,,,,,,,,,,,,,
,Screen_5,canvas.Screen,0_2_21_4,,skipped,22,208271,,,208268.89999997616,,208271,2021-10-26T10:04:30.727Z,208319.303,1635242456,full,ni_sequenzen,NI_Sequenzen,,,,,,,,,,,,,,
,Screen_6,canvas.Screen,0_2_21_5,,skipped,22,208271.39999997616,,,208268.89999997616,,208271.5,2021-10-26T10:04:30.727Z,208319.303,1635242456,full,ni_sequenzen,NI_Sequenzen,,,,,,,,,,,,,,
,Sequence,flow.Sequence,0_2_21,,completion,22,208268.39999997616,,,208268.89999997616,,208271.5,2021-10-26T10:04:30.727Z,208319.303,1635242456,full,ni_sequenzen,NI_Sequenzen,,,,,,,,,,,,,,
,Screen_1,canvas.Screen,0_2_22_0,,skipped,23,208272.19999992847,,,208272.19999992847,,208272.19999992847,2021-10-26T10:04:30.728Z,208319.303,1635242456,full,ni_sequenzen,NI_Sequenzen,,,,,,,,,,,,,,
,Screen_2,canvas.Screen,0_2_22_1,,skipped,23,208272.59999990463,,,208272.19999992847,,208272.59999990463,2021-10-26T10:04:30.728Z,208319.303,1635242456,full,ni_sequenzen,NI_Sequenzen,,,,,,,,,,,,,,
,Screen_3,canvas.Screen,0_2_22_2,,skipped,23,208273.19999992847,,,208272.19999992847,,208273.19999992847,2021-10-26T10:04:30.729Z,208319.303,1635242456,full,ni_sequenzen,NI_Sequenzen,,,,,,,,,,,,,,
,Screen_4,canvas.Screen,0_2_22_3,,skipped,23,208273.69999992847,,,208272.19999992847,,208273.69999992847,2021-10-26T10:04:30.730Z,208319.303,1635242456,full,ni_sequenzen,NI_Sequenzen,,,,,,,,,,,,,,
,Screen_5,canvas.Screen,0_2_22_4,,skipped,23,208274.19999992847,,,208272.19999992847,,208274.19999992847,2021-10-26T10:04:30.730Z,208319.303,1635242456,full,ni_sequenzen,NI_Sequenzen,,,,,,,,,,,,,,
,Screen_6,canvas.Screen,0_2_22_5,,skipped,23,208274.59999990463,,,208272.19999992847,,208274.69999992847,2021-10-26T10:04:30.730Z,208319.303,1635242456,full,ni_sequenzen,NI_Sequenzen,,,,,,,,,,,,,,
,Sequence,flow.Sequence,0_2_22,,completion,23,208271.69999992847,,,208272.19999992847,,208274.69999992847,2021-10-26T10:04:30.731Z,208319.303,1635242456,full,ni_sequenzen,NI_Sequenzen,,,,,,,,,,,,,,
,Screen_1,canvas.Screen,0_2_23_0,,skipped,24,208275.29999995232,,,208275.29999995232,,208275.39999997616,2021-10-26T10:04:30.731Z,208319.303,1635242456,full,ni_sequenzen,NI_Sequenzen,,,,,,,,,,,,,,
,Screen_2,canvas.Screen,0_2_23_1,,skipped,24,208275.79999995232,,,208275.29999995232,,208275.79999995232,2021-10-26T10:04:30.732Z,208319.303,1635242456,full,ni_sequenzen,NI_Sequenzen,,,,,,,,,,,,,,
,Screen_3,canvas.Screen,0_2_23_2,,skipped,24,208276.19999992847,,,208275.29999995232,,208276.19999992847,2021-10-26T10:04:30.732Z,208319.303,1635242456,full,ni_sequenzen,NI_Sequenzen,,,,,,,,,,,,,,
,Screen_4,canvas.Screen,0_2_23_3,,skipped,24,208277.19999992847,,,208275.29999995232,,208277.19999992847,2021-10-26T10:04:30.733Z,208319.303,1635242456,full,ni_sequenzen,NI_Sequenzen,,,,,,,,,,,,,,
,Screen_5,canvas.Screen,0_2_23_4,,skipped,24,208277.69999992847,,,208275.29999995232,,208277.69999992847,2021-10-26T10:04:30.734Z,208319.303,1635242456,full,ni_sequenzen,NI_Sequenzen,,,,,,,,,,,,,,
,Screen_6,canvas.Screen,0_2_23_5,,skipped,24,208278.09999990463,,,208275.29999995232,,208278.19999992847,2021-10-26T10:04:30.734Z,208319.303,1635242456,full,ni_sequenzen,NI_Sequenzen,,,,,,,,,,,,,,
,Sequence,flow.Sequence,0_2_23,,completion,24,208274.89999997616,,,208275.29999995232,,208278.19999992847,2021-10-26T10:04:30.734Z,208319.303,1635242456,full,ni_sequenzen,NI_Sequenzen,,,,,,,,,,,,,,
,Screen_1,canvas.Screen,0_2_24_0,,skipped,25,208278.89999997616,,,208278.89999997616,,208279,2021-10-26T10:04:30.735Z,208319.303,1635242456,full,ni_sequenzen,NI_Sequenzen,,,,,,,,,,,,,,
,Screen_2,canvas.Screen,0_2_24_1,,skipped,25,208279.29999995232,,,208278.89999997616,,208279.39999997616,2021-10-26T10:04:30.735Z,208319.303,1635242456,full,ni_sequenzen,NI_Sequenzen,,,,,,,,,,,,,,
,Screen_3,canvas.Screen,0_2_24_2,,skipped,25,208279.79999995232,,,208278.89999997616,,208279.79999995232,2021-10-26T10:04:30.736Z,208319.303,1635242456,full,ni_sequenzen,NI_Sequenzen,,,,,,,,,,,,,,
,Screen_4,canvas.Screen,0_2_24_3,,skipped,25,208280.19999992847,,,208278.89999997616,,208280.29999995232,2021-10-26T10:04:30.736Z,208319.303,1635242456,full,ni_sequenzen,NI_Sequenzen,,,,,,,,,,,,,,
,Screen_5,canvas.Screen,0_2_24_4,,skipped,25,208280.69999992847,,,208278.89999997616,,208280.69999992847,2021-10-26T10:04:30.736Z,208319.303,1635242456,full,ni_sequenzen,NI_Sequenzen,,,,,,,,,,,,,,
,Screen_6,canvas.Screen,0_2_24_5,,skipped,25,208281,,,208278.89999997616,,208281,2021-10-26T10:04:30.737Z,208319.303,1635242456,full,ni_sequenzen,NI_Sequenzen,,,,,,,,,,,,,,
,Sequence,flow.Sequence,0_2_24,,completion,25,208278.39999997616,,,208278.89999997616,,208281.09999990463,2021-10-26T10:04:30.737Z,208319.303,1635242456,full,ni_sequenzen,NI_Sequenzen,,,,,,,,,,,,,,
,Screen_1,canvas.Screen,0_2_25_0,,skipped,26,208281.69999992847,,,208281.69999992847,,208281.69999992847,2021-10-26T10:04:30.738Z,208319.303,1635242456,full,ni_sequenzen,NI_Sequenzen,,,,,,,,,,,,,,
,Screen_2,canvas.Screen,0_2_25_1,,skipped,26,208282.09999990463,,,208281.69999992847,,208282.09999990463,2021-10-26T10:04:30.738Z,208319.303,1635242456,full,ni_sequenzen,NI_Sequenzen,,,,,,,,,,,,,,
,Screen_3,canvas.Screen,0_2_25_2,,skipped,26,208282.5,,,208281.69999992847,,208282.5,2021-10-26T10:04:30.738Z,208319.303,1635242456,full,ni_sequenzen,NI_Sequenzen,,,,,,,,,,,,,,
,Screen_4,canvas.Screen,0_2_25_3,,skipped,26,208282.89999997616,,,208281.69999992847,,208283,2021-10-26T10:04:30.739Z,208319.303,1635242456,full,ni_sequenzen,NI_Sequenzen,,,,,,,,,,,,,,
,Screen_5,canvas.Screen,0_2_25_4,,skipped,26,208283.29999995232,,,208281.69999992847,,208283.39999997616,2021-10-26T10:04:30.739Z,208319.303,1635242456,full,ni_sequenzen,NI_Sequenzen,,,,,,,,,,,,,,
,Screen_6,canvas.Screen,0_2_25_5,,skipped,26,208283.89999997616,,,208281.69999992847,,208284.5,2021-10-26T10:04:30.740Z,208319.303,1635242456,full,ni_sequenzen,NI_Sequenzen,,,,,,,,,,,,,,
,Sequence,flow.Sequence,0_2_25,,completion,26,208281.29999995232,,,208281.69999992847,,208284.59999990463,2021-10-26T10:04:30.740Z,208319.303,1635242456,full,ni_sequenzen,NI_Sequenzen,,,,,,,,,,,,,,
,Screen_1,canvas.Screen,0_2_26_0,,skipped,27,208285.29999995232,,,208285.29999995232,,208285.29999995232,2021-10-26T10:04:30.741Z,208319.303,1635242456,full,ni_sequenzen,NI_Sequenzen,,,,,,,,,,,,,,
,Screen_2,canvas.Screen,0_2_26_1,,skipped,27,208285.69999992847,,,208285.29999995232,,208285.89999997616,2021-10-26T10:04:30.742Z,208319.303,1635242456,full,ni_sequenzen,NI_Sequenzen,,,,,,,,,,,,,,
,Screen_3,canvas.Screen,0_2_26_2,,skipped,27,208286.5,,,208285.29999995232,,208286.5,2021-10-26T10:04:30.742Z,208319.303,1635242456,full,ni_sequenzen,NI_Sequenzen,,,,,,,,,,,,,,
,Screen_4,canvas.Screen,0_2_26_3,,skipped,27,208286.89999997616,,,208285.29999995232,,208286.89999997616,2021-10-26T10:04:30.743Z,208319.303,1635242456,full,ni_sequenzen,NI_Sequenzen,,,,,,,,,,,,,,
,Screen_5,canvas.Screen,0_2_26_4,,skipped,27,208287.29999995232,,,208285.29999995232,,208287.29999995232,2021-10-26T10:04:30.743Z,208319.303,1635242456,full,ni_sequenzen,NI_Sequenzen,,,,,,,,,,,,,,
,Screen_6,canvas.Screen,0_2_26_5,,skipped,27,208287.69999992847,,,208285.29999995232,,208287.69999992847,2021-10-26T10:04:30.743Z,208319.303,1635242456,full,ni_sequenzen,NI_Sequenzen,,,,,,,,,,,,,,
,Sequence,flow.Sequence,0_2_26,,completion,27,208284.79999995232,,,208285.29999995232,,208287.69999992847,2021-10-26T10:04:30.744Z,208319.303,1635242456,full,ni_sequenzen,NI_Sequenzen,,,,,,,,,,,,,,
,Screen_1,canvas.Screen,0_2_27_0,,skipped,28,208288.39999997616,,,208288.39999997616,,208288.39999997616,2021-10-26T10:04:30.744Z,208319.303,1635242456,full,ni_sequenzen,NI_Sequenzen,,,,,,,,,,,,,,
,Screen_2,canvas.Screen,0_2_27_1,,skipped,28,208288.79999995232,,,208288.39999997616,,208288.89999997616,2021-10-26T10:04:30.745Z,208319.303,1635242456,full,ni_sequenzen,NI_Sequenzen,,,,,,,,,,,,,,
,Screen_3,canvas.Screen,0_2_27_2,,skipped,28,208289.19999992847,,,208288.39999997616,,208289.19999992847,2021-10-26T10:04:30.745Z,208319.303,1635242456,full,ni_sequenzen,NI_Sequenzen,,,,,,,,,,,,,,
,Screen_4,canvas.Screen,0_2_27_3,,skipped,28,208289.59999990463,,,208288.39999997616,,208289.69999992847,2021-10-26T10:04:30.745Z,208319.303,1635242456,full,ni_sequenzen,NI_Sequenzen,,,,,,,,,,,,,,
,Screen_5,canvas.Screen,0_2_27_4,,skipped,28,208290,,,208288.39999997616,,208290,2021-10-26T10:04:30.746Z,208319.303,1635242456,full,ni_sequenzen,NI_Sequenzen,,,,,,,,,,,,,,
,Screen_6,canvas.Screen,0_2_27_5,,skipped,28,208290.39999997616,,,208288.39999997616,,208290.5,2021-10-26T10:04:30.746Z,208319.303,1635242456,full,ni_sequenzen,NI_Sequenzen,,,,,,,,,,,,,,
,Sequence,flow.Sequence,0_2_27,,completion,28,208288,,,208288.39999997616,,208290.5,2021-10-26T10:04:30.746Z,208319.303,1635242456,full,ni_sequenzen,NI_Sequenzen,,,,,,,,,,,,,,
,Screen_1,canvas.Screen,0_2_28_0,,skipped,29,208291.09999990463,,,208291.09999990463,,208291.09999990463,2021-10-26T10:04:30.747Z,208319.303,1635242456,full,ni_sequenzen,NI_Sequenzen,,,,,,,,,,,,,,
,Screen_2,canvas.Screen,0_2_28_1,,skipped,29,208291.5,,,208291.09999990463,,208291.5,2021-10-26T10:04:30.747Z,208319.303,1635242456,full,ni_sequenzen,NI_Sequenzen,,,,,,,,,,,,,,
,Screen_3,canvas.Screen,0_2_28_2,,skipped,29,208291.89999997616,,,208291.09999990463,,208292,2021-10-26T10:04:30.748Z,208319.303,1635242456,full,ni_sequenzen,NI_Sequenzen,,,,,,,,,,,,,,
,Screen_4,canvas.Screen,0_2_28_3,,skipped,29,208292.89999997616,,,208291.09999990463,,208292.89999997616,2021-10-26T10:04:30.749Z,208319.303,1635242456,full,ni_sequenzen,NI_Sequenzen,,,,,,,,,,,,,,
,Screen_5,canvas.Screen,0_2_28_4,,skipped,29,208293.29999995232,,,208291.09999990463,,208293.29999995232,2021-10-26T10:04:30.749Z,208319.303,1635242456,full,ni_sequenzen,NI_Sequenzen,,,,,,,,,,,,,,
,Screen_6,canvas.Screen,0_2_28_5,,skipped,29,208293.69999992847,,,208291.09999990463,,208293.69999992847,2021-10-26T10:04:30.749Z,208319.303,1635242456,full,ni_sequenzen,NI_Sequenzen,,,,,,,,,,,,,,
,Sequence,flow.Sequence,0_2_28,,completion,29,208290.59999990463,,,208291.09999990463,,208293.79999995232,2021-10-26T10:04:30.750Z,208319.303,1635242456,full,ni_sequenzen,NI_Sequenzen,,,,,,,,,,,,,,
,Screen_1,canvas.Screen,0_2_29_0,,skipped,30,208294.39999997616,,,208294.39999997616,,208294.39999997616,2021-10-26T10:04:30.750Z,208319.303,1635242456,full,ni_sequenzen,NI_Sequenzen,,,,,,,,,,,,,,
,Screen_2,canvas.Screen,0_2_29_1,,skipped,30,208294.89999997616,,,208294.39999997616,,208294.89999997616,2021-10-26T10:04:30.751Z,208319.303,1635242456,full,ni_sequenzen,NI_Sequenzen,,,,,,,,,,,,,,
,Screen_3,canvas.Screen,0_2_29_2,,skipped,30,208295.39999997616,,,208294.39999997616,,208295.39999997616,2021-10-26T10:04:30.751Z,208319.303,1635242456,full,ni_sequenzen,NI_Sequenzen,,,,,,,,,,,,,,
,Screen_4,canvas.Screen,0_2_29_3,,skipped,30,208295.79999995232,,,208294.39999997616,,208295.89999997616,2021-10-26T10:04:30.752Z,208319.303,1635242456,full,ni_sequenzen,NI_Sequenzen,,,,,,,,,,,,,,
,Screen_5,canvas.Screen,0_2_29_4,,skipped,30,208296.29999995232,,,208294.39999997616,,208296.29999995232,2021-10-26T10:04:30.752Z,208319.303,1635242456,full,ni_sequenzen,NI_Sequenzen,,,,,,,,,,,,,,
,Screen_6,canvas.Screen,0_2_29_5,,skipped,30,208296.69999992847,,,208294.39999997616,,208296.69999992847,2021-10-26T10:04:30.753Z,208319.303,1635242456,full,ni_sequenzen,NI_Sequenzen,,,,,,,,,,,,,,
,Sequence,flow.Sequence,0_2_29,,completion,30,208294,,,208294.39999997616,,208296.79999995232,2021-10-26T10:04:30.753Z,208319.303,1635242456,full,ni_sequenzen,NI_Sequenzen,,,,,,,,,,,,,,
,Instructions_II,flow.Loop,0_2,,completion,,122317.19999992847,122318.113,122334.729,208294.39999997616,85959.67099997615,208296.89999997616,2021-10-26T10:04:30.753Z,208319.303,1635242456,full,ni_sequenzen,NI_Sequenzen,,,,,,,,,,,,,,
,Move,canvas.Screen,0_3_0_0_0_0,right,response,,208314.59999990463,208302.351,208319.303,213197.69999992847,4878.39699992846,213198.59999990463,2021-10-26T10:04:35.654Z,213219.59,1635242456,full,ni_sequenzen,NI_Sequenzen,1,0,,,,,,,,,,,,
,Move,canvas.Screen,0_3_0_0_0_1,down,response,,213206.59999990463,213202.512,213219.59,213964.5,744.9100000000035,213965.39999997616,2021-10-26T10:04:36.421Z,213986.086,1635242456,full,ni_sequenzen,NI_Sequenzen,2,0,,,,,,,,,,,,
,Move,canvas.Screen,0_3_0_0_0_2,left,response,,213970.79999995232,213969.529,213986.086,220728,6741.91399999999,220728.79999995232,2021-10-26T10:04:43.185Z,220736.193,1635242456,full,ni_sequenzen,NI_Sequenzen,3,0,,,,,,,,,,,,
,Move,canvas.Screen,0_3_0_0_0_3,down,response,,220732.59999990463,220719.309,220736.193,221988.5,1252.3070000000007,221989.19999992847,2021-10-26T10:04:44.445Z,222002.902,1635242456,full,ni_sequenzen,NI_Sequenzen,4,0,,,,,,,,,,,,
,Move,canvas.Screen,0_3_0_0_0_4,right,response,,221994.19999992847,221986.328,222002.902,226029,4026.097999999998,226029.89999997616,2021-10-26T10:04:48.486Z,226052.98,1635242456,full,ni_sequenzen,NI_Sequenzen,5,0,,,,,,,,,,,,
,Move,canvas.Screen,0_3_0_0_0_5,-999,skipped,,226035.19999992847,,,226029,,226035.19999992847,2021-10-26T10:04:48.491Z,226052.98,1635242456,full,ni_sequenzen,NI_Sequenzen,6,0,,,,,,,,,,,,
,Move,canvas.Screen,0_3_0_0_0_6,-999,skipped,,226037.39999997616,,,226029,,226037.39999997616,2021-10-26T10:04:48.493Z,226052.98,1635242456,full,ni_sequenzen,NI_Sequenzen,7,0,,,,,,,,,,,,
,Move,canvas.Screen,0_3_0_0_0_7,-999,skipped,,226038.79999995232,,,226029,,226038.79999995232,2021-10-26T10:04:48.495Z,226052.98,1635242456,full,ni_sequenzen,NI_Sequenzen,8,0,,,,,,,,,,,,
,Move,canvas.Screen,0_3_0_0_0_8,-999,skipped,,226039.89999997616,,,226029,,226040,2021-10-26T10:04:48.496Z,226052.98,1635242456,full,ni_sequenzen,NI_Sequenzen,9,0,,,,,,,,,,,,
,Move,canvas.Screen,0_3_0_0_0_9,-999,skipped,,226041.39999997616,,,226029,,226041.39999997616,2021-10-26T10:04:48.497Z,226052.98,1635242456,full,ni_sequenzen,NI_Sequenzen,10,0,,,,,,,,,,,,
,Move,canvas.Screen,0_3_0_0_0_10,-999,skipped,,226042.59999990463,,,226029,,226042.69999992847,2021-10-26T10:04:48.498Z,226052.98,1635242456,full,ni_sequenzen,NI_Sequenzen,11,0,,,,,,,,,,,,
,Move,canvas.Screen,0_3_0_0_0_11,-999,skipped,,226043.79999995232,,,226029,,226043.79999995232,2021-10-26T10:04:48.500Z,226052.98,1635242456,full,ni_sequenzen,NI_Sequenzen,12,0,,,,,,,,,,,,
,Move,canvas.Screen,0_3_0_0_0_12,-999,skipped,,226045.19999992847,,,226029,,226045.19999992847,2021-10-26T10:04:48.501Z,226052.98,1635242456,full,ni_sequenzen,NI_Sequenzen,13,0,,,,,,,,,,,,
,Move,canvas.Screen,0_3_0_0_0_13,-999,skipped,,226046.59999990463,,,226029,,226046.59999990463,2021-10-26T10:04:48.502Z,226052.98,1635242456,full,ni_sequenzen,NI_Sequenzen,14,0,,,,,,,,,,,,
,Move,canvas.Screen,0_3_0_0_0_14,-999,skipped,,226048.39999997616,,,226029,,226048.5,2021-10-26T10:04:48.504Z,226052.98,1635242456,full,ni_sequenzen,NI_Sequenzen,15,0,,,,,,,,,,,,
,Loop,flow.Loop,0_3_0_0_0,-999,completion,,208311.89999997616,208302.351,208319.303,226029,17709.696999999986,226048.5,2021-10-26T10:04:48.504Z,226052.98,1635242456,full,ni_sequenzen,NI_Sequenzen,,0,,,,,,,,,,,,
,Feedback,canvas.Screen,0_3_0_0_1,,timeout,,226050.59999990463,226036.244,226052.98,230036.478,4000.329999999987,230038,2021-10-26T10:04:52.494Z,230053.31,1635242456,full,ni_sequenzen,NI_Sequenzen,,0,,,,,,,,,,,,
,Trial,flow.Sequence,0_3_0_0,,completion,,208305.89999997616,208302.351,208319.303,230036.478,21717.17499999999,230038.29999995232,2021-10-26T10:04:52.494Z,230069.848,1635242456,full,ni_sequenzen,NI_Sequenzen,,0,,,,,,,,,,,,
,Move,canvas.Screen,0_3_0_1_0_0,right,response,,230047.79999995232,230053.31,,230066.5,,230066.89999997616,2021-10-26T10:04:52.523Z,230086.537,1635242456,full,ni_sequenzen,NI_Sequenzen,1,1,,,,,,,,,,,,
,Move,canvas.Screen,0_3_0_1_0_1,down,response,,230068.79999995232,230069.848,230086.537,283228.89999997616,53142.36299997615,283229.7999999523,2021-10-26T10:05:45.686Z,283237.247,1635242456,full,ni_sequenzen,NI_Sequenzen,2,1,,,,,,,,,,,,
,Move,canvas.Screen,0_3_0_1_0_2,right,response,,283234.2999999523,283234.393,283237.247,284679.39999997616,1442.1529999761842,284680.09999990463,2021-10-26T10:05:47.136Z,284687.304,1635242456,full,ni_sequenzen,NI_Sequenzen,3,1,,,,,,,,,,,,
,Move,canvas.Screen,0_3_0_1_0_3,down,response,,284685.2999999523,284670.566,284687.304,285129.89999997616,442.5959999761544,285130.7999999523,2021-10-26T10:05:47.587Z,285153.942,1635242456,full,ni_sequenzen,NI_Sequenzen,4,1,,,,,,,,,,,,
,Move,canvas.Screen,0_3_0_1_0_4,-999,skipped,,285135.1999999285,,,285129.89999997616,,285135.1999999285,2021-10-26T10:05:47.591Z,285153.942,1635242456,full,ni_sequenzen,NI_Sequenzen,5,1,,,,,,,,,,,,
,Move,canvas.Screen,0_3_0_1_0_5,-999,skipped,,285136.7999999523,,,285129.89999997616,,285136.89999997616,2021-10-26T10:05:47.593Z,285153.942,1635242456,full,ni_sequenzen,NI_Sequenzen,6,1,,,,,,,,,,,,
,Move,canvas.Screen,0_3_0_1_0_6,-999,skipped,,285138.09999990463,,,285129.89999997616,,285138.1999999285,2021-10-26T10:05:47.594Z,285153.942,1635242456,full,ni_sequenzen,NI_Sequenzen,7,1,,,,,,,,,,,,
,Move,canvas.Screen,0_3_0_1_0_7,-999,skipped,,285139.2999999523,,,285129.89999997616,,285139.39999997616,2021-10-26T10:05:47.595Z,285153.942,1635242456,full,ni_sequenzen,NI_Sequenzen,8,1,,,,,,,,,,,,
,Move,canvas.Screen,0_3_0_1_0_8,-999,skipped,,285140.59999990463,,,285129.89999997616,,285140.59999990463,2021-10-26T10:05:47.597Z,285153.942,1635242456,full,ni_sequenzen,NI_Sequenzen,9,1,,,,,,,,,,,,
,Move,canvas.Screen,0_3_0_1_0_9,-999,skipped,,285142.5,,,285129.89999997616,,285142.5,2021-10-26T10:05:47.599Z,285153.942,1635242456,full,ni_sequenzen,NI_Sequenzen,10,1,,,,,,,,,,,,
,Move,canvas.Screen,0_3_0_1_0_10,-999,skipped,,285143.7999999523,,,285129.89999997616,,285143.7999999523,2021-10-26T10:05:47.600Z,285153.942,1635242456,full,ni_sequenzen,NI_Sequenzen,11,1,,,,,,,,,,,,
,Move,canvas.Screen,0_3_0_1_0_11,-999,skipped,,285144.89999997616,,,285129.89999997616,,285144.89999997616,2021-10-26T10:05:47.601Z,285153.942,1635242456,full,ni_sequenzen,NI_Sequenzen,12,1,,,,,,,,,,,,
,Move,canvas.Screen,0_3_0_1_0_12,-999,skipped,,285146.2999999523,,,285129.89999997616,,285146.2999999523,2021-10-26T10:05:47.602Z,285153.942,1635242456,full,ni_sequenzen,NI_Sequenzen,13,1,,,,,,,,,,,,
,Move,canvas.Screen,0_3_0_1_0_13,-999,skipped,,285147.2999999523,,,285129.89999997616,,285147.39999997616,2021-10-26T10:05:47.603Z,285153.942,1635242456,full,ni_sequenzen,NI_Sequenzen,14,1,,,,,,,,,,,,
,Move,canvas.Screen,0_3_0_1_0_14,-999,skipped,,285148.6999999285,,,285129.89999997616,,285148.7999999523,2021-10-26T10:05:47.605Z,285153.942,1635242456,full,ni_sequenzen,NI_Sequenzen,15,1,,,,,,,,,,,,
,Loop,flow.Loop,0_3_0_1_0,-999,completion,,230046.39999997616,230053.31,230069.848,285129.89999997616,55060.05199997616,285148.89999997616,2021-10-26T10:05:47.605Z,285153.942,1635242456,full,ni_sequenzen,NI_Sequenzen,,1,,,,,,,,,,,,
,Feedback,canvas.Screen,0_3_0_1_1,,timeout,,285149.89999997616,285137.429,285153.942,289137.701,4000.0530000000144,289139,2021-10-26T10:05:51.595Z,289153.995,1635242456,full,ni_sequenzen,NI_Sequenzen,,1,,,,,,,,,,,,
,Trial,flow.Sequence,0_3_0_1,,completion,,230038.89999997616,230053.31,230069.848,289137.701,59067.853,289139.09999990463,2021-10-26T10:05:51.595Z,289170.858,1635242456,full,ni_sequenzen,NI_Sequenzen,,1,,,,,,,,,,,,
,Move,canvas.Screen,0_3_0_2_0_0,down,response,,289151.1999999285,289153.995,289170.858,292877.59999990463,3706.741999904625,292878.5,2021-10-26T10:05:55.334Z,292887.42,1635242456,full,ni_sequenzen,NI_Sequenzen,1,2,,,,,,,,,,,,
,Move,canvas.Screen,0_3_0_2_0_1,left,response,,292883.6999999285,292870.689,292887.42,293695.09999990463,807.6799999046489,293695.59999990463,2021-10-26T10:05:56.151Z,293704.127,1635242456,full,ni_sequenzen,NI_Sequenzen,2,2,,,,,,,,,,,,
,Move,canvas.Screen,0_3_0_2_0_2,right,response,,293697.1999999285,293687.564,293704.127,294672.39999997616,968.2729999761796,294672.7999999523,2021-10-26T10:05:57.129Z,294687.657,1635242456,full,ni_sequenzen,NI_Sequenzen,3,2,,,,,,,,,,,,
,Move,canvas.Screen,0_3_0_2_0_3,right,response,,294674.89999997616,294670.887,294687.657,296423.39999997616,1735.7429999761516,296424.1999999285,2021-10-26T10:05:58.880Z,296454.161,1635242456,full,ni_sequenzen,NI_Sequenzen,4,2,,,,,,,,,,,,
,Move,canvas.Screen,0_3_0_2_0_4,-999,skipped,,296429.2999999523,,,296423.39999997616,,296429.5,2021-10-26T10:05:58.885Z,296454.161,1635242456,full,ni_sequenzen,NI_Sequenzen,5,2,,,,,,,,,,,,
,Move,canvas.Screen,0_3_0_2_0_5,-999,skipped,,296431.1999999285,,,296423.39999997616,,296431.1999999285,2021-10-26T10:05:58.887Z,296454.161,1635242456,full,ni_sequenzen,NI_Sequenzen,6,2,,,,,,,,,,,,
,Move,canvas.Screen,0_3_0_2_0_6,-999,skipped,,296432.39999997616,,,296423.39999997616,,296432.5,2021-10-26T10:05:58.888Z,296454.161,1635242456,full,ni_sequenzen,NI_Sequenzen,7,2,,,,,,,,,,,,
,Move,canvas.Screen,0_3_0_2_0_7,-999,skipped,,296433.59999990463,,,296423.39999997616,,296433.6999999285,2021-10-26T10:05:58.889Z,296454.161,1635242456,full,ni_sequenzen,NI_Sequenzen,8,2,,,,,,,,,,,,
,Move,canvas.Screen,0_3_0_2_0_8,-999,skipped,,296434.7999999523,,,296423.39999997616,,296434.7999999523,2021-10-26T10:05:58.891Z,296454.161,1635242456,full,ni_sequenzen,NI_Sequenzen,9,2,,,,,,,,,,,,
,Move,canvas.Screen,0_3_0_2_0_9,-999,skipped,,296436.1999999285,,,296423.39999997616,,296436.1999999285,2021-10-26T10:05:58.892Z,296454.161,1635242456,full,ni_sequenzen,NI_Sequenzen,10,2,,,,,,,,,,,,
,Move,canvas.Screen,0_3_0_2_0_10,-999,skipped,,296437.2999999523,,,296423.39999997616,,296437.2999999523,2021-10-26T10:05:58.893Z,296454.161,1635242456,full,ni_sequenzen,NI_Sequenzen,11,2,,,,,,,,,,,,
,Move,canvas.Screen,0_3_0_2_0_11,-999,skipped,,296438.39999997616,,,296423.39999997616,,296438.39999997616,2021-10-26T10:05:58.894Z,296454.161,1635242456,full,ni_sequenzen,NI_Sequenzen,12,2,,,,,,,,,,,,
,Move,canvas.Screen,0_3_0_2_0_12,-999,skipped,,296439.7999999523,,,296423.39999997616,,296439.7999999523,2021-10-26T10:05:58.896Z,296454.161,1635242456,full,ni_sequenzen,NI_Sequenzen,13,2,,,,,,,,,,,,
,Move,canvas.Screen,0_3_0_2_0_13,-999,skipped,,296440.89999997616,,,296423.39999997616,,296441,2021-10-26T10:05:58.897Z,296454.161,1635242456,full,ni_sequenzen,NI_Sequenzen,14,2,,,,,,,,,,,,
,Move,canvas.Screen,0_3_0_2_0_14,-999,skipped,,296442,,,296423.39999997616,,296442,2021-10-26T10:05:58.898Z,296454.161,1635242456,full,ni_sequenzen,NI_Sequenzen,15,2,,,,,,,,,,,,
,Loop,flow.Loop,0_3_0_2_0,-999,completion,,289149.7999999523,289153.995,289170.858,296423.39999997616,7252.541999976151,296442,2021-10-26T10:05:58.898Z,296454.161,1635242456,full,ni_sequenzen,NI_Sequenzen,,2,,,,,,,,,,,,
,Feedback,canvas.Screen,0_3_0_2_1,,timeout,,296442.89999997616,296437.607,296454.161,300437.881,4000.092000000004,300439.1999999285,2021-10-26T10:06:02.895Z,300454.253,1635242456,full,ni_sequenzen,NI_Sequenzen,,2,,,,,,,,,,,,
,Trial,flow.Sequence,0_3_0_2,,completion,,289139.6999999285,289153.995,289170.858,300437.881,11267.022999999986,300439.39999997616,2021-10-26T10:06:02.895Z,300471.072,1635242456,full,ni_sequenzen,NI_Sequenzen,,2,,,,,,,,,,,,
,Move,canvas.Screen,0_3_0_3_0_0,left,response,,300460.09999990463,300454.253,300471.072,370280.2999999523,69809.22799995233,370280.59999990463,2021-10-26T10:07:12.736Z,370288.739,1635242456,full,ni_sequenzen,NI_Sequenzen,1,3,,,,,,,,,,,,
,Move,canvas.Screen,0_3_0_3_0_1,down,response,,370282,370268.244,370288.739,370605.89999997616,317.16099997615675,370606.6999999285,2021-10-26T10:07:13.062Z,370622.088,1635242456,full,ni_sequenzen,NI_Sequenzen,2,3,,,,,,,,,,,,
,Move,canvas.Screen,0_3_0_3_0_2,down,response,,370611.89999997616,370605.542,370622.088,371948.89999997616,1326.8119999761693,371949.7999999523,2021-10-26T10:07:14.405Z,371978.687,1635242456,full,ni_sequenzen,NI_Sequenzen,3,3,,,,,,,,,,,,
,Move,canvas.Screen,0_3_0_3_0_3,left,response,,371954.1999999285,371938.79,371978.687,372614.89999997616,636.2129999761819,372615.2999999523,2021-10-26T10:07:15.071Z,372638.817,1635242456,full,ni_sequenzen,NI_Sequenzen,4,3,,,,,,,,,,,,
,Move,canvas.Screen,0_3_0_3_0_4,-999,skipped,,372617.1999999285,,,372614.89999997616,,372617.2999999523,2021-10-26T10:07:15.073Z,372638.817,1635242456,full,ni_sequenzen,NI_Sequenzen,5,3,,,,,,,,,,,,
,Move,canvas.Screen,0_3_0_3_0_5,-999,skipped,,372618.89999997616,,,372614.89999997616,,372619,2021-10-26T10:07:15.074Z,372638.817,1635242456,full,ni_sequenzen,NI_Sequenzen,6,3,,,,,,,,,,,,
,Move,canvas.Screen,0_3_0_3_0_6,-999,skipped,,372620.39999997616,,,372614.89999997616,,372620.5,2021-10-26T10:07:15.076Z,372638.817,1635242456,full,ni_sequenzen,NI_Sequenzen,7,3,,,,,,,,,,,,
,Move,canvas.Screen,0_3_0_3_0_7,-999,skipped,,372622,,,372614.89999997616,,372622,2021-10-26T10:07:15.077Z,372638.817,1635242456,full,ni_sequenzen,NI_Sequenzen,8,3,,,,,,,,,,,,
,Move,canvas.Screen,0_3_0_3_0_8,-999,skipped,,372623.09999990463,,,372614.89999997616,,372623.09999990463,2021-10-26T10:07:15.079Z,372638.817,1635242456,full,ni_sequenzen,NI_Sequenzen,9,3,,,,,,,,,,,,
,Move,canvas.Screen,0_3_0_3_0_9,-999,skipped,,372624.1999999285,,,372614.89999997616,,372624.1999999285,2021-10-26T10:07:15.080Z,372638.817,1635242456,full,ni_sequenzen,NI_Sequenzen,10,3,,,,,,,,,,,,
,Move,canvas.Screen,0_3_0_3_0_10,-999,skipped,,372625.59999990463,,,372614.89999997616,,372625.59999990463,2021-10-26T10:07:15.081Z,372638.817,1635242456,full,ni_sequenzen,NI_Sequenzen,11,3,,,,,,,,,,,,
,Move,canvas.Screen,0_3_0_3_0_11,-999,skipped,,372626.59999990463,,,372614.89999997616,,372626.6999999285,2021-10-26T10:07:15.082Z,372638.817,1635242456,full,ni_sequenzen,NI_Sequenzen,12,3,,,,,,,,,,,,
,Move,canvas.Screen,0_3_0_3_0_12,-999,skipped,,372627.6999999285,,,372614.89999997616,,372627.7999999523,2021-10-26T10:07:15.083Z,372638.817,1635242456,full,ni_sequenzen,NI_Sequenzen,13,3,,,,,,,,,,,,
,Move,canvas.Screen,0_3_0_3_0_13,-999,skipped,,372628.6999999285,,,372614.89999997616,,372628.7999999523,2021-10-26T10:07:15.084Z,372638.817,1635242456,full,ni_sequenzen,NI_Sequenzen,14,3,,,,,,,,,,,,
,Move,canvas.Screen,0_3_0_3_0_14,-999,skipped,,372630.09999990463,,,372614.89999997616,,372630.09999990463,2021-10-26T10:07:15.086Z,372638.817,1635242456,full,ni_sequenzen,NI_Sequenzen,15,3,,,,,,,,,,,,
,Loop,flow.Loop,0_3_0_3_0,-999,completion,,300458.59999990463,300454.253,300471.072,372614.89999997616,72143.82799997617,372630.1999999285,2021-10-26T10:07:15.086Z,372638.817,1635242456,full,ni_sequenzen,NI_Sequenzen,,3,,,,,,,,,,,,
,Feedback,canvas.Screen,0_3_0_3_1,,timeout,,372631.1999999285,372622.23,372638.817,376622.479,4000.100000000035,376623.7999999523,2021-10-26T10:07:19.079Z,376638.917,1635242456,full,ni_sequenzen,NI_Sequenzen,,3,,,,,,,,,,,,
,Trial,flow.Sequence,0_3_0_3,,completion,,300440.09999990463,300454.253,300471.072,376622.479,76151.407,376624.09999990463,2021-10-26T10:07:19.079Z,376655.666,1635242456,full,ni_sequenzen,NI_Sequenzen,,3,,,,,,,,,,,,
,Move,canvas.Screen,0_3_0_4_0_0,down,response,,376644.1999999285,376638.917,376655.666,378445,1789.3339999999735,378445.7999999523,2021-10-26T10:07:20.901Z,378455.547,1635242456,full,ni_sequenzen,NI_Sequenzen,1,4,,,,,,,,,,,,
,Move,canvas.Screen,0_3_0_4_0_1,left,response,,378450.39999997616,378438.922,378455.547,380880.89999997616,2425.3529999761377,380881.7999999523,2021-10-26T10:07:23.337Z,380888.909,1635242456,full,ni_sequenzen,NI_Sequenzen,2,4,,,,,,,,,,,,
,Move,canvas.Screen,0_3_0_4_0_2,down,response,,380884,380872.103,380888.909,381207.6999999285,318.7909999284893,381208.59999990463,2021-10-26T10:07:23.664Z,381222.22,1635242456,full,ni_sequenzen,NI_Sequenzen,3,4,,,,,,,,,,,,
,Move,canvas.Screen,0_3_0_4_0_3,left,response,,381213.59999990463,381205.733,381222.22,381637.7999999523,415.5799999523442,381638.59999990463,2021-10-26T10:07:24.094Z,381689.082,1635242456,full,ni_sequenzen,NI_Sequenzen,4,4,,,,,,,,,,,,
,Move,canvas.Screen,0_3_0_4_0_4,-999,skipped,,381643.7999999523,,,381637.7999999523,,381644,2021-10-26T10:07:24.099Z,381689.082,1635242456,full,ni_sequenzen,NI_Sequenzen,5,4,,,,,,,,,,,,
,Move,canvas.Screen,0_3_0_4_0_5,-999,skipped,,381650,,,381637.7999999523,,381650.09999990463,2021-10-26T10:07:24.106Z,381689.082,1635242456,full,ni_sequenzen,NI_Sequenzen,6,4,,,,,,,,,,,,
,Move,canvas.Screen,0_3_0_4_0_6,-999,skipped,,381654.2999999523,,,381637.7999999523,,381654.39999997616,2021-10-26T10:07:24.110Z,381689.082,1635242456,full,ni_sequenzen,NI_Sequenzen,7,4,,,,,,,,,,,,
,Move,canvas.Screen,0_3_0_4_0_7,-999,skipped,,381658.1999999285,,,381637.7999999523,,381658.2999999523,2021-10-26T10:07:24.114Z,381689.082,1635242456,full,ni_sequenzen,NI_Sequenzen,8,4,,,,,,,,,,,,
,Move,canvas.Screen,0_3_0_4_0_8,-999,skipped,,381661.7999999523,,,381637.7999999523,,381662,2021-10-26T10:07:24.117Z,381689.082,1635242456,full,ni_sequenzen,NI_Sequenzen,9,4,,,,,,,,,,,,
,Move,canvas.Screen,0_3_0_4_0_9,-999,skipped,,381664.1999999285,,,381637.7999999523,,381664.2999999523,2021-10-26T10:07:24.120Z,381689.082,1635242456,full,ni_sequenzen,NI_Sequenzen,10,4,,,,,,,,,,,,
,Move,canvas.Screen,0_3_0_4_0_10,-999,skipped,,381666.89999997616,,,381637.7999999523,,381667.09999990463,2021-10-26T10:07:24.122Z,381689.082,1635242456,full,ni_sequenzen,NI_Sequenzen,11,4,,,,,,,,,,,,
,Move,canvas.Screen,0_3_0_4_0_11,-999,skipped,,381669.89999997616,,,381637.7999999523,,381669.89999997616,2021-10-26T10:07:24.125Z,381689.082,1635242456,full,ni_sequenzen,NI_Sequenzen,12,4,,,,,,,,,,,,
,Move,canvas.Screen,0_3_0_4_0_12,-999,skipped,,381671.7999999523,,,381637.7999999523,,381671.89999997616,2021-10-26T10:07:24.127Z,381689.082,1635242456,full,ni_sequenzen,NI_Sequenzen,13,4,,,,,,,,,,,,
,Move,canvas.Screen,0_3_0_4_0_13,-999,skipped,,381673.39999997616,,,381637.7999999523,,381673.59999990463,2021-10-26T10:07:24.129Z,381689.082,1635242456,full,ni_sequenzen,NI_Sequenzen,14,4,,,,,,,,,,,,
,Move,canvas.Screen,0_3_0_4_0_14,-999,skipped,,381675,,,381637.7999999523,,381675.09999990463,2021-10-26T10:07:24.131Z,381689.082,1635242456,full,ni_sequenzen,NI_Sequenzen,15,4,,,,,,,,,,,,
,Loop,flow.Loop,0_3_0_4_0,-999,completion,,376642.89999997616,376638.917,376655.666,381637.7999999523,4982.13399995229,381675.1999999285,2021-10-26T10:07:24.131Z,381689.082,1635242456,full,ni_sequenzen,NI_Sequenzen,,4,,,,,,,,,,,,
,Feedback,canvas.Screen,0_3_0_4_1,,timeout,,381676.7999999523,381672.373,381689.082,385672.612,3999.9349999999977,385674,2021-10-26T10:07:28.129Z,385689.017,1635242456,full,ni_sequenzen,NI_Sequenzen,,4,,,,,,,,,,,,
,Trial,flow.Sequence,0_3_0_4,,completion,,376624.59999990463,376638.917,376655.666,385672.612,9016.945999999996,385674.1999999285,2021-10-26T10:07:28.130Z,385705.82,1635242456,full,ni_sequenzen,NI_Sequenzen,,4,,,,,,,,,,,,
,Move,canvas.Screen,0_3_0_5_0_0,down,response,,385691.39999997616,385689.017,385705.82,390634.2999999523,4928.479999952309,390635.1999999285,2021-10-26T10:07:33.091Z,390655.867,1635242456,full,ni_sequenzen,NI_Sequenzen,1,5,,,,,,,,,,,,
,Move,canvas.Screen,0_3_0_5_0_1,right,response,,390640.39999997616,390638.942,390655.867,391112.89999997616,457.03299997613067,391113.59999990463,2021-10-26T10:07:33.569Z,391122.466,1635242456,full,ni_sequenzen,NI_Sequenzen,2,5,,,,,,,,,,,,
,Move,canvas.Screen,0_3_0_5_0_2,right,response,,391119.89999997616,391105.892,391122.466,391985.39999997616,862.9339999761432,391986.09999990463,2021-10-26T10:07:34.442Z,392005.925,1635242456,full,ni_sequenzen,NI_Sequenzen,3,5,,,,,,,,,,,,
,Move,canvas.Screen,0_3_0_5_0_3,down,response,,391991.09999990463,391989.092,392005.925,392343.89999997616,337.9749999761698,392344.6999999285,2021-10-26T10:07:34.800Z,392372.434,1635242456,full,ni_sequenzen,NI_Sequenzen,4,5,,,,,,,,,,,,
,Move,canvas.Screen,0_3_0_5_0_4,-999,skipped,,392350.39999997616,,,392343.89999997616,,392350.5,2021-10-26T10:07:34.806Z,392372.434,1635242456,full,ni_sequenzen,NI_Sequenzen,5,5,,,,,,,,,,,,
,Move,canvas.Screen,0_3_0_5_0_5,-999,skipped,,392352.09999990463,,,392343.89999997616,,392352.09999990463,2021-10-26T10:07:34.808Z,392372.434,1635242456,full,ni_sequenzen,NI_Sequenzen,6,5,,,,,,,,,,,,
,Move,canvas.Screen,0_3_0_5_0_6,-999,skipped,,392353.39999997616,,,392343.89999997616,,392353.39999997616,2021-10-26T10:07:34.809Z,392372.434,1635242456,full,ni_sequenzen,NI_Sequenzen,7,5,,,,,,,,,,,,
,Move,canvas.Screen,0_3_0_5_0_7,-999,skipped,,392354.59999990463,,,392343.89999997616,,392354.59999990463,2021-10-26T10:07:34.810Z,392372.434,1635242456,full,ni_sequenzen,NI_Sequenzen,8,5,,,,,,,,,,,,
,Move,canvas.Screen,0_3_0_5_0_8,-999,skipped,,392355.89999997616,,,392343.89999997616,,392355.89999997616,2021-10-26T10:07:34.811Z,392372.434,1635242456,full,ni_sequenzen,NI_Sequenzen,9,5,,,,,,,,,,,,
,Move,canvas.Screen,0_3_0_5_0_9,-999,skipped,,392357.5,,,392343.89999997616,,392357.5,2021-10-26T10:07:34.813Z,392372.434,1635242456,full,ni_sequenzen,NI_Sequenzen,10,5,,,,,,,,,,,,
,Move,canvas.Screen,0_3_0_5_0_10,-999,skipped,,392362.7999999523,,,392343.89999997616,,392362.89999997616,2021-10-26T10:07:34.818Z,392372.434,1635242456,full,ni_sequenzen,NI_Sequenzen,11,5,,,,,,,,,,,,
,Move,canvas.Screen,0_3_0_5_0_11,-999,skipped,,392364.2999999523,,,392343.89999997616,,392364.39999997616,2021-10-26T10:07:34.820Z,392372.434,1635242456,full,ni_sequenzen,NI_Sequenzen,12,5,,,,,,,,,,,,
,Move,canvas.Screen,0_3_0_5_0_12,-999,skipped,,392365.39999997616,,,392343.89999997616,,392365.39999997616,2021-10-26T10:07:34.821Z,392372.434,1635242456,full,ni_sequenzen,NI_Sequenzen,13,5,,,,,,,,,,,,
,Move,canvas.Screen,0_3_0_5_0_13,-999,skipped,,392366.59999990463,,,392343.89999997616,,392366.59999990463,2021-10-26T10:07:34.822Z,392372.434,1635242456,full,ni_sequenzen,NI_Sequenzen,14,5,,,,,,,,,,,,
,Move,canvas.Screen,0_3_0_5_0_14,-999,skipped,,392368,,,392343.89999997616,,392368,2021-10-26T10:07:34.823Z,392372.434,1635242456,full,ni_sequenzen,NI_Sequenzen,15,5,,,,,,,,,,,,
,Loop,flow.Loop,0_3_0_5_0,-999,completion,,385690.09999990463,385689.017,385705.82,392343.89999997616,6638.079999976151,392368.09999990463,2021-10-26T10:07:34.823Z,392372.434,1635242456,full,ni_sequenzen,NI_Sequenzen,,5,,,,,,,,,,,,
,Feedback,canvas.Screen,0_3_0_5_1,,timeout,,392369,392355.905,392372.434,396355.905,4000.3009999999776,396356.89999997616,2021-10-26T10:07:38.812Z,396372.735,1635242456,full,ni_sequenzen,NI_Sequenzen,,5,,,,,,,,,,,,
,Trial,flow.Sequence,0_3_0_5,,completion,,385674.7999999523,385689.017,385705.82,396355.905,10650.085000000021,396357.1999999285,2021-10-26T10:07:38.813Z,396389.324,1635242456,full,ni_sequenzen,NI_Sequenzen,,5,,,,,,,,,,,,
,Move,canvas.Screen,0_3_0_6_0_0,down,response,,396368.89999997616,396372.735,396389.324,396393.1999999285,3.8759999284520745,396393.59999990463,2021-10-26T10:07:38.849Z,396422.695,1635242456,full,ni_sequenzen,NI_Sequenzen,1,6,,,,,,,,,,,,
,Move,canvas.Screen,0_3_0_6_0_1,right,response,,396394.7999999523,396405.83,396422.695,398891.39999997616,2468.704999976151,398892.2999999523,2021-10-26T10:07:41.348Z,398905.868,1635242456,full,ni_sequenzen,NI_Sequenzen,2,6,,,,,,,,,,,,
,Move,canvas.Screen,0_3_0_6_0_2,right,response,,398898.6999999285,398889.229,398905.868,399315.59999990463,409.7319999046158,399316.09999990463,2021-10-26T10:07:41.772Z,399322.55,1635242456,full,ni_sequenzen,NI_Sequenzen,3,6,,,,,,,,,,,,
,Move,canvas.Screen,0_3_0_6_0_3,down,response,,399318,399305.893,399322.55,399604.89999997616,282.3499999761698,399605.7999999523,2021-10-26T10:07:42.061Z,399639.391,1635242456,full,ni_sequenzen,NI_Sequenzen,4,6,,,,,,,,,,,,
,Move,canvas.Screen,0_3_0_6_0_4,-999,skipped,,399610.6999999285,,,399604.89999997616,,399610.7999999523,2021-10-26T10:07:42.066Z,399639.391,1635242456,full,ni_sequenzen,NI_Sequenzen,5,6,,,,,,,,,,,,
,Move,canvas.Screen,0_3_0_6_0_5,-999,skipped,,399612.39999997616,,,399604.89999997616,,399612.39999997616,2021-10-26T10:07:42.068Z,399639.391,1635242456,full,ni_sequenzen,NI_Sequenzen,6,6,,,,,,,,,,,,
,Move,canvas.Screen,0_3_0_6_0_6,-999,skipped,,399614.39999997616,,,399604.89999997616,,399614.39999997616,2021-10-26T10:07:42.070Z,399639.391,1635242456,full,ni_sequenzen,NI_Sequenzen,7,6,,,,,,,,,,,,
,Move,canvas.Screen,0_3_0_6_0_7,-999,skipped,,399615.7999999523,,,399604.89999997616,,399615.7999999523,2021-10-26T10:07:42.071Z,399639.391,1635242456,full,ni_sequenzen,NI_Sequenzen,8,6,,,,,,,,,,,,
,Move,canvas.Screen,0_3_0_6_0_8,-999,skipped,,399617,,,399604.89999997616,,399617.09999990463,2021-10-26T10:07:42.072Z,399639.391,1635242456,full,ni_sequenzen,NI_Sequenzen,9,6,,,,,,,,,,,,
,Move,canvas.Screen,0_3_0_6_0_9,-999,skipped,,399618.5,,,399604.89999997616,,399618.59999990463,2021-10-26T10:07:42.074Z,399639.391,1635242456,full,ni_sequenzen,NI_Sequenzen,10,6,,,,,,,,,,,,
,Move,canvas.Screen,0_3_0_6_0_10,-999,skipped,,399619.59999990463,,,399604.89999997616,,399619.6999999285,2021-10-26T10:07:42.075Z,399639.391,1635242456,full,ni_sequenzen,NI_Sequenzen,11,6,,,,,,,,,,,,
,Move,canvas.Screen,0_3_0_6_0_11,-999,skipped,,399620.6999999285,,,399604.89999997616,,399620.6999999285,2021-10-26T10:07:42.076Z,399639.391,1635242456,full,ni_sequenzen,NI_Sequenzen,12,6,,,,,,,,,,,,
,Move,canvas.Screen,0_3_0_6_0_12,-999,skipped,,399621.89999997616,,,399604.89999997616,,399621.89999997616,2021-10-26T10:07:42.077Z,399639.391,1635242456,full,ni_sequenzen,NI_Sequenzen,13,6,,,,,,,,,,,,
,Move,canvas.Screen,0_3_0_6_0_13,-999,skipped,,399623.1999999285,,,399604.89999997616,,399623.1999999285,2021-10-26T10:07:42.079Z,399639.391,1635242456,full,ni_sequenzen,NI_Sequenzen,14,6,,,,,,,,,,,,
,Move,canvas.Screen,0_3_0_6_0_14,-999,skipped,,399624.1999999285,,,399604.89999997616,,399624.2999999523,2021-10-26T10:07:42.080Z,399639.391,1635242456,full,ni_sequenzen,NI_Sequenzen,15,6,,,,,,,,,,,,
,Loop,flow.Loop,0_3_0_6_0,-999,completion,,396367.2999999523,396372.735,396389.324,399604.89999997616,3215.575999976136,399624.2999999523,2021-10-26T10:07:42.080Z,399639.391,1635242456,full,ni_sequenzen,NI_Sequenzen,,6,,,,,,,,,,,,
,Feedback,canvas.Screen,0_3_0_6_1,,timeout,,399625.1999999285,399622.744,399639.391,403623.084,4000.177000000025,403624.39999997616,2021-10-26T10:07:46.080Z,403639.568,1635242456,full,ni_sequenzen,NI_Sequenzen,,6,,,,,,,,,,,,
,Trial,flow.Sequence,0_3_0_6,,completion,,396357.7999999523,396372.735,396389.324,403623.084,7233.759999999951,403624.6999999285,2021-10-26T10:07:46.080Z,403656.122,1635242456,full,ni_sequenzen,NI_Sequenzen,,6,,,,,,,,,,,,
,Move,canvas.Screen,0_3_0_7_0_0,down,response,,403636.5,403639.568,403656.122,405460.1999999285,1804.0779999285005,405461,2021-10-26T10:07:47.916Z,405472.68,1635242456,full,ni_sequenzen,NI_Sequenzen,1,7,,,,,,,,,,,,
,Move,canvas.Screen,0_3_0_7_0_1,left,response,,405464.59999990463,405456.05,405472.68,405789.7999999523,317.11999995232327,405790.6999999285,2021-10-26T10:07:48.246Z,405806.039,1635242456,full,ni_sequenzen,NI_Sequenzen,2,7,,,,,,,,,,,,
,Move,canvas.Screen,0_3_0_7_0_2,down,response,,405796.09999990463,405789.461,405806.039,406348.09999990463,542.0609999046428,406348.89999997616,2021-10-26T10:07:48.804Z,406355.986,1635242456,full,ni_sequenzen,NI_Sequenzen,3,7,,,,,,,,,,,,
,Move,canvas.Screen,0_3_0_7_0_3,left,response,,406353,406339.512,406355.986,406826.5,470.5140000000247,406827.5,2021-10-26T10:07:49.283Z,406872.835,1635242456,full,ni_sequenzen,NI_Sequenzen,4,7,,,,,,,,,,,,
,Move,canvas.Screen,0_3_0_7_0_4,-999,skipped,,406833,,,406826.5,,406833.2999999523,2021-10-26T10:07:49.289Z,406872.835,1635242456,full,ni_sequenzen,NI_Sequenzen,5,7,,,,,,,,,,,,
,Move,canvas.Screen,0_3_0_7_0_5,-999,skipped,,406837.59999990463,,,406826.5,,406837.6999999285,2021-10-26T10:07:49.293Z,406872.835,1635242456,full,ni_sequenzen,NI_Sequenzen,6,7,,,,,,,,,,,,
,Move,canvas.Screen,0_3_0_7_0_6,-999,skipped,,406840.59999990463,,,406826.5,,406840.6999999285,2021-10-26T10:07:49.296Z,406872.835,1635242456,full,ni_sequenzen,NI_Sequenzen,7,7,,,,,,,,,,,,
,Move,canvas.Screen,0_3_0_7_0_7,-999,skipped,,406843.89999997616,,,406826.5,,406844,2021-10-26T10:07:49.299Z,406872.835,1635242456,full,ni_sequenzen,NI_Sequenzen,8,7,,,,,,,,,,,,
,Move,canvas.Screen,0_3_0_7_0_8,-999,skipped,,406846.09999990463,,,406826.5,,406846.1999999285,2021-10-26T10:07:49.302Z,406872.835,1635242456,full,ni_sequenzen,NI_Sequenzen,9,7,,,,,,,,,,,,
,Move,canvas.Screen,0_3_0_7_0_9,-999,skipped,,406848.1999999285,,,406826.5,,406848.2999999523,2021-10-26T10:07:49.304Z,406872.835,1635242456,full,ni_sequenzen,NI_Sequenzen,10,7,,,,,,,,,,,,
,Move,canvas.Screen,0_3_0_7_0_10,-999,skipped,,406851,,,406826.5,,406851.09999990463,2021-10-26T10:07:49.307Z,406872.835,1635242456,full,ni_sequenzen,NI_Sequenzen,11,7,,,,,,,,,,,,
,Move,canvas.Screen,0_3_0_7_0_11,-999,skipped,,406853,,,406826.5,,406853,2021-10-26T10:07:49.308Z,406872.835,1635242456,full,ni_sequenzen,NI_Sequenzen,12,7,,,,,,,,,,,,
,Move,canvas.Screen,0_3_0_7_0_12,-999,skipped,,406854.5,,,406826.5,,406854.59999990463,2021-10-26T10:07:49.310Z,406872.835,1635242456,full,ni_sequenzen,NI_Sequenzen,13,7,,,,,,,,,,,,
,Move,canvas.Screen,0_3_0_7_0_13,-999,skipped,,406856.1999999285,,,406826.5,,406856.2999999523,2021-10-26T10:07:49.312Z,406872.835,1635242456,full,ni_sequenzen,NI_Sequenzen,14,7,,,,,,,,,,,,
,Move,canvas.Screen,0_3_0_7_0_14,-999,skipped,,406858,,,406826.5,,406858.09999990463,2021-10-26T10:07:49.313Z,406872.835,1635242456,full,ni_sequenzen,NI_Sequenzen,15,7,,,,,,,,,,,,
,Loop,flow.Loop,0_3_0_7_0,-999,completion,,403635,403639.568,403656.122,406826.5,3170.378000000026,406858.09999990463,2021-10-26T10:07:49.314Z,406872.835,1635242456,full,ni_sequenzen,NI_Sequenzen,,7,,,,,,,,,,,,
,Feedback,canvas.Screen,0_3_0_7_1,,timeout,,406859.39999997616,406856.131,406872.835,410856.368,3999.932999999961,410857.59999990463,2021-10-26T10:07:53.313Z,410872.768,1635242456,full,ni_sequenzen,NI_Sequenzen,,7,,,,,,,,,,,,
,Trial,flow.Sequence,0_3_0_7,,completion,,403625.2999999523,403639.568,403656.122,410856.368,7200.246000000043,410857.89999997616,2021-10-26T10:07:53.313Z,410889.579,1635242456,full,ni_sequenzen,NI_Sequenzen,,7,,,,,,,,,,,,
,Move,canvas.Screen,0_3_0_8_0_0,down,response,,410872.39999997616,410872.768,410889.579,412286.6999999285,1397.1209999284474,412287.1999999285,2021-10-26T10:07:54.743Z,412306.131,1635242456,full,ni_sequenzen,NI_Sequenzen,1,8,,,,,,,,,,,,
,Move,canvas.Screen,0_3_0_8_0_1,right,response,,412289.89999997616,412289.496,412306.131,412591.2999999523,285.16899995232234,412592.2999999523,2021-10-26T10:07:55.048Z,412606.256,1635242456,full,ni_sequenzen,NI_Sequenzen,2,8,,,,,,,,,,,,
,Move,canvas.Screen,0_3_0_8_0_2,right,response,,412596.89999997616,412589.572,412606.256,413224.5,618.244000000006,413225.39999997616,2021-10-26T10:07:55.681Z,413239.475,1635242456,full,ni_sequenzen,NI_Sequenzen,3,8,,,,,,,,,,,,
,Move,canvas.Screen,0_3_0_8_0_3,down,response,,413230.09999990463,413222.9,413239.475,413518,278.5250000000233,413518.39999997616,2021-10-26T10:07:55.974Z,413539.463,1635242456,full,ni_sequenzen,NI_Sequenzen,4,8,,,,,,,,,,,,
,Move,canvas.Screen,0_3_0_8_0_4,-999,skipped,,413520.2999999523,,,413518,,413520.39999997616,2021-10-26T10:07:55.976Z,413539.463,1635242456,full,ni_sequenzen,NI_Sequenzen,5,8,,,,,,,,,,,,
,Move,canvas.Screen,0_3_0_8_0_5,-999,skipped,,413521.59999990463,,,413518,,413521.59999990463,2021-10-26T10:07:55.977Z,413539.463,1635242456,full,ni_sequenzen,NI_Sequenzen,6,8,,,,,,,,,,,,
,Move,canvas.Screen,0_3_0_8_0_6,-999,skipped,,413522.7999999523,,,413518,,413522.89999997616,2021-10-26T10:07:55.978Z,413539.463,1635242456,full,ni_sequenzen,NI_Sequenzen,7,8,,,,,,,,,,,,
,Move,canvas.Screen,0_3_0_8_0_7,-999,skipped,,413524,,,413518,,413524.09999990463,2021-10-26T10:07:55.980Z,413539.463,1635242456,full,ni_sequenzen,NI_Sequenzen,8,8,,,,,,,,,,,,
,Move,canvas.Screen,0_3_0_8_0_8,-999,skipped,,413525.6999999285,,,413518,,413525.7999999523,2021-10-26T10:07:55.981Z,413539.463,1635242456,full,ni_sequenzen,NI_Sequenzen,9,8,,,,,,,,,,,,
,Move,canvas.Screen,0_3_0_8_0_9,-999,skipped,,413527.2999999523,,,413518,,413527.2999999523,2021-10-26T10:07:55.983Z,413539.463,1635242456,full,ni_sequenzen,NI_Sequenzen,10,8,,,,,,,,,,,,
,Move,canvas.Screen,0_3_0_8_0_10,-999,skipped,,413528.59999990463,,,413518,,413528.59999990463,2021-10-26T10:07:55.984Z,413539.463,1635242456,full,ni_sequenzen,NI_Sequenzen,11,8,,,,,,,,,,,,
,Move,canvas.Screen,0_3_0_8_0_11,-999,skipped,,413530.09999990463,,,413518,,413530.1999999285,2021-10-26T10:07:55.986Z,413539.463,1635242456,full,ni_sequenzen,NI_Sequenzen,12,8,,,,,,,,,,,,
