meta,sender,sender_type,sender_id,response,ended_on,instrCount,time_run,time_render,time_show,time_end,duration,time_commit,timestamp,time_switch,openLabId,type,task,project,move,trialN,blockN_Train,blockN,moveCount,currPP,points,movesTrial,visitedFields,diff,reward,Strategie,Zweck,Probleme
[object Object],Screen_1,canvas.Screen,0_0_0_0,cont,response,1,1008,1008.98,1042.42,9388,8345.58,9400,2021-10-25T18:46:45.412Z,9525.08,1635187592,full,ni_sequenzen,NI_Sequenzen,,,,,,,,,,,,,,
,Screen_2,canvas.Screen,0_0_0_1,cont,response,1,9517,9517.16,9525.08,22256,12730.92,22265,2021-10-25T18:46:58.276Z,22340.52,1635187592,full,ni_sequenzen,NI_Sequenzen,,,,,,,,,,,,,,
,Screen_3,canvas.Screen,0_0_0_2,cont,response,1,22336,22336.24,22340.52,34224,11883.48,34234,2021-10-25T18:47:10.245Z,34247.4,1635187592,full,ni_sequenzen,NI_Sequenzen,,,,,,,,,,,,,,
,Screen_4,canvas.Screen,0_0_0_3,cont,response,1,34247,34247.12,34247.4,36443,2195.5999999999985,36465,2021-10-25T18:47:12.476Z,36655.44,1635187592,full,ni_sequenzen,NI_Sequenzen,,,,,,,,,,,,,,
,Sequence,flow.Sequence,0_0_0,,completion,1,934,1008.98,1042.42,36443,35400.58,36468,2021-10-25T18:47:12.478Z,36655.44,1635187592,full,ni_sequenzen,NI_Sequenzen,,,,,,,,,,,,,,
,Screen_1,canvas.Screen,0_0_1_0,,skipped,2,36477,,,36477,,36478,2021-10-25T18:47:12.489Z,36655.44,1635187592,full,ni_sequenzen,NI_Sequenzen,,,,,,,,,,,,,,
,Screen_2,canvas.Screen,0_0_1_1,,skipped,2,36482,,,36477,,36482,2021-10-25T18:47:12.493Z,36655.44,1635187592,full,ni_sequenzen,NI_Sequenzen,,,,,,,,,,,,,,
,Screen_3,canvas.Screen,0_0_1_2,,skipped,2,36486,,,36477,,36486,2021-10-25T18:47:12.497Z,36655.44,1635187592,full,ni_sequenzen,NI_Sequenzen,,,,,,,,,,,,,,
,Screen_4,canvas.Screen,0_0_1_3,,skipped,2,36488,,,36477,,36488,2021-10-25T18:47:12.499Z,36655.44,1635187592,full,ni_sequenzen,NI_Sequenzen,,,,,,,,,,,,,,
,Sequence,flow.Sequence,0_0_1,,completion,2,36473,,,36477,,36489,2021-10-25T18:47:12.500Z,36655.44,1635187592,full,ni_sequenzen,NI_Sequenzen,,,,,,,,,,,,,,
,Screen_1,canvas.Screen,0_0_2_0,,skipped,3,36492,,,36492,,36492,2021-10-25T18:47:12.503Z,36655.44,1635187592,full,ni_sequenzen,NI_Sequenzen,,,,,,,,,,,,,,
,Screen_2,canvas.Screen,0_0_2_1,,skipped,3,36495,,,36492,,36495,2021-10-25T18:47:12.506Z,36655.44,1635187592,full,ni_sequenzen,NI_Sequenzen,,,,,,,,,,,,,,
,Screen_3,canvas.Screen,0_0_2_2,,skipped,3,36497,,,36492,,36497,2021-10-25T18:47:12.508Z,36655.44,1635187592,full,ni_sequenzen,NI_Sequenzen,,,,,,,,,,,,,,
,Screen_4,canvas.Screen,0_0_2_3,,skipped,3,36499,,,36492,,36499,2021-10-25T18:47:12.510Z,36655.44,1635187592,full,ni_sequenzen,NI_Sequenzen,,,,,,,,,,,,,,
,Sequence,flow.Sequence,0_0_2,,completion,3,36490,,,36492,,36500,2021-10-25T18:47:12.510Z,36655.44,1635187592,full,ni_sequenzen,NI_Sequenzen,,,,,,,,,,,,,,
,Screen_1,canvas.Screen,0_0_3_0,,skipped,4,36502,,,36502,,36503,2021-10-25T18:47:12.513Z,36655.44,1635187592,full,ni_sequenzen,NI_Sequenzen,,,,,,,,,,,,,,
,Screen_2,canvas.Screen,0_0_3_1,,skipped,4,36503,,,36502,,36503,2021-10-25T18:47:12.514Z,36655.44,1635187592,full,ni_sequenzen,NI_Sequenzen,,,,,,,,,,,,,,
,Screen_3,canvas.Screen,0_0_3_2,,skipped,4,36505,,,36502,,36505,2021-10-25T18:47:12.516Z,36655.44,1635187592,full,ni_sequenzen,NI_Sequenzen,,,,,,,,,,,,,,
,Screen_4,canvas.Screen,0_0_3_3,,skipped,4,36508,,,36502,,36508,2021-10-25T18:47:12.518Z,36655.44,1635187592,full,ni_sequenzen,NI_Sequenzen,,,,,,,,,,,,,,
,Sequence,flow.Sequence,0_0_3,,completion,4,36501,,,36502,,36509,2021-10-25T18:47:12.519Z,36655.44,1635187592,full,ni_sequenzen,NI_Sequenzen,,,,,,,,,,,,,,
,Screen_1,canvas.Screen,0_0_4_0,,skipped,5,36511,,,36511,,36512,2021-10-25T18:47:12.521Z,36655.44,1635187592,full,ni_sequenzen,NI_Sequenzen,,,,,,,,,,,,,,
,Screen_2,canvas.Screen,0_0_4_1,,skipped,5,36513,,,36511,,36513,2021-10-25T18:47:12.524Z,36655.44,1635187592,full,ni_sequenzen,NI_Sequenzen,,,,,,,,,,,,,,
,Screen_3,canvas.Screen,0_0_4_2,,skipped,5,36514,,,36511,,36514,2021-10-25T18:47:12.525Z,36655.44,1635187592,full,ni_sequenzen,NI_Sequenzen,,,,,,,,,,,,,,
,Screen_4,canvas.Screen,0_0_4_3,,skipped,5,36517,,,36511,,36517,2021-10-25T18:47:12.527Z,36655.44,1635187592,full,ni_sequenzen,NI_Sequenzen,,,,,,,,,,,,,,
,Sequence,flow.Sequence,0_0_4,,completion,5,36510,,,36511,,36517,2021-10-25T18:47:12.528Z,36655.44,1635187592,full,ni_sequenzen,NI_Sequenzen,,,,,,,,,,,,,,
,Screen_1,canvas.Screen,0_0_5_0,,skipped,6,36518,,,36518,,36518,2021-10-25T18:47:12.529Z,36655.44,1635187592,full,ni_sequenzen,NI_Sequenzen,,,,,,,,,,,,,,
,Screen_2,canvas.Screen,0_0_5_1,,skipped,6,36521,,,36518,,36521,2021-10-25T18:47:12.532Z,36655.44,1635187592,full,ni_sequenzen,NI_Sequenzen,,,,,,,,,,,,,,
,Screen_3,canvas.Screen,0_0_5_2,,skipped,6,36524,,,36518,,36525,2021-10-25T18:47:12.536Z,36655.44,1635187592,full,ni_sequenzen,NI_Sequenzen,,,,,,,,,,,,,,
,Screen_4,canvas.Screen,0_0_5_3,,skipped,6,36527,,,36518,,36527,2021-10-25T18:47:12.538Z,36655.44,1635187592,full,ni_sequenzen,NI_Sequenzen,,,,,,,,,,,,,,
,Sequence,flow.Sequence,0_0_5,,completion,6,36517,,,36518,,36528,2021-10-25T18:47:12.539Z,36655.44,1635187592,full,ni_sequenzen,NI_Sequenzen,,,,,,,,,,,,,,
,Screen_1,canvas.Screen,0_0_6_0,,skipped,7,36531,,,36532,,36532,2021-10-25T18:47:12.542Z,36655.44,1635187592,full,ni_sequenzen,NI_Sequenzen,,,,,,,,,,,,,,
,Screen_2,canvas.Screen,0_0_6_1,,skipped,7,36534,,,36532,,36534,2021-10-25T18:47:12.545Z,36655.44,1635187592,full,ni_sequenzen,NI_Sequenzen,,,,,,,,,,,,,,
,Screen_3,canvas.Screen,0_0_6_2,,skipped,7,36535,,,36532,,36535,2021-10-25T18:47:12.546Z,36655.44,1635187592,full,ni_sequenzen,NI_Sequenzen,,,,,,,,,,,,,,
,Screen_4,canvas.Screen,0_0_6_3,,skipped,7,36537,,,36532,,36537,2021-10-25T18:47:12.547Z,36655.44,1635187592,full,ni_sequenzen,NI_Sequenzen,,,,,,,,,,,,,,
,Sequence,flow.Sequence,0_0_6,,completion,7,36529,,,36532,,36537,2021-10-25T18:47:12.548Z,36655.44,1635187592,full,ni_sequenzen,NI_Sequenzen,,,,,,,,,,,,,,
,Screen_1,canvas.Screen,0_0_7_0,,skipped,8,36539,,,36539,,36539,2021-10-25T18:47:12.549Z,36655.44,1635187592,full,ni_sequenzen,NI_Sequenzen,,,,,,,,,,,,,,
,Screen_2,canvas.Screen,0_0_7_1,,skipped,8,36542,,,36539,,36542,2021-10-25T18:47:12.553Z,36655.44,1635187592,full,ni_sequenzen,NI_Sequenzen,,,,,,,,,,,,,,
,Screen_3,canvas.Screen,0_0_7_2,,skipped,8,36544,,,36539,,36544,2021-10-25T18:47:12.554Z,36655.44,1635187592,full,ni_sequenzen,NI_Sequenzen,,,,,,,,,,,,,,
,Screen_4,canvas.Screen,0_0_7_3,,skipped,8,36546,,,36539,,36546,2021-10-25T18:47:12.557Z,36655.44,1635187592,full,ni_sequenzen,NI_Sequenzen,,,,,,,,,,,,,,
,Sequence,flow.Sequence,0_0_7,,completion,8,36538,,,36539,,36546,2021-10-25T18:47:12.557Z,36655.44,1635187592,full,ni_sequenzen,NI_Sequenzen,,,,,,,,,,,,,,
,Screen_1,canvas.Screen,0_0_8_0,,skipped,9,36548,,,36548,,36548,2021-10-25T18:47:12.559Z,36655.44,1635187592,full,ni_sequenzen,NI_Sequenzen,,,,,,,,,,,,,,
,Screen_2,canvas.Screen,0_0_8_1,,skipped,9,36549,,,36548,,36549,2021-10-25T18:47:12.560Z,36655.44,1635187592,full,ni_sequenzen,NI_Sequenzen,,,,,,,,,,,,,,
,Screen_3,canvas.Screen,0_0_8_2,,skipped,9,36551,,,36548,,36551,2021-10-25T18:47:12.562Z,36655.44,1635187592,full,ni_sequenzen,NI_Sequenzen,,,,,,,,,,,,,,
,Screen_4,canvas.Screen,0_0_8_3,,skipped,9,36553,,,36548,,36553,2021-10-25T18:47:12.564Z,36655.44,1635187592,full,ni_sequenzen,NI_Sequenzen,,,,,,,,,,,,,,
,Sequence,flow.Sequence,0_0_8,,completion,9,36547,,,36548,,36553,2021-10-25T18:47:12.564Z,36655.44,1635187592,full,ni_sequenzen,NI_Sequenzen,,,,,,,,,,,,,,
,Screen_1,canvas.Screen,0_0_9_0,,skipped,10,36556,,,36556,,36556,2021-10-25T18:47:12.566Z,36655.44,1635187592,full,ni_sequenzen,NI_Sequenzen,,,,,,,,,,,,,,
,Screen_2,canvas.Screen,0_0_9_1,,skipped,10,36557,,,36556,,36557,2021-10-25T18:47:12.567Z,36655.44,1635187592,full,ni_sequenzen,NI_Sequenzen,,,,,,,,,,,,,,
,Screen_3,canvas.Screen,0_0_9_2,,skipped,10,36558,,,36556,,36558,2021-10-25T18:47:12.569Z,36655.44,1635187592,full,ni_sequenzen,NI_Sequenzen,,,,,,,,,,,,,,
,Screen_4,canvas.Screen,0_0_9_3,,skipped,10,36560,,,36556,,36560,2021-10-25T18:47:12.570Z,36655.44,1635187592,full,ni_sequenzen,NI_Sequenzen,,,,,,,,,,,,,,
,Sequence,flow.Sequence,0_0_9,,completion,10,36554,,,36556,,36560,2021-10-25T18:47:12.571Z,36655.44,1635187592,full,ni_sequenzen,NI_Sequenzen,,,,,,,,,,,,,,
,Screen_1,canvas.Screen,0_0_10_0,,skipped,11,36563,,,36563,,36563,2021-10-25T18:47:12.574Z,36655.44,1635187592,full,ni_sequenzen,NI_Sequenzen,,,,,,,,,,,,,,
,Screen_2,canvas.Screen,0_0_10_1,,skipped,11,36565,,,36563,,36565,2021-10-25T18:47:12.575Z,36655.44,1635187592,full,ni_sequenzen,NI_Sequenzen,,,,,,,,,,,,,,
,Screen_3,canvas.Screen,0_0_10_2,,skipped,11,36566,,,36563,,36566,2021-10-25T18:47:12.577Z,36655.44,1635187592,full,ni_sequenzen,NI_Sequenzen,,,,,,,,,,,,,,
,Screen_4,canvas.Screen,0_0_10_3,,skipped,11,36567,,,36563,,36567,2021-10-25T18:47:12.579Z,36655.44,1635187592,full,ni_sequenzen,NI_Sequenzen,,,,,,,,,,,,,,
,Sequence,flow.Sequence,0_0_10,,completion,11,36561,,,36563,,36567,2021-10-25T18:47:12.579Z,36655.44,1635187592,full,ni_sequenzen,NI_Sequenzen,,,,,,,,,,,,,,
,Screen_1,canvas.Screen,0_0_11_0,,skipped,12,36570,,,36570,,36570,2021-10-25T18:47:12.580Z,36655.44,1635187592,full,ni_sequenzen,NI_Sequenzen,,,,,,,,,,,,,,
,Screen_2,canvas.Screen,0_0_11_1,,skipped,12,36572,,,36570,,36572,2021-10-25T18:47:12.583Z,36655.44,1635187592,full,ni_sequenzen,NI_Sequenzen,,,,,,,,,,,,,,
,Screen_3,canvas.Screen,0_0_11_2,,skipped,12,36574,,,36570,,36574,2021-10-25T18:47:12.585Z,36655.44,1635187592,full,ni_sequenzen,NI_Sequenzen,,,,,,,,,,,,,,
,Screen_4,canvas.Screen,0_0_11_3,,skipped,12,36576,,,36570,,36576,2021-10-25T18:47:12.586Z,36655.44,1635187592,full,ni_sequenzen,NI_Sequenzen,,,,,,,,,,,,,,
,Sequence,flow.Sequence,0_0_11,,completion,12,36568,,,36570,,36577,2021-10-25T18:47:12.587Z,36655.44,1635187592,full,ni_sequenzen,NI_Sequenzen,,,,,,,,,,,,,,
,Screen_1,canvas.Screen,0_0_12_0,,skipped,13,36578,,,36578,,36578,2021-10-25T18:47:12.589Z,36655.44,1635187592,full,ni_sequenzen,NI_Sequenzen,,,,,,,,,,,,,,
,Screen_2,canvas.Screen,0_0_12_1,,skipped,13,36580,,,36578,,36580,2021-10-25T18:47:12.590Z,36655.44,1635187592,full,ni_sequenzen,NI_Sequenzen,,,,,,,,,,,,,,
,Screen_3,canvas.Screen,0_0_12_2,,skipped,13,36582,,,36578,,36583,2021-10-25T18:47:12.594Z,36655.44,1635187592,full,ni_sequenzen,NI_Sequenzen,,,,,,,,,,,,,,
,Screen_4,canvas.Screen,0_0_12_3,,skipped,13,36584,,,36578,,36584,2021-10-25T18:47:12.595Z,36655.44,1635187592,full,ni_sequenzen,NI_Sequenzen,,,,,,,,,,,,,,
,Sequence,flow.Sequence,0_0_12,,completion,13,36577,,,36578,,36585,2021-10-25T18:47:12.596Z,36655.44,1635187592,full,ni_sequenzen,NI_Sequenzen,,,,,,,,,,,,,,
,Screen_1,canvas.Screen,0_0_13_0,,skipped,14,36588,,,36588,,36588,2021-10-25T18:47:12.598Z,36655.44,1635187592,full,ni_sequenzen,NI_Sequenzen,,,,,,,,,,,,,,
,Screen_2,canvas.Screen,0_0_13_1,,skipped,14,36590,,,36588,,36590,2021-10-25T18:47:12.601Z,36655.44,1635187592,full,ni_sequenzen,NI_Sequenzen,,,,,,,,,,,,,,
,Screen_3,canvas.Screen,0_0_13_2,,skipped,14,36591,,,36588,,36591,2021-10-25T18:47:12.602Z,36655.44,1635187592,full,ni_sequenzen,NI_Sequenzen,,,,,,,,,,,,,,
,Screen_4,canvas.Screen,0_0_13_3,,skipped,14,36593,,,36588,,36593,2021-10-25T18:47:12.603Z,36655.44,1635187592,full,ni_sequenzen,NI_Sequenzen,,,,,,,,,,,,,,
,Sequence,flow.Sequence,0_0_13,,completion,14,36585,,,36588,,36593,2021-10-25T18:47:12.603Z,36655.44,1635187592,full,ni_sequenzen,NI_Sequenzen,,,,,,,,,,,,,,
,Screen_1,canvas.Screen,0_0_14_0,,skipped,15,36595,,,36595,,36595,2021-10-25T18:47:12.606Z,36655.44,1635187592,full,ni_sequenzen,NI_Sequenzen,,,,,,,,,,,,,,
,Screen_2,canvas.Screen,0_0_14_1,,skipped,15,36596,,,36595,,36597,2021-10-25T18:47:12.607Z,36655.44,1635187592,full,ni_sequenzen,NI_Sequenzen,,,,,,,,,,,,,,
,Screen_3,canvas.Screen,0_0_14_2,,skipped,15,36598,,,36595,,36598,2021-10-25T18:47:12.609Z,36655.44,1635187592,full,ni_sequenzen,NI_Sequenzen,,,,,,,,,,,,,,
,Screen_4,canvas.Screen,0_0_14_3,,skipped,15,36599,,,36595,,36600,2021-10-25T18:47:12.609Z,36655.44,1635187592,full,ni_sequenzen,NI_Sequenzen,,,,,,,,,,,,,,
,Sequence,flow.Sequence,0_0_14,,completion,15,36594,,,36595,,36600,2021-10-25T18:47:12.610Z,36655.44,1635187592,full,ni_sequenzen,NI_Sequenzen,,,,,,,,,,,,,,
,Screen_1,canvas.Screen,0_0_15_0,,skipped,16,36602,,,36602,,36602,2021-10-25T18:47:12.612Z,36655.44,1635187592,full,ni_sequenzen,NI_Sequenzen,,,,,,,,,,,,,,
,Screen_2,canvas.Screen,0_0_15_1,,skipped,16,36603,,,36602,,36603,2021-10-25T18:47:12.613Z,36655.44,1635187592,full,ni_sequenzen,NI_Sequenzen,,,,,,,,,,,,,,
,Screen_3,canvas.Screen,0_0_15_2,,skipped,16,36604,,,36602,,36604,2021-10-25T18:47:12.614Z,36655.44,1635187592,full,ni_sequenzen,NI_Sequenzen,,,,,,,,,,,,,,
,Screen_4,canvas.Screen,0_0_15_3,,skipped,16,36607,,,36602,,36607,2021-10-25T18:47:12.617Z,36655.44,1635187592,full,ni_sequenzen,NI_Sequenzen,,,,,,,,,,,,,,
,Sequence,flow.Sequence,0_0_15,,completion,16,36601,,,36602,,36607,2021-10-25T18:47:12.617Z,36655.44,1635187592,full,ni_sequenzen,NI_Sequenzen,,,,,,,,,,,,,,
,Screen_1,canvas.Screen,0_0_16_0,,skipped,17,36609,,,36609,,36609,2021-10-25T18:47:12.620Z,36655.44,1635187592,full,ni_sequenzen,NI_Sequenzen,,,,,,,,,,,,,,
,Screen_2,canvas.Screen,0_0_16_1,,skipped,17,36610,,,36609,,36610,2021-10-25T18:47:12.621Z,36655.44,1635187592,full,ni_sequenzen,NI_Sequenzen,,,,,,,,,,,,,,
,Screen_3,canvas.Screen,0_0_16_2,,skipped,17,36612,,,36609,,36612,2021-10-25T18:47:12.622Z,36655.44,1635187592,full,ni_sequenzen,NI_Sequenzen,,,,,,,,,,,,,,
,Screen_4,canvas.Screen,0_0_16_3,,skipped,17,36613,,,36609,,36613,2021-10-25T18:47:12.624Z,36655.44,1635187592,full,ni_sequenzen,NI_Sequenzen,,,,,,,,,,,,,,
,Sequence,flow.Sequence,0_0_16,,completion,17,36608,,,36609,,36613,2021-10-25T18:47:12.624Z,36655.44,1635187592,full,ni_sequenzen,NI_Sequenzen,,,,,,,,,,,,,,
,Screen_1,canvas.Screen,0_0_17_0,,skipped,18,36614,,,36614,,36615,2021-10-25T18:47:12.625Z,36655.44,1635187592,full,ni_sequenzen,NI_Sequenzen,,,,,,,,,,,,,,
,Screen_2,canvas.Screen,0_0_17_1,,skipped,18,36616,,,36614,,36616,2021-10-25T18:47:12.627Z,36655.44,1635187592,full,ni_sequenzen,NI_Sequenzen,,,,,,,,,,,,,,
,Screen_3,canvas.Screen,0_0_17_2,,skipped,18,36617,,,36614,,36617,2021-10-25T18:47:12.628Z,36655.44,1635187592,full,ni_sequenzen,NI_Sequenzen,,,,,,,,,,,,,,
,Screen_4,canvas.Screen,0_0_17_3,,skipped,18,36618,,,36614,,36619,2021-10-25T18:47:12.630Z,36655.44,1635187592,full,ni_sequenzen,NI_Sequenzen,,,,,,,,,,,,,,
,Sequence,flow.Sequence,0_0_17,,completion,18,36613,,,36614,,36619,2021-10-25T18:47:12.630Z,36655.44,1635187592,full,ni_sequenzen,NI_Sequenzen,,,,,,,,,,,,,,
,Screen_1,canvas.Screen,0_0_18_0,,skipped,19,36620,,,36620,,36620,2021-10-25T18:47:12.631Z,36655.44,1635187592,full,ni_sequenzen,NI_Sequenzen,,,,,,,,,,,,,,
,Screen_2,canvas.Screen,0_0_18_1,,skipped,19,36622,,,36620,,36622,2021-10-25T18:47:12.633Z,36655.44,1635187592,full,ni_sequenzen,NI_Sequenzen,,,,,,,,,,,,,,
,Screen_3,canvas.Screen,0_0_18_2,,skipped,19,36624,,,36620,,36624,2021-10-25T18:47:12.634Z,36655.44,1635187592,full,ni_sequenzen,NI_Sequenzen,,,,,,,,,,,,,,
,Screen_4,canvas.Screen,0_0_18_3,,skipped,19,36625,,,36620,,36625,2021-10-25T18:47:12.635Z,36655.44,1635187592,full,ni_sequenzen,NI_Sequenzen,,,,,,,,,,,,,,
,Sequence,flow.Sequence,0_0_18,,completion,19,36619,,,36620,,36626,2021-10-25T18:47:12.636Z,36655.44,1635187592,full,ni_sequenzen,NI_Sequenzen,,,,,,,,,,,,,,
,Screen_1,canvas.Screen,0_0_19_0,,skipped,20,36627,,,36627,,36627,2021-10-25T18:47:12.637Z,36655.44,1635187592,full,ni_sequenzen,NI_Sequenzen,,,,,,,,,,,,,,
,Screen_2,canvas.Screen,0_0_19_1,,skipped,20,36628,,,36627,,36628,2021-10-25T18:47:12.639Z,36655.44,1635187592,full,ni_sequenzen,NI_Sequenzen,,,,,,,,,,,,,,
,Screen_3,canvas.Screen,0_0_19_2,,skipped,20,36630,,,36627,,36630,2021-10-25T18:47:12.640Z,36655.44,1635187592,full,ni_sequenzen,NI_Sequenzen,,,,,,,,,,,,,,
,Screen_4,canvas.Screen,0_0_19_3,,skipped,20,36632,,,36627,,36632,2021-10-25T18:47:12.643Z,36655.44,1635187592,full,ni_sequenzen,NI_Sequenzen,,,,,,,,,,,,,,
,Sequence,flow.Sequence,0_0_19,,completion,20,36626,,,36627,,36633,2021-10-25T18:47:12.643Z,36655.44,1635187592,full,ni_sequenzen,NI_Sequenzen,,,,,,,,,,,,,,
,Instructions_I,flow.Loop,0_0,,completion,,933,1008.98,1042.42,36627,35584.58,36633,2021-10-25T18:47:12.643Z,36655.44,1635187592,full,ni_sequenzen,NI_Sequenzen,,,,,,,,,,,,,,
,Move,canvas.Screen,0_1_0_0,left,response,,36655,36655.24,36655.44,37443,787.5599999999977,37448,2021-10-25T18:47:13.458Z,37472.44,1635187592,full,ni_sequenzen,NI_Sequenzen,1,,,,,,,,,,,,,
,Move,canvas.Screen,0_1_0_1,right,response,,37468,37468.66,37472.44,37950,477.5599999999977,37961,2021-10-25T18:47:13.972Z,37978.48,1635187592,full,ni_sequenzen,NI_Sequenzen,2,,,,,,,,,,,,,
,Move,canvas.Screen,0_1_0_2,right,response,,37977,37978,37978.48,39419,1440.5199999999968,39431,2021-10-25T18:47:15.442Z,39455.6,1635187592,full,ni_sequenzen,NI_Sequenzen,3,,,,,,,,,,,,,
,Move,canvas.Screen,0_1_0_3,down,response,,39452,39452.58,39455.6,40528,1072.4000000000015,40536,2021-10-25T18:47:16.546Z,40555.54,1635187592,full,ni_sequenzen,NI_Sequenzen,4,,,,,,,,,,,,,
,Move,canvas.Screen,0_1_0_4,down,response,,40553,40553.44,40555.54,40919,363.4599999999991,40938,2021-10-25T18:47:16.948Z,40959.58,1635187592,full,ni_sequenzen,NI_Sequenzen,5,,,,,,,,,,,,,
,Move,canvas.Screen,0_1_0_5,down,response,,40959,40959.08,40959.58,41092,132.41999999999825,41102,2021-10-25T18:47:17.112Z,41138.76,1635187592,full,ni_sequenzen,NI_Sequenzen,6,,,,,,,,,,,,,
,Move,canvas.Screen,0_1_0_6,left,response,,41135,41134.5,41138.76,41560,421.23999999999796,41561,2021-10-25T18:47:17.573Z,41565.86,1635187592,full,ni_sequenzen,NI_Sequenzen,7,,,,,,,,,,,,,
,Move,canvas.Screen,0_1_0_7,down,response,,41566,41565.68,41565.86,42669,1103.1399999999994,42681,2021-10-25T18:47:18.692Z,42708.6,1635187592,full,ni_sequenzen,NI_Sequenzen,8,,,,,,,,,,,,,
,Move,canvas.Screen,0_1_0_8,right,response,,42708,42708.18,42708.6,43310,601.4000000000015,43332,2021-10-25T18:47:19.342Z,43350.42,1635187592,full,ni_sequenzen,NI_Sequenzen,9,,,,,,,,,,,,,
,Move,canvas.Screen,0_1_0_9,down,response,,43350,43350.12,43350.42,43950,599.5800000000017,43971,2021-10-25T18:47:19.983Z,43990.62,1635187592,full,ni_sequenzen,NI_Sequenzen,10,,,,,,,,,,,,,
,Move,canvas.Screen,0_1_0_10,left,response,,43991,43990.28,43990.62,44466,475.3799999999974,44488,2021-10-25T18:47:20.499Z,44495.06,1635187592,full,ni_sequenzen,NI_Sequenzen,11,,,,,,,,,,,,,
,Move,canvas.Screen,0_1_0_11,down,response,,44495,44494.66,44495.06,44872,376.9400000000023,44882,2021-10-25T18:47:20.892Z,44898.96,1635187592,full,ni_sequenzen,NI_Sequenzen,12,,,,,,,,,,,,,
,Move,canvas.Screen,0_1_0_12,right,response,,44898,44898.56,44898.96,45372,473.0400000000009,45381,2021-10-25T18:47:21.391Z,45394.82,1635187592,full,ni_sequenzen,NI_Sequenzen,13,,,,,,,,,,,,,
,Move,canvas.Screen,0_1_0_13,down,response,,45394,45394.6,45394.82,45858,463.1800000000003,45863,2021-10-25T18:47:21.874Z,45870.8,1635187592,full,ni_sequenzen,NI_Sequenzen,14,,,,,,,,,,,,,
,Move,canvas.Screen,0_1_0_14,left,response,,45870,45870.42,45870.8,46216,345.1999999999971,46235,2021-10-25T18:47:22.246Z,46255.5,1635187592,full,ni_sequenzen,NI_Sequenzen,15,,,,,,,,,,,,,
,Move,canvas.Screen,0_1_0_15,down,response,,46256,46255.2,46255.5,46825,569.5,46844,2021-10-25T18:47:22.854Z,46863.1,1635187592,full,ni_sequenzen,NI_Sequenzen,16,,,,,,,,,,,,,
,Move,canvas.Screen,0_1_0_16,right,response,,46863,46862.54,46863.1,48872,2008.9000000000015,48881,2021-10-25T18:47:24.892Z,48886.2,1635187592,full,ni_sequenzen,NI_Sequenzen,17,,,,,,,,,,,,,
,Move,canvas.Screen,0_1_0_17,right,response,,48886,48885.86,48886.2,49060,173.8000000000029,49077,2021-10-25T18:47:25.088Z,49088.1,1635187592,full,ni_sequenzen,NI_Sequenzen,18,,,,,,,,,,,,,
,Move,canvas.Screen,0_1_0_18,right,response,,49083,49083.2,49088.1,49264,175.90000000000146,49274,2021-10-25T18:47:25.284Z,49304.7,1635187592,full,ni_sequenzen,NI_Sequenzen,19,,,,,,,,,,,,,
,Move,canvas.Screen,0_1_0_19,left,response,,49289,49289.2,49304.7,49826,521.3000000000029,49842,2021-10-25T18:47:25.853Z,49850.44,1635187592,full,ni_sequenzen,NI_Sequenzen,20,,,,,,,,,,,,,
,Move,canvas.Screen,0_1_0_20,left,response,,49850,49850.04,49850.44,50028,177.55999999999767,50045,2021-10-25T18:47:26.055Z,50054.68,1635187592,full,ni_sequenzen,NI_Sequenzen,21,,,,,,,,,,,,,
,Move,canvas.Screen,0_1_0_21,down,response,,50052,50051.6,50054.68,51388,1333.3199999999997,51405,2021-10-25T18:47:27.417Z,51410.36,1635187592,full,ni_sequenzen,NI_Sequenzen,22,,,,,,,,,,,,,
,Move,canvas.Screen,0_1_0_22,down,response,,51410,51410.14,51410.36,51685,274.6399999999994,51705,2021-10-25T18:47:27.716Z,51711.68,1635187592,full,ni_sequenzen,NI_Sequenzen,23,,,,,,,,,,,,,
,Move,canvas.Screen,0_1_0_23,down,response,,51711,51711.28,51711.68,51857,145.3199999999997,51873,2021-10-25T18:47:27.884Z,51887.82,1635187592,full,ni_sequenzen,NI_Sequenzen,24,,,,,,,,,,,,,
,Move,canvas.Screen,0_1_0_24,down,response,,51886,51886.38,51887.82,52029,141.1800000000003,52039,2021-10-25T18:47:28.050Z,52049.1,1635187592,full,ni_sequenzen,NI_Sequenzen,25,,,,,,,,,,,,,
,Move,canvas.Screen,0_1_0_25,down,response,,52048,52048.6,52049.1,52216,166.90000000000146,52230,2021-10-25T18:47:28.241Z,52237.82,1635187592,full,ni_sequenzen,NI_Sequenzen,26,,,,,,,,,,,,,
,Move,canvas.Screen,0_1_0_26,left,response,,52235,52234.5,52237.82,52825,587.1800000000003,52851,2021-10-25T18:47:28.862Z,52859.56,1635187592,full,ni_sequenzen,NI_Sequenzen,27,,,,,,,,,,,,,
,Move,canvas.Screen,0_1_0_27,left,response,,52859,52859.12,52859.56,53278,418.4400000000023,53288,2021-10-25T18:47:29.299Z,53297.94,1635187592,full,ni_sequenzen,NI_Sequenzen,28,,,,,,,,,,,,,
,Move,canvas.Screen,0_1_0_28,left,response,,53298,53297.54,53297.94,53622,324.0599999999977,53639,2021-10-25T18:47:29.650Z,53658.62,1635187592,full,ni_sequenzen,NI_Sequenzen,29,,,,,,,,,,,,,
,Move,canvas.Screen,0_1_0_29,down,response,,53658,53658.1,53658.62,53997,338.3799999999974,54010,2021-10-25T18:47:30.021Z,54070.88,1635187592,full,ni_sequenzen,NI_Sequenzen,30,,,,,,,,,,,,,
,Loop,flow.Loop,0_1_0,-999,completion,,36652,36655.24,36655.44,53997,17341.559999999998,54010,2021-10-25T18:47:30.022Z,54070.88,1635187592,full,ni_sequenzen,NI_Sequenzen,,,,,,,,,,,,,,
,Training_I,flow.Sequence,0_1,,completion,,36634,36655.24,36655.44,53997,17341.559999999998,54011,2021-10-25T18:47:30.022Z,54070.88,1635187592,full,ni_sequenzen,NI_Sequenzen,,,,,,,,,,,,,,
,Screen_1,canvas.Screen,0_2_0_0,cont,response,1,54070,54069.76,54070.88,62013,7942.120000000003,62032,2021-10-25T18:47:38.042Z,62154.56,1635187592,full,ni_sequenzen,NI_Sequenzen,,,,,,,,,,,,,,
,Screen_2,canvas.Screen,0_2_0_1,cont,response,1,62154,62154.32,62154.56,67357,5202.440000000002,67372,2021-10-25T18:47:43.383Z,67403.84,1635187592,full,ni_sequenzen,NI_Sequenzen,,,,,,,,,,,,,,
,Screen_3,canvas.Screen,0_2_0_2,cont,response,1,67404,67403.5,67403.84,77185,9781.160000000003,77206,2021-10-25T18:47:53.216Z,77318.94,1635187592,full,ni_sequenzen,NI_Sequenzen,,,,,,,,,,,,,,
,Screen_4,canvas.Screen,0_2_0_3,cont,response,1,77307,77306.92,77318.94,80685,3366.0599999999977,80715,2021-10-25T18:47:56.726Z,80722.92,1635187592,full,ni_sequenzen,NI_Sequenzen,,,,,,,,,,,,,,
,Screen_5,canvas.Screen,0_2_0_4,cont,response,1,80723,80722.52,80722.92,83983,3260.0800000000017,83998,2021-10-25T18:48:00.009Z,84105.5,1635187592,full,ni_sequenzen,NI_Sequenzen,,,,,,,,,,,,,,
,Screen_6,canvas.Screen,0_2_0_5,cont,response,1,84105,84105.28,84105.5,88888,4782.5,88906,2021-10-25T18:48:04.916Z,89284.36,1635187592,full,ni_sequenzen,NI_Sequenzen,,,,,,,,,,,,,,
,Sequence,flow.Sequence,0_2_0,,completion,1,54068,54069.76,54070.88,88888,34817.12,88909,2021-10-25T18:48:04.919Z,89284.36,1635187592,full,ni_sequenzen,NI_Sequenzen,,,,,,,,,,,,,,
,Screen_1,canvas.Screen,0_2_1_0,,skipped,2,88925,,,88925,,88925,2021-10-25T18:48:04.936Z,89284.36,1635187592,full,ni_sequenzen,NI_Sequenzen,,,,,,,,,,,,,,
,Screen_2,canvas.Screen,0_2_1_1,,skipped,2,88932,,,88925,,88932,2021-10-25T18:48:04.943Z,89284.36,1635187592,full,ni_sequenzen,NI_Sequenzen,,,,,,,,,,,,,,
,Screen_3,canvas.Screen,0_2_1_2,,skipped,2,88936,,,88925,,88937,2021-10-25T18:48:04.947Z,89284.36,1635187592,full,ni_sequenzen,NI_Sequenzen,,,,,,,,,,,,,,
,Screen_4,canvas.Screen,0_2_1_3,,skipped,2,88939,,,88925,,88939,2021-10-25T18:48:04.949Z,89284.36,1635187592,full,ni_sequenzen,NI_Sequenzen,,,,,,,,,,,,,,
,Screen_5,canvas.Screen,0_2_1_4,,skipped,2,88940,,,88925,,88941,2021-10-25T18:48:04.952Z,89284.36,1635187592,full,ni_sequenzen,NI_Sequenzen,,,,,,,,,,,,,,
,Screen_6,canvas.Screen,0_2_1_5,,skipped,2,88944,,,88925,,88944,2021-10-25T18:48:04.955Z,89284.36,1635187592,full,ni_sequenzen,NI_Sequenzen,,,,,,,,,,,,,,
,Sequence,flow.Sequence,0_2_1,,completion,2,88917,,,88925,,88945,2021-10-25T18:48:04.955Z,89284.36,1635187592,full,ni_sequenzen,NI_Sequenzen,,,,,,,,,,,,,,
,Screen_1,canvas.Screen,0_2_2_0,,skipped,3,88948,,,88948,,88949,2021-10-25T18:48:04.959Z,89284.36,1635187592,full,ni_sequenzen,NI_Sequenzen,,,,,,,,,,,,,,
,Screen_2,canvas.Screen,0_2_2_1,,skipped,3,88951,,,88948,,88951,2021-10-25T18:48:04.962Z,89284.36,1635187592,full,ni_sequenzen,NI_Sequenzen,,,,,,,,,,,,,,
,Screen_3,canvas.Screen,0_2_2_2,,skipped,3,88953,,,88948,,88953,2021-10-25T18:48:04.963Z,89284.36,1635187592,full,ni_sequenzen,NI_Sequenzen,,,,,,,,,,,,,,
,Screen_4,canvas.Screen,0_2_2_3,,skipped,3,88955,,,88948,,88955,2021-10-25T18:48:04.966Z,89284.36,1635187592,full,ni_sequenzen,NI_Sequenzen,,,,,,,,,,,,,,
,Screen_5,canvas.Screen,0_2_2_4,,skipped,3,88958,,,88948,,88958,2021-10-25T18:48:04.968Z,89284.36,1635187592,full,ni_sequenzen,NI_Sequenzen,,,,,,,,,,,,,,
,Screen_6,canvas.Screen,0_2_2_5,,skipped,3,88960,,,88948,,88960,2021-10-25T18:48:04.970Z,89284.36,1635187592,full,ni_sequenzen,NI_Sequenzen,,,,,,,,,,,,,,
,Sequence,flow.Sequence,0_2_2,,completion,3,88946,,,88948,,88960,2021-10-25T18:48:04.970Z,89284.36,1635187592,full,ni_sequenzen,NI_Sequenzen,,,,,,,,,,,,,,
,Screen_1,canvas.Screen,0_2_3_0,,skipped,4,88962,,,88962,,88962,2021-10-25T18:48:04.974Z,89284.36,1635187592,full,ni_sequenzen,NI_Sequenzen,,,,,,,,,,,,,,
,Screen_2,canvas.Screen,0_2_3_1,,skipped,4,88963,,,88962,,88964,2021-10-25T18:48:04.974Z,89284.36,1635187592,full,ni_sequenzen,NI_Sequenzen,,,,,,,,,,,,,,
,Screen_3,canvas.Screen,0_2_3_2,,skipped,4,88965,,,88962,,88965,2021-10-25T18:48:04.976Z,89284.36,1635187592,full,ni_sequenzen,NI_Sequenzen,,,,,,,,,,,,,,
,Screen_4,canvas.Screen,0_2_3_3,,skipped,4,88967,,,88962,,88967,2021-10-25T18:48:04.978Z,89284.36,1635187592,full,ni_sequenzen,NI_Sequenzen,,,,,,,,,,,,,,
,Screen_5,canvas.Screen,0_2_3_4,,skipped,4,88970,,,88962,,88970,2021-10-25T18:48:04.979Z,89284.36,1635187592,full,ni_sequenzen,NI_Sequenzen,,,,,,,,,,,,,,
,Screen_6,canvas.Screen,0_2_3_5,,skipped,4,88971,,,88962,,88971,2021-10-25T18:48:04.982Z,89284.36,1635187592,full,ni_sequenzen,NI_Sequenzen,,,,,,,,,,,,,,
,Sequence,flow.Sequence,0_2_3,,completion,4,88961,,,88962,,88971,2021-10-25T18:48:04.982Z,89284.36,1635187592,full,ni_sequenzen,NI_Sequenzen,,,,,,,,,,,,,,
,Screen_1,canvas.Screen,0_2_4_0,,skipped,5,88973,,,88974,,88974,2021-10-25T18:48:04.984Z,89284.36,1635187592,full,ni_sequenzen,NI_Sequenzen,,,,,,,,,,,,,,
,Screen_2,canvas.Screen,0_2_4_1,,skipped,5,88975,,,88974,,88975,2021-10-25T18:48:04.986Z,89284.36,1635187592,full,ni_sequenzen,NI_Sequenzen,,,,,,,,,,,,,,
,Screen_3,canvas.Screen,0_2_4_2,,skipped,5,88976,,,88974,,88976,2021-10-25T18:48:04.987Z,89284.36,1635187592,full,ni_sequenzen,NI_Sequenzen,,,,,,,,,,,,,,
,Screen_4,canvas.Screen,0_2_4_3,,skipped,5,88979,,,88974,,88979,2021-10-25T18:48:04.990Z,89284.36,1635187592,full,ni_sequenzen,NI_Sequenzen,,,,,,,,,,,,,,
,Screen_5,canvas.Screen,0_2_4_4,,skipped,5,88981,,,88974,,88981,2021-10-25T18:48:04.992Z,89284.36,1635187592,full,ni_sequenzen,NI_Sequenzen,,,,,,,,,,,,,,
,Screen_6,canvas.Screen,0_2_4_5,,skipped,5,88983,,,88974,,88983,2021-10-25T18:48:04.994Z,89284.36,1635187592,full,ni_sequenzen,NI_Sequenzen,,,,,,,,,,,,,,
,Sequence,flow.Sequence,0_2_4,,completion,5,88972,,,88974,,88983,2021-10-25T18:48:04.994Z,89284.36,1635187592,full,ni_sequenzen,NI_Sequenzen,,,,,,,,,,,,,,
,Screen_1,canvas.Screen,0_2_5_0,,skipped,6,88985,,,88985,,88985,2021-10-25T18:48:04.995Z,89284.36,1635187592,full,ni_sequenzen,NI_Sequenzen,,,,,,,,,,,,,,
,Screen_2,canvas.Screen,0_2_5_1,,skipped,6,88988,,,88985,,88988,2021-10-25T18:48:04.999Z,89284.36,1635187592,full,ni_sequenzen,NI_Sequenzen,,,,,,,,,,,,,,
,Screen_3,canvas.Screen,0_2_5_2,,skipped,6,88989,,,88985,,88989,2021-10-25T18:48:05.000Z,89284.36,1635187592,full,ni_sequenzen,NI_Sequenzen,,,,,,,,,,,,,,
,Screen_4,canvas.Screen,0_2_5_3,,skipped,6,88992,,,88985,,88992,2021-10-25T18:48:05.002Z,89284.36,1635187592,full,ni_sequenzen,NI_Sequenzen,,,,,,,,,,,,,,
,Screen_5,canvas.Screen,0_2_5_4,,skipped,6,88993,,,88985,,88993,2021-10-25T18:48:05.004Z,89284.36,1635187592,full,ni_sequenzen,NI_Sequenzen,,,,,,,,,,,,,,
,Screen_6,canvas.Screen,0_2_5_5,,skipped,6,88994,,,88985,,88994,2021-10-25T18:48:05.006Z,89284.36,1635187592,full,ni_sequenzen,NI_Sequenzen,,,,,,,,,,,,,,
,Sequence,flow.Sequence,0_2_5,,completion,6,88984,,,88985,,88995,2021-10-25T18:48:05.006Z,89284.36,1635187592,full,ni_sequenzen,NI_Sequenzen,,,,,,,,,,,,,,
,Screen_1,canvas.Screen,0_2_6_0,,skipped,7,88997,,,88997,,88997,2021-10-25T18:48:05.009Z,89284.36,1635187592,full,ni_sequenzen,NI_Sequenzen,,,,,,,,,,,,,,
,Screen_2,canvas.Screen,0_2_6_1,,skipped,7,88999,,,88997,,88999,2021-10-25T18:48:05.010Z,89284.36,1635187592,full,ni_sequenzen,NI_Sequenzen,,,,,,,,,,,,,,
,Screen_3,canvas.Screen,0_2_6_2,,skipped,7,89001,,,88997,,89001,2021-10-25T18:48:05.011Z,89284.36,1635187592,full,ni_sequenzen,NI_Sequenzen,,,,,,,,,,,,,,
,Screen_4,canvas.Screen,0_2_6_3,,skipped,7,89002,,,88997,,89002,2021-10-25T18:48:05.013Z,89284.36,1635187592,full,ni_sequenzen,NI_Sequenzen,,,,,,,,,,,,,,
,Screen_5,canvas.Screen,0_2_6_4,,skipped,7,89004,,,88997,,89005,2021-10-25T18:48:05.015Z,89284.36,1635187592,full,ni_sequenzen,NI_Sequenzen,,,,,,,,,,,,,,
,Screen_6,canvas.Screen,0_2_6_5,,skipped,7,89006,,,88997,,89006,2021-10-25T18:48:05.017Z,89284.36,1635187592,full,ni_sequenzen,NI_Sequenzen,,,,,,,,,,,,,,
,Sequence,flow.Sequence,0_2_6,,completion,7,88996,,,88997,,89006,2021-10-25T18:48:05.017Z,89284.36,1635187592,full,ni_sequenzen,NI_Sequenzen,,,,,,,,,,,,,,
,Screen_1,canvas.Screen,0_2_7_0,,skipped,8,89008,,,89008,,89008,2021-10-25T18:48:05.019Z,89284.36,1635187592,full,ni_sequenzen,NI_Sequenzen,,,,,,,,,,,,,,
,Screen_2,canvas.Screen,0_2_7_1,,skipped,8,89011,,,89008,,89011,2021-10-25T18:48:05.022Z,89284.36,1635187592,full,ni_sequenzen,NI_Sequenzen,,,,,,,,,,,,,,
,Screen_3,canvas.Screen,0_2_7_2,,skipped,8,89012,,,89008,,89012,2021-10-25T18:48:05.023Z,89284.36,1635187592,full,ni_sequenzen,NI_Sequenzen,,,,,,,,,,,,,,
,Screen_4,canvas.Screen,0_2_7_3,,skipped,8,89013,,,89008,,89013,2021-10-25T18:48:05.024Z,89284.36,1635187592,full,ni_sequenzen,NI_Sequenzen,,,,,,,,,,,,,,
,Screen_5,canvas.Screen,0_2_7_4,,skipped,8,89015,,,89008,,89016,2021-10-25T18:48:05.027Z,89284.36,1635187592,full,ni_sequenzen,NI_Sequenzen,,,,,,,,,,,,,,
,Screen_6,canvas.Screen,0_2_7_5,,skipped,8,89017,,,89008,,89018,2021-10-25T18:48:05.029Z,89284.36,1635187592,full,ni_sequenzen,NI_Sequenzen,,,,,,,,,,,,,,
,Sequence,flow.Sequence,0_2_7,,completion,8,89007,,,89008,,89018,2021-10-25T18:48:05.029Z,89284.36,1635187592,full,ni_sequenzen,NI_Sequenzen,,,,,,,,,,,,,,
,Screen_1,canvas.Screen,0_2_8_0,,skipped,9,89020,,,89020,,89020,2021-10-25T18:48:05.031Z,89284.36,1635187592,full,ni_sequenzen,NI_Sequenzen,,,,,,,,,,,,,,
,Screen_2,canvas.Screen,0_2_8_1,,skipped,9,89022,,,89020,,89022,2021-10-25T18:48:05.032Z,89284.36,1635187592,full,ni_sequenzen,NI_Sequenzen,,,,,,,,,,,,,,
,Screen_3,canvas.Screen,0_2_8_2,,skipped,9,89023,,,89020,,89023,2021-10-25T18:48:05.033Z,89284.36,1635187592,full,ni_sequenzen,NI_Sequenzen,,,,,,,,,,,,,,
,Screen_4,canvas.Screen,0_2_8_3,,skipped,9,89025,,,89020,,89025,2021-10-25T18:48:05.035Z,89284.36,1635187592,full,ni_sequenzen,NI_Sequenzen,,,,,,,,,,,,,,
,Screen_5,canvas.Screen,0_2_8_4,,skipped,9,89026,,,89020,,89026,2021-10-25T18:48:05.037Z,89284.36,1635187592,full,ni_sequenzen,NI_Sequenzen,,,,,,,,,,,,,,
,Screen_6,canvas.Screen,0_2_8_5,,skipped,9,89028,,,89020,,89028,2021-10-25T18:48:05.038Z,89284.36,1635187592,full,ni_sequenzen,NI_Sequenzen,,,,,,,,,,,,,,
,Sequence,flow.Sequence,0_2_8,,completion,9,89019,,,89020,,89029,2021-10-25T18:48:05.038Z,89284.36,1635187592,full,ni_sequenzen,NI_Sequenzen,,,,,,,,,,,,,,
,Screen_1,canvas.Screen,0_2_9_0,,skipped,10,89031,,,89031,,89032,2021-10-25T18:48:05.042Z,89284.36,1635187592,full,ni_sequenzen,NI_Sequenzen,,,,,,,,,,,,,,
,Screen_2,canvas.Screen,0_2_9_1,,skipped,10,89033,,,89031,,89033,2021-10-25T18:48:05.043Z,89284.36,1635187592,full,ni_sequenzen,NI_Sequenzen,,,,,,,,,,,,,,
,Screen_3,canvas.Screen,0_2_9_2,,skipped,10,89036,,,89031,,89036,2021-10-25T18:48:05.047Z,89284.36,1635187592,full,ni_sequenzen,NI_Sequenzen,,,,,,,,,,,,,,
,Screen_4,canvas.Screen,0_2_9_3,,skipped,10,89037,,,89031,,89037,2021-10-25T18:48:05.048Z,89284.36,1635187592,full,ni_sequenzen,NI_Sequenzen,,,,,,,,,,,,,,
,Screen_5,canvas.Screen,0_2_9_4,,skipped,10,89038,,,89031,,89039,2021-10-25T18:48:05.050Z,89284.36,1635187592,full,ni_sequenzen,NI_Sequenzen,,,,,,,,,,,,,,
,Screen_6,canvas.Screen,0_2_9_5,,skipped,10,89040,,,89031,,89040,2021-10-25T18:48:05.051Z,89284.36,1635187592,full,ni_sequenzen,NI_Sequenzen,,,,,,,,,,,,,,
,Sequence,flow.Sequence,0_2_9,,completion,10,89029,,,89031,,89040,2021-10-25T18:48:05.051Z,89284.36,1635187592,full,ni_sequenzen,NI_Sequenzen,,,,,,,,,,,,,,
,Screen_1,canvas.Screen,0_2_10_0,,skipped,11,89042,,,89043,,89043,2021-10-25T18:48:05.053Z,89284.36,1635187592,full,ni_sequenzen,NI_Sequenzen,,,,,,,,,,,,,,
,Screen_2,canvas.Screen,0_2_10_1,,skipped,11,89044,,,89043,,89044,2021-10-25T18:48:05.055Z,89284.36,1635187592,full,ni_sequenzen,NI_Sequenzen,,,,,,,,,,,,,,
,Screen_3,canvas.Screen,0_2_10_2,,skipped,11,89046,,,89043,,89046,2021-10-25T18:48:05.056Z,89284.36,1635187592,full,ni_sequenzen,NI_Sequenzen,,,,,,,,,,,,,,
,Screen_4,canvas.Screen,0_2_10_3,,skipped,11,89047,,,89043,,89047,2021-10-25T18:48:05.058Z,89284.36,1635187592,full,ni_sequenzen,NI_Sequenzen,,,,,,,,,,,,,,
,Screen_5,canvas.Screen,0_2_10_4,,skipped,11,89048,,,89043,,89048,2021-10-25T18:48:05.059Z,89284.36,1635187592,full,ni_sequenzen,NI_Sequenzen,,,,,,,,,,,,,,
,Screen_6,canvas.Screen,0_2_10_5,,skipped,11,89051,,,89043,,89051,2021-10-25T18:48:05.061Z,89284.36,1635187592,full,ni_sequenzen,NI_Sequenzen,,,,,,,,,,,,,,
,Sequence,flow.Sequence,0_2_10,,completion,11,89041,,,89043,,89052,2021-10-25T18:48:05.061Z,89284.36,1635187592,full,ni_sequenzen,NI_Sequenzen,,,,,,,,,,,,,,
,Screen_1,canvas.Screen,0_2_11_0,,skipped,12,89053,,,89053,,89053,2021-10-25T18:48:05.064Z,89284.36,1635187592,full,ni_sequenzen,NI_Sequenzen,,,,,,,,,,,,,,
,Screen_2,canvas.Screen,0_2_11_1,,skipped,12,89055,,,89053,,89055,2021-10-25T18:48:05.065Z,89284.36,1635187592,full,ni_sequenzen,NI_Sequenzen,,,,,,,,,,,,,,
,Screen_3,canvas.Screen,0_2_11_2,,skipped,12,89056,,,89053,,89056,2021-10-25T18:48:05.066Z,89284.36,1635187592,full,ni_sequenzen,NI_Sequenzen,,,,,,,,,,,,,,
,Screen_4,canvas.Screen,0_2_11_3,,skipped,12,89057,,,89053,,89057,2021-10-25T18:48:05.068Z,89284.36,1635187592,full,ni_sequenzen,NI_Sequenzen,,,,,,,,,,,,,,
,Screen_5,canvas.Screen,0_2_11_4,,skipped,12,89058,,,89053,,89058,2021-10-25T18:48:05.070Z,89284.36,1635187592,full,ni_sequenzen,NI_Sequenzen,,,,,,,,,,,,,,
,Screen_6,canvas.Screen,0_2_11_5,,skipped,12,89061,,,89053,,89061,2021-10-25T18:48:05.072Z,89284.36,1635187592,full,ni_sequenzen,NI_Sequenzen,,,,,,,,,,,,,,
,Sequence,flow.Sequence,0_2_11,,completion,12,89052,,,89053,,89061,2021-10-25T18:48:05.072Z,89284.36,1635187592,full,ni_sequenzen,NI_Sequenzen,,,,,,,,,,,,,,
,Screen_1,canvas.Screen,0_2_12_0,,skipped,13,89064,,,89064,,89064,2021-10-25T18:48:05.075Z,89284.36,1635187592,full,ni_sequenzen,NI_Sequenzen,,,,,,,,,,,,,,
,Screen_2,canvas.Screen,0_2_12_1,,skipped,13,89066,,,89064,,89066,2021-10-25T18:48:05.076Z,89284.36,1635187592,full,ni_sequenzen,NI_Sequenzen,,,,,,,,,,,,,,
,Screen_3,canvas.Screen,0_2_12_2,,skipped,13,89067,,,89064,,89067,2021-10-25T18:48:05.077Z,89284.36,1635187592,full,ni_sequenzen,NI_Sequenzen,,,,,,,,,,,,,,
,Screen_4,canvas.Screen,0_2_12_3,,skipped,13,89067,,,89064,,89068,2021-10-25T18:48:05.078Z,89284.36,1635187592,full,ni_sequenzen,NI_Sequenzen,,,,,,,,,,,,,,
,Screen_5,canvas.Screen,0_2_12_4,,skipped,13,89069,,,89064,,89069,2021-10-25T18:48:05.080Z,89284.36,1635187592,full,ni_sequenzen,NI_Sequenzen,,,,,,,,,,,,,,
,Screen_6,canvas.Screen,0_2_12_5,,skipped,13,89071,,,89064,,89071,2021-10-25T18:48:05.082Z,89284.36,1635187592,full,ni_sequenzen,NI_Sequenzen,,,,,,,,,,,,,,
,Sequence,flow.Sequence,0_2_12,,completion,13,89063,,,89064,,89071,2021-10-25T18:48:05.082Z,89284.36,1635187592,full,ni_sequenzen,NI_Sequenzen,,,,,,,,,,,,,,
,Screen_1,canvas.Screen,0_2_13_0,,skipped,14,89073,,,89073,,89073,2021-10-25T18:48:05.083Z,89284.36,1635187592,full,ni_sequenzen,NI_Sequenzen,,,,,,,,,,,,,,
,Screen_2,canvas.Screen,0_2_13_1,,skipped,14,89074,,,89073,,89074,2021-10-25T18:48:05.085Z,89284.36,1635187592,full,ni_sequenzen,NI_Sequenzen,,,,,,,,,,,,,,
,Screen_3,canvas.Screen,0_2_13_2,,skipped,14,89075,,,89073,,89075,2021-10-25T18:48:05.086Z,89284.36,1635187592,full,ni_sequenzen,NI_Sequenzen,,,,,,,,,,,,,,
,Screen_4,canvas.Screen,0_2_13_3,,skipped,14,89076,,,89073,,89076,2021-10-25T18:48:05.087Z,89284.36,1635187592,full,ni_sequenzen,NI_Sequenzen,,,,,,,,,,,,,,
,Screen_5,canvas.Screen,0_2_13_4,,skipped,14,89078,,,89073,,89078,2021-10-25T18:48:05.088Z,89284.36,1635187592,full,ni_sequenzen,NI_Sequenzen,,,,,,,,,,,,,,
,Screen_6,canvas.Screen,0_2_13_5,,skipped,14,89079,,,89073,,89079,2021-10-25T18:48:05.090Z,89284.36,1635187592,full,ni_sequenzen,NI_Sequenzen,,,,,,,,,,,,,,
,Sequence,flow.Sequence,0_2_13,,completion,14,89072,,,89073,,89080,2021-10-25T18:48:05.090Z,89284.36,1635187592,full,ni_sequenzen,NI_Sequenzen,,,,,,,,,,,,,,
,Screen_1,canvas.Screen,0_2_14_0,,skipped,15,89082,,,89082,,89082,2021-10-25T18:48:05.093Z,89284.36,1635187592,full,ni_sequenzen,NI_Sequenzen,,,,,,,,,,,,,,
,Screen_2,canvas.Screen,0_2_14_1,,skipped,15,89085,,,89082,,89085,2021-10-25T18:48:05.095Z,89284.36,1635187592,full,ni_sequenzen,NI_Sequenzen,,,,,,,,,,,,,,
,Screen_3,canvas.Screen,0_2_14_2,,skipped,15,89086,,,89082,,89086,2021-10-25T18:48:05.097Z,89284.36,1635187592,full,ni_sequenzen,NI_Sequenzen,,,,,,,,,,,,,,
,Screen_4,canvas.Screen,0_2_14_3,,skipped,15,89088,,,89082,,89088,2021-10-25T18:48:05.098Z,89284.36,1635187592,full,ni_sequenzen,NI_Sequenzen,,,,,,,,,,,,,,
,Screen_5,canvas.Screen,0_2_14_4,,skipped,15,89089,,,89082,,89089,2021-10-25T18:48:05.100Z,89284.36,1635187592,full,ni_sequenzen,NI_Sequenzen,,,,,,,,,,,,,,
,Screen_6,canvas.Screen,0_2_14_5,,skipped,15,89090,,,89082,,89090,2021-10-25T18:48:05.101Z,89284.36,1635187592,full,ni_sequenzen,NI_Sequenzen,,,,,,,,,,,,,,
,Sequence,flow.Sequence,0_2_14,,completion,15,89080,,,89082,,89090,2021-10-25T18:48:05.101Z,89284.36,1635187592,full,ni_sequenzen,NI_Sequenzen,,,,,,,,,,,,,,
,Screen_1,canvas.Screen,0_2_15_0,,skipped,16,89092,,,89092,,89092,2021-10-25T18:48:05.103Z,89284.36,1635187592,full,ni_sequenzen,NI_Sequenzen,,,,,,,,,,,,,,
,Screen_2,canvas.Screen,0_2_15_1,,skipped,16,89093,,,89092,,89093,2021-10-25T18:48:05.104Z,89284.36,1635187592,full,ni_sequenzen,NI_Sequenzen,,,,,,,,,,,,,,
,Screen_3,canvas.Screen,0_2_15_2,,skipped,16,89094,,,89092,,89094,2021-10-25T18:48:05.105Z,89284.36,1635187592,full,ni_sequenzen,NI_Sequenzen,,,,,,,,,,,,,,
,Screen_4,canvas.Screen,0_2_15_3,,skipped,16,89096,,,89092,,89096,2021-10-25T18:48:05.107Z,89284.36,1635187592,full,ni_sequenzen,NI_Sequenzen,,,,,,,,,,,,,,
,Screen_5,canvas.Screen,0_2_15_4,,skipped,16,89098,,,89092,,89098,2021-10-25T18:48:05.108Z,89284.36,1635187592,full,ni_sequenzen,NI_Sequenzen,,,,,,,,,,,,,,
,Screen_6,canvas.Screen,0_2_15_5,,skipped,16,89099,,,89092,,89099,2021-10-25T18:48:05.109Z,89284.36,1635187592,full,ni_sequenzen,NI_Sequenzen,,,,,,,,,,,,,,
,Sequence,flow.Sequence,0_2_15,,completion,16,89091,,,89092,,89099,2021-10-25T18:48:05.109Z,89284.36,1635187592,full,ni_sequenzen,NI_Sequenzen,,,,,,,,,,,,,,
,Screen_1,canvas.Screen,0_2_16_0,,skipped,17,89100,,,89100,,89100,2021-10-25T18:48:05.110Z,89284.36,1635187592,full,ni_sequenzen,NI_Sequenzen,,,,,,,,,,,,,,
,Screen_2,canvas.Screen,0_2_16_1,,skipped,17,89101,,,89100,,89101,2021-10-25T18:48:05.112Z,89284.36,1635187592,full,ni_sequenzen,NI_Sequenzen,,,,,,,,,,,,,,
,Screen_3,canvas.Screen,0_2_16_2,,skipped,17,89102,,,89100,,89102,2021-10-25T18:48:05.113Z,89284.36,1635187592,full,ni_sequenzen,NI_Sequenzen,,,,,,,,,,,,,,
,Screen_4,canvas.Screen,0_2_16_3,,skipped,17,89104,,,89100,,89104,2021-10-25T18:48:05.114Z,89284.36,1635187592,full,ni_sequenzen,NI_Sequenzen,,,,,,,,,,,,,,
,Screen_5,canvas.Screen,0_2_16_4,,skipped,17,89105,,,89100,,89105,2021-10-25T18:48:05.115Z,89284.36,1635187592,full,ni_sequenzen,NI_Sequenzen,,,,,,,,,,,,,,
,Screen_6,canvas.Screen,0_2_16_5,,skipped,17,89106,,,89100,,89106,2021-10-25T18:48:05.117Z,89284.36,1635187592,full,ni_sequenzen,NI_Sequenzen,,,,,,,,,,,,,,
,Sequence,flow.Sequence,0_2_16,,completion,17,89099,,,89100,,89106,2021-10-25T18:48:05.117Z,89284.36,1635187592,full,ni_sequenzen,NI_Sequenzen,,,,,,,,,,,,,,
,Screen_1,canvas.Screen,0_2_17_0,,skipped,18,89108,,,89108,,89108,2021-10-25T18:48:05.119Z,89284.36,1635187592,full,ni_sequenzen,NI_Sequenzen,,,,,,,,,,,,,,
,Screen_2,canvas.Screen,0_2_17_1,,skipped,18,89109,,,89108,,89109,2021-10-25T18:48:05.120Z,89284.36,1635187592,full,ni_sequenzen,NI_Sequenzen,,,,,,,,,,,,,,
,Screen_3,canvas.Screen,0_2_17_2,,skipped,18,89111,,,89108,,89111,2021-10-25T18:48:05.122Z,89284.36,1635187592,full,ni_sequenzen,NI_Sequenzen,,,,,,,,,,,,,,
,Screen_4,canvas.Screen,0_2_17_3,,skipped,18,89112,,,89108,,89112,2021-10-25T18:48:05.123Z,89284.36,1635187592,full,ni_sequenzen,NI_Sequenzen,,,,,,,,,,,,,,
,Screen_5,canvas.Screen,0_2_17_4,,skipped,18,89113,,,89108,,89113,2021-10-25T18:48:05.124Z,89284.36,1635187592,full,ni_sequenzen,NI_Sequenzen,,,,,,,,,,,,,,
,Screen_6,canvas.Screen,0_2_17_5,,skipped,18,89115,,,89108,,89115,2021-10-25T18:48:05.126Z,89284.36,1635187592,full,ni_sequenzen,NI_Sequenzen,,,,,,,,,,,,,,
,Sequence,flow.Sequence,0_2_17,,completion,18,89107,,,89108,,89115,2021-10-25T18:48:05.126Z,89284.36,1635187592,full,ni_sequenzen,NI_Sequenzen,,,,,,,,,,,,,,
,Screen_1,canvas.Screen,0_2_18_0,,skipped,19,89117,,,89117,,89117,2021-10-25T18:48:05.128Z,89284.36,1635187592,full,ni_sequenzen,NI_Sequenzen,,,,,,,,,,,,,,
,Screen_2,canvas.Screen,0_2_18_1,,skipped,19,89119,,,89117,,89119,2021-10-25T18:48:05.130Z,89284.36,1635187592,full,ni_sequenzen,NI_Sequenzen,,,,,,,,,,,,,,
,Screen_3,canvas.Screen,0_2_18_2,,skipped,19,89120,,,89117,,89120,2021-10-25T18:48:05.131Z,89284.36,1635187592,full,ni_sequenzen,NI_Sequenzen,,,,,,,,,,,,,,
,Screen_4,canvas.Screen,0_2_18_3,,skipped,19,89121,,,89117,,89121,2021-10-25T18:48:05.133Z,89284.36,1635187592,full,ni_sequenzen,NI_Sequenzen,,,,,,,,,,,,,,
,Screen_5,canvas.Screen,0_2_18_4,,skipped,19,89123,,,89117,,89123,2021-10-25T18:48:05.134Z,89284.36,1635187592,full,ni_sequenzen,NI_Sequenzen,,,,,,,,,,,,,,
,Screen_6,canvas.Screen,0_2_18_5,,skipped,19,89124,,,89117,,89124,2021-10-25T18:48:05.136Z,89284.36,1635187592,full,ni_sequenzen,NI_Sequenzen,,,,,,,,,,,,,,
,Sequence,flow.Sequence,0_2_18,,completion,19,89116,,,89117,,89125,2021-10-25T18:48:05.136Z,89284.36,1635187592,full,ni_sequenzen,NI_Sequenzen,,,,,,,,,,,,,,
,Screen_1,canvas.Screen,0_2_19_0,,skipped,20,89127,,,89127,,89127,2021-10-25T18:48:05.138Z,89284.36,1635187592,full,ni_sequenzen,NI_Sequenzen,,,,,,,,,,,,,,
,Screen_2,canvas.Screen,0_2_19_1,,skipped,20,89128,,,89127,,89129,2021-10-25T18:48:05.139Z,89284.36,1635187592,full,ni_sequenzen,NI_Sequenzen,,,,,,,,,,,,,,
,Screen_3,canvas.Screen,0_2_19_2,,skipped,20,89131,,,89127,,89131,2021-10-25T18:48:05.141Z,89284.36,1635187592,full,ni_sequenzen,NI_Sequenzen,,,,,,,,,,,,,,
,Screen_4,canvas.Screen,0_2_19_3,,skipped,20,89132,,,89127,,89132,2021-10-25T18:48:05.142Z,89284.36,1635187592,full,ni_sequenzen,NI_Sequenzen,,,,,,,,,,,,,,
,Screen_5,canvas.Screen,0_2_19_4,,skipped,20,89133,,,89127,,89134,2021-10-25T18:48:05.144Z,89284.36,1635187592,full,ni_sequenzen,NI_Sequenzen,,,,,,,,,,,,,,
,Screen_6,canvas.Screen,0_2_19_5,,skipped,20,89136,,,89127,,89136,2021-10-25T18:48:05.146Z,89284.36,1635187592,full,ni_sequenzen,NI_Sequenzen,,,,,,,,,,,,,,
,Sequence,flow.Sequence,0_2_19,,completion,20,89125,,,89127,,89136,2021-10-25T18:48:05.146Z,89284.36,1635187592,full,ni_sequenzen,NI_Sequenzen,,,,,,,,,,,,,,
,Screen_1,canvas.Screen,0_2_20_0,,skipped,21,89138,,,89138,,89138,2021-10-25T18:48:05.148Z,89284.36,1635187592,full,ni_sequenzen,NI_Sequenzen,,,,,,,,,,,,,,
,Screen_2,canvas.Screen,0_2_20_1,,skipped,21,89140,,,89138,,89140,2021-10-25T18:48:05.151Z,89284.36,1635187592,full,ni_sequenzen,NI_Sequenzen,,,,,,,,,,,,,,
,Screen_3,canvas.Screen,0_2_20_2,,skipped,21,89143,,,89138,,89143,2021-10-25T18:48:05.153Z,89284.36,1635187592,full,ni_sequenzen,NI_Sequenzen,,,,,,,,,,,,,,
,Screen_4,canvas.Screen,0_2_20_3,,skipped,21,89144,,,89138,,89145,2021-10-25T18:48:05.155Z,89284.36,1635187592,full,ni_sequenzen,NI_Sequenzen,,,,,,,,,,,,,,
,Screen_5,canvas.Screen,0_2_20_4,,skipped,21,89147,,,89138,,89147,2021-10-25T18:48:05.157Z,89284.36,1635187592,full,ni_sequenzen,NI_Sequenzen,,,,,,,,,,,,,,
,Screen_6,canvas.Screen,0_2_20_5,,skipped,21,89148,,,89138,,89148,2021-10-25T18:48:05.159Z,89284.36,1635187592,full,ni_sequenzen,NI_Sequenzen,,,,,,,,,,,,,,
,Sequence,flow.Sequence,0_2_20,,completion,21,89137,,,89138,,89148,2021-10-25T18:48:05.159Z,89284.36,1635187592,full,ni_sequenzen,NI_Sequenzen,,,,,,,,,,,,,,
,Screen_1,canvas.Screen,0_2_21_0,,skipped,22,89150,,,89150,,89151,2021-10-25T18:48:05.161Z,89284.36,1635187592,full,ni_sequenzen,NI_Sequenzen,,,,,,,,,,,,,,
,Screen_2,canvas.Screen,0_2_21_1,,skipped,22,89152,,,89150,,89152,2021-10-25T18:48:05.163Z,89284.36,1635187592,full,ni_sequenzen,NI_Sequenzen,,,,,,,,,,,,,,
,Screen_3,canvas.Screen,0_2_21_2,,skipped,22,89152,,,89150,,89153,2021-10-25T18:48:05.163Z,89284.36,1635187592,full,ni_sequenzen,NI_Sequenzen,,,,,,,,,,,,,,
,Screen_4,canvas.Screen,0_2_21_3,,skipped,22,89154,,,89150,,89154,2021-10-25T18:48:05.165Z,89284.36,1635187592,full,ni_sequenzen,NI_Sequenzen,,,,,,,,,,,,,,
,Screen_5,canvas.Screen,0_2_21_4,,skipped,22,89155,,,89150,,89156,2021-10-25T18:48:05.167Z,89284.36,1635187592,full,ni_sequenzen,NI_Sequenzen,,,,,,,,,,,,,,
,Screen_6,canvas.Screen,0_2_21_5,,skipped,22,89157,,,89150,,89157,2021-10-25T18:48:05.168Z,89284.36,1635187592,full,ni_sequenzen,NI_Sequenzen,,,,,,,,,,,,,,
,Sequence,flow.Sequence,0_2_21,,completion,22,89149,,,89150,,89157,2021-10-25T18:48:05.168Z,89284.36,1635187592,full,ni_sequenzen,NI_Sequenzen,,,,,,,,,,,,,,
,Screen_1,canvas.Screen,0_2_22_0,,skipped,23,89159,,,89159,,89159,2021-10-25T18:48:05.170Z,89284.36,1635187592,full,ni_sequenzen,NI_Sequenzen,,,,,,,,,,,,,,
,Screen_2,canvas.Screen,0_2_22_1,,skipped,23,89160,,,89159,,89161,2021-10-25T18:48:05.172Z,89284.36,1635187592,full,ni_sequenzen,NI_Sequenzen,,,,,,,,,,,,,,
,Screen_3,canvas.Screen,0_2_22_2,,skipped,23,89162,,,89159,,89162,2021-10-25T18:48:05.173Z,89284.36,1635187592,full,ni_sequenzen,NI_Sequenzen,,,,,,,,,,,,,,
,Screen_4,canvas.Screen,0_2_22_3,,skipped,23,89163,,,89159,,89163,2021-10-25T18:48:05.174Z,89284.36,1635187592,full,ni_sequenzen,NI_Sequenzen,,,,,,,,,,,,,,
,Screen_5,canvas.Screen,0_2_22_4,,skipped,23,89164,,,89159,,89164,2021-10-25T18:48:05.175Z,89284.36,1635187592,full,ni_sequenzen,NI_Sequenzen,,,,,,,,,,,,,,
,Screen_6,canvas.Screen,0_2_22_5,,skipped,23,89166,,,89159,,89166,2021-10-25T18:48:05.176Z,89284.36,1635187592,full,ni_sequenzen,NI_Sequenzen,,,,,,,,,,,,,,
,Sequence,flow.Sequence,0_2_22,,completion,23,89158,,,89159,,89166,2021-10-25T18:48:05.176Z,89284.36,1635187592,full,ni_sequenzen,NI_Sequenzen,,,,,,,,,,,,,,
,Screen_1,canvas.Screen,0_2_23_0,,skipped,24,89169,,,89169,,89169,2021-10-25T18:48:05.180Z,89284.36,1635187592,full,ni_sequenzen,NI_Sequenzen,,,,,,,,,,,,,,
,Screen_2,canvas.Screen,0_2_23_1,,skipped,24,89171,,,89169,,89171,2021-10-25T18:48:05.181Z,89284.36,1635187592,full,ni_sequenzen,NI_Sequenzen,,,,,,,,,,,,,,
,Screen_3,canvas.Screen,0_2_23_2,,skipped,24,89172,,,89169,,89172,2021-10-25T18:48:05.183Z,89284.36,1635187592,full,ni_sequenzen,NI_Sequenzen,,,,,,,,,,,,,,
,Screen_4,canvas.Screen,0_2_23_3,,skipped,24,89174,,,89169,,89174,2021-10-25T18:48:05.184Z,89284.36,1635187592,full,ni_sequenzen,NI_Sequenzen,,,,,,,,,,,,,,
,Screen_5,canvas.Screen,0_2_23_4,,skipped,24,89175,,,89169,,89175,2021-10-25T18:48:05.186Z,89284.36,1635187592,full,ni_sequenzen,NI_Sequenzen,,,,,,,,,,,,,,
,Screen_6,canvas.Screen,0_2_23_5,,skipped,24,89176,,,89169,,89177,2021-10-25T18:48:05.187Z,89284.36,1635187592,full,ni_sequenzen,NI_Sequenzen,,,,,,,,,,,,,,
,Sequence,flow.Sequence,0_2_23,,completion,24,89168,,,89169,,89177,2021-10-25T18:48:05.187Z,89284.36,1635187592,full,ni_sequenzen,NI_Sequenzen,,,,,,,,,,,,,,
,Screen_1,canvas.Screen,0_2_24_0,,skipped,25,89178,,,89178,,89178,2021-10-25T18:48:05.189Z,89284.36,1635187592,full,ni_sequenzen,NI_Sequenzen,,,,,,,,,,,,,,
,Screen_2,canvas.Screen,0_2_24_1,,skipped,25,89179,,,89178,,89180,2021-10-25T18:48:05.190Z,89284.36,1635187592,full,ni_sequenzen,NI_Sequenzen,,,,,,,,,,,,,,
,Screen_3,canvas.Screen,0_2_24_2,,skipped,25,89182,,,89178,,89182,2021-10-25T18:48:05.194Z,89284.36,1635187592,full,ni_sequenzen,NI_Sequenzen,,,,,,,,,,,,,,
,Screen_4,canvas.Screen,0_2_24_3,,skipped,25,89184,,,89178,,89184,2021-10-25T18:48:05.195Z,89284.36,1635187592,full,ni_sequenzen,NI_Sequenzen,,,,,,,,,,,,,,
,Screen_5,canvas.Screen,0_2_24_4,,skipped,25,89185,,,89178,,89185,2021-10-25T18:48:05.196Z,89284.36,1635187592,full,ni_sequenzen,NI_Sequenzen,,,,,,,,,,,,,,
,Screen_6,canvas.Screen,0_2_24_5,,skipped,25,89187,,,89178,,89187,2021-10-25T18:48:05.197Z,89284.36,1635187592,full,ni_sequenzen,NI_Sequenzen,,,,,,,,,,,,,,
,Sequence,flow.Sequence,0_2_24,,completion,25,89177,,,89178,,89187,2021-10-25T18:48:05.198Z,89284.36,1635187592,full,ni_sequenzen,NI_Sequenzen,,,,,,,,,,,,,,
,Screen_1,canvas.Screen,0_2_25_0,,skipped,26,89188,,,89188,,89188,2021-10-25T18:48:05.199Z,89284.36,1635187592,full,ni_sequenzen,NI_Sequenzen,,,,,,,,,,,,,,
,Screen_2,canvas.Screen,0_2_25_1,,skipped,26,89189,,,89188,,89189,2021-10-25T18:48:05.201Z,89284.36,1635187592,full,ni_sequenzen,NI_Sequenzen,,,,,,,,,,,,,,
,Screen_3,canvas.Screen,0_2_25_2,,skipped,26,89191,,,89188,,89191,2021-10-25T18:48:05.202Z,89284.36,1635187592,full,ni_sequenzen,NI_Sequenzen,,,,,,,,,,,,,,
,Screen_4,canvas.Screen,0_2_25_3,,skipped,26,89192,,,89188,,89192,2021-10-25T18:48:05.203Z,89284.36,1635187592,full,ni_sequenzen,NI_Sequenzen,,,,,,,,,,,,,,
,Screen_5,canvas.Screen,0_2_25_4,,skipped,26,89193,,,89188,,89193,2021-10-25T18:48:05.204Z,89284.36,1635187592,full,ni_sequenzen,NI_Sequenzen,,,,,,,,,,,,,,
,Screen_6,canvas.Screen,0_2_25_5,,skipped,26,89195,,,89188,,89195,2021-10-25T18:48:05.205Z,89284.36,1635187592,full,ni_sequenzen,NI_Sequenzen,,,,,,,,,,,,,,
,Sequence,flow.Sequence,0_2_25,,completion,26,89187,,,89188,,89195,2021-10-25T18:48:05.206Z,89284.36,1635187592,full,ni_sequenzen,NI_Sequenzen,,,,,,,,,,,,,,
,Screen_1,canvas.Screen,0_2_26_0,,skipped,27,89196,,,89196,,89196,2021-10-25T18:48:05.207Z,89284.36,1635187592,full,ni_sequenzen,NI_Sequenzen,,,,,,,,,,,,,,
,Screen_2,canvas.Screen,0_2_26_1,,skipped,27,89198,,,89196,,89198,2021-10-25T18:48:05.208Z,89284.36,1635187592,full,ni_sequenzen,NI_Sequenzen,,,,,,,,,,,,,,
,Screen_3,canvas.Screen,0_2_26_2,,skipped,27,89199,,,89196,,89199,2021-10-25T18:48:05.209Z,89284.36,1635187592,full,ni_sequenzen,NI_Sequenzen,,,,,,,,,,,,,,
,Screen_4,canvas.Screen,0_2_26_3,,skipped,27,89201,,,89196,,89201,2021-10-25T18:48:05.211Z,89284.36,1635187592,full,ni_sequenzen,NI_Sequenzen,,,,,,,,,,,,,,
,Screen_5,canvas.Screen,0_2_26_4,,skipped,27,89202,,,89196,,89202,2021-10-25T18:48:05.213Z,89284.36,1635187592,full,ni_sequenzen,NI_Sequenzen,,,,,,,,,,,,,,
,Screen_6,canvas.Screen,0_2_26_5,,skipped,27,89203,,,89196,,89203,2021-10-25T18:48:05.214Z,89284.36,1635187592,full,ni_sequenzen,NI_Sequenzen,,,,,,,,,,,,,,
,Sequence,flow.Sequence,0_2_26,,completion,27,89195,,,89196,,89204,2021-10-25T18:48:05.214Z,89284.36,1635187592,full,ni_sequenzen,NI_Sequenzen,,,,,,,,,,,,,,
,Screen_1,canvas.Screen,0_2_27_0,,skipped,28,89205,,,89205,,89205,2021-10-25T18:48:05.216Z,89284.36,1635187592,full,ni_sequenzen,NI_Sequenzen,,,,,,,,,,,,,,
,Screen_2,canvas.Screen,0_2_27_1,,skipped,28,89207,,,89205,,89207,2021-10-25T18:48:05.217Z,89284.36,1635187592,full,ni_sequenzen,NI_Sequenzen,,,,,,,,,,,,,,
,Screen_3,canvas.Screen,0_2_27_2,,skipped,28,89208,,,89205,,89208,2021-10-25T18:48:05.218Z,89284.36,1635187592,full,ni_sequenzen,NI_Sequenzen,,,,,,,,,,,,,,
,Screen_4,canvas.Screen,0_2_27_3,,skipped,28,89210,,,89205,,89210,2021-10-25T18:48:05.221Z,89284.36,1635187592,full,ni_sequenzen,NI_Sequenzen,,,,,,,,,,,,,,
,Screen_5,canvas.Screen,0_2_27_4,,skipped,28,89213,,,89205,,89213,2021-10-25T18:48:05.223Z,89284.36,1635187592,full,ni_sequenzen,NI_Sequenzen,,,,,,,,,,,,,,
,Screen_6,canvas.Screen,0_2_27_5,,skipped,28,89213,,,89205,,89213,2021-10-25T18:48:05.224Z,89284.36,1635187592,full,ni_sequenzen,NI_Sequenzen,,,,,,,,,,,,,,
,Sequence,flow.Sequence,0_2_27,,completion,28,89204,,,89205,,89213,2021-10-25T18:48:05.224Z,89284.36,1635187592,full,ni_sequenzen,NI_Sequenzen,,,,,,,,,,,,,,
,Screen_1,canvas.Screen,0_2_28_0,,skipped,29,89216,,,89216,,89216,2021-10-25T18:48:05.226Z,89284.36,1635187592,full,ni_sequenzen,NI_Sequenzen,,,,,,,,,,,,,,
,Screen_2,canvas.Screen,0_2_28_1,,skipped,29,89216,,,89216,,89216,2021-10-25T18:48:05.227Z,89284.36,1635187592,full,ni_sequenzen,NI_Sequenzen,,,,,,,,,,,,,,
,Screen_3,canvas.Screen,0_2_28_2,,skipped,29,89217,,,89216,,89217,2021-10-25T18:48:05.228Z,89284.36,1635187592,full,ni_sequenzen,NI_Sequenzen,,,,,,,,,,,,,,
,Screen_4,canvas.Screen,0_2_28_3,,skipped,29,89218,,,89216,,89218,2021-10-25T18:48:05.229Z,89284.36,1635187592,full,ni_sequenzen,NI_Sequenzen,,,,,,,,,,,,,,
,Screen_5,canvas.Screen,0_2_28_4,,skipped,29,89222,,,89216,,89222,2021-10-25T18:48:05.233Z,89284.36,1635187592,full,ni_sequenzen,NI_Sequenzen,,,,,,,,,,,,,,
,Screen_6,canvas.Screen,0_2_28_5,,skipped,29,89223,,,89216,,89224,2021-10-25T18:48:05.234Z,89284.36,1635187592,full,ni_sequenzen,NI_Sequenzen,,,,,,,,,,,,,,
,Sequence,flow.Sequence,0_2_28,,completion,29,89214,,,89216,,89224,2021-10-25T18:48:05.234Z,89284.36,1635187592,full,ni_sequenzen,NI_Sequenzen,,,,,,,,,,,,,,
,Screen_1,canvas.Screen,0_2_29_0,,skipped,30,89225,,,89225,,89225,2021-10-25T18:48:05.236Z,89284.36,1635187592,full,ni_sequenzen,NI_Sequenzen,,,,,,,,,,,,,,
,Screen_2,canvas.Screen,0_2_29_1,,skipped,30,89226,,,89225,,89226,2021-10-25T18:48:05.237Z,89284.36,1635187592,full,ni_sequenzen,NI_Sequenzen,,,,,,,,,,,,,,
,Screen_3,canvas.Screen,0_2_29_2,,skipped,30,89227,,,89225,,89227,2021-10-25T18:48:05.238Z,89284.36,1635187592,full,ni_sequenzen,NI_Sequenzen,,,,,,,,,,,,,,
,Screen_4,canvas.Screen,0_2_29_3,,skipped,30,89228,,,89225,,89228,2021-10-25T18:48:05.238Z,89284.36,1635187592,full,ni_sequenzen,NI_Sequenzen,,,,,,,,,,,,,,
,Screen_5,canvas.Screen,0_2_29_4,,skipped,30,89229,,,89225,,89229,2021-10-25T18:48:05.240Z,89284.36,1635187592,full,ni_sequenzen,NI_Sequenzen,,,,,,,,,,,,,,
,Screen_6,canvas.Screen,0_2_29_5,,skipped,30,89230,,,89225,,89230,2021-10-25T18:48:05.241Z,89284.36,1635187592,full,ni_sequenzen,NI_Sequenzen,,,,,,,,,,,,,,
,Sequence,flow.Sequence,0_2_29,,completion,30,89224,,,89225,,89230,2021-10-25T18:48:05.241Z,89284.36,1635187592,full,ni_sequenzen,NI_Sequenzen,,,,,,,,,,,,,,
,Instructions_II,flow.Loop,0_2,,completion,,54067,54069.76,54070.88,89225,35154.12,89231,2021-10-25T18:48:05.241Z,89284.36,1635187592,full,ni_sequenzen,NI_Sequenzen,,,,,,,,,,,,,,
,Move,canvas.Screen,0_3_0_0_0_0,down,response,,89279,89279.04,89284.36,97919,8634.64,97940,2021-10-25T18:48:13.951Z,97973.9,1635187592,full,ni_sequenzen,NI_Sequenzen,1,0,,,,,,,,,,,,
,Move,canvas.Screen,0_3_0_0_0_1,left,response,,97973,97973.5,97973.9,98653,679.1000000000058,98673,2021-10-25T18:48:14.683Z,98692.92,1635187592,full,ni_sequenzen,NI_Sequenzen,2,0,,,,,,,,,,,,
,Move,canvas.Screen,0_3_0_0_0_2,right,response,,98693,98692.54,98692.92,99701,1008.0800000000017,99708,2021-10-25T18:48:15.718Z,99733.44,1635187592,full,ni_sequenzen,NI_Sequenzen,3,0,,,,,,,,,,,,
,Move,canvas.Screen,0_3_0_0_0_3,down,response,,99731,99731.12,99733.44,101857,2123.5599999999977,101876,2021-10-25T18:48:17.887Z,101895.7,1635187592,full,ni_sequenzen,NI_Sequenzen,4,0,,,,,,,,,,,,
,Move,canvas.Screen,0_3_0_0_0_4,right,response,,101895,101895.42,101895.7,110560,8664.300000000003,110569,2021-10-25T18:48:26.580Z,110634.2,1635187592,full,ni_sequenzen,NI_Sequenzen,5,0,,,,,,,,,,,,
,Move,canvas.Screen,0_3_0_0_0_5,-999,skipped,,110577,,,110560,,110578,2021-10-25T18:48:26.589Z,110634.2,1635187592,full,ni_sequenzen,NI_Sequenzen,6,0,,,,,,,,,,,,
,Move,canvas.Screen,0_3_0_0_0_6,-999,skipped,,110584,,,110560,,110584,2021-10-25T18:48:26.595Z,110634.2,1635187592,full,ni_sequenzen,NI_Sequenzen,7,0,,,,,,,,,,,,
,Move,canvas.Screen,0_3_0_0_0_7,-999,skipped,,110589,,,110560,,110589,2021-10-25T18:48:26.600Z,110634.2,1635187592,full,ni_sequenzen,NI_Sequenzen,8,0,,,,,,,,,,,,
,Move,canvas.Screen,0_3_0_0_0_8,-999,skipped,,110593,,,110560,,110593,2021-10-25T18:48:26.604Z,110634.2,1635187592,full,ni_sequenzen,NI_Sequenzen,9,0,,,,,,,,,,,,
,Move,canvas.Screen,0_3_0_0_0_9,-999,skipped,,110599,,,110560,,110599,2021-10-25T18:48:26.610Z,110634.2,1635187592,full,ni_sequenzen,NI_Sequenzen,10,0,,,,,,,,,,,,
,Move,canvas.Screen,0_3_0_0_0_10,-999,skipped,,110606,,,110560,,110607,2021-10-25T18:48:26.617Z,110634.2,1635187592,full,ni_sequenzen,NI_Sequenzen,11,0,,,,,,,,,,,,
,Move,canvas.Screen,0_3_0_0_0_11,-999,skipped,,110612,,,110560,,110612,2021-10-25T18:48:26.624Z,110634.2,1635187592,full,ni_sequenzen,NI_Sequenzen,12,0,,,,,,,,,,,,
,Move,canvas.Screen,0_3_0_0_0_12,-999,skipped,,110618,,,110560,,110619,2021-10-25T18:48:26.630Z,110634.2,1635187592,full,ni_sequenzen,NI_Sequenzen,13,0,,,,,,,,,,,,
,Move,canvas.Screen,0_3_0_0_0_13,-999,skipped,,110624,,,110560,,110624,2021-10-25T18:48:26.635Z,110634.2,1635187592,full,ni_sequenzen,NI_Sequenzen,14,0,,,,,,,,,,,,
,Move,canvas.Screen,0_3_0_0_0_14,-999,skipped,,110628,,,110560,,110629,2021-10-25T18:48:26.639Z,110634.2,1635187592,full,ni_sequenzen,NI_Sequenzen,15,0,,,,,,,,,,,,
,Loop,flow.Loop,0_3_0_0_0,-999,completion,,89272,89279.04,89284.36,110560,21275.64,110629,2021-10-25T18:48:26.640Z,110634.2,1635187592,full,ni_sequenzen,NI_Sequenzen,,0,,,,,,,,,,,,
,Feedback,canvas.Screen,0_3_0_0_1,,timeout,,110634,110633.92,110634.2,114615.36,4031.1800000000076,114618,2021-10-25T18:48:30.628Z,114665.38,1635187592,full,ni_sequenzen,NI_Sequenzen,,0,,,,,,,,,,,,
,Trial,flow.Sequence,0_3_0_0,,completion,,89263,89279.04,89284.36,114615.36,25331,114619,2021-10-25T18:48:30.629Z,114682.1,1635187592,full,ni_sequenzen,NI_Sequenzen,,0,,,,,,,,,,,,
,Move,canvas.Screen,0_3_0_1_0_0,right,response,,114658,114665.38,114682.1,129998,15315.899999999994,130013,2021-10-25T18:48:46.024Z,130032.74,1635187592,full,ni_sequenzen,NI_Sequenzen,1,1,,,,,,,,,,,,
,Move,canvas.Screen,0_3_0_1_0_1,down,response,,130032,130032.54,130032.74,131217,1184.2599999999948,131233,2021-10-25T18:48:47.243Z,131255.22,1635187592,full,ni_sequenzen,NI_Sequenzen,2,1,,,,,,,,,,,,
,Move,canvas.Screen,0_3_0_1_0_2,left,response,,131255,131254.86,131255.22,132575,1319.7799999999988,132589,2021-10-25T18:48:48.600Z,132613.76,1635187592,full,ni_sequenzen,NI_Sequenzen,3,1,,,,,,,,,,,,
,Move,canvas.Screen,0_3_0_1_0_3,down,response,,132611,132611.06,132613.76,135419,2805.2399999999907,135435,2021-10-25T18:48:51.446Z,135451.28,1635187592,full,ni_sequenzen,NI_Sequenzen,4,1,,,,,,,,,,,,
,Move,canvas.Screen,0_3_0_1_0_4,right,response,,135451,135450.92,135451.28,140325,4873.720000000001,140347,2021-10-25T18:48:56.358Z,140424.46,1635187592,full,ni_sequenzen,NI_Sequenzen,5,1,,,,,,,,,,,,
,Move,canvas.Screen,0_3_0_1_0_5,-999,skipped,,140364,,,140325,,140364,2021-10-25T18:48:56.374Z,140424.46,1635187592,full,ni_sequenzen,NI_Sequenzen,6,1,,,,,,,,,,,,
,Move,canvas.Screen,0_3_0_1_0_6,-999,skipped,,140372,,,140325,,140372,2021-10-25T18:48:56.382Z,140424.46,1635187592,full,ni_sequenzen,NI_Sequenzen,7,1,,,,,,,,,,,,
,Move,canvas.Screen,0_3_0_1_0_7,-999,skipped,,140377,,,140325,,140377,2021-10-25T18:48:56.388Z,140424.46,1635187592,full,ni_sequenzen,NI_Sequenzen,8,1,,,,,,,,,,,,
,Move,canvas.Screen,0_3_0_1_0_8,-999,skipped,,140384,,,140325,,140384,2021-10-25T18:48:56.394Z,140424.46,1635187592,full,ni_sequenzen,NI_Sequenzen,9,1,,,,,,,,,,,,
,Move,canvas.Screen,0_3_0_1_0_9,-999,skipped,,140389,,,140325,,140389,2021-10-25T18:48:56.401Z,140424.46,1635187592,full,ni_sequenzen,NI_Sequenzen,10,1,,,,,,,,,,,,
,Move,canvas.Screen,0_3_0_1_0_10,-999,skipped,,140396,,,140325,,140396,2021-10-25T18:48:56.407Z,140424.46,1635187592,full,ni_sequenzen,NI_Sequenzen,11,1,,,,,,,,,,,,
,Move,canvas.Screen,0_3_0_1_0_11,-999,skipped,,140402,,,140325,,140402,2021-10-25T18:48:56.413Z,140424.46,1635187592,full,ni_sequenzen,NI_Sequenzen,12,1,,,,,,,,,,,,
,Move,canvas.Screen,0_3_0_1_0_12,-999,skipped,,140407,,,140325,,140407,2021-10-25T18:48:56.418Z,140424.46,1635187592,full,ni_sequenzen,NI_Sequenzen,13,1,,,,,,,,,,,,
,Move,canvas.Screen,0_3_0_1_0_13,-999,skipped,,140413,,,140325,,140413,2021-10-25T18:48:56.423Z,140424.46,1635187592,full,ni_sequenzen,NI_Sequenzen,14,1,,,,,,,,,,,,
,Move,canvas.Screen,0_3_0_1_0_14,-999,skipped,,140419,,,140325,,140419,2021-10-25T18:48:56.430Z,140424.46,1635187592,full,ni_sequenzen,NI_Sequenzen,15,1,,,,,,,,,,,,
,Loop,flow.Loop,0_3_0_1_0,-999,completion,,114640,114665.38,114682.1,140325,25642.899999999994,140419,2021-10-25T18:48:56.430Z,140424.46,1635187592,full,ni_sequenzen,NI_Sequenzen,,1,,,,,,,,,,,,
,Feedback,canvas.Screen,0_3_0_1_1,,timeout,,140424,140424.1,140424.46,144412.88,4038.2000000000116,144415,2021-10-25T18:49:00.426Z,144462.66,1635187592,full,ni_sequenzen,NI_Sequenzen,,1,,,,,,,,,,,,
,Trial,flow.Sequence,0_3_0_1,,completion,,114621,114665.38,114682.1,144412.88,29730.78,144416,2021-10-25T18:49:00.427Z,144462.9,1635187592,full,ni_sequenzen,NI_Sequenzen,,1,,,,,,,,,,,,
,Move,canvas.Screen,0_3_0_2_0_0,down,response,,144463,144462.66,144462.9,159825,15362.100000000006,159840,2021-10-25T18:49:15.851Z,159863.68,1635187592,full,ni_sequenzen,NI_Sequenzen,1,2,,,,,,,,,,,,
,Move,canvas.Screen,0_3_0_2_0_1,right,response,,159863,159863.22,159863.68,174575,14711.320000000007,174587,2021-10-25T18:49:30.598Z,174603.14,1635187592,full,ni_sequenzen,NI_Sequenzen,2,2,,,,,,,,,,,,
,Move,canvas.Screen,0_3_0_2_0_2,right,response,,174603,174602.66,174603.14,176857,2253.859999999986,176878,2021-10-25T18:49:32.889Z,176899.58,1635187592,full,ni_sequenzen,NI_Sequenzen,3,2,,,,,,,,,,,,
,Move,canvas.Screen,0_3_0_2_0_3,left,response,,176899,176899.12,176899.58,177560,660.4200000000128,177565,2021-10-25T18:49:33.576Z,177642.9,1635187592,full,ni_sequenzen,NI_Sequenzen,4,2,,,,,,,,,,,,
,Move,canvas.Screen,0_3_0_2_0_4,-999,skipped,,177582,,,177560,,177582,2021-10-25T18:49:33.592Z,177642.9,1635187592,full,ni_sequenzen,NI_Sequenzen,5,2,,,,,,,,,,,,
,Move,canvas.Screen,0_3_0_2_0_5,-999,skipped,,177588,,,177560,,177588,2021-10-25T18:49:33.600Z,177642.9,1635187592,full,ni_sequenzen,NI_Sequenzen,6,2,,,,,,,,,,,,
,Move,canvas.Screen,0_3_0_2_0_6,-999,skipped,,177596,,,177560,,177596,2021-10-25T18:49:33.607Z,177642.9,1635187592,full,ni_sequenzen,NI_Sequenzen,7,2,,,,,,,,,,,,
,Move,canvas.Screen,0_3_0_2_0_7,-999,skipped,,177601,,,177560,,177601,2021-10-25T18:49:33.611Z,177642.9,1635187592,full,ni_sequenzen,NI_Sequenzen,8,2,,,,,,,,,,,,
,Move,canvas.Screen,0_3_0_2_0_8,-999,skipped,,177605,,,177560,,177606,2021-10-25T18:49:33.616Z,177642.9,1635187592,full,ni_sequenzen,NI_Sequenzen,9,2,,,,,,,,,,,,
,Move,canvas.Screen,0_3_0_2_0_9,-999,skipped,,177611,,,177560,,177611,2021-10-25T18:49:33.621Z,177642.9,1635187592,full,ni_sequenzen,NI_Sequenzen,10,2,,,,,,,,,,,,
,Move,canvas.Screen,0_3_0_2_0_10,-999,skipped,,177615,,,177560,,177615,2021-10-25T18:49:33.626Z,177642.9,1635187592,full,ni_sequenzen,NI_Sequenzen,11,2,,,,,,,,,,,,
,Move,canvas.Screen,0_3_0_2_0_11,-999,skipped,,177620,,,177560,,177620,2021-10-25T18:49:33.631Z,177642.9,1635187592,full,ni_sequenzen,NI_Sequenzen,12,2,,,,,,,,,,,,
,Move,canvas.Screen,0_3_0_2_0_12,-999,skipped,,177624,,,177560,,177624,2021-10-25T18:49:33.635Z,177642.9,1635187592,full,ni_sequenzen,NI_Sequenzen,13,2,,,,,,,,,,,,
,Move,canvas.Screen,0_3_0_2_0_13,-999,skipped,,177629,,,177560,,177630,2021-10-25T18:49:33.640Z,177642.9,1635187592,full,ni_sequenzen,NI_Sequenzen,14,2,,,,,,,,,,,,
,Move,canvas.Screen,0_3_0_2_0_14,-999,skipped,,177636,,,177560,,177636,2021-10-25T18:49:33.647Z,177642.9,1635187592,full,ni_sequenzen,NI_Sequenzen,15,2,,,,,,,,,,,,
,Loop,flow.Loop,0_3_0_2_0,-999,completion,,144456,144462.66,144462.9,177560,33097.100000000006,177637,2021-10-25T18:49:33.647Z,177642.9,1635187592,full,ni_sequenzen,NI_Sequenzen,,2,,,,,,,,,,,,
,Feedback,canvas.Screen,0_3_0_2_1,,timeout,,177641,177640.72,177642.9,181626.02,4024.5599999999977,181630,2021-10-25T18:49:37.641Z,181667.46,1635187592,full,ni_sequenzen,NI_Sequenzen,,2,,,,,,,,,,,,
,Trial,flow.Sequence,0_3_0_2,,completion,,144419,144462.66,144462.9,181626.02,37163.119999999995,181633,2021-10-25T18:49:37.643Z,181675.94,1635187592,full,ni_sequenzen,NI_Sequenzen,,2,,,,,,,,,,,,
,Move,canvas.Screen,0_3_0_3_0_0,left,response,,181667,181667.46,181675.94,190153,8477.059999999998,190170,2021-10-25T18:49:46.180Z,190191.58,1635187592,full,ni_sequenzen,NI_Sequenzen,1,3,,,,,,,,,,,,
,Move,canvas.Screen,0_3_0_3_0_1,down,response,,190191,190191.28,190191.58,191310,1118.4200000000128,191321,2021-10-25T18:49:47.331Z,191341.68,1635187592,full,ni_sequenzen,NI_Sequenzen,2,3,,,,,,,,,,,,
,Move,canvas.Screen,0_3_0_3_0_2,down,response,,191340,191340.08,191341.68,191778,436.320000000007,191793,2021-10-25T18:49:47.803Z,191824.96,1635187592,full,ni_sequenzen,NI_Sequenzen,3,3,,,,,,,,,,,,
,Move,canvas.Screen,0_3_0_3_0_3,left,response,,191823,191822.58,191824.96,192153,328.04000000000815,192159,2021-10-25T18:49:48.169Z,192268.5,1635187592,full,ni_sequenzen,NI_Sequenzen,4,3,,,,,,,,,,,,
,Move,canvas.Screen,0_3_0_3_0_4,-999,skipped,,192170,,,192153,,192171,2021-10-25T18:49:48.182Z,192268.5,1635187592,full,ni_sequenzen,NI_Sequenzen,5,3,,,,,,,,,,,,
,Move,canvas.Screen,0_3_0_3_0_5,-999,skipped,,192180,,,192153,,192181,2021-10-25T18:49:48.191Z,192268.5,1635187592,full,ni_sequenzen,NI_Sequenzen,6,3,,,,,,,,,,,,
,Move,canvas.Screen,0_3_0_3_0_6,-999,skipped,,192189,,,192153,,192189,2021-10-25T18:49:48.199Z,192268.5,1635187592,full,ni_sequenzen,NI_Sequenzen,7,3,,,,,,,,,,,,
,Move,canvas.Screen,0_3_0_3_0_7,-999,skipped,,192196,,,192153,,192196,2021-10-25T18:49:48.207Z,192268.5,1635187592,full,ni_sequenzen,NI_Sequenzen,8,3,,,,,,,,,,,,
,Move,canvas.Screen,0_3_0_3_0_8,-999,skipped,,192228,,,192153,,192228,2021-10-25T18:49:48.239Z,192268.5,1635187592,full,ni_sequenzen,NI_Sequenzen,9,3,,,,,,,,,,,,
,Move,canvas.Screen,0_3_0_3_0_9,-999,skipped,,192234,,,192153,,192234,2021-10-25T18:49:48.245Z,192268.5,1635187592,full,ni_sequenzen,NI_Sequenzen,10,3,,,,,,,,,,,,
,Move,canvas.Screen,0_3_0_3_0_10,-999,skipped,,192241,,,192153,,192241,2021-10-25T18:49:48.251Z,192268.5,1635187592,full,ni_sequenzen,NI_Sequenzen,11,3,,,,,,,,,,,,
,Move,canvas.Screen,0_3_0_3_0_11,-999,skipped,,192245,,,192153,,192245,2021-10-25T18:49:48.257Z,192268.5,1635187592,full,ni_sequenzen,NI_Sequenzen,12,3,,,,,,,,,,,,
,Move,canvas.Screen,0_3_0_3_0_12,-999,skipped,,192251,,,192153,,192252,2021-10-25T18:49:48.262Z,192268.5,1635187592,full,ni_sequenzen,NI_Sequenzen,13,3,,,,,,,,,,,,
,Move,canvas.Screen,0_3_0_3_0_13,-999,skipped,,192257,,,192153,,192257,2021-10-25T18:49:48.268Z,192268.5,1635187592,full,ni_sequenzen,NI_Sequenzen,14,3,,,,,,,,,,,,
,Move,canvas.Screen,0_3_0_3_0_14,-999,skipped,,192263,,,192153,,192263,2021-10-25T18:49:48.274Z,192268.5,1635187592,full,ni_sequenzen,NI_Sequenzen,15,3,,,,,,,,,,,,
,Loop,flow.Loop,0_3_0_3_0,-999,completion,,181660,181667.46,181675.94,192153,10477.059999999998,192263,2021-10-25T18:49:48.274Z,192268.5,1635187592,full,ni_sequenzen,NI_Sequenzen,,3,,,,,,,,,,,,
,Feedback,canvas.Screen,0_3_0_3_1,,timeout,,192268,192268.14,192268.5,196257.96,4017.8399999999965,196259,2021-10-25T18:49:52.270Z,196286.34,1635187592,full,ni_sequenzen,NI_Sequenzen,,3,,,,,,,,,,,,
,Trial,flow.Sequence,0_3_0_3,,completion,,181637,181667.46,181675.94,196257.96,14582.01999999999,196259,2021-10-25T18:49:52.271Z,196291.24,1635187592,full,ni_sequenzen,NI_Sequenzen,,3,,,,,,,,,,,,
,Move,canvas.Screen,0_3_0_4_0_0,left,response,,196286,196286.34,196291.24,196732,440.7600000000093,196742,2021-10-25T18:49:52.753Z,196753.74,1635187592,full,ni_sequenzen,NI_Sequenzen,1,4,,,,,,,,,,,,
,Move,canvas.Screen,0_3_0_4_0_1,down,response,,196754,196753.48,196753.74,199983,3229.2600000000093,199995,2021-10-25T18:49:56.005Z,200032.86,1635187592,full,ni_sequenzen,NI_Sequenzen,2,4,,,,,,,,,,,,
,Move,canvas.Screen,0_3_0_4_0_2,down,response,,200032,200032.56,200032.86,200607,574.140000000014,200619,2021-10-25T18:49:56.630Z,200642.04,1635187592,full,ni_sequenzen,NI_Sequenzen,3,4,,,,,,,,,,,,
,Move,canvas.Screen,0_3_0_4_0_3,left,response,,200641,200641.2,200642.04,200904,261.95999999999185,200922,2021-10-25T18:49:56.933Z,201018.52,1635187592,full,ni_sequenzen,NI_Sequenzen,4,4,,,,,,,,,,,,
,Move,canvas.Screen,0_3_0_4_0_4,-999,skipped,,200945,,,200904,,200945,2021-10-25T18:49:56.957Z,201018.52,1635187592,full,ni_sequenzen,NI_Sequenzen,5,4,,,,,,,,,,,,
,Move,canvas.Screen,0_3_0_4_0_5,-999,skipped,,200957,,,200904,,200957,2021-10-25T18:49:56.967Z,201018.52,1635187592,full,ni_sequenzen,NI_Sequenzen,6,4,,,,,,,,,,,,
,Move,canvas.Screen,0_3_0_4_0_6,-999,skipped,,200966,,,200904,,200966,2021-10-25T18:49:56.977Z,201018.52,1635187592,full,ni_sequenzen,NI_Sequenzen,7,4,,,,,,,,,,,,
,Move,canvas.Screen,0_3_0_4_0_7,-999,skipped,,200973,,,200904,,200973,2021-10-25T18:49:56.983Z,201018.52,1635187592,full,ni_sequenzen,NI_Sequenzen,8,4,,,,,,,,,,,,
,Move,canvas.Screen,0_3_0_4_0_8,-999,skipped,,200981,,,200904,,200981,2021-10-25T18:49:56.993Z,201018.52,1635187592,full,ni_sequenzen,NI_Sequenzen,9,4,,,,,,,,,,,,
,Move,canvas.Screen,0_3_0_4_0_9,-999,skipped,,200986,,,200904,,200986,2021-10-25T18:49:56.997Z,201018.52,1635187592,full,ni_sequenzen,NI_Sequenzen,10,4,,,,,,,,,,,,
,Move,canvas.Screen,0_3_0_4_0_10,-999,skipped,,200992,,,200904,,200992,2021-10-25T18:49:57.003Z,201018.52,1635187592,full,ni_sequenzen,NI_Sequenzen,11,4,,,,,,,,,,,,
,Move,canvas.Screen,0_3_0_4_0_11,-999,skipped,,200997,,,200904,,200998,2021-10-25T18:49:57.008Z,201018.52,1635187592,full,ni_sequenzen,NI_Sequenzen,12,4,,,,,,,,,,,,
,Move,canvas.Screen,0_3_0_4_0_12,-999,skipped,,201003,,,200904,,201003,2021-10-25T18:49:57.014Z,201018.52,1635187592,full,ni_sequenzen,NI_Sequenzen,13,4,,,,,,,,,,,,
,Move,canvas.Screen,0_3_0_4_0_13,-999,skipped,,201007,,,200904,,201008,2021-10-25T18:49:57.018Z,201018.52,1635187592,full,ni_sequenzen,NI_Sequenzen,14,4,,,,,,,,,,,,
,Move,canvas.Screen,0_3_0_4_0_14,-999,skipped,,201013,,,200904,,201014,2021-10-25T18:49:57.024Z,201018.52,1635187592,full,ni_sequenzen,NI_Sequenzen,15,4,,,,,,,,,,,,
,Loop,flow.Loop,0_3_0_4_0,-999,completion,,196278,196286.34,196291.24,200904,4612.760000000009,201014,2021-10-25T18:49:57.024Z,201018.52,1635187592,full,ni_sequenzen,NI_Sequenzen,,4,,,,,,,,,,,,
,Feedback,canvas.Screen,0_3_0_4_1,,timeout,,201018,201018.16,201018.52,204992.86,4008.0599999999977,204997,2021-10-25T18:50:01.007Z,205026.58,1635187592,full,ni_sequenzen,NI_Sequenzen,,4,,,,,,,,,,,,
,Trial,flow.Sequence,0_3_0_4,,completion,,196260,196286.34,196291.24,204992.86,8701.619999999995,204998,2021-10-25T18:50:01.009Z,205040.4,1635187592,full,ni_sequenzen,NI_Sequenzen,,4,,,,,,,,,,,,
,Move,canvas.Screen,0_3_0_5_0_0,right,response,,205027,205026.58,205040.4,209560,4519.600000000006,209584,2021-10-25T18:50:05.596Z,209609.06,1635187592,full,ni_sequenzen,NI_Sequenzen,1,5,,,,,,,,,,,,
,Move,canvas.Screen,0_3_0_5_0_1,down,response,,209608,209608.68,209609.06,210357,747.9400000000023,210365,2021-10-25T18:50:06.376Z,210379.58,1635187592,full,ni_sequenzen,NI_Sequenzen,2,5,,,,,,,,,,,,
,Move,canvas.Screen,0_3_0_5_0_2,down,response,,210379,210379.28,210379.58,210888,508.4200000000128,210901,2021-10-25T18:50:06.911Z,210907.74,1635187592,full,ni_sequenzen,NI_Sequenzen,3,5,,,,,,,,,,,,
,Move,canvas.Screen,0_3_0_5_0_3,right,response,,210907,210907.46,210907.74,211622,714.2600000000093,211653,2021-10-25T18:50:07.663Z,211723.1,1635187592,full,ni_sequenzen,NI_Sequenzen,4,5,,,,,,,,,,,,
,Move,canvas.Screen,0_3_0_5_0_4,-999,skipped,,211659,,,211622,,211659,2021-10-25T18:50:07.670Z,211723.1,1635187592,full,ni_sequenzen,NI_Sequenzen,5,5,,,,,,,,,,,,
,Move,canvas.Screen,0_3_0_5_0_5,-999,skipped,,211666,,,211622,,211666,2021-10-25T18:50:07.677Z,211723.1,1635187592,full,ni_sequenzen,NI_Sequenzen,6,5,,,,,,,,,,,,
,Move,canvas.Screen,0_3_0_5_0_6,-999,skipped,,211671,,,211622,,211671,2021-10-25T18:50:07.682Z,211723.1,1635187592,full,ni_sequenzen,NI_Sequenzen,7,5,,,,,,,,,,,,
,Move,canvas.Screen,0_3_0_5_0_7,-999,skipped,,211676,,,211622,,211676,2021-10-25T18:50:07.687Z,211723.1,1635187592,full,ni_sequenzen,NI_Sequenzen,8,5,,,,,,,,,,,,
,Move,canvas.Screen,0_3_0_5_0_8,-999,skipped,,211682,,,211622,,211682,2021-10-25T18:50:07.693Z,211723.1,1635187592,full,ni_sequenzen,NI_Sequenzen,9,5,,,,,,,,,,,,
,Move,canvas.Screen,0_3_0_5_0_9,-999,skipped,,211687,,,211622,,211687,2021-10-25T18:50:07.697Z,211723.1,1635187592,full,ni_sequenzen,NI_Sequenzen,10,5,,,,,,,,,,,,
,Move,canvas.Screen,0_3_0_5_0_10,-999,skipped,,211691,,,211622,,211691,2021-10-25T18:50:07.703Z,211723.1,1635187592,full,ni_sequenzen,NI_Sequenzen,11,5,,,,,,,,,,,,
,Move,canvas.Screen,0_3_0_5_0_11,-999,skipped,,211696,,,211622,,211696,2021-10-25T18:50:07.706Z,211723.1,1635187592,full,ni_sequenzen,NI_Sequenzen,12,5,,,,,,,,,,,,
,Move,canvas.Screen,0_3_0_5_0_12,-999,skipped,,211704,,,211622,,211704,2021-10-25T18:50:07.715Z,211723.1,1635187592,full,ni_sequenzen,NI_Sequenzen,13,5,,,,,,,,,,,,
,Move,canvas.Screen,0_3_0_5_0_13,-999,skipped,,211709,,,211622,,211709,2021-10-25T18:50:07.721Z,211723.1,1635187592,full,ni_sequenzen,NI_Sequenzen,14,5,,,,,,,,,,,,
,Move,canvas.Screen,0_3_0_5_0_14,-999,skipped,,211716,,,211622,,211716,2021-10-25T18:50:07.727Z,211723.1,1635187592,full,ni_sequenzen,NI_Sequenzen,15,5,,,,,,,,,,,,
,Loop,flow.Loop,0_3_0_5_0,-999,completion,,205020,205026.58,205040.4,211622,6581.600000000006,211716,2021-10-25T18:50:07.727Z,211723.1,1635187592,full,ni_sequenzen,NI_Sequenzen,,5,,,,,,,,,,,,
,Feedback,canvas.Screen,0_3_0_5_1,,timeout,,211720,211720.38,211723.1,215706.32,4027.2999999999884,215707,2021-10-25T18:50:11.719Z,215750.4,1635187592,full,ni_sequenzen,NI_Sequenzen,,5,,,,,,,,,,,,
,Trial,flow.Sequence,0_3_0_5,,completion,,205002,205026.58,205040.4,215706.32,10665.920000000013,215708,2021-10-25T18:50:11.720Z,215756.12,1635187592,full,ni_sequenzen,NI_Sequenzen,,5,,,,,,,,,,,,
,Move,canvas.Screen,0_3_0_6_0_0,down,response,,215750,215750.4,215756.12,218122,2365.8800000000047,218137,2021-10-25T18:50:14.148Z,218152.98,1635187592,full,ni_sequenzen,NI_Sequenzen,1,6,,,,,,,,,,,,
,Move,canvas.Screen,0_3_0_6_0_1,left,response,,218152,218152.66,218152.98,221997,3844.0199999999895,222006,2021-10-25T18:50:18.015Z,222022.2,1635187592,full,ni_sequenzen,NI_Sequenzen,2,6,,,,,,,,,,,,
,Move,canvas.Screen,0_3_0_6_0_2,down,response,,222021,222020.94,222022.2,222310,287.79999999998836,222327,2021-10-25T18:50:18.337Z,222338.88,1635187592,full,ni_sequenzen,NI_Sequenzen,3,6,,,,,,,,,,,,
,Move,canvas.Screen,0_3_0_6_0_3,left,response,,222337,222336.54,222338.88,222638,299.11999999999534,222645,2021-10-25T18:50:18.656Z,222722.14,1635187592,full,ni_sequenzen,NI_Sequenzen,4,6,,,,,,,,,,,,
,Move,canvas.Screen,0_3_0_6_0_4,-999,skipped,,222662,,,222638,,222662,2021-10-25T18:50:18.672Z,222722.14,1635187592,full,ni_sequenzen,NI_Sequenzen,5,6,,,,,,,,,,,,
,Move,canvas.Screen,0_3_0_6_0_5,-999,skipped,,222669,,,222638,,222669,2021-10-25T18:50:18.679Z,222722.14,1635187592,full,ni_sequenzen,NI_Sequenzen,6,6,,,,,,,,,,,,
,Move,canvas.Screen,0_3_0_6_0_6,-999,skipped,,222675,,,222638,,222675,2021-10-25T18:50:18.685Z,222722.14,1635187592,full,ni_sequenzen,NI_Sequenzen,7,6,,,,,,,,,,,,
,Move,canvas.Screen,0_3_0_6_0_7,-999,skipped,,222678,,,222638,,222679,2021-10-25T18:50:18.690Z,222722.14,1635187592,full,ni_sequenzen,NI_Sequenzen,8,6,,,,,,,,,,,,
,Move,canvas.Screen,0_3_0_6_0_8,-999,skipped,,222684,,,222638,,222684,2021-10-25T18:50:18.695Z,222722.14,1635187592,full,ni_sequenzen,NI_Sequenzen,9,6,,,,,,,,,,,,
,Move,canvas.Screen,0_3_0_6_0_9,-999,skipped,,222690,,,222638,,222690,2021-10-25T18:50:18.701Z,222722.14,1635187592,full,ni_sequenzen,NI_Sequenzen,10,6,,,,,,,,,,,,
,Move,canvas.Screen,0_3_0_6_0_10,-999,skipped,,222695,,,222638,,222695,2021-10-25T18:50:18.706Z,222722.14,1635187592,full,ni_sequenzen,NI_Sequenzen,11,6,,,,,,,,,,,,
,Move,canvas.Screen,0_3_0_6_0_11,-999,skipped,,222700,,,222638,,222701,2021-10-25T18:50:18.711Z,222722.14,1635187592,full,ni_sequenzen,NI_Sequenzen,12,6,,,,,,,,,,,,
,Move,canvas.Screen,0_3_0_6_0_12,-999,skipped,,222706,,,222638,,222706,2021-10-25T18:50:18.717Z,222722.14,1635187592,full,ni_sequenzen,NI_Sequenzen,13,6,,,,,,,,,,,,
,Move,canvas.Screen,0_3_0_6_0_13,-999,skipped,,222711,,,222638,,222711,2021-10-25T18:50:18.723Z,222722.14,1635187592,full,ni_sequenzen,NI_Sequenzen,14,6,,,,,,,,,,,,
,Move,canvas.Screen,0_3_0_6_0_14,-999,skipped,,222716,,,222638,,222716,2021-10-25T18:50:18.727Z,222722.14,1635187592,full,ni_sequenzen,NI_Sequenzen,15,6,,,,,,,,,,,,
,Loop,flow.Loop,0_3_0_6_0,-999,completion,,215742,215750.4,215756.12,222638,6881.880000000005,222716,2021-10-25T18:50:18.727Z,222722.14,1635187592,full,ni_sequenzen,NI_Sequenzen,,6,,,,,,,,,,,,
,Feedback,canvas.Screen,0_3_0_6_1,,timeout,,222721,222721.02,222722.14,226705.26,3999.819999999978,226706,2021-10-25T18:50:22.716Z,226721.96,1635187592,full,ni_sequenzen,NI_Sequenzen,,6,,,,,,,,,,,,
,Trial,flow.Sequence,0_3_0_6,,completion,,215711,215750.4,215756.12,226705.26,10949.140000000014,226706,2021-10-25T18:50:22.717Z,226738.48,1635187592,full,ni_sequenzen,NI_Sequenzen,,6,,,,,,,,,,,,
,Move,canvas.Screen,0_3_0_7_0_0,down,response,,226717,226721.96,226738.48,232513,5774.5199999999895,232534,2021-10-25T18:50:28.545Z,232554.54,1635187592,full,ni_sequenzen,NI_Sequenzen,1,7,,,,,,,,,,,,
,Move,canvas.Screen,0_3_0_7_0_1,right,response,,232551,232551.2,232554.54,232966,411.45999999999185,232991,2021-10-25T18:50:29.002Z,233011.4,1635187592,full,ni_sequenzen,NI_Sequenzen,2,7,,,,,,,,,,,,
,Move,canvas.Screen,0_3_0_7_0_2,right,response,,233012,233011.1,233011.4,233278,266.6000000000058,233284,2021-10-25T18:50:29.295Z,233300.02,1635187592,full,ni_sequenzen,NI_Sequenzen,3,7,,,,,,,,,,,,
,Move,canvas.Screen,0_3_0_7_0_3,down,response,,233299,233299.72,233300.02,233544,243.98000000001048,233550,2021-10-25T18:50:29.561Z,233624.74,1635187592,full,ni_sequenzen,NI_Sequenzen,4,7,,,,,,,,,,,,
,Move,canvas.Screen,0_3_0_7_0_4,-999,skipped,,233558,,,233544,,233559,2021-10-25T18:50:29.570Z,233624.74,1635187592,full,ni_sequenzen,NI_Sequenzen,5,7,,,,,,,,,,,,
,Move,canvas.Screen,0_3_0_7_0_5,-999,skipped,,233566,,,233544,,233566,2021-10-25T18:50:29.576Z,233624.74,1635187592,full,ni_sequenzen,NI_Sequenzen,6,7,,,,,,,,,,,,
,Move,canvas.Screen,0_3_0_7_0_6,-999,skipped,,233572,,,233544,,233572,2021-10-25T18:50:29.583Z,233624.74,1635187592,full,ni_sequenzen,NI_Sequenzen,7,7,,,,,,,,,,,,
,Move,canvas.Screen,0_3_0_7_0_7,-999,skipped,,233578,,,233544,,233578,2021-10-25T18:50:29.590Z,233624.74,1635187592,full,ni_sequenzen,NI_Sequenzen,8,7,,,,,,,,,,,,
,Move,canvas.Screen,0_3_0_7_0_8,-999,skipped,,233585,,,233544,,233585,2021-10-25T18:50:29.595Z,233624.74,1635187592,full,ni_sequenzen,NI_Sequenzen,9,7,,,,,,,,,,,,
,Move,canvas.Screen,0_3_0_7_0_9,-999,skipped,,233589,,,233544,,233589,2021-10-25T18:50:29.600Z,233624.74,1635187592,full,ni_sequenzen,NI_Sequenzen,10,7,,,,,,,,,,,,
,Move,canvas.Screen,0_3_0_7_0_10,-999,skipped,,233595,,,233544,,233596,2021-10-25T18:50:29.606Z,233624.74,1635187592,full,ni_sequenzen,NI_Sequenzen,11,7,,,,,,,,,,,,
,Move,canvas.Screen,0_3_0_7_0_11,-999,skipped,,233603,,,233544,,233603,2021-10-25T18:50:29.614Z,233624.74,1635187592,full,ni_sequenzen,NI_Sequenzen,12,7,,,,,,,,,,,,
,Move,canvas.Screen,0_3_0_7_0_12,-999,skipped,,233608,,,233544,,233608,2021-10-25T18:50:29.619Z,233624.74,1635187592,full,ni_sequenzen,NI_Sequenzen,13,7,,,,,,,,,,,,
,Move,canvas.Screen,0_3_0_7_0_13,-999,skipped,,233614,,,233544,,233614,2021-10-25T18:50:29.624Z,233624.74,1635187592,full,ni_sequenzen,NI_Sequenzen,14,7,,,,,,,,,,,,
,Move,canvas.Screen,0_3_0_7_0_14,-999,skipped,,233619,,,233544,,233620,2021-10-25T18:50:29.631Z,233624.74,1635187592,full,ni_sequenzen,NI_Sequenzen,15,7,,,,,,,,,,,,
,Loop,flow.Loop,0_3_0_7_0,-999,completion,,226712,226721.96,226738.48,233544,6805.5199999999895,233621,2021-10-25T18:50:29.631Z,233624.74,1635187592,full,ni_sequenzen,NI_Sequenzen,,7,,,,,,,,,,,,
,Feedback,canvas.Screen,0_3_0_7_1,,timeout,,233624,233624.44,233624.74,237604.1,4032.040000000008,237606,2021-10-25T18:50:33.617Z,237656.78,1635187592,full,ni_sequenzen,NI_Sequenzen,,7,,,,,,,,,,,,
,Trial,flow.Sequence,0_3_0_7,,completion,,226707,226721.96,226738.48,237604.1,10865.619999999995,237607,2021-10-25T18:50:33.618Z,237670.72,1635187592,full,ni_sequenzen,NI_Sequenzen,,7,,,,,,,,,,,,
,Move,canvas.Screen,0_3_0_8_0_0,down,response,,237657,237656.78,237670.72,248841,11170.279999999999,248865,2021-10-25T18:50:44.876Z,248886.4,1635187592,full,ni_sequenzen,NI_Sequenzen,1,8,,,,,,,,,,,,
,Move,canvas.Screen,0_3_0_8_0_1,left,response,,248885,248884.88,248886.4,249904,1017.6000000000058,249919,2021-10-25T18:50:45.930Z,249952.88,1635187592,full,ni_sequenzen,NI_Sequenzen,2,8,,,,,,,,,,,,
,Move,canvas.Screen,0_3_0_8_0_2,down,response,,249951,249950.8,249952.88,250358,405.11999999999534,250366,2021-10-25T18:50:46.377Z,250383.16,1635187592,full,ni_sequenzen,NI_Sequenzen,3,8,,,,,,,,,,,,
,Move,canvas.Screen,0_3_0_8_0_3,left,response,,250383,250382.76,250383.16,250669,285.8399999999965,250687,2021-10-25T18:50:46.698Z,250769.58,1635187592,full,ni_sequenzen,NI_Sequenzen,4,8,,,,,,,,,,,,
,Move,canvas.Screen,0_3_0_8_0_4,-999,skipped,,250700,,,250669,,250700,2021-10-25T18:50:46.711Z,250769.58,1635187592,full,ni_sequenzen,NI_Sequenzen,5,8,,,,,,,,,,,,
,Move,canvas.Screen,0_3_0_8_0_5,-999,skipped,,250712,,,250669,,250712,2021-10-25T18:50:46.723Z,250769.58,1635187592,full,ni_sequenzen,NI_Sequenzen,6,8,,,,,,,,,,,,
,Move,canvas.Screen,0_3_0_8_0_6,-999,skipped,,250723,,,250669,,250723,2021-10-25T18:50:46.733Z,250769.58,1635187592,full,ni_sequenzen,NI_Sequenzen,7,8,,,,,,,,,,,,
,Move,canvas.Screen,0_3_0_8_0_7,-999,skipped,,250728,,,250669,,250728,2021-10-25T18:50:46.739Z,250769.58,1635187592,full,ni_sequenzen,NI_Sequenzen,8,8,,,,,,,,,,,,
,Move,canvas.Screen,0_3_0_8_0_8,-999,skipped,,250734,,,250669,,250734,2021-10-25T18:50:46.744Z,250769.58,1635187592,full,ni_sequenzen,NI_Sequenzen,9,8,,,,,,,,,,,,
,Move,canvas.Screen,0_3_0_8_0_9,-999,skipped,,250739,,,250669,,250739,2021-10-25T18:50:46.749Z,250769.58,1635187592,full,ni_sequenzen,NI_Sequenzen,10,8,,,,,,,,,,,,
,Move,canvas.Screen,0_3_0_8_0_10,-999,skipped,,250745,,,250669,,250745,2021-10-25T18:50:46.756Z,250769.58,1635187592,full,ni_sequenzen,NI_Sequenzen,11,8,,,,,,,,,,,,
,Move,canvas.Screen,0_3_0_8_0_11,-999,skipped,,250750,,,250669,,250750,2021-10-25T18:50:46.761Z,250769.58,1635187592,full,ni_sequenzen,NI_Sequenzen,12,8,,,,,,,,,,,,
,Move,canvas.Screen,0_3_0_8_0_12,-999,skipped,,250755,,,250669,,250755,2021-10-25T18:50:46.765Z,250769.58,1635187592,full,ni_sequenzen,NI_Sequenzen,13,8,,,,,,,,,,,,
,Move,canvas.Screen,0_3_0_8_0_13,-999,skipped,,250759,,,250669,,250759,2021-10-25T18:50:46.770Z,250769.58,1635187592,full,ni_sequenzen,NI_Sequenzen,14,8,,,,,,,,,,,,
,Move,canvas.Screen,0_3_0_8_0_14,-999,skipped,,250764,,,250669,,250764,2021-10-25T18:50:46.775Z,250769.58,1635187592,full,ni_sequenzen,NI_Sequenzen,15,8,,,,,,,,,,,,
,Loop,flow.Loop,0_3_0_8_0,-999,completion,,237650,237656.78,237670.72,250669,12998.279999999999,250764,2021-10-25T18:50:46.775Z,250769.58,1635187592,full,ni_sequenzen,NI_Sequenzen,,8,,,,,,,,,,,,
,Feedback,canvas.Screen,0_3_0_8_1,,timeout,,250768,250768,250769.58,254752.58,4010.6200000000244,254753,2021-10-25T18:50:50.764Z,254780.2,1635187592,full,ni_sequenzen,NI_Sequenzen,,8,,,,,,,,,,,,
,Trial,flow.Sequence,0_3_0_8,,completion,,237609,237656.78,237670.72,254752.58,17081.859999999986,254754,2021-10-25T18:50:50.764Z,254785.84,1635187592,full,ni_sequenzen,NI_Sequenzen,,8,,,,,,,,,,,,
,Move,canvas.Screen,0_3_0_9_0_0,down,response,,254780,254780.2,254785.84,258858,4072.1600000000035,258864,2021-10-25T18:50:54.875Z,258876.2,1635187592,full,ni_sequenzen,NI_Sequenzen,1,9,,,,,,,,,,,,
,Move,canvas.Screen,0_3_0_9_0_1,left,response,,258875,258875.76,258876.2,259169,292.79999999998836,259179,2021-10-25T18:50:55.190Z,259197.62,1635187592,full,ni_sequenzen,NI_Sequenzen,2,9,,,,,,,,,,,,
,Move,canvas.Screen,0_3_0_9_0_2,down,response,,259197,259197.28,259197.62,259561,363.38000000000466,259583,2021-10-25T18:50:55.593Z,259606.14,1635187592,full,ni_sequenzen,NI_Sequenzen,3,9,,,,,,,,,,,,
,Move,canvas.Screen,0_3_0_9_0_3,left,response,,259606,259605.88,259606.14,259888,281.85999999998603,259899,2021-10-25T18:50:55.910Z,259972.8,1635187592,full,ni_sequenzen,NI_Sequenzen,4,9,,,,,,,,,,,,
,Move,canvas.Screen,0_3_0_9_0_4,-999,skipped,,259913,,,259888,,259913,2021-10-25T18:50:55.924Z,259972.8,1635187592,full,ni_sequenzen,NI_Sequenzen,5,9,,,,,,,,,,,,
,Move,canvas.Screen,0_3_0_9_0_5,-999,skipped,,259919,,,259888,,259920,2021-10-25T18:50:55.931Z,259972.8,1635187592,full,ni_sequenzen,NI_Sequenzen,6,9,,,,,,,,,,,,
,Move,canvas.Screen,0_3_0_9_0_6,-999,skipped,,259925,,,259888,,259925,2021-10-25T18:50:55.936Z,259972.8,1635187592,full,ni_sequenzen,NI_Sequenzen,7,9,,,,,,,,,,,,
,Move,canvas.Screen,0_3_0_9_0_7,-999,skipped,,259929,,,259888,,259930,2021-10-25T18:50:55.940Z,259972.8,1635187592,full,ni_sequenzen,NI_Sequenzen,8,9,,,,,,,,,,,,
,Move,canvas.Screen,0_3_0_9_0_8,-999,skipped,,259934,,,259888,,259934,2021-10-25T18:50:55.944Z,259972.8,1635187592,full,ni_sequenzen,NI_Sequenzen,9,9,,,,,,,,,,,,
,Move,canvas.Screen,0_3_0_9_0_9,-999,skipped,,259939,,,259888,,259939,2021-10-25T18:50:55.950Z,259972.8,1635187592,full,ni_sequenzen,NI_Sequenzen,10,9,,,,,,,,,,,,
,Move,canvas.Screen,0_3_0_9_0_10,-999,skipped,,259944,,,259888,,259944,2021-10-25T18:50:55.954Z,259972.8,1635187592,full,ni_sequenzen,NI_Sequenzen,11,9,,,,,,,,,,,,
,Move,canvas.Screen,0_3_0_9_0_11,-999,skipped,,259951,,,259888,,259951,2021-10-25T18:50:55.962Z,259972.8,1635187592,full,ni_sequenzen,NI_Sequenzen,12,9,,,,,,,,,,,,
,Move,canvas.Screen,0_3_0_9_0_12,-999,skipped,,259957,,,259888,,259957,2021-10-25T18:50:55.968Z,259972.8,1635187592,full,ni_sequenzen,NI_Sequenzen,13,9,,,,,,,,,,,,
,Move,canvas.Screen,0_3_0_9_0_13,-999,skipped,,259961,,,259888,,259961,2021-10-25T18:50:55.972Z,259972.8,1635187592,full,ni_sequenzen,NI_Sequenzen,14,9,,,,,,,,,,,,
,Move,canvas.Screen,0_3_0_9_0_14,-999,skipped,,259968,,,259888,,259968,2021-10-25T18:50:55.978Z,259972.8,1635187592,full,ni_sequenzen,NI_Sequenzen,15,9,,,,,,,,,,,,
,Loop,flow.Loop,0_3_0_9_0,-999,completion,,254772,254780.2,254785.84,259888,5102.1600000000035,259968,2021-10-25T18:50:55.978Z,259972.8,1635187592,full,ni_sequenzen,NI_Sequenzen,,9,,,,,,,,,,,,
,Feedback,canvas.Screen,0_3_0_9_1,,timeout,,259972,259972.58,259972.8,263951.66,4050.9400000000023,263952,2021-10-25T18:50:59.963Z,264023.74,1635187592,full,ni_sequenzen,NI_Sequenzen,,9,,,,,,,,,,,,
,Trial,flow.Sequence,0_3_0_9,,completion,,254755,254780.2,254785.84,263951.66,9165.819999999978,263953,2021-10-25T18:50:59.964Z,264035.04,1635187592,full,ni_sequenzen,NI_Sequenzen,,9,,,,,,,,,,,,
,Block,flow.Loop,0_3_0,,completion,,89262,89279.04,89284.36,263951.66,174667.3,263954,2021-10-25T18:50:59.964Z,264035.04,1635187592,full,ni_sequenzen,NI_Sequenzen,,,,,,,,,,,,,,
,Training_II,flow.Sequence,0_3,,completion,,89231,89279.04,89284.36,263951.66,174667.3,263954,2021-10-25T18:50:59.965Z,264035.04,1635187592,full,ni_sequenzen,NI_Sequenzen,,,,,,,,,,,,,,
,Screen_1,canvas.Screen,0_4_0_0,cont,response,1,264024,264023.74,264035.04,267483,3447.960000000021,267493,2021-10-25T18:51:03.504Z,267501.3,1635187592,full,ni_sequenzen,NI_Sequenzen,,,,,,,,,,,,,,
,Screen_2,canvas.Screen,0_4_0_1,cont,response,1,267497,267497.22,267501.3,271357,3855.7000000000116,271366,2021-10-25T18:51:07.377Z,271451.06,1635187592,full,ni_sequenzen,NI_Sequenzen,,,,,,,,,,,,,,
,Screen_3,canvas.Screen,0_4_0_2,cont,response,1,271443,271442.96,271451.06,276747,5295.940000000002,276764,2021-10-25T18:51:12.775Z,276933.54,1635187592,full,ni_sequenzen,NI_Sequenzen,,,,,,,,,,,,,,
,Sequence,flow.Sequence,0_4_0,,completion,1,263976,264023.74,264035.04,276747,12711.960000000021,276765,2021-10-25T18:51:12.776Z,276933.54,1635187592,full,ni_sequenzen,NI_Sequenzen,,,,,,,,,,,,,,
,Screen_1,canvas.Screen,0_4_1_0,,skipped,2,276778,,,276778,,276778,2021-10-25T18:51:12.789Z,276933.54,1635187592,full,ni_sequenzen,NI_Sequenzen,,,,,,,,,,,,,,
,Screen_2,canvas.Screen,0_4_1_1,,skipped,2,276782,,,276778,,276782,2021-10-25T18:51:12.793Z,276933.54,1635187592,full,ni_sequenzen,NI_Sequenzen,,,,,,,,,,,,,,
,Screen_3,canvas.Screen,0_4_1_2,,skipped,2,276785,,,276778,,276785,2021-10-25T18:51:12.796Z,276933.54,1635187592,full,ni_sequenzen,NI_Sequenzen,,,,,,,,,,,,,,
,Sequence,flow.Sequence,0_4_1,,completion,2,276770,,,276778,,276786,2021-10-25T18:51:12.796Z,276933.54,1635187592,full,ni_sequenzen,NI_Sequenzen,,,,,,,,,,,,,,
,Screen_1,canvas.Screen,0_4_2_0,,skipped,3,276788,,,276788,,276788,2021-10-25T18:51:12.799Z,276933.54,1635187592,full,ni_sequenzen,NI_Sequenzen,,,,,,,,,,,,,,
,Screen_2,canvas.Screen,0_4_2_1,,skipped,3,276790,,,276788,,276791,2021-10-25T18:51:12.801Z,276933.54,1635187592,full,ni_sequenzen,NI_Sequenzen,,,,,,,,,,,,,,
,Screen_3,canvas.Screen,0_4_2_2,,skipped,3,276792,,,276788,,276792,2021-10-25T18:51:12.803Z,276933.54,1635187592,full,ni_sequenzen,NI_Sequenzen,,,,,,,,,,,,,,
,Sequence,flow.Sequence,0_4_2,,completion,3,276787,,,276788,,276792,2021-10-25T18:51:12.803Z,276933.54,1635187592,full,ni_sequenzen,NI_Sequenzen,,,,,,,,,,,,,,
,Screen_1,canvas.Screen,0_4_3_0,,skipped,4,276795,,,276795,,276795,2021-10-25T18:51:12.806Z,276933.54,1635187592,full,ni_sequenzen,NI_Sequenzen,,,,,,,,,,,,,,
,Screen_2,canvas.Screen,0_4_3_1,,skipped,4,276796,,,276795,,276797,2021-10-25T18:51:12.808Z,276933.54,1635187592,full,ni_sequenzen,NI_Sequenzen,,,,,,,,,,,,,,
,Screen_3,canvas.Screen,0_4_3_2,,skipped,4,276798,,,276795,,276798,2021-10-25T18:51:12.809Z,276933.54,1635187592,full,ni_sequenzen,NI_Sequenzen,,,,,,,,,,,,,,
,Sequence,flow.Sequence,0_4_3,,completion,4,276793,,,276795,,276798,2021-10-25T18:51:12.809Z,276933.54,1635187592,full,ni_sequenzen,NI_Sequenzen,,,,,,,,,,,,,,
,Screen_1,canvas.Screen,0_4_4_0,,skipped,5,276800,,,276800,,276800,2021-10-25T18:51:12.811Z,276933.54,1635187592,full,ni_sequenzen,NI_Sequenzen,,,,,,,,,,,,,,
,Screen_2,canvas.Screen,0_4_4_1,,skipped,5,276802,,,276800,,276802,2021-10-25T18:51:12.812Z,276933.54,1635187592,full,ni_sequenzen,NI_Sequenzen,,,,,,,,,,,,,,
,Screen_3,canvas.Screen,0_4_4_2,,skipped,5,276803,,,276800,,276803,2021-10-25T18:51:12.813Z,276933.54,1635187592,full,ni_sequenzen,NI_Sequenzen,,,,,,,,,,,,,,
,Sequence,flow.Sequence,0_4_4,,completion,5,276799,,,276800,,276803,2021-10-25T18:51:12.814Z,276933.54,1635187592,full,ni_sequenzen,NI_Sequenzen,,,,,,,,,,,,,,
,Screen_1,canvas.Screen,0_4_5_0,,skipped,6,276805,,,276805,,276805,2021-10-25T18:51:12.815Z,276933.54,1635187592,full,ni_sequenzen,NI_Sequenzen,,,,,,,,,,,,,,
,Screen_2,canvas.Screen,0_4_5_1,,skipped,6,276806,,,276805,,276806,2021-10-25T18:51:12.816Z,276933.54,1635187592,full,ni_sequenzen,NI_Sequenzen,,,,,,,,,,,,,,
,Screen_3,canvas.Screen,0_4_5_2,,skipped,6,276807,,,276805,,276807,2021-10-25T18:51:12.817Z,276933.54,1635187592,full,ni_sequenzen,NI_Sequenzen,,,,,,,,,,,,,,
,Sequence,flow.Sequence,0_4_5,,completion,6,276804,,,276805,,276807,2021-10-25T18:51:12.817Z,276933.54,1635187592,full,ni_sequenzen,NI_Sequenzen,,,,,,,,,,,,,,
,Screen_1,canvas.Screen,0_4_6_0,,skipped,7,276809,,,276809,,276809,2021-10-25T18:51:12.819Z,276933.54,1635187592,full,ni_sequenzen,NI_Sequenzen,,,,,,,,,,,,,,
,Screen_2,canvas.Screen,0_4_6_1,,skipped,7,276810,,,276809,,276810,2021-10-25T18:51:12.820Z,276933.54,1635187592,full,ni_sequenzen,NI_Sequenzen,,,,,,,,,,,,,,
,Screen_3,canvas.Screen,0_4_6_2,,skipped,7,276813,,,276809,,276813,2021-10-25T18:51:12.824Z,276933.54,1635187592,full,ni_sequenzen,NI_Sequenzen,,,,,,,,,,,,,,
,Sequence,flow.Sequence,0_4_6,,completion,7,276807,,,276809,,276813,2021-10-25T18:51:12.824Z,276933.54,1635187592,full,ni_sequenzen,NI_Sequenzen,,,,,,,,,,,,,,
,Screen_1,canvas.Screen,0_4_7_0,,skipped,8,276814,,,276814,,276815,2021-10-25T18:51:12.826Z,276933.54,1635187592,full,ni_sequenzen,NI_Sequenzen,,,,,,,,,,,,,,
,Screen_2,canvas.Screen,0_4_7_1,,skipped,8,276816,,,276814,,276816,2021-10-25T18:51:12.827Z,276933.54,1635187592,full,ni_sequenzen,NI_Sequenzen,,,,,,,,,,,,,,
,Screen_3,canvas.Screen,0_4_7_2,,skipped,8,276817,,,276814,,276817,2021-10-25T18:51:12.828Z,276933.54,1635187592,full,ni_sequenzen,NI_Sequenzen,,,,,,,,,,,,,,
,Sequence,flow.Sequence,0_4_7,,completion,8,276813,,,276814,,276817,2021-10-25T18:51:12.828Z,276933.54,1635187592,full,ni_sequenzen,NI_Sequenzen,,,,,,,,,,,,,,
,Screen_1,canvas.Screen,0_4_8_0,,skipped,9,276819,,,276819,,276819,2021-10-25T18:51:12.829Z,276933.54,1635187592,full,ni_sequenzen,NI_Sequenzen,,,,,,,,,,,,,,
,Screen_2,canvas.Screen,0_4_8_1,,skipped,9,276820,,,276819,,276820,2021-10-25T18:51:12.831Z,276933.54,1635187592,full,ni_sequenzen,NI_Sequenzen,,,,,,,,,,,,,,
,Screen_3,canvas.Screen,0_4_8_2,,skipped,9,276821,,,276819,,276822,2021-10-25T18:51:12.832Z,276933.54,1635187592,full,ni_sequenzen,NI_Sequenzen,,,,,,,,,,,,,,
,Sequence,flow.Sequence,0_4_8,,completion,9,276818,,,276819,,276822,2021-10-25T18:51:12.832Z,276933.54,1635187592,full,ni_sequenzen,NI_Sequenzen,,,,,,,,,,,,,,
,Screen_1,canvas.Screen,0_4_9_0,,skipped,10,276823,,,276823,,276823,2021-10-25T18:51:12.834Z,276933.54,1635187592,full,ni_sequenzen,NI_Sequenzen,,,,,,,,,,,,,,
,Screen_2,canvas.Screen,0_4_9_1,,skipped,10,276825,,,276823,,276825,2021-10-25T18:51:12.835Z,276933.54,1635187592,full,ni_sequenzen,NI_Sequenzen,,,,,,,,,,,,,,
,Screen_3,canvas.Screen,0_4_9_2,,skipped,10,276825,,,276823,,276825,2021-10-25T18:51:12.836Z,276933.54,1635187592,full,ni_sequenzen,NI_Sequenzen,,,,,,,,,,,,,,
,Sequence,flow.Sequence,0_4_9,,completion,10,276822,,,276823,,276825,2021-10-25T18:51:12.836Z,276933.54,1635187592,full,ni_sequenzen,NI_Sequenzen,,,,,,,,,,,,,,
,Screen_1,canvas.Screen,0_4_10_0,,skipped,11,276827,,,276827,,276827,2021-10-25T18:51:12.838Z,276933.54,1635187592,full,ni_sequenzen,NI_Sequenzen,,,,,,,,,,,,,,
,Screen_2,canvas.Screen,0_4_10_1,,skipped,11,276828,,,276827,,276829,2021-10-25T18:51:12.839Z,276933.54,1635187592,full,ni_sequenzen,NI_Sequenzen,,,,,,,,,,,,,,
,Screen_3,canvas.Screen,0_4_10_2,,skipped,11,276829,,,276827,,276830,2021-10-25T18:51:12.840Z,276933.54,1635187592,full,ni_sequenzen,NI_Sequenzen,,,,,,,,,,,,,,
,Sequence,flow.Sequence,0_4_10,,completion,11,276826,,,276827,,276830,2021-10-25T18:51:12.841Z,276933.54,1635187592,full,ni_sequenzen,NI_Sequenzen,,,,,,,,,,,,,,
,Screen_1,canvas.Screen,0_4_11_0,,skipped,12,276832,,,276832,,276832,2021-10-25T18:51:12.843Z,276933.54,1635187592,full,ni_sequenzen,NI_Sequenzen,,,,,,,,,,,,,,
,Screen_2,canvas.Screen,0_4_11_1,,skipped,12,276833,,,276832,,276833,2021-10-25T18:51:12.843Z,276933.54,1635187592,full,ni_sequenzen,NI_Sequenzen,,,,,,,,,,,,,,
,Screen_3,canvas.Screen,0_4_11_2,,skipped,12,276834,,,276832,,276834,2021-10-25T18:51:12.845Z,276933.54,1635187592,full,ni_sequenzen,NI_Sequenzen,,,,,,,,,,,,,,
,Sequence,flow.Sequence,0_4_11,,completion,12,276831,,,276832,,276834,2021-10-25T18:51:12.845Z,276933.54,1635187592,full,ni_sequenzen,NI_Sequenzen,,,,,,,,,,,,,,
,Screen_1,canvas.Screen,0_4_12_0,,skipped,13,276836,,,276836,,276836,2021-10-25T18:51:12.847Z,276933.54,1635187592,full,ni_sequenzen,NI_Sequenzen,,,,,,,,,,,,,,
,Screen_2,canvas.Screen,0_4_12_1,,skipped,13,276837,,,276836,,276837,2021-10-25T18:51:12.848Z,276933.54,1635187592,full,ni_sequenzen,NI_Sequenzen,,,,,,,,,,,,,,
,Screen_3,canvas.Screen,0_4_12_2,,skipped,13,276838,,,276836,,276838,2021-10-25T18:51:12.849Z,276933.54,1635187592,full,ni_sequenzen,NI_Sequenzen,,,,,,,,,,,,,,
,Sequence,flow.Sequence,0_4_12,,completion,13,276835,,,276836,,276838,2021-10-25T18:51:12.849Z,276933.54,1635187592,full,ni_sequenzen,NI_Sequenzen,,,,,,,,,,,,,,
,Screen_1,canvas.Screen,0_4_13_0,,skipped,14,276840,,,276841,,276841,2021-10-25T18:51:12.851Z,276933.54,1635187592,full,ni_sequenzen,NI_Sequenzen,,,,,,,,,,,,,,
,Screen_2,canvas.Screen,0_4_13_1,,skipped,14,276842,,,276841,,276842,2021-10-25T18:51:12.852Z,276933.54,1635187592,full,ni_sequenzen,NI_Sequenzen,,,,,,,,,,,,,,
,Screen_3,canvas.Screen,0_4_13_2,,skipped,14,276843,,,276841,,276843,2021-10-25T18:51:12.853Z,276933.54,1635187592,full,ni_sequenzen,NI_Sequenzen,,,,,,,,,,,,,,
,Sequence,flow.Sequence,0_4_13,,completion,14,276839,,,276841,,276843,2021-10-25T18:51:12.854Z,276933.54,1635187592,full,ni_sequenzen,NI_Sequenzen,,,,,,,,,,,,,,
,Screen_1,canvas.Screen,0_4_14_0,,skipped,15,276845,,,276845,,276845,2021-10-25T18:51:12.855Z,276933.54,1635187592,full,ni_sequenzen,NI_Sequenzen,,,,,,,,,,,,,,
,Screen_2,canvas.Screen,0_4_14_1,,skipped,15,276846,,,276845,,276846,2021-10-25T18:51:12.857Z,276933.54,1635187592,full,ni_sequenzen,NI_Sequenzen,,,,,,,,,,,,,,
,Screen_3,canvas.Screen,0_4_14_2,,skipped,15,276847,,,276845,,276847,2021-10-25T18:51:12.858Z,276933.54,1635187592,full,ni_sequenzen,NI_Sequenzen,,,,,,,,,,,,,,
,Sequence,flow.Sequence,0_4_14,,completion,15,276844,,,276845,,276847,2021-10-25T18:51:12.858Z,276933.54,1635187592,full,ni_sequenzen,NI_Sequenzen,,,,,,,,,,,,,,
,Screen_1,canvas.Screen,0_4_15_0,,skipped,16,276849,,,276849,,276849,2021-10-25T18:51:12.859Z,276933.54,1635187592,full,ni_sequenzen,NI_Sequenzen,,,,,,,,,,,,,,
,Screen_2,canvas.Screen,0_4_15_1,,skipped,16,276850,,,276849,,276850,2021-10-25T18:51:12.860Z,276933.54,1635187592,full,ni_sequenzen,NI_Sequenzen,,,,,,,,,,,,,,
,Screen_3,canvas.Screen,0_4_15_2,,skipped,16,276852,,,276849,,276852,2021-10-25T18:51:12.862Z,276933.54,1635187592,full,ni_sequenzen,NI_Sequenzen,,,,,,,,,,,,,,
,Sequence,flow.Sequence,0_4_15,,completion,16,276848,,,276849,,276852,2021-10-25T18:51:12.862Z,276933.54,1635187592,full,ni_sequenzen,NI_Sequenzen,,,,,,,,,,,,,,
,Screen_1,canvas.Screen,0_4_16_0,,skipped,17,276853,,,276853,,276853,2021-10-25T18:51:12.864Z,276933.54,1635187592,full,ni_sequenzen,NI_Sequenzen,,,,,,,,,,,,,,
,Screen_2,canvas.Screen,0_4_16_1,,skipped,17,276855,,,276853,,276855,2021-10-25T18:51:12.865Z,276933.54,1635187592,full,ni_sequenzen,NI_Sequenzen,,,,,,,,,,,,,,
,Screen_3,canvas.Screen,0_4_16_2,,skipped,17,276855,,,276853,,276855,2021-10-25T18:51:12.866Z,276933.54,1635187592,full,ni_sequenzen,NI_Sequenzen,,,,,,,,,,,,,,
,Sequence,flow.Sequence,0_4_16,,completion,17,276852,,,276853,,276855,2021-10-25T18:51:12.866Z,276933.54,1635187592,full,ni_sequenzen,NI_Sequenzen,,,,,,,,,,,,,,
,Screen_1,canvas.Screen,0_4_17_0,,skipped,18,276857,,,276857,,276857,2021-10-25T18:51:12.868Z,276933.54,1635187592,full,ni_sequenzen,NI_Sequenzen,,,,,,,,,,,,,,
,Screen_2,canvas.Screen,0_4_17_1,,skipped,18,276860,,,276857,,276860,2021-10-25T18:51:12.870Z,276933.54,1635187592,full,ni_sequenzen,NI_Sequenzen,,,,,,,,,,,,,,
,Screen_3,canvas.Screen,0_4_17_2,,skipped,18,276861,,,276857,,276861,2021-10-25T18:51:12.872Z,276933.54,1635187592,full,ni_sequenzen,NI_Sequenzen,,,,,,,,,,,,,,
,Sequence,flow.Sequence,0_4_17,,completion,18,276856,,,276857,,276861,2021-10-25T18:51:12.872Z,276933.54,1635187592,full,ni_sequenzen,NI_Sequenzen,,,,,,,,,,,,,,
,Screen_1,canvas.Screen,0_4_18_0,,skipped,19,276863,,,276863,,276863,2021-10-25T18:51:12.873Z,276933.54,1635187592,full,ni_sequenzen,NI_Sequenzen,,,,,,,,,,,,,,
,Screen_2,canvas.Screen,0_4_18_1,,skipped,19,276864,,,276863,,276864,2021-10-25T18:51:12.875Z,276933.54,1635187592,full,ni_sequenzen,NI_Sequenzen,,,,,,,,,,,,,,
