meta,sender,sender_type,sender_id,response,ended_on,instrCount,time_run,time_render,time_show,time_end,duration,time_commit,timestamp,time_switch,openLabId,type,task,project,move,trialN,blockN_Train,blockN,moveCount,currPP,points,movesTrial,visitedFields,diff,reward,Strategie,Zweck,Probleme
[object Object],Screen_1,canvas.Screen,0_0_0_0,cont,response,1,722.1999999880791,733.903,750.557,60907.19999998808,60156.64299998808,60909.39999997616,2021-10-31T17:56:47.842Z,61019.496,1635702814,full,ni_sequenzen,NI_Sequenzen,,,,,,,,,,,,,,
,Screen_2,canvas.Screen,0_0_0_1,cont,response,1,61016,61002.805,61019.496,85654.80000001192,24635.30400001192,85655.30000001192,2021-10-31T17:57:12.588Z,85737.084,1635702814,full,ni_sequenzen,NI_Sequenzen,,,,,,,,,,,,,,
,Screen_3,canvas.Screen,0_0_0_2,cont,response,1,85727.89999997616,85720.365,85737.084,99775.89999997616,14038.815999976156,99776.30000001192,2021-10-31T17:57:26.709Z,99787.64,1635702814,full,ni_sequenzen,NI_Sequenzen,,,,,,,,,,,,,,
,Screen_4,canvas.Screen,0_0_0_3,cont,response,1,99779,99770.768,99787.64,105404.5,5616.860000000001,105405.10000002384,2021-10-31T17:57:32.338Z,105571.14,1635702814,full,ni_sequenzen,NI_Sequenzen,,,,,,,,,,,,,,
,Sequence,flow.Sequence,0_0_0,,completion,1,675.3000000119209,733.903,750.557,105404.5,104653.943,105406.89999997616,2021-10-31T17:57:32.339Z,105571.14,1635702814,full,ni_sequenzen,NI_Sequenzen,,,,,,,,,,,,,,
,Screen_1,canvas.Screen,0_0_1_0,,skipped,2,105408.5,,,105408.5,,105408.60000002384,2021-10-31T17:57:32.341Z,105571.14,1635702814,full,ni_sequenzen,NI_Sequenzen,,,,,,,,,,,,,,
,Screen_2,canvas.Screen,0_0_1_1,,skipped,2,105414.80000001192,,,105408.5,,105414.89999997616,2021-10-31T17:57:32.347Z,105571.14,1635702814,full,ni_sequenzen,NI_Sequenzen,,,,,,,,,,,,,,
,Screen_3,canvas.Screen,0_0_1_2,,skipped,2,105416.10000002384,,,105408.5,,105416.19999998808,2021-10-31T17:57:32.349Z,105571.14,1635702814,full,ni_sequenzen,NI_Sequenzen,,,,,,,,,,,,,,
,Screen_4,canvas.Screen,0_0_1_3,,skipped,2,105416.89999997616,,,105408.5,,105417.10000002384,2021-10-31T17:57:32.350Z,105571.14,1635702814,full,ni_sequenzen,NI_Sequenzen,,,,,,,,,,,,,,
,Sequence,flow.Sequence,0_0_1,,completion,2,105407.5,,,105408.5,,105417.30000001192,2021-10-31T17:57:32.350Z,105571.14,1635702814,full,ni_sequenzen,NI_Sequenzen,,,,,,,,,,,,,,
,Screen_1,canvas.Screen,0_0_2_0,,skipped,3,105418.19999998808,,,105418.19999998808,,105418.30000001192,2021-10-31T17:57:32.351Z,105571.14,1635702814,full,ni_sequenzen,NI_Sequenzen,,,,,,,,,,,,,,
,Screen_2,canvas.Screen,0_0_2_1,,skipped,3,105418.89999997616,,,105418.19999998808,,105419,2021-10-31T17:57:32.351Z,105571.14,1635702814,full,ni_sequenzen,NI_Sequenzen,,,,,,,,,,,,,,
,Screen_3,canvas.Screen,0_0_2_2,,skipped,3,105419.69999998808,,,105418.19999998808,,105419.80000001192,2021-10-31T17:57:32.352Z,105571.14,1635702814,full,ni_sequenzen,NI_Sequenzen,,,,,,,,,,,,,,
,Screen_4,canvas.Screen,0_0_2_3,,skipped,3,105420.39999997616,,,105418.19999998808,,105420.5,2021-10-31T17:57:32.353Z,105571.14,1635702814,full,ni_sequenzen,NI_Sequenzen,,,,,,,,,,,,,,
,Sequence,flow.Sequence,0_0_2,,completion,3,105417.60000002384,,,105418.19999998808,,105420.60000002384,2021-10-31T17:57:32.353Z,105571.14,1635702814,full,ni_sequenzen,NI_Sequenzen,,,,,,,,,,,,,,
,Screen_1,canvas.Screen,0_0_3_0,,skipped,4,105421.5,,,105421.5,,105421.5,2021-10-31T17:57:32.354Z,105571.14,1635702814,full,ni_sequenzen,NI_Sequenzen,,,,,,,,,,,,,,
,Screen_2,canvas.Screen,0_0_3_1,,skipped,4,105422.19999998808,,,105421.5,,105422.39999997616,2021-10-31T17:57:32.355Z,105571.14,1635702814,full,ni_sequenzen,NI_Sequenzen,,,,,,,,,,,,,,
,Screen_3,canvas.Screen,0_0_3_2,,skipped,4,105423.19999998808,,,105421.5,,105423.19999998808,2021-10-31T17:57:32.356Z,105571.14,1635702814,full,ni_sequenzen,NI_Sequenzen,,,,,,,,,,,,,,
,Screen_4,canvas.Screen,0_0_3_3,,skipped,4,105423.80000001192,,,105421.5,,105423.89999997616,2021-10-31T17:57:32.356Z,105571.14,1635702814,full,ni_sequenzen,NI_Sequenzen,,,,,,,,,,,,,,
,Sequence,flow.Sequence,0_0_3,,completion,4,105420.80000001192,,,105421.5,,105423.89999997616,2021-10-31T17:57:32.356Z,105571.14,1635702814,full,ni_sequenzen,NI_Sequenzen,,,,,,,,,,,,,,
,Screen_1,canvas.Screen,0_0_4_0,,skipped,5,105424.80000001192,,,105424.80000001192,,105424.89999997616,2021-10-31T17:57:32.357Z,105571.14,1635702814,full,ni_sequenzen,NI_Sequenzen,,,,,,,,,,,,,,
,Screen_2,canvas.Screen,0_0_4_1,,skipped,5,105425.5,,,105424.80000001192,,105425.5,2021-10-31T17:57:32.358Z,105571.14,1635702814,full,ni_sequenzen,NI_Sequenzen,,,,,,,,,,,,,,
,Screen_3,canvas.Screen,0_0_4_2,,skipped,5,105426.30000001192,,,105424.80000001192,,105426.30000001192,2021-10-31T17:57:32.359Z,105571.14,1635702814,full,ni_sequenzen,NI_Sequenzen,,,,,,,,,,,,,,
,Screen_4,canvas.Screen,0_0_4_3,,skipped,5,105426.89999997616,,,105424.80000001192,,105426.89999997616,2021-10-31T17:57:32.359Z,105571.14,1635702814,full,ni_sequenzen,NI_Sequenzen,,,,,,,,,,,,,,
,Sequence,flow.Sequence,0_0_4,,completion,5,105424.30000001192,,,105424.80000001192,,105427,2021-10-31T17:57:32.360Z,105571.14,1635702814,full,ni_sequenzen,NI_Sequenzen,,,,,,,,,,,,,,
,Screen_1,canvas.Screen,0_0_5_0,,skipped,6,105428.69999998808,,,105428.69999998808,,105428.80000001192,2021-10-31T17:57:32.361Z,105571.14,1635702814,full,ni_sequenzen,NI_Sequenzen,,,,,,,,,,,,,,
,Screen_2,canvas.Screen,0_0_5_1,,skipped,6,105429.30000001192,,,105428.69999998808,,105429.39999997616,2021-10-31T17:57:32.362Z,105571.14,1635702814,full,ni_sequenzen,NI_Sequenzen,,,,,,,,,,,,,,
,Screen_3,canvas.Screen,0_0_5_2,,skipped,6,105430.19999998808,,,105428.69999998808,,105430.19999998808,2021-10-31T17:57:32.363Z,105571.14,1635702814,full,ni_sequenzen,NI_Sequenzen,,,,,,,,,,,,,,
,Screen_4,canvas.Screen,0_0_5_3,,skipped,6,105430.89999997616,,,105428.69999998808,,105431,2021-10-31T17:57:32.363Z,105571.14,1635702814,full,ni_sequenzen,NI_Sequenzen,,,,,,,,,,,,,,
,Sequence,flow.Sequence,0_0_5,,completion,6,105428.10000002384,,,105428.69999998808,,105431.10000002384,2021-10-31T17:57:32.364Z,105571.14,1635702814,full,ni_sequenzen,NI_Sequenzen,,,,,,,,,,,,,,
,Screen_1,canvas.Screen,0_0_6_0,,skipped,7,105431.89999997616,,,105431.89999997616,,105432,2021-10-31T17:57:32.364Z,105571.14,1635702814,full,ni_sequenzen,NI_Sequenzen,,,,,,,,,,,,,,
,Screen_2,canvas.Screen,0_0_6_1,,skipped,7,105432.60000002384,,,105431.89999997616,,105432.60000002384,2021-10-31T17:57:32.365Z,105571.14,1635702814,full,ni_sequenzen,NI_Sequenzen,,,,,,,,,,,,,,
,Screen_3,canvas.Screen,0_0_6_2,,skipped,7,105433.39999997616,,,105431.89999997616,,105433.39999997616,2021-10-31T17:57:32.366Z,105571.14,1635702814,full,ni_sequenzen,NI_Sequenzen,,,,,,,,,,,,,,
,Screen_4,canvas.Screen,0_0_6_3,,skipped,7,105434,,,105431.89999997616,,105434.10000002384,2021-10-31T17:57:32.367Z,105571.14,1635702814,full,ni_sequenzen,NI_Sequenzen,,,,,,,,,,,,,,
,Sequence,flow.Sequence,0_0_6,,completion,7,105431.30000001192,,,105431.89999997616,,105434.19999998808,2021-10-31T17:57:32.367Z,105571.14,1635702814,full,ni_sequenzen,NI_Sequenzen,,,,,,,,,,,,,,
,Screen_1,canvas.Screen,0_0_7_0,,skipped,8,105435.10000002384,,,105435.10000002384,,105435.30000001192,2021-10-31T17:57:32.368Z,105571.14,1635702814,full,ni_sequenzen,NI_Sequenzen,,,,,,,,,,,,,,
,Screen_2,canvas.Screen,0_0_7_1,,skipped,8,105435.80000001192,,,105435.10000002384,,105435.89999997616,2021-10-31T17:57:32.368Z,105571.14,1635702814,full,ni_sequenzen,NI_Sequenzen,,,,,,,,,,,,,,
,Screen_3,canvas.Screen,0_0_7_2,,skipped,8,105436.80000001192,,,105435.10000002384,,105436.89999997616,2021-10-31T17:57:32.369Z,105571.14,1635702814,full,ni_sequenzen,NI_Sequenzen,,,,,,,,,,,,,,
,Screen_4,canvas.Screen,0_0_7_3,,skipped,8,105438,,,105435.10000002384,,105438.10000002384,2021-10-31T17:57:32.371Z,105571.14,1635702814,full,ni_sequenzen,NI_Sequenzen,,,,,,,,,,,,,,
,Sequence,flow.Sequence,0_0_7,,completion,8,105434.5,,,105435.10000002384,,105438.19999998808,2021-10-31T17:57:32.371Z,105571.14,1635702814,full,ni_sequenzen,NI_Sequenzen,,,,,,,,,,,,,,
,Screen_1,canvas.Screen,0_0_8_0,,skipped,9,105439.80000001192,,,105439.80000001192,,105439.89999997616,2021-10-31T17:57:32.372Z,105571.14,1635702814,full,ni_sequenzen,NI_Sequenzen,,,,,,,,,,,,,,
,Screen_2,canvas.Screen,0_0_8_1,,skipped,9,105440.60000002384,,,105439.80000001192,,105440.60000002384,2021-10-31T17:57:32.373Z,105571.14,1635702814,full,ni_sequenzen,NI_Sequenzen,,,,,,,,,,,,,,
,Screen_3,canvas.Screen,0_0_8_2,,skipped,9,105441.30000001192,,,105439.80000001192,,105441.30000001192,2021-10-31T17:57:32.374Z,105571.14,1635702814,full,ni_sequenzen,NI_Sequenzen,,,,,,,,,,,,,,
,Screen_4,canvas.Screen,0_0_8_3,,skipped,9,105442,,,105439.80000001192,,105442,2021-10-31T17:57:32.375Z,105571.14,1635702814,full,ni_sequenzen,NI_Sequenzen,,,,,,,,,,,,,,
,Sequence,flow.Sequence,0_0_8,,completion,9,105438.60000002384,,,105439.80000001192,,105442.19999998808,2021-10-31T17:57:32.375Z,105571.14,1635702814,full,ni_sequenzen,NI_Sequenzen,,,,,,,,,,,,,,
,Screen_1,canvas.Screen,0_0_9_0,,skipped,10,105443,,,105443,,105443.10000002384,2021-10-31T17:57:32.376Z,105571.14,1635702814,full,ni_sequenzen,NI_Sequenzen,,,,,,,,,,,,,,
,Screen_2,canvas.Screen,0_0_9_1,,skipped,10,105443.69999998808,,,105443,,105443.69999998808,2021-10-31T17:57:32.376Z,105571.14,1635702814,full,ni_sequenzen,NI_Sequenzen,,,,,,,,,,,,,,
,Screen_3,canvas.Screen,0_0_9_2,,skipped,10,105444.5,,,105443,,105444.60000002384,2021-10-31T17:57:32.377Z,105571.14,1635702814,full,ni_sequenzen,NI_Sequenzen,,,,,,,,,,,,,,
,Screen_4,canvas.Screen,0_0_9_3,,skipped,10,105445.19999998808,,,105443,,105445.30000001192,2021-10-31T17:57:32.378Z,105571.14,1635702814,full,ni_sequenzen,NI_Sequenzen,,,,,,,,,,,,,,
,Sequence,flow.Sequence,0_0_9,,completion,10,105442.39999997616,,,105443,,105445.39999997616,2021-10-31T17:57:32.378Z,105571.14,1635702814,full,ni_sequenzen,NI_Sequenzen,,,,,,,,,,,,,,
,Screen_1,canvas.Screen,0_0_10_0,,skipped,11,105446.30000001192,,,105446.30000001192,,105446.30000001192,2021-10-31T17:57:32.379Z,105571.14,1635702814,full,ni_sequenzen,NI_Sequenzen,,,,,,,,,,,,,,
,Screen_2,canvas.Screen,0_0_10_1,,skipped,11,105447,,,105446.30000001192,,105447.10000002384,2021-10-31T17:57:32.380Z,105571.14,1635702814,full,ni_sequenzen,NI_Sequenzen,,,,,,,,,,,,,,
,Screen_3,canvas.Screen,0_0_10_2,,skipped,11,105447.80000001192,,,105446.30000001192,,105447.89999997616,2021-10-31T17:57:32.380Z,105571.14,1635702814,full,ni_sequenzen,NI_Sequenzen,,,,,,,,,,,,,,
,Screen_4,canvas.Screen,0_0_10_3,,skipped,11,105448.5,,,105446.30000001192,,105448.60000002384,2021-10-31T17:57:32.381Z,105571.14,1635702814,full,ni_sequenzen,NI_Sequenzen,,,,,,,,,,,,,,
,Sequence,flow.Sequence,0_0_10,,completion,11,105445.60000002384,,,105446.30000001192,,105448.69999998808,2021-10-31T17:57:32.381Z,105571.14,1635702814,full,ni_sequenzen,NI_Sequenzen,,,,,,,,,,,,,,
,Screen_1,canvas.Screen,0_0_11_0,,skipped,12,105449.5,,,105449.60000002384,,105449.60000002384,2021-10-31T17:57:32.382Z,105571.14,1635702814,full,ni_sequenzen,NI_Sequenzen,,,,,,,,,,,,,,
,Screen_2,canvas.Screen,0_0_11_1,,skipped,12,105451.30000001192,,,105449.60000002384,,105451.39999997616,2021-10-31T17:57:32.384Z,105571.14,1635702814,full,ni_sequenzen,NI_Sequenzen,,,,,,,,,,,,,,
,Screen_3,canvas.Screen,0_0_11_2,,skipped,12,105452.89999997616,,,105449.60000002384,,105452.89999997616,2021-10-31T17:57:32.385Z,105571.14,1635702814,full,ni_sequenzen,NI_Sequenzen,,,,,,,,,,,,,,
,Screen_4,canvas.Screen,0_0_11_3,,skipped,12,105453.69999998808,,,105449.60000002384,,105453.69999998808,2021-10-31T17:57:32.386Z,105571.14,1635702814,full,ni_sequenzen,NI_Sequenzen,,,,,,,,,,,,,,
,Sequence,flow.Sequence,0_0_11,,completion,12,105449,,,105449.60000002384,,105453.89999997616,2021-10-31T17:57:32.386Z,105571.14,1635702814,full,ni_sequenzen,NI_Sequenzen,,,,,,,,,,,,,,
,Screen_1,canvas.Screen,0_0_12_0,,skipped,13,105454.80000001192,,,105454.80000001192,,105454.80000001192,2021-10-31T17:57:32.387Z,105571.14,1635702814,full,ni_sequenzen,NI_Sequenzen,,,,,,,,,,,,,,
,Screen_2,canvas.Screen,0_0_12_1,,skipped,13,105455.5,,,105454.80000001192,,105455.5,2021-10-31T17:57:32.388Z,105571.14,1635702814,full,ni_sequenzen,NI_Sequenzen,,,,,,,,,,,,,,
,Screen_3,canvas.Screen,0_0_12_2,,skipped,13,105456.30000001192,,,105454.80000001192,,105456.30000001192,2021-10-31T17:57:32.389Z,105571.14,1635702814,full,ni_sequenzen,NI_Sequenzen,,,,,,,,,,,,,,
,Screen_4,canvas.Screen,0_0_12_3,,skipped,13,105457.19999998808,,,105454.80000001192,,105457.19999998808,2021-10-31T17:57:32.390Z,105571.14,1635702814,full,ni_sequenzen,NI_Sequenzen,,,,,,,,,,,,,,
,Sequence,flow.Sequence,0_0_12,,completion,13,105454.19999998808,,,105454.80000001192,,105457.39999997616,2021-10-31T17:57:32.390Z,105571.14,1635702814,full,ni_sequenzen,NI_Sequenzen,,,,,,,,,,,,,,
,Screen_1,canvas.Screen,0_0_13_0,,skipped,14,105458.10000002384,,,105458.10000002384,,105458.19999998808,2021-10-31T17:57:32.391Z,105571.14,1635702814,full,ni_sequenzen,NI_Sequenzen,,,,,,,,,,,,,,
,Screen_2,canvas.Screen,0_0_13_1,,skipped,14,105458.89999997616,,,105458.10000002384,,105458.89999997616,2021-10-31T17:57:32.391Z,105571.14,1635702814,full,ni_sequenzen,NI_Sequenzen,,,,,,,,,,,,,,
,Screen_3,canvas.Screen,0_0_13_2,,skipped,14,105459.5,,,105458.10000002384,,105459.60000002384,2021-10-31T17:57:32.392Z,105571.14,1635702814,full,ni_sequenzen,NI_Sequenzen,,,,,,,,,,,,,,
,Screen_4,canvas.Screen,0_0_13_3,,skipped,14,105460.10000002384,,,105458.10000002384,,105460.19999998808,2021-10-31T17:57:32.393Z,105571.14,1635702814,full,ni_sequenzen,NI_Sequenzen,,,,,,,,,,,,,,
,Sequence,flow.Sequence,0_0_13,,completion,14,105457.60000002384,,,105458.10000002384,,105460.39999997616,2021-10-31T17:57:32.393Z,105571.14,1635702814,full,ni_sequenzen,NI_Sequenzen,,,,,,,,,,,,,,
,Screen_1,canvas.Screen,0_0_14_0,,skipped,15,105461.19999998808,,,105461.19999998808,,105461.19999998808,2021-10-31T17:57:32.394Z,105571.14,1635702814,full,ni_sequenzen,NI_Sequenzen,,,,,,,,,,,,,,
,Screen_2,canvas.Screen,0_0_14_1,,skipped,15,105461.89999997616,,,105461.19999998808,,105461.89999997616,2021-10-31T17:57:32.394Z,105571.14,1635702814,full,ni_sequenzen,NI_Sequenzen,,,,,,,,,,,,,,
,Screen_3,canvas.Screen,0_0_14_2,,skipped,15,105462.60000002384,,,105461.19999998808,,105462.69999998808,2021-10-31T17:57:32.395Z,105571.14,1635702814,full,ni_sequenzen,NI_Sequenzen,,,,,,,,,,,,,,
,Screen_4,canvas.Screen,0_0_14_3,,skipped,15,105463.39999997616,,,105461.19999998808,,105463.39999997616,2021-10-31T17:57:32.396Z,105571.14,1635702814,full,ni_sequenzen,NI_Sequenzen,,,,,,,,,,,,,,
,Sequence,flow.Sequence,0_0_14,,completion,15,105460.5,,,105461.19999998808,,105463.5,2021-10-31T17:57:32.396Z,105571.14,1635702814,full,ni_sequenzen,NI_Sequenzen,,,,,,,,,,,,,,
,Screen_1,canvas.Screen,0_0_15_0,,skipped,16,105464.89999997616,,,105464.89999997616,,105465,2021-10-31T17:57:32.397Z,105571.14,1635702814,full,ni_sequenzen,NI_Sequenzen,,,,,,,,,,,,,,
,Screen_2,canvas.Screen,0_0_15_1,,skipped,16,105465.60000002384,,,105464.89999997616,,105465.60000002384,2021-10-31T17:57:32.398Z,105571.14,1635702814,full,ni_sequenzen,NI_Sequenzen,,,,,,,,,,,,,,
,Screen_3,canvas.Screen,0_0_15_2,,skipped,16,105466.19999998808,,,105464.89999997616,,105466.19999998808,2021-10-31T17:57:32.399Z,105571.14,1635702814,full,ni_sequenzen,NI_Sequenzen,,,,,,,,,,,,,,
,Screen_4,canvas.Screen,0_0_15_3,,skipped,16,105468,,,105464.89999997616,,105468,2021-10-31T17:57:32.401Z,105571.14,1635702814,full,ni_sequenzen,NI_Sequenzen,,,,,,,,,,,,,,
,Sequence,flow.Sequence,0_0_15,,completion,16,105464.39999997616,,,105464.89999997616,,105468.19999998808,2021-10-31T17:57:32.401Z,105571.14,1635702814,full,ni_sequenzen,NI_Sequenzen,,,,,,,,,,,,,,
,Screen_1,canvas.Screen,0_0_16_0,,skipped,17,105469,,,105469,,105469,2021-10-31T17:57:32.402Z,105571.14,1635702814,full,ni_sequenzen,NI_Sequenzen,,,,,,,,,,,,,,
,Screen_2,canvas.Screen,0_0_16_1,,skipped,17,105469.80000001192,,,105469,,105469.80000001192,2021-10-31T17:57:32.402Z,105571.14,1635702814,full,ni_sequenzen,NI_Sequenzen,,,,,,,,,,,,,,
,Screen_3,canvas.Screen,0_0_16_2,,skipped,17,105470.60000002384,,,105469,,105470.69999998808,2021-10-31T17:57:32.403Z,105571.14,1635702814,full,ni_sequenzen,NI_Sequenzen,,,,,,,,,,,,,,
,Screen_4,canvas.Screen,0_0_16_3,,skipped,17,105471.30000001192,,,105469,,105471.30000001192,2021-10-31T17:57:32.404Z,105571.14,1635702814,full,ni_sequenzen,NI_Sequenzen,,,,,,,,,,,,,,
,Sequence,flow.Sequence,0_0_16,,completion,17,105468.5,,,105469,,105471.5,2021-10-31T17:57:32.404Z,105571.14,1635702814,full,ni_sequenzen,NI_Sequenzen,,,,,,,,,,,,,,
,Screen_1,canvas.Screen,0_0_17_0,,skipped,18,105472.30000001192,,,105472.39999997616,,105472.5,2021-10-31T17:57:32.405Z,105571.14,1635702814,full,ni_sequenzen,NI_Sequenzen,,,,,,,,,,,,,,
,Screen_2,canvas.Screen,0_0_17_1,,skipped,18,105473.10000002384,,,105472.39999997616,,105473.10000002384,2021-10-31T17:57:32.406Z,105571.14,1635702814,full,ni_sequenzen,NI_Sequenzen,,,,,,,,,,,,,,
,Screen_3,canvas.Screen,0_0_17_2,,skipped,18,105473.80000001192,,,105472.39999997616,,105473.89999997616,2021-10-31T17:57:32.406Z,105571.14,1635702814,full,ni_sequenzen,NI_Sequenzen,,,,,,,,,,,,,,
,Screen_4,canvas.Screen,0_0_17_3,,skipped,18,105474.60000002384,,,105472.39999997616,,105474.60000002384,2021-10-31T17:57:32.407Z,105571.14,1635702814,full,ni_sequenzen,NI_Sequenzen,,,,,,,,,,,,,,
,Sequence,flow.Sequence,0_0_17,,completion,18,105471.80000001192,,,105472.39999997616,,105474.89999997616,2021-10-31T17:57:32.407Z,105571.14,1635702814,full,ni_sequenzen,NI_Sequenzen,,,,,,,,,,,,,,
,Screen_1,canvas.Screen,0_0_18_0,,skipped,19,105475.69999998808,,,105475.69999998808,,105475.80000001192,2021-10-31T17:57:32.408Z,105571.14,1635702814,full,ni_sequenzen,NI_Sequenzen,,,,,,,,,,,,,,
,Screen_2,canvas.Screen,0_0_18_1,,skipped,19,105476.30000001192,,,105475.69999998808,,105476.89999997616,2021-10-31T17:57:32.409Z,105571.14,1635702814,full,ni_sequenzen,NI_Sequenzen,,,,,,,,,,,,,,
,Screen_3,canvas.Screen,0_0_18_2,,skipped,19,105477.5,,,105475.69999998808,,105477.60000002384,2021-10-31T17:57:32.410Z,105571.14,1635702814,full,ni_sequenzen,NI_Sequenzen,,,,,,,,,,,,,,
,Screen_4,canvas.Screen,0_0_18_3,,skipped,19,105478.19999998808,,,105475.69999998808,,105478.19999998808,2021-10-31T17:57:32.411Z,105571.14,1635702814,full,ni_sequenzen,NI_Sequenzen,,,,,,,,,,,,,,
,Sequence,flow.Sequence,0_0_18,,completion,19,105475.19999998808,,,105475.69999998808,,105478.30000001192,2021-10-31T17:57:32.411Z,105571.14,1635702814,full,ni_sequenzen,NI_Sequenzen,,,,,,,,,,,,,,
,Screen_1,canvas.Screen,0_0_19_0,,skipped,20,105479.10000002384,,,105479.19999998808,,105479.19999998808,2021-10-31T17:57:32.412Z,105571.14,1635702814,full,ni_sequenzen,NI_Sequenzen,,,,,,,,,,,,,,
,Screen_2,canvas.Screen,0_0_19_1,,skipped,20,105479.69999998808,,,105479.19999998808,,105479.69999998808,2021-10-31T17:57:32.412Z,105571.14,1635702814,full,ni_sequenzen,NI_Sequenzen,,,,,,,,,,,,,,
,Screen_3,canvas.Screen,0_0_19_2,,skipped,20,105480.39999997616,,,105479.19999998808,,105480.5,2021-10-31T17:57:32.413Z,105571.14,1635702814,full,ni_sequenzen,NI_Sequenzen,,,,,,,,,,,,,,
,Screen_4,canvas.Screen,0_0_19_3,,skipped,20,105481.10000002384,,,105479.19999998808,,105481.19999998808,2021-10-31T17:57:32.414Z,105571.14,1635702814,full,ni_sequenzen,NI_Sequenzen,,,,,,,,,,,,,,
,Sequence,flow.Sequence,0_0_19,,completion,20,105478.60000002384,,,105479.19999998808,,105481.19999998808,2021-10-31T17:57:32.414Z,105571.14,1635702814,full,ni_sequenzen,NI_Sequenzen,,,,,,,,,,,,,,
,Instructions_I,flow.Loop,0_0,,completion,,674.3999999761581,733.903,750.557,105479.19999998808,104728.64299998808,105481.39999997616,2021-10-31T17:57:32.414Z,105571.14,1635702814,full,ni_sequenzen,NI_Sequenzen,,,,,,,,,,,,,,
,Move,canvas.Screen,0_1_0_0,right,response,,105564.69999998808,105554.046,105571.14,106236.60000002384,665.4600000238424,106237.19999998808,2021-10-31T17:57:33.170Z,106254.568,1635702814,full,ni_sequenzen,NI_Sequenzen,1,,,,,,,,,,,,,
,Move,canvas.Screen,0_1_0_1,right,response,,106238.89999997616,106237.8,106254.568,106615.60000002384,361.03200002384256,106616.10000002384,2021-10-31T17:57:33.549Z,106621.192,1635702814,full,ni_sequenzen,NI_Sequenzen,2,,,,,,,,,,,,,
,Move,canvas.Screen,0_1_0_2,left,response,,106618,106604.529,106621.192,107520.5,899.3080000000045,107521.10000002384,2021-10-31T17:57:34.454Z,107537.906,1635702814,full,ni_sequenzen,NI_Sequenzen,3,,,,,,,,,,,,,
,Move,canvas.Screen,0_1_0_3,left,response,,107522.69999998808,107521.174,107537.906,107707.60000002384,169.69400002383918,107707.89999997616,2021-10-31T17:57:34.640Z,107721.237,1635702814,full,ni_sequenzen,NI_Sequenzen,4,,,,,,,,,,,,,
,Move,canvas.Screen,0_1_0_4,down,response,,107709.19999998808,107704.55,107721.237,108834.80000001192,1113.5630000119272,108835.30000001192,2021-10-31T17:57:35.768Z,108837.925,1635702814,full,ni_sequenzen,NI_Sequenzen,5,,,,,,,,,,,,,
,Move,canvas.Screen,0_1_0_5,down,response,,108836.39999997616,108821.165,108837.925,109021.69999998808,183.77499998807616,109022.10000002384,2021-10-31T17:57:35.955Z,109037.987,1635702814,full,ni_sequenzen,NI_Sequenzen,6,,,,,,,,,,,,,
,Move,canvas.Screen,0_1_0_6,left,response,,109023.69999998808,109021.268,109037.987,109631.39999997616,593.4129999761644,109631.80000001192,2021-10-31T17:57:36.564Z,109638.06,1635702814,full,ni_sequenzen,NI_Sequenzen,7,,,,,,,,,,,,,
,Move,canvas.Screen,0_1_0_7,left,response,,109633.19999998808,109621.266,109638.06,109904,265.9400000000023,109904.39999997616,2021-10-31T17:57:36.837Z,109921.35,1635702814,full,ni_sequenzen,NI_Sequenzen,8,,,,,,,,,,,,,
,Move,canvas.Screen,0_1_0_8,down,response,,109905.80000001192,109904.658,109921.35,110845.39999997616,924.0499999761523,110845.89999997616,2021-10-31T17:57:37.778Z,110854.674,1635702814,full,ni_sequenzen,NI_Sequenzen,9,,,,,,,,,,,,,
,Move,canvas.Screen,0_1_0_9,down,response,,110847.30000001192,110837.951,110854.674,111029.69999998808,175.02599998808,111030.19999998808,2021-10-31T17:57:37.963Z,111038.022,1635702814,full,ni_sequenzen,NI_Sequenzen,10,,,,,,,,,,,,,
,Move,canvas.Screen,0_1_0_10,down,response,,111031.39999997616,111021.332,111038.022,111241.80000001192,203.77800001192372,111242.30000001192,2021-10-31T17:57:38.175Z,111254.725,1635702814,full,ni_sequenzen,NI_Sequenzen,11,,,,,,,,,,,,,
,Move,canvas.Screen,0_1_0_11,right,response,,111243.5,111238.032,111254.725,111354.60000002384,99.87500002383604,111355.19999998808,2021-10-31T17:57:38.288Z,111371.408,1635702814,full,ni_sequenzen,NI_Sequenzen,12,,,,,,,,,,,,,
,Move,canvas.Screen,0_1_0_12,right,response,,111356.60000002384,111354.708,111371.408,111525.80000001192,154.39200001192512,111526.10000002384,2021-10-31T17:57:38.459Z,111538.069,1635702814,full,ni_sequenzen,NI_Sequenzen,13,,,,,,,,,,,,,
,Move,canvas.Screen,0_1_0_13,right,response,,111527.5,111521.374,111538.069,111704.60000002384,166.53100002383871,111705.10000002384,2021-10-31T17:57:38.638Z,111721.411,1635702814,full,ni_sequenzen,NI_Sequenzen,14,,,,,,,,,,,,,
,Move,canvas.Screen,0_1_0_14,down,response,,111706.19999998808,111704.726,111721.411,112093.80000001192,372.38900001192815,112094.30000001192,2021-10-31T17:57:39.027Z,112104.725,1635702814,full,ni_sequenzen,NI_Sequenzen,15,,,,,,,,,,,,,
,Move,canvas.Screen,0_1_0_15,down,response,,112095.69999998808,112088.048,112104.725,112282.69999998808,177.97499998807325,112283.10000002384,2021-10-31T17:57:39.216Z,112288.04,1635702814,full,ni_sequenzen,NI_Sequenzen,16,,,,,,,,,,,,,
,Move,canvas.Screen,0_1_0_16,left,response,,112284.39999997616,112271.391,112288.04,112544.80000001192,256.76000001192733,112545.19999998808,2021-10-31T17:57:39.478Z,112554.761,1635702814,full,ni_sequenzen,NI_Sequenzen,17,,,,,,,,,,,,,
,Move,canvas.Screen,0_1_0_17,left,response,,112546.5,112538.046,112554.761,112788.69999998808,233.93899998808047,112789.10000002384,2021-10-31T17:57:39.722Z,112804.794,1635702814,full,ni_sequenzen,NI_Sequenzen,18,,,,,,,,,,,,,
,Move,canvas.Screen,0_1_0_18,right,response,,112790.5,112788.091,112804.794,113539.69999998808,734.9059999880847,113540.19999998808,2021-10-31T17:57:40.473Z,113554.824,1635702814,full,ni_sequenzen,NI_Sequenzen,19,,,,,,,,,,,,,
,Move,canvas.Screen,0_1_0_19,right,response,,113541.30000001192,113538.072,113554.824,113762.69999998808,207.87599998808582,113763.10000002384,2021-10-31T17:57:40.696Z,113771.424,1635702814,full,ni_sequenzen,NI_Sequenzen,20,,,,,,,,,,,,,
,Move,canvas.Screen,0_1_0_20,down,response,,113764.30000001192,113754.786,113771.424,114100.89999997616,329.4759999761591,114101.30000001192,2021-10-31T17:57:41.034Z,114104.813,1635702814,full,ni_sequenzen,NI_Sequenzen,21,,,,,,,,,,,,,
,Move,canvas.Screen,0_1_0_21,down,response,,114102.89999997616,114088.15,114104.813,114368.80000001192,263.9870000119263,114369.19999998808,2021-10-31T17:57:41.302Z,114401.437,1635702814,full,ni_sequenzen,NI_Sequenzen,22,,,,,,,,,,,,,
,Move,canvas.Screen,0_1_0_22,down,response,,114370.60000002384,114354.825,114401.437,114622.69999998808,221.26299998807372,114623.10000002384,2021-10-31T17:57:41.556Z,114638.335,1635702814,full,ni_sequenzen,NI_Sequenzen,23,,,,,,,,,,,,,
,Move,canvas.Screen,0_1_0_23,left,response,,114624.30000001192,114621.53,114638.335,114877.69999998808,239.36499998807267,114878.10000002384,2021-10-31T17:57:41.811Z,114888.143,1635702814,full,ni_sequenzen,NI_Sequenzen,24,,,,,,,,,,,,,
,Move,canvas.Screen,0_1_0_24,left,response,,114879.80000001192,114871.51,114888.143,115170.69999998808,282.5569999880827,115171.19999998808,2021-10-31T17:57:42.104Z,115188.204,1635702814,full,ni_sequenzen,NI_Sequenzen,25,,,,,,,,,,,,,
,Move,canvas.Screen,0_1_0_25,down,response,,115172.30000001192,115171.507,115188.204,115379.60000002384,191.39600002384395,115380.10000002384,2021-10-31T17:57:42.313Z,115388.18,1635702814,full,ni_sequenzen,NI_Sequenzen,26,,,,,,,,,,,,,
,Move,canvas.Screen,0_1_0_26,right,response,,115381.69999998808,115371.517,115388.18,115692.5,304.320000000007,115693,2021-10-31T17:57:42.625Z,115704.9,1635702814,full,ni_sequenzen,NI_Sequenzen,27,,,,,,,,,,,,,
,Move,canvas.Screen,0_1_0_27,down,response,,115694.5,115688.192,115704.9,115938.69999998808,233.7999999880849,115939.19999998808,2021-10-31T17:57:42.872Z,115954.913,1635702814,full,ni_sequenzen,NI_Sequenzen,28,,,,,,,,,,,,,
,Move,canvas.Screen,0_1_0_28,left,response,,115940.19999998808,115938.203,115954.913,116414.39999997616,459.4869999761577,116414.69999998808,2021-10-31T17:57:43.347Z,116421.585,1635702814,full,ni_sequenzen,NI_Sequenzen,29,,,,,,,,,,,,,
,Move,canvas.Screen,0_1_0_29,down,response,,116416,116404.832,116421.585,116753.5,331.9149999999936,116753.89999997616,2021-10-31T17:57:43.686Z,116804.873,1635702814,full,ni_sequenzen,NI_Sequenzen,30,,,,,,,,,,,,,
,Loop,flow.Loop,0_1_0,-999,completion,,105490.39999997616,105554.046,105571.14,116753.5,11182.36,116754.10000002384,2021-10-31T17:57:43.687Z,116804.873,1635702814,full,ni_sequenzen,NI_Sequenzen,,,,,,,,,,,,,,
,Training_I,flow.Sequence,0_1,,completion,,105481.69999998808,105554.046,105571.14,116753.5,11182.36,116754.19999998808,2021-10-31T17:57:43.687Z,116804.873,1635702814,full,ni_sequenzen,NI_Sequenzen,,,,,,,,,,,,,,
,Screen_1,canvas.Screen,0_2_0_0,cont,response,1,116795.39999997616,116788.195,116804.873,124479,7674.126999999993,124479.5,2021-10-31T17:57:51.412Z,124588.525,1635702814,full,ni_sequenzen,NI_Sequenzen,,,,,,,,,,,,,,
,Screen_2,canvas.Screen,0_2_0_1,cont,response,1,124579,124571.269,124588.525,131456.69999998808,6868.174999988085,131457.10000002384,2021-10-31T17:57:58.390Z,131472.152,1635702814,full,ni_sequenzen,NI_Sequenzen,,,,,,,,,,,,,,
,Screen_3,canvas.Screen,0_2_0_2,cont,response,1,131459.10000002384,131454.974,131472.152,145210,13737.847999999998,145210.60000002384,2021-10-31T17:58:12.143Z,145289.284,1635702814,full,ni_sequenzen,NI_Sequenzen,,,,,,,,,,,,,,
,Screen_4,canvas.Screen,0_2_0_3,cont,response,1,145280.60000002384,145271.581,145289.284,151607.80000001192,6318.516000011907,151608.19999998808,2021-10-31T17:58:18.541Z,151622.902,1635702814,full,ni_sequenzen,NI_Sequenzen,,,,,,,,,,,,,,
,Screen_5,canvas.Screen,0_2_0_4,cont,response,1,151610.5,151605.712,151622.902,155046.80000001192,3423.898000011919,155047.19999998808,2021-10-31T17:58:21.980Z,155122.998,1635702814,full,ni_sequenzen,NI_Sequenzen,,,,,,,,,,,,,,
,Screen_6,canvas.Screen,0_2_0_5,cont,response,1,155114.30000001192,155106.07,155122.998,163275.10000002384,8152.1020000238495,163275.5,2021-10-31T17:58:30.208Z,163439.962,1635702814,full,ni_sequenzen,NI_Sequenzen,,,,,,,,,,,,,,
,Sequence,flow.Sequence,0_2_0,,completion,1,116794.10000002384,116788.195,116804.873,163275.10000002384,46470.227000023835,163276.5,2021-10-31T17:58:30.209Z,163439.962,1635702814,full,ni_sequenzen,NI_Sequenzen,,,,,,,,,,,,,,
,Screen_1,canvas.Screen,0_2_1_0,,skipped,2,163278.69999998808,,,163278.69999998808,,163278.80000001192,2021-10-31T17:58:30.211Z,163439.962,1635702814,full,ni_sequenzen,NI_Sequenzen,,,,,,,,,,,,,,
,Screen_2,canvas.Screen,0_2_1_1,,skipped,2,163279.5,,,163278.69999998808,,163279.5,2021-10-31T17:58:30.212Z,163439.962,1635702814,full,ni_sequenzen,NI_Sequenzen,,,,,,,,,,,,,,
,Screen_3,canvas.Screen,0_2_1_2,,skipped,2,163280.39999997616,,,163278.69999998808,,163280.5,2021-10-31T17:58:30.213Z,163439.962,1635702814,full,ni_sequenzen,NI_Sequenzen,,,,,,,,,,,,,,
,Screen_4,canvas.Screen,0_2_1_3,,skipped,2,163281.19999998808,,,163278.69999998808,,163281.19999998808,2021-10-31T17:58:30.214Z,163439.962,1635702814,full,ni_sequenzen,NI_Sequenzen,,,,,,,,,,,,,,
,Screen_5,canvas.Screen,0_2_1_4,,skipped,2,163282,,,163278.69999998808,,163282,2021-10-31T17:58:30.215Z,163439.962,1635702814,full,ni_sequenzen,NI_Sequenzen,,,,,,,,,,,,,,
,Screen_6,canvas.Screen,0_2_1_5,,skipped,2,163282.80000001192,,,163278.69999998808,,163282.89999997616,2021-10-31T17:58:30.216Z,163439.962,1635702814,full,ni_sequenzen,NI_Sequenzen,,,,,,,,,,,,,,
,Sequence,flow.Sequence,0_2_1,,completion,2,163277.69999998808,,,163278.69999998808,,163283,2021-10-31T17:58:30.216Z,163439.962,1635702814,full,ni_sequenzen,NI_Sequenzen,,,,,,,,,,,,,,
,Screen_1,canvas.Screen,0_2_2_0,,skipped,3,163283.80000001192,,,163283.80000001192,,163283.89999997616,2021-10-31T17:58:30.217Z,163439.962,1635702814,full,ni_sequenzen,NI_Sequenzen,,,,,,,,,,,,,,
,Screen_2,canvas.Screen,0_2_2_1,,skipped,3,163284.5,,,163283.80000001192,,163284.69999998808,2021-10-31T17:58:30.217Z,163439.962,1635702814,full,ni_sequenzen,NI_Sequenzen,,,,,,,,,,,,,,
,Screen_3,canvas.Screen,0_2_2_2,,skipped,3,163285.19999998808,,,163283.80000001192,,163285.19999998808,2021-10-31T17:58:30.218Z,163439.962,1635702814,full,ni_sequenzen,NI_Sequenzen,,,,,,,,,,,,,,
,Screen_4,canvas.Screen,0_2_2_3,,skipped,3,163286.39999997616,,,163283.80000001192,,163286.39999997616,2021-10-31T17:58:30.219Z,163439.962,1635702814,full,ni_sequenzen,NI_Sequenzen,,,,,,,,,,,,,,
,Screen_5,canvas.Screen,0_2_2_4,,skipped,3,163286.89999997616,,,163283.80000001192,,163287,2021-10-31T17:58:30.220Z,163439.962,1635702814,full,ni_sequenzen,NI_Sequenzen,,,,,,,,,,,,,,
,Screen_6,canvas.Screen,0_2_2_5,,skipped,3,163287.60000002384,,,163283.80000001192,,163287.60000002384,2021-10-31T17:58:30.220Z,163439.962,1635702814,full,ni_sequenzen,NI_Sequenzen,,,,,,,,,,,,,,
,Sequence,flow.Sequence,0_2_2,,completion,3,163283.19999998808,,,163283.80000001192,,163287.80000001192,2021-10-31T17:58:30.220Z,163439.962,1635702814,full,ni_sequenzen,NI_Sequenzen,,,,,,,,,,,,,,
,Screen_1,canvas.Screen,0_2_3_0,,skipped,4,163288.60000002384,,,163288.60000002384,,163288.60000002384,2021-10-31T17:58:30.221Z,163439.962,1635702814,full,ni_sequenzen,NI_Sequenzen,,,,,,,,,,,,,,
,Screen_2,canvas.Screen,0_2_3_1,,skipped,4,163289.19999998808,,,163288.60000002384,,163289.19999998808,2021-10-31T17:58:30.222Z,163439.962,1635702814,full,ni_sequenzen,NI_Sequenzen,,,,,,,,,,,,,,
,Screen_3,canvas.Screen,0_2_3_2,,skipped,4,163289.80000001192,,,163288.60000002384,,163290,2021-10-31T17:58:30.223Z,163439.962,1635702814,full,ni_sequenzen,NI_Sequenzen,,,,,,,,,,,,,,
,Screen_4,canvas.Screen,0_2_3_3,,skipped,4,163290.5,,,163288.60000002384,,163290.60000002384,2021-10-31T17:58:30.223Z,163439.962,1635702814,full,ni_sequenzen,NI_Sequenzen,,,,,,,,,,,,,,
,Screen_5,canvas.Screen,0_2_3_4,,skipped,4,163291.19999998808,,,163288.60000002384,,163291.30000001192,2021-10-31T17:58:30.224Z,163439.962,1635702814,full,ni_sequenzen,NI_Sequenzen,,,,,,,,,,,,,,
,Screen_6,canvas.Screen,0_2_3_5,,skipped,4,163291.89999997616,,,163288.60000002384,,163291.89999997616,2021-10-31T17:58:30.225Z,163439.962,1635702814,full,ni_sequenzen,NI_Sequenzen,,,,,,,,,,,,,,
,Sequence,flow.Sequence,0_2_3,,completion,4,163288,,,163288.60000002384,,163292,2021-10-31T17:58:30.225Z,163439.962,1635702814,full,ni_sequenzen,NI_Sequenzen,,,,,,,,,,,,,,
,Screen_1,canvas.Screen,0_2_4_0,,skipped,5,163292.80000001192,,,163292.80000001192,,163292.89999997616,2021-10-31T17:58:30.226Z,163439.962,1635702814,full,ni_sequenzen,NI_Sequenzen,,,,,,,,,,,,,,
,Screen_2,canvas.Screen,0_2_4_1,,skipped,5,163293.39999997616,,,163292.80000001192,,163293.39999997616,2021-10-31T17:58:30.226Z,163439.962,1635702814,full,ni_sequenzen,NI_Sequenzen,,,,,,,,,,,,,,
,Screen_3,canvas.Screen,0_2_4_2,,skipped,5,163294.10000002384,,,163292.80000001192,,163294.10000002384,2021-10-31T17:58:30.227Z,163439.962,1635702814,full,ni_sequenzen,NI_Sequenzen,,,,,,,,,,,,,,
,Screen_4,canvas.Screen,0_2_4_3,,skipped,5,163294.69999998808,,,163292.80000001192,,163294.80000001192,2021-10-31T17:58:30.227Z,163439.962,1635702814,full,ni_sequenzen,NI_Sequenzen,,,,,,,,,,,,,,
,Screen_5,canvas.Screen,0_2_4_4,,skipped,5,163295.30000001192,,,163292.80000001192,,163295.30000001192,2021-10-31T17:58:30.228Z,163439.962,1635702814,full,ni_sequenzen,NI_Sequenzen,,,,,,,,,,,,,,
,Screen_6,canvas.Screen,0_2_4_5,,skipped,5,163295.89999997616,,,163292.80000001192,,163296,2021-10-31T17:58:30.229Z,163439.962,1635702814,full,ni_sequenzen,NI_Sequenzen,,,,,,,,,,,,,,
,Sequence,flow.Sequence,0_2_4,,completion,5,163292.19999998808,,,163292.80000001192,,163296.10000002384,2021-10-31T17:58:30.229Z,163439.962,1635702814,full,ni_sequenzen,NI_Sequenzen,,,,,,,,,,,,,,
,Screen_1,canvas.Screen,0_2_5_0,,skipped,6,163297.5,,,163297.5,,163297.5,2021-10-31T17:58:30.230Z,163439.962,1635702814,full,ni_sequenzen,NI_Sequenzen,,,,,,,,,,,,,,
,Screen_2,canvas.Screen,0_2_5_1,,skipped,6,163298.10000002384,,,163297.5,,163298.19999998808,2021-10-31T17:58:30.231Z,163439.962,1635702814,full,ni_sequenzen,NI_Sequenzen,,,,,,,,,,,,,,
,Screen_3,canvas.Screen,0_2_5_2,,skipped,6,163298.60000002384,,,163297.5,,163298.69999998808,2021-10-31T17:58:30.231Z,163439.962,1635702814,full,ni_sequenzen,NI_Sequenzen,,,,,,,,,,,,,,
,Screen_4,canvas.Screen,0_2_5_3,,skipped,6,163299.30000001192,,,163297.5,,163299.39999997616,2021-10-31T17:58:30.232Z,163439.962,1635702814,full,ni_sequenzen,NI_Sequenzen,,,,,,,,,,,,,,
,Screen_5,canvas.Screen,0_2_5_4,,skipped,6,163300.10000002384,,,163297.5,,163300.10000002384,2021-10-31T17:58:30.233Z,163439.962,1635702814,full,ni_sequenzen,NI_Sequenzen,,,,,,,,,,,,,,
,Screen_6,canvas.Screen,0_2_5_5,,skipped,6,163300.60000002384,,,163297.5,,163300.69999998808,2021-10-31T17:58:30.233Z,163439.962,1635702814,full,ni_sequenzen,NI_Sequenzen,,,,,,,,,,,,,,
,Sequence,flow.Sequence,0_2_5,,completion,6,163296.39999997616,,,163297.5,,163300.80000001192,2021-10-31T17:58:30.233Z,163439.962,1635702814,full,ni_sequenzen,NI_Sequenzen,,,,,,,,,,,,,,
,Screen_1,canvas.Screen,0_2_6_0,,skipped,7,163301.60000002384,,,163301.60000002384,,163301.60000002384,2021-10-31T17:58:30.234Z,163439.962,1635702814,full,ni_sequenzen,NI_Sequenzen,,,,,,,,,,,,,,
,Screen_2,canvas.Screen,0_2_6_1,,skipped,7,163302.19999998808,,,163301.60000002384,,163302.30000001192,2021-10-31T17:58:30.235Z,163439.962,1635702814,full,ni_sequenzen,NI_Sequenzen,,,,,,,,,,,,,,
,Screen_3,canvas.Screen,0_2_6_2,,skipped,7,163302.80000001192,,,163301.60000002384,,163302.89999997616,2021-10-31T17:58:30.236Z,163439.962,1635702814,full,ni_sequenzen,NI_Sequenzen,,,,,,,,,,,,,,
,Screen_4,canvas.Screen,0_2_6_3,,skipped,7,163303.39999997616,,,163301.60000002384,,163303.39999997616,2021-10-31T17:58:30.236Z,163439.962,1635702814,full,ni_sequenzen,NI_Sequenzen,,,,,,,,,,,,,,
,Screen_5,canvas.Screen,0_2_6_4,,skipped,7,163304,,,163301.60000002384,,163304.10000002384,2021-10-31T17:58:30.237Z,163439.962,1635702814,full,ni_sequenzen,NI_Sequenzen,,,,,,,,,,,,,,
,Screen_6,canvas.Screen,0_2_6_5,,skipped,7,163304.60000002384,,,163301.60000002384,,163304.60000002384,2021-10-31T17:58:30.237Z,163439.962,1635702814,full,ni_sequenzen,NI_Sequenzen,,,,,,,,,,,,,,
,Sequence,flow.Sequence,0_2_6,,completion,7,163301,,,163301.60000002384,,163304.69999998808,2021-10-31T17:58:30.237Z,163439.962,1635702814,full,ni_sequenzen,NI_Sequenzen,,,,,,,,,,,,,,
,Screen_1,canvas.Screen,0_2_7_0,,skipped,8,163305.5,,,163305.5,,163305.60000002384,2021-10-31T17:58:30.238Z,163439.962,1635702814,full,ni_sequenzen,NI_Sequenzen,,,,,,,,,,,,,,
,Screen_2,canvas.Screen,0_2_7_1,,skipped,8,163306.10000002384,,,163305.5,,163306.10000002384,2021-10-31T17:58:30.239Z,163439.962,1635702814,full,ni_sequenzen,NI_Sequenzen,,,,,,,,,,,,,,
,Screen_3,canvas.Screen,0_2_7_2,,skipped,8,163306.69999998808,,,163305.5,,163306.80000001192,2021-10-31T17:58:30.239Z,163439.962,1635702814,full,ni_sequenzen,NI_Sequenzen,,,,,,,,,,,,,,
,Screen_4,canvas.Screen,0_2_7_3,,skipped,8,163307.80000001192,,,163305.5,,163307.89999997616,2021-10-31T17:58:30.241Z,163439.962,1635702814,full,ni_sequenzen,NI_Sequenzen,,,,,,,,,,,,,,
,Screen_5,canvas.Screen,0_2_7_4,,skipped,8,163308.39999997616,,,163305.5,,163308.5,2021-10-31T17:58:30.241Z,163439.962,1635702814,full,ni_sequenzen,NI_Sequenzen,,,,,,,,,,,,,,
,Screen_6,canvas.Screen,0_2_7_5,,skipped,8,163309,,,163305.5,,163309.10000002384,2021-10-31T17:58:30.242Z,163439.962,1635702814,full,ni_sequenzen,NI_Sequenzen,,,,,,,,,,,,,,
,Sequence,flow.Sequence,0_2_7,,completion,8,163305,,,163305.5,,163309.19999998808,2021-10-31T17:58:30.242Z,163439.962,1635702814,full,ni_sequenzen,NI_Sequenzen,,,,,,,,,,,,,,
,Screen_1,canvas.Screen,0_2_8_0,,skipped,9,163310.10000002384,,,163310.10000002384,,163310.10000002384,2021-10-31T17:58:30.243Z,163439.962,1635702814,full,ni_sequenzen,NI_Sequenzen,,,,,,,,,,,,,,
,Screen_2,canvas.Screen,0_2_8_1,,skipped,9,163310.69999998808,,,163310.10000002384,,163310.69999998808,2021-10-31T17:58:30.243Z,163439.962,1635702814,full,ni_sequenzen,NI_Sequenzen,,,,,,,,,,,,,,
,Screen_3,canvas.Screen,0_2_8_2,,skipped,9,163311.30000001192,,,163310.10000002384,,163311.30000001192,2021-10-31T17:58:30.244Z,163439.962,1635702814,full,ni_sequenzen,NI_Sequenzen,,,,,,,,,,,,,,
,Screen_4,canvas.Screen,0_2_8_3,,skipped,9,163311.89999997616,,,163310.10000002384,,163312,2021-10-31T17:58:30.245Z,163439.962,1635702814,full,ni_sequenzen,NI_Sequenzen,,,,,,,,,,,,,,
,Screen_5,canvas.Screen,0_2_8_4,,skipped,9,163312.60000002384,,,163310.10000002384,,163312.69999998808,2021-10-31T17:58:30.245Z,163439.962,1635702814,full,ni_sequenzen,NI_Sequenzen,,,,,,,,,,,,,,
,Screen_6,canvas.Screen,0_2_8_5,,skipped,9,163313.19999998808,,,163310.10000002384,,163313.19999998808,2021-10-31T17:58:30.246Z,163439.962,1635702814,full,ni_sequenzen,NI_Sequenzen,,,,,,,,,,,,,,
,Sequence,flow.Sequence,0_2_8,,completion,9,163309.5,,,163310.10000002384,,163313.39999997616,2021-10-31T17:58:30.246Z,163439.962,1635702814,full,ni_sequenzen,NI_Sequenzen,,,,,,,,,,,,,,
,Screen_1,canvas.Screen,0_2_9_0,,skipped,10,163314.30000001192,,,163314.30000001192,,163314.30000001192,2021-10-31T17:58:30.247Z,163439.962,1635702814,full,ni_sequenzen,NI_Sequenzen,,,,,,,,,,,,,,
,Screen_2,canvas.Screen,0_2_9_1,,skipped,10,163315.10000002384,,,163314.30000001192,,163315.10000002384,2021-10-31T17:58:30.248Z,163439.962,1635702814,full,ni_sequenzen,NI_Sequenzen,,,,,,,,,,,,,,
,Screen_3,canvas.Screen,0_2_9_2,,skipped,10,163315.60000002384,,,163314.30000001192,,163315.69999998808,2021-10-31T17:58:30.248Z,163439.962,1635702814,full,ni_sequenzen,NI_Sequenzen,,,,,,,,,,,,,,
,Screen_4,canvas.Screen,0_2_9_3,,skipped,10,163316.5,,,163314.30000001192,,163316.5,2021-10-31T17:58:30.249Z,163439.962,1635702814,full,ni_sequenzen,NI_Sequenzen,,,,,,,,,,,,,,
,Screen_5,canvas.Screen,0_2_9_4,,skipped,10,163317.19999998808,,,163314.30000001192,,163317.19999998808,2021-10-31T17:58:30.250Z,163439.962,1635702814,full,ni_sequenzen,NI_Sequenzen,,,,,,,,,,,,,,
,Screen_6,canvas.Screen,0_2_9_5,,skipped,10,163317.80000001192,,,163314.30000001192,,163317.89999997616,2021-10-31T17:58:30.251Z,163439.962,1635702814,full,ni_sequenzen,NI_Sequenzen,,,,,,,,,,,,,,
,Sequence,flow.Sequence,0_2_9,,completion,10,163313.60000002384,,,163314.30000001192,,163317.89999997616,2021-10-31T17:58:30.251Z,163439.962,1635702814,full,ni_sequenzen,NI_Sequenzen,,,,,,,,,,,,,,
,Screen_1,canvas.Screen,0_2_10_0,,skipped,11,163318.80000001192,,,163318.80000001192,,163318.89999997616,2021-10-31T17:58:30.252Z,163439.962,1635702814,full,ni_sequenzen,NI_Sequenzen,,,,,,,,,,,,,,
,Screen_2,canvas.Screen,0_2_10_1,,skipped,11,163320.10000002384,,,163318.80000001192,,163320.19999998808,2021-10-31T17:58:30.253Z,163439.962,1635702814,full,ni_sequenzen,NI_Sequenzen,,,,,,,,,,,,,,
,Screen_3,canvas.Screen,0_2_10_2,,skipped,11,163320.80000001192,,,163318.80000001192,,163320.80000001192,2021-10-31T17:58:30.253Z,163439.962,1635702814,full,ni_sequenzen,NI_Sequenzen,,,,,,,,,,,,,,
,Screen_4,canvas.Screen,0_2_10_3,,skipped,11,163321.30000001192,,,163318.80000001192,,163321.39999997616,2021-10-31T17:58:30.254Z,163439.962,1635702814,full,ni_sequenzen,NI_Sequenzen,,,,,,,,,,,,,,
,Screen_5,canvas.Screen,0_2_10_4,,skipped,11,163322,,,163318.80000001192,,163322.10000002384,2021-10-31T17:58:30.255Z,163439.962,1635702814,full,ni_sequenzen,NI_Sequenzen,,,,,,,,,,,,,,
,Screen_6,canvas.Screen,0_2_10_5,,skipped,11,163322.69999998808,,,163318.80000001192,,163322.69999998808,2021-10-31T17:58:30.255Z,163439.962,1635702814,full,ni_sequenzen,NI_Sequenzen,,,,,,,,,,,,,,
,Sequence,flow.Sequence,0_2_10,,completion,11,163318.30000001192,,,163318.80000001192,,163322.89999997616,2021-10-31T17:58:30.255Z,163439.962,1635702814,full,ni_sequenzen,NI_Sequenzen,,,,,,,,,,,,,,
,Screen_1,canvas.Screen,0_2_11_0,,skipped,12,163323.69999998808,,,163323.69999998808,,163323.69999998808,2021-10-31T17:58:30.256Z,163439.962,1635702814,full,ni_sequenzen,NI_Sequenzen,,,,,,,,,,,,,,
,Screen_2,canvas.Screen,0_2_11_1,,skipped,12,163324.39999997616,,,163323.69999998808,,163324.39999997616,2021-10-31T17:58:30.257Z,163439.962,1635702814,full,ni_sequenzen,NI_Sequenzen,,,,,,,,,,,,,,
,Screen_3,canvas.Screen,0_2_11_2,,skipped,12,163325,,,163323.69999998808,,163325,2021-10-31T17:58:30.258Z,163439.962,1635702814,full,ni_sequenzen,NI_Sequenzen,,,,,,,,,,,,,,
,Screen_4,canvas.Screen,0_2_11_3,,skipped,12,163325.60000002384,,,163323.69999998808,,163325.60000002384,2021-10-31T17:58:30.258Z,163439.962,1635702814,full,ni_sequenzen,NI_Sequenzen,,,,,,,,,,,,,,
,Screen_5,canvas.Screen,0_2_11_4,,skipped,12,163326.30000001192,,,163323.69999998808,,163326.39999997616,2021-10-31T17:58:30.259Z,163439.962,1635702814,full,ni_sequenzen,NI_Sequenzen,,,,,,,,,,,,,,
,Screen_6,canvas.Screen,0_2_11_5,,skipped,12,163327,,,163323.69999998808,,163327,2021-10-31T17:58:30.260Z,163439.962,1635702814,full,ni_sequenzen,NI_Sequenzen,,,,,,,,,,,,,,
,Sequence,flow.Sequence,0_2_11,,completion,12,163323.10000002384,,,163323.69999998808,,163327.10000002384,2021-10-31T17:58:30.260Z,163439.962,1635702814,full,ni_sequenzen,NI_Sequenzen,,,,,,,,,,,,,,
,Screen_1,canvas.Screen,0_2_12_0,,skipped,13,163328,,,163328,,163328,2021-10-31T17:58:30.261Z,163439.962,1635702814,full,ni_sequenzen,NI_Sequenzen,,,,,,,,,,,,,,
,Screen_2,canvas.Screen,0_2_12_1,,skipped,13,163328.5,,,163328,,163328.69999998808,2021-10-31T17:58:30.261Z,163439.962,1635702814,full,ni_sequenzen,NI_Sequenzen,,,,,,,,,,,,,,
,Screen_3,canvas.Screen,0_2_12_2,,skipped,13,163329.10000002384,,,163328,,163329.19999998808,2021-10-31T17:58:30.262Z,163439.962,1635702814,full,ni_sequenzen,NI_Sequenzen,,,,,,,,,,,,,,
,Screen_4,canvas.Screen,0_2_12_3,,skipped,13,163329.80000001192,,,163328,,163329.80000001192,2021-10-31T17:58:30.263Z,163439.962,1635702814,full,ni_sequenzen,NI_Sequenzen,,,,,,,,,,,,,,
,Screen_5,canvas.Screen,0_2_12_4,,skipped,13,163331,,,163328,,163331,2021-10-31T17:58:30.264Z,163439.962,1635702814,full,ni_sequenzen,NI_Sequenzen,,,,,,,,,,,,,,
,Screen_6,canvas.Screen,0_2_12_5,,skipped,13,163331.69999998808,,,163328,,163331.69999998808,2021-10-31T17:58:30.264Z,163439.962,1635702814,full,ni_sequenzen,NI_Sequenzen,,,,,,,,,,,,,,
,Sequence,flow.Sequence,0_2_12,,completion,13,163327.39999997616,,,163328,,163331.69999998808,2021-10-31T17:58:30.264Z,163439.962,1635702814,full,ni_sequenzen,NI_Sequenzen,,,,,,,,,,,,,,
,Screen_1,canvas.Screen,0_2_13_0,,skipped,14,163332.60000002384,,,163332.60000002384,,163332.60000002384,2021-10-31T17:58:30.265Z,163439.962,1635702814,full,ni_sequenzen,NI_Sequenzen,,,,,,,,,,,,,,
,Screen_2,canvas.Screen,0_2_13_1,,skipped,14,163333.19999998808,,,163332.60000002384,,163333.19999998808,2021-10-31T17:58:30.266Z,163439.962,1635702814,full,ni_sequenzen,NI_Sequenzen,,,,,,,,,,,,,,
,Screen_3,canvas.Screen,0_2_13_2,,skipped,14,163333.69999998808,,,163332.60000002384,,163333.80000001192,2021-10-31T17:58:30.267Z,163439.962,1635702814,full,ni_sequenzen,NI_Sequenzen,,,,,,,,,,,,,,
,Screen_4,canvas.Screen,0_2_13_3,,skipped,14,163334.5,,,163332.60000002384,,163334.5,2021-10-31T17:58:30.267Z,163439.962,1635702814,full,ni_sequenzen,NI_Sequenzen,,,,,,,,,,,,,,
,Screen_5,canvas.Screen,0_2_13_4,,skipped,14,163335,,,163332.60000002384,,163335,2021-10-31T17:58:30.268Z,163439.962,1635702814,full,ni_sequenzen,NI_Sequenzen,,,,,,,,,,,,,,
,Screen_6,canvas.Screen,0_2_13_5,,skipped,14,163335.69999998808,,,163332.60000002384,,163335.69999998808,2021-10-31T17:58:30.268Z,163439.962,1635702814,full,ni_sequenzen,NI_Sequenzen,,,,,,,,,,,,,,
,Sequence,flow.Sequence,0_2_13,,completion,14,163332.10000002384,,,163332.60000002384,,163335.80000001192,2021-10-31T17:58:30.268Z,163439.962,1635702814,full,ni_sequenzen,NI_Sequenzen,,,,,,,,,,,,,,
,Screen_1,canvas.Screen,0_2_14_0,,skipped,15,163336.60000002384,,,163336.60000002384,,163336.60000002384,2021-10-31T17:58:30.269Z,163439.962,1635702814,full,ni_sequenzen,NI_Sequenzen,,,,,,,,,,,,,,
,Screen_2,canvas.Screen,0_2_14_1,,skipped,15,163337.10000002384,,,163336.60000002384,,163337.30000001192,2021-10-31T17:58:30.270Z,163439.962,1635702814,full,ni_sequenzen,NI_Sequenzen,,,,,,,,,,,,,,
,Screen_3,canvas.Screen,0_2_14_2,,skipped,15,163337.80000001192,,,163336.60000002384,,163337.89999997616,2021-10-31T17:58:30.271Z,163439.962,1635702814,full,ni_sequenzen,NI_Sequenzen,,,,,,,,,,,,,,
,Screen_4,canvas.Screen,0_2_14_3,,skipped,15,163338.5,,,163336.60000002384,,163338.60000002384,2021-10-31T17:58:30.271Z,163439.962,1635702814,full,ni_sequenzen,NI_Sequenzen,,,,,,,,,,,,,,
,Screen_5,canvas.Screen,0_2_14_4,,skipped,15,163339.19999998808,,,163336.60000002384,,163339.19999998808,2021-10-31T17:58:30.272Z,163439.962,1635702814,full,ni_sequenzen,NI_Sequenzen,,,,,,,,,,,,,,
,Screen_6,canvas.Screen,0_2_14_5,,skipped,15,163339.80000001192,,,163336.60000002384,,163339.80000001192,2021-10-31T17:58:30.273Z,163439.962,1635702814,full,ni_sequenzen,NI_Sequenzen,,,,,,,,,,,,,,
,Sequence,flow.Sequence,0_2_14,,completion,15,163336.10000002384,,,163336.60000002384,,163339.89999997616,2021-10-31T17:58:30.273Z,163439.962,1635702814,full,ni_sequenzen,NI_Sequenzen,,,,,,,,,,,,,,
,Screen_1,canvas.Screen,0_2_15_0,,skipped,16,163340.80000001192,,,163340.80000001192,,163340.80000001192,2021-10-31T17:58:30.273Z,163439.962,1635702814,full,ni_sequenzen,NI_Sequenzen,,,,,,,,,,,,,,
,Screen_2,canvas.Screen,0_2_15_1,,skipped,16,163341.89999997616,,,163340.80000001192,,163341.89999997616,2021-10-31T17:58:30.275Z,163439.962,1635702814,full,ni_sequenzen,NI_Sequenzen,,,,,,,,,,,,,,
,Screen_3,canvas.Screen,0_2_15_2,,skipped,16,163342.60000002384,,,163340.80000001192,,163342.60000002384,2021-10-31T17:58:30.275Z,163439.962,1635702814,full,ni_sequenzen,NI_Sequenzen,,,,,,,,,,,,,,
,Screen_4,canvas.Screen,0_2_15_3,,skipped,16,163343.19999998808,,,163340.80000001192,,163343.30000001192,2021-10-31T17:58:30.276Z,163439.962,1635702814,full,ni_sequenzen,NI_Sequenzen,,,,,,,,,,,,,,
,Screen_5,canvas.Screen,0_2_15_4,,skipped,16,163343.80000001192,,,163340.80000001192,,163343.89999997616,2021-10-31T17:58:30.277Z,163439.962,1635702814,full,ni_sequenzen,NI_Sequenzen,,,,,,,,,,,,,,
,Screen_6,canvas.Screen,0_2_15_5,,skipped,16,163344.5,,,163340.80000001192,,163344.5,2021-10-31T17:58:30.277Z,163439.962,1635702814,full,ni_sequenzen,NI_Sequenzen,,,,,,,,,,,,,,
,Sequence,flow.Sequence,0_2_15,,completion,16,163340.19999998808,,,163340.80000001192,,163344.60000002384,2021-10-31T17:58:30.277Z,163439.962,1635702814,full,ni_sequenzen,NI_Sequenzen,,,,,,,,,,,,,,
,Screen_1,canvas.Screen,0_2_16_0,,skipped,17,163345.5,,,163345.5,,163345.5,2021-10-31T17:58:30.278Z,163439.962,1635702814,full,ni_sequenzen,NI_Sequenzen,,,,,,,,,,,,,,
,Screen_2,canvas.Screen,0_2_16_1,,skipped,17,163346.10000002384,,,163345.5,,163346.10000002384,2021-10-31T17:58:30.279Z,163439.962,1635702814,full,ni_sequenzen,NI_Sequenzen,,,,,,,,,,,,,,
,Screen_3,canvas.Screen,0_2_16_2,,skipped,17,163346.69999998808,,,163345.5,,163346.69999998808,2021-10-31T17:58:30.279Z,163439.962,1635702814,full,ni_sequenzen,NI_Sequenzen,,,,,,,,,,,,,,
,Screen_4,canvas.Screen,0_2_16_3,,skipped,17,163347.30000001192,,,163345.5,,163347.30000001192,2021-10-31T17:58:30.280Z,163439.962,1635702814,full,ni_sequenzen,NI_Sequenzen,,,,,,,,,,,,,,
,Screen_5,canvas.Screen,0_2_16_4,,skipped,17,163347.89999997616,,,163345.5,,163347.89999997616,2021-10-31T17:58:30.281Z,163439.962,1635702814,full,ni_sequenzen,NI_Sequenzen,,,,,,,,,,,,,,
,Screen_6,canvas.Screen,0_2_16_5,,skipped,17,163348.39999997616,,,163345.5,,163348.5,2021-10-31T17:58:30.281Z,163439.962,1635702814,full,ni_sequenzen,NI_Sequenzen,,,,,,,,,,,,,,
,Sequence,flow.Sequence,0_2_16,,completion,17,163344.89999997616,,,163345.5,,163348.60000002384,2021-10-31T17:58:30.281Z,163439.962,1635702814,full,ni_sequenzen,NI_Sequenzen,,,,,,,,,,,,,,
,Screen_1,canvas.Screen,0_2_17_0,,skipped,18,163349.39999997616,,,163349.39999997616,,163349.5,2021-10-31T17:58:30.282Z,163439.962,1635702814,full,ni_sequenzen,NI_Sequenzen,,,,,,,,,,,,,,
,Screen_2,canvas.Screen,0_2_17_1,,skipped,18,163350.10000002384,,,163349.39999997616,,163350.10000002384,2021-10-31T17:58:30.283Z,163439.962,1635702814,full,ni_sequenzen,NI_Sequenzen,,,,,,,,,,,,,,
,Screen_3,canvas.Screen,0_2_17_2,,skipped,18,163350.60000002384,,,163349.39999997616,,163350.60000002384,2021-10-31T17:58:30.283Z,163439.962,1635702814,full,ni_sequenzen,NI_Sequenzen,,,,,,,,,,,,,,
,Screen_4,canvas.Screen,0_2_17_3,,skipped,18,163351.69999998808,,,163349.39999997616,,163351.80000001192,2021-10-31T17:58:30.284Z,163439.962,1635702814,full,ni_sequenzen,NI_Sequenzen,,,,,,,,,,,,,,
,Screen_5,canvas.Screen,0_2_17_4,,skipped,18,163352.39999997616,,,163349.39999997616,,163352.5,2021-10-31T17:58:30.285Z,163439.962,1635702814,full,ni_sequenzen,NI_Sequenzen,,,,,,,,,,,,,,
,Screen_6,canvas.Screen,0_2_17_5,,skipped,18,163353,,,163349.39999997616,,163353.10000002384,2021-10-31T17:58:30.286Z,163439.962,1635702814,full,ni_sequenzen,NI_Sequenzen,,,,,,,,,,,,,,
,Sequence,flow.Sequence,0_2_17,,completion,18,163348.89999997616,,,163349.39999997616,,163353.19999998808,2021-10-31T17:58:30.286Z,163439.962,1635702814,full,ni_sequenzen,NI_Sequenzen,,,,,,,,,,,,,,
,Screen_1,canvas.Screen,0_2_18_0,,skipped,19,163353.89999997616,,,163353.89999997616,,163354,2021-10-31T17:58:30.287Z,163439.962,1635702814,full,ni_sequenzen,NI_Sequenzen,,,,,,,,,,,,,,
,Screen_2,canvas.Screen,0_2_18_1,,skipped,19,163354.5,,,163353.89999997616,,163354.5,2021-10-31T17:58:30.287Z,163439.962,1635702814,full,ni_sequenzen,NI_Sequenzen,,,,,,,,,,,,,,
,Screen_3,canvas.Screen,0_2_18_2,,skipped,19,163355.10000002384,,,163353.89999997616,,163355.19999998808,2021-10-31T17:58:30.288Z,163439.962,1635702814,full,ni_sequenzen,NI_Sequenzen,,,,,,,,,,,,,,
,Screen_4,canvas.Screen,0_2_18_3,,skipped,19,163355.80000001192,,,163353.89999997616,,163355.80000001192,2021-10-31T17:58:30.288Z,163439.962,1635702814,full,ni_sequenzen,NI_Sequenzen,,,,,,,,,,,,,,
,Screen_5,canvas.Screen,0_2_18_4,,skipped,19,163356.39999997616,,,163353.89999997616,,163356.39999997616,2021-10-31T17:58:30.289Z,163439.962,1635702814,full,ni_sequenzen,NI_Sequenzen,,,,,,,,,,,,,,
,Screen_6,canvas.Screen,0_2_18_5,,skipped,19,163356.89999997616,,,163353.89999997616,,163357,2021-10-31T17:58:30.290Z,163439.962,1635702814,full,ni_sequenzen,NI_Sequenzen,,,,,,,,,,,,,,
,Sequence,flow.Sequence,0_2_18,,completion,19,163353.39999997616,,,163353.89999997616,,163357,2021-10-31T17:58:30.290Z,163439.962,1635702814,full,ni_sequenzen,NI_Sequenzen,,,,,,,,,,,,,,
,Screen_1,canvas.Screen,0_2_19_0,,skipped,20,163357.89999997616,,,163357.89999997616,,163358,2021-10-31T17:58:30.291Z,163439.962,1635702814,full,ni_sequenzen,NI_Sequenzen,,,,,,,,,,,,,,
,Screen_2,canvas.Screen,0_2_19_1,,skipped,20,163358.60000002384,,,163357.89999997616,,163358.60000002384,2021-10-31T17:58:30.291Z,163439.962,1635702814,full,ni_sequenzen,NI_Sequenzen,,,,,,,,,,,,,,
,Screen_3,canvas.Screen,0_2_19_2,,skipped,20,163359.19999998808,,,163357.89999997616,,163359.30000001192,2021-10-31T17:58:30.292Z,163439.962,1635702814,full,ni_sequenzen,NI_Sequenzen,,,,,,,,,,,,,,
,Screen_4,canvas.Screen,0_2_19_3,,skipped,20,163359.89999997616,,,163357.89999997616,,163359.89999997616,2021-10-31T17:58:30.293Z,163439.962,1635702814,full,ni_sequenzen,NI_Sequenzen,,,,,,,,,,,,,,
,Screen_5,canvas.Screen,0_2_19_4,,skipped,20,163361.10000002384,,,163357.89999997616,,163361.19999998808,2021-10-31T17:58:30.294Z,163439.962,1635702814,full,ni_sequenzen,NI_Sequenzen,,,,,,,,,,,,,,
,Screen_6,canvas.Screen,0_2_19_5,,skipped,20,163361.80000001192,,,163357.89999997616,,163361.89999997616,2021-10-31T17:58:30.294Z,163439.962,1635702814,full,ni_sequenzen,NI_Sequenzen,,,,,,,,,,,,,,
,Sequence,flow.Sequence,0_2_19,,completion,20,163357.30000001192,,,163357.89999997616,,163361.89999997616,2021-10-31T17:58:30.295Z,163439.962,1635702814,full,ni_sequenzen,NI_Sequenzen,,,,,,,,,,,,,,
,Screen_1,canvas.Screen,0_2_20_0,,skipped,21,163362.80000001192,,,163362.80000001192,,163362.80000001192,2021-10-31T17:58:30.295Z,163439.962,1635702814,full,ni_sequenzen,NI_Sequenzen,,,,,,,,,,,,,,
,Screen_2,canvas.Screen,0_2_20_1,,skipped,21,163363.30000001192,,,163362.80000001192,,163363.39999997616,2021-10-31T17:58:30.296Z,163439.962,1635702814,full,ni_sequenzen,NI_Sequenzen,,,,,,,,,,,,,,
,Screen_3,canvas.Screen,0_2_20_2,,skipped,21,163364.10000002384,,,163362.80000001192,,163364.10000002384,2021-10-31T17:58:30.297Z,163439.962,1635702814,full,ni_sequenzen,NI_Sequenzen,,,,,,,,,,,,,,
,Screen_4,canvas.Screen,0_2_20_3,,skipped,21,163364.69999998808,,,163362.80000001192,,163364.69999998808,2021-10-31T17:58:30.297Z,163439.962,1635702814,full,ni_sequenzen,NI_Sequenzen,,,,,,,,,,,,,,
,Screen_5,canvas.Screen,0_2_20_4,,skipped,21,163365.19999998808,,,163362.80000001192,,163365.30000001192,2021-10-31T17:58:30.298Z,163439.962,1635702814,full,ni_sequenzen,NI_Sequenzen,,,,,,,,,,,,,,
,Screen_6,canvas.Screen,0_2_20_5,,skipped,21,163365.89999997616,,,163362.80000001192,,163366,2021-10-31T17:58:30.299Z,163439.962,1635702814,full,ni_sequenzen,NI_Sequenzen,,,,,,,,,,,,,,
,Sequence,flow.Sequence,0_2_20,,completion,21,163362.30000001192,,,163362.80000001192,,163366.10000002384,2021-10-31T17:58:30.299Z,163439.962,1635702814,full,ni_sequenzen,NI_Sequenzen,,,,,,,,,,,,,,
,Screen_1,canvas.Screen,0_2_21_0,,skipped,22,163366.89999997616,,,163366.89999997616,,163366.89999997616,2021-10-31T17:58:30.300Z,163439.962,1635702814,full,ni_sequenzen,NI_Sequenzen,,,,,,,,,,,,,,
,Screen_2,canvas.Screen,0_2_21_1,,skipped,22,163367.5,,,163366.89999997616,,163367.60000002384,2021-10-31T17:58:30.300Z,163439.962,1635702814,full,ni_sequenzen,NI_Sequenzen,,,,,,,,,,,,,,
,Screen_3,canvas.Screen,0_2_21_2,,skipped,22,163368.19999998808,,,163366.89999997616,,163368.30000001192,2021-10-31T17:58:30.301Z,163439.962,1635702814,full,ni_sequenzen,NI_Sequenzen,,,,,,,,,,,,,,
,Screen_4,canvas.Screen,0_2_21_3,,skipped,22,163368.80000001192,,,163366.89999997616,,163368.89999997616,2021-10-31T17:58:30.302Z,163439.962,1635702814,full,ni_sequenzen,NI_Sequenzen,,,,,,,,,,,,,,
,Screen_5,canvas.Screen,0_2_21_4,,skipped,22,163369.5,,,163366.89999997616,,163369.5,2021-10-31T17:58:30.302Z,163439.962,1635702814,full,ni_sequenzen,NI_Sequenzen,,,,,,,,,,,,,,
,Screen_6,canvas.Screen,0_2_21_5,,skipped,22,163370.69999998808,,,163366.89999997616,,163370.69999998808,2021-10-31T17:58:30.303Z,163439.962,1635702814,full,ni_sequenzen,NI_Sequenzen,,,,,,,,,,,,,,
,Sequence,flow.Sequence,0_2_21,,completion,22,163366.30000001192,,,163366.89999997616,,163370.80000001192,2021-10-31T17:58:30.304Z,163439.962,1635702814,full,ni_sequenzen,NI_Sequenzen,,,,,,,,,,,,,,
,Screen_1,canvas.Screen,0_2_22_0,,skipped,23,163371.60000002384,,,163371.60000002384,,163371.60000002384,2021-10-31T17:58:30.304Z,163439.962,1635702814,full,ni_sequenzen,NI_Sequenzen,,,,,,,,,,,,,,
,Screen_2,canvas.Screen,0_2_22_1,,skipped,23,163372.89999997616,,,163371.60000002384,,163373,2021-10-31T17:58:30.306Z,163439.962,1635702814,full,ni_sequenzen,NI_Sequenzen,,,,,,,,,,,,,,
,Screen_3,canvas.Screen,0_2_22_2,,skipped,23,163373.5,,,163371.60000002384,,163373.60000002384,2021-10-31T17:58:30.306Z,163439.962,1635702814,full,ni_sequenzen,NI_Sequenzen,,,,,,,,,,,,,,
,Screen_4,canvas.Screen,0_2_22_3,,skipped,23,163374.19999998808,,,163371.60000002384,,163374.30000001192,2021-10-31T17:58:30.307Z,163439.962,1635702814,full,ni_sequenzen,NI_Sequenzen,,,,,,,,,,,,,,
,Screen_5,canvas.Screen,0_2_22_4,,skipped,23,163374.80000001192,,,163371.60000002384,,163375,2021-10-31T17:58:30.308Z,163439.962,1635702814,full,ni_sequenzen,NI_Sequenzen,,,,,,,,,,,,,,
,Screen_6,canvas.Screen,0_2_22_5,,skipped,23,163375.60000002384,,,163371.60000002384,,163375.69999998808,2021-10-31T17:58:30.308Z,163439.962,1635702814,full,ni_sequenzen,NI_Sequenzen,,,,,,,,,,,,,,
,Sequence,flow.Sequence,0_2_22,,completion,23,163371.10000002384,,,163371.60000002384,,163375.69999998808,2021-10-31T17:58:30.308Z,163439.962,1635702814,full,ni_sequenzen,NI_Sequenzen,,,,,,,,,,,,,,
,Screen_1,canvas.Screen,0_2_23_0,,skipped,24,163376.80000001192,,,163376.80000001192,,163376.80000001192,2021-10-31T17:58:30.310Z,163439.962,1635702814,full,ni_sequenzen,NI_Sequenzen,,,,,,,,,,,,,,
,Screen_2,canvas.Screen,0_2_23_1,,skipped,24,163377.39999997616,,,163376.80000001192,,163377.5,2021-10-31T17:58:30.310Z,163439.962,1635702814,full,ni_sequenzen,NI_Sequenzen,,,,,,,,,,,,,,
,Screen_3,canvas.Screen,0_2_23_2,,skipped,24,163378,,,163376.80000001192,,163378.10000002384,2021-10-31T17:58:30.311Z,163439.962,1635702814,full,ni_sequenzen,NI_Sequenzen,,,,,,,,,,,,,,
,Screen_4,canvas.Screen,0_2_23_3,,skipped,24,163378.60000002384,,,163376.80000001192,,163378.69999998808,2021-10-31T17:58:30.311Z,163439.962,1635702814,full,ni_sequenzen,NI_Sequenzen,,,,,,,,,,,,,,
,Screen_5,canvas.Screen,0_2_23_4,,skipped,24,163379.30000001192,,,163376.80000001192,,163379.30000001192,2021-10-31T17:58:30.312Z,163439.962,1635702814,full,ni_sequenzen,NI_Sequenzen,,,,,,,,,,,,,,
,Screen_6,canvas.Screen,0_2_23_5,,skipped,24,163379.80000001192,,,163376.80000001192,,163379.89999997616,2021-10-31T17:58:30.313Z,163439.962,1635702814,full,ni_sequenzen,NI_Sequenzen,,,,,,,,,,,,,,
,Sequence,flow.Sequence,0_2_23,,completion,24,163376.10000002384,,,163376.80000001192,,163380,2021-10-31T17:58:30.313Z,163439.962,1635702814,full,ni_sequenzen,NI_Sequenzen,,,,,,,,,,,,,,
,Screen_1,canvas.Screen,0_2_24_0,,skipped,25,163380.89999997616,,,163380.89999997616,,163380.89999997616,2021-10-31T17:58:30.314Z,163439.962,1635702814,full,ni_sequenzen,NI_Sequenzen,,,,,,,,,,,,,,
,Screen_2,canvas.Screen,0_2_24_1,,skipped,25,163381.39999997616,,,163380.89999997616,,163381.5,2021-10-31T17:58:30.314Z,163439.962,1635702814,full,ni_sequenzen,NI_Sequenzen,,,,,,,,,,,,,,
,Screen_3,canvas.Screen,0_2_24_2,,skipped,25,163382.60000002384,,,163380.89999997616,,163382.60000002384,2021-10-31T17:58:30.315Z,163439.962,1635702814,full,ni_sequenzen,NI_Sequenzen,,,,,,,,,,,,,,
,Screen_4,canvas.Screen,0_2_24_3,,skipped,25,163383.19999998808,,,163380.89999997616,,163383.30000001192,2021-10-31T17:58:30.316Z,163439.962,1635702814,full,ni_sequenzen,NI_Sequenzen,,,,,,,,,,,,,,
,Screen_5,canvas.Screen,0_2_24_4,,skipped,25,163383.80000001192,,,163380.89999997616,,163383.89999997616,2021-10-31T17:58:30.317Z,163439.962,1635702814,full,ni_sequenzen,NI_Sequenzen,,,,,,,,,,,,,,
,Screen_6,canvas.Screen,0_2_24_5,,skipped,25,163384.39999997616,,,163380.89999997616,,163384.5,2021-10-31T17:58:30.317Z,163439.962,1635702814,full,ni_sequenzen,NI_Sequenzen,,,,,,,,,,,,,,
,Sequence,flow.Sequence,0_2_24,,completion,25,163380.19999998808,,,163380.89999997616,,163384.5,2021-10-31T17:58:30.317Z,163439.962,1635702814,full,ni_sequenzen,NI_Sequenzen,,,,,,,,,,,,,,
,Screen_1,canvas.Screen,0_2_25_0,,skipped,26,163385.30000001192,,,163385.30000001192,,163385.39999997616,2021-10-31T17:58:30.318Z,163439.962,1635702814,full,ni_sequenzen,NI_Sequenzen,,,,,,,,,,,,,,
,Screen_2,canvas.Screen,0_2_25_1,,skipped,26,163385.89999997616,,,163385.30000001192,,163386,2021-10-31T17:58:30.319Z,163439.962,1635702814,full,ni_sequenzen,NI_Sequenzen,,,,,,,,,,,,,,
,Screen_3,canvas.Screen,0_2_25_2,,skipped,26,163386.5,,,163385.30000001192,,163386.60000002384,2021-10-31T17:58:30.319Z,163439.962,1635702814,full,ni_sequenzen,NI_Sequenzen,,,,,,,,,,,,,,
,Screen_4,canvas.Screen,0_2_25_3,,skipped,26,163387.10000002384,,,163385.30000001192,,163387.19999998808,2021-10-31T17:58:30.320Z,163439.962,1635702814,full,ni_sequenzen,NI_Sequenzen,,,,,,,,,,,,,,
,Screen_5,canvas.Screen,0_2_25_4,,skipped,26,163387.69999998808,,,163385.30000001192,,163387.80000001192,2021-10-31T17:58:30.320Z,163439.962,1635702814,full,ni_sequenzen,NI_Sequenzen,,,,,,,,,,,,,,
,Screen_6,canvas.Screen,0_2_25_5,,skipped,26,163388.30000001192,,,163385.30000001192,,163388.39999997616,2021-10-31T17:58:30.321Z,163439.962,1635702814,full,ni_sequenzen,NI_Sequenzen,,,,,,,,,,,,,,
,Sequence,flow.Sequence,0_2_25,,completion,26,163384.80000001192,,,163385.30000001192,,163388.39999997616,2021-10-31T17:58:30.321Z,163439.962,1635702814,full,ni_sequenzen,NI_Sequenzen,,,,,,,,,,,,,,
,Screen_1,canvas.Screen,0_2_26_0,,skipped,27,163389.5,,,163389.5,,163389.5,2021-10-31T17:58:30.322Z,163439.962,1635702814,full,ni_sequenzen,NI_Sequenzen,,,,,,,,,,,,,,
,Screen_2,canvas.Screen,0_2_26_1,,skipped,27,163390,,,163389.5,,163390.19999998808,2021-10-31T17:58:30.323Z,163439.962,1635702814,full,ni_sequenzen,NI_Sequenzen,,,,,,,,,,,,,,
,Screen_3,canvas.Screen,0_2_26_2,,skipped,27,163390.80000001192,,,163389.5,,163390.80000001192,2021-10-31T17:58:30.323Z,163439.962,1635702814,full,ni_sequenzen,NI_Sequenzen,,,,,,,,,,,,,,
,Screen_4,canvas.Screen,0_2_26_3,,skipped,27,163391.60000002384,,,163389.5,,163391.60000002384,2021-10-31T17:58:30.324Z,163439.962,1635702814,full,ni_sequenzen,NI_Sequenzen,,,,,,,,,,,,,,
,Screen_5,canvas.Screen,0_2_26_4,,skipped,27,163392.19999998808,,,163389.5,,163392.30000001192,2021-10-31T17:58:30.325Z,163439.962,1635702814,full,ni_sequenzen,NI_Sequenzen,,,,,,,,,,,,,,
,Screen_6,canvas.Screen,0_2_26_5,,skipped,27,163393.5,,,163389.5,,163393.5,2021-10-31T17:58:30.326Z,163439.962,1635702814,full,ni_sequenzen,NI_Sequenzen,,,,,,,,,,,,,,
,Sequence,flow.Sequence,0_2_26,,completion,27,163388.80000001192,,,163389.5,,163393.60000002384,2021-10-31T17:58:30.326Z,163439.962,1635702814,full,ni_sequenzen,NI_Sequenzen,,,,,,,,,,,,,,
,Screen_1,canvas.Screen,0_2_27_0,,skipped,28,163394.30000001192,,,163394.39999997616,,163394.5,2021-10-31T17:58:30.327Z,163439.962,1635702814,full,ni_sequenzen,NI_Sequenzen,,,,,,,,,,,,,,
,Screen_2,canvas.Screen,0_2_27_1,,skipped,28,163395,,,163394.39999997616,,163395.10000002384,2021-10-31T17:58:30.328Z,163439.962,1635702814,full,ni_sequenzen,NI_Sequenzen,,,,,,,,,,,,,,
,Screen_3,canvas.Screen,0_2_27_2,,skipped,28,163395.69999998808,,,163394.39999997616,,163395.80000001192,2021-10-31T17:58:30.328Z,163439.962,1635702814,full,ni_sequenzen,NI_Sequenzen,,,,,,,,,,,,,,
,Screen_4,canvas.Screen,0_2_27_3,,skipped,28,163396.30000001192,,,163394.39999997616,,163396.39999997616,2021-10-31T17:58:30.329Z,163439.962,1635702814,full,ni_sequenzen,NI_Sequenzen,,,,,,,,,,,,,,
,Screen_5,canvas.Screen,0_2_27_4,,skipped,28,163396.89999997616,,,163394.39999997616,,163397.10000002384,2021-10-31T17:58:30.330Z,163439.962,1635702814,full,ni_sequenzen,NI_Sequenzen,,,,,,,,,,,,,,
,Screen_6,canvas.Screen,0_2_27_5,,skipped,28,163397.60000002384,,,163394.39999997616,,163397.69999998808,2021-10-31T17:58:30.330Z,163439.962,1635702814,full,ni_sequenzen,NI_Sequenzen,,,,,,,,,,,,,,
,Sequence,flow.Sequence,0_2_27,,completion,28,163393.89999997616,,,163394.39999997616,,163397.80000001192,2021-10-31T17:58:30.330Z,163439.962,1635702814,full,ni_sequenzen,NI_Sequenzen,,,,,,,,,,,,,,
,Screen_1,canvas.Screen,0_2_28_0,,skipped,29,163398.60000002384,,,163398.60000002384,,163398.69999998808,2021-10-31T17:58:30.331Z,163439.962,1635702814,full,ni_sequenzen,NI_Sequenzen,,,,,,,,,,,,,,
,Screen_2,canvas.Screen,0_2_28_1,,skipped,29,163399.30000001192,,,163398.60000002384,,163399.30000001192,2021-10-31T17:58:30.332Z,163439.962,1635702814,full,ni_sequenzen,NI_Sequenzen,,,,,,,,,,,,,,
,Screen_3,canvas.Screen,0_2_28_2,,skipped,29,163399.89999997616,,,163398.60000002384,,163400,2021-10-31T17:58:30.333Z,163439.962,1635702814,full,ni_sequenzen,NI_Sequenzen,,,,,,,,,,,,,,
,Screen_4,canvas.Screen,0_2_28_3,,skipped,29,163400.5,,,163398.60000002384,,163400.5,2021-10-31T17:58:30.333Z,163439.962,1635702814,full,ni_sequenzen,NI_Sequenzen,,,,,,,,,,,,,,
,Screen_5,canvas.Screen,0_2_28_4,,skipped,29,163401.10000002384,,,163398.60000002384,,163401.19999998808,2021-10-31T17:58:30.334Z,163439.962,1635702814,full,ni_sequenzen,NI_Sequenzen,,,,,,,,,,,,,,
,Screen_6,canvas.Screen,0_2_28_5,,skipped,29,163401.80000001192,,,163398.60000002384,,163401.89999997616,2021-10-31T17:58:30.335Z,163439.962,1635702814,full,ni_sequenzen,NI_Sequenzen,,,,,,,,,,,,,,
,Sequence,flow.Sequence,0_2_28,,completion,29,163398,,,163398.60000002384,,163401.89999997616,2021-10-31T17:58:30.335Z,163439.962,1635702814,full,ni_sequenzen,NI_Sequenzen,,,,,,,,,,,,,,
,Screen_1,canvas.Screen,0_2_29_0,,skipped,30,163403.19999998808,,,163403.19999998808,,163403.19999998808,2021-10-31T17:58:30.336Z,163439.962,1635702814,full,ni_sequenzen,NI_Sequenzen,,,,,,,,,,,,,,
,Screen_2,canvas.Screen,0_2_29_1,,skipped,30,163403.89999997616,,,163403.19999998808,,163403.89999997616,2021-10-31T17:58:30.337Z,163439.962,1635702814,full,ni_sequenzen,NI_Sequenzen,,,,,,,,,,,,,,
,Screen_3,canvas.Screen,0_2_29_2,,skipped,30,163404.5,,,163403.19999998808,,163404.5,2021-10-31T17:58:30.337Z,163439.962,1635702814,full,ni_sequenzen,NI_Sequenzen,,,,,,,,,,,,,,
,Screen_4,canvas.Screen,0_2_29_3,,skipped,30,163405.10000002384,,,163403.19999998808,,163405.10000002384,2021-10-31T17:58:30.338Z,163439.962,1635702814,full,ni_sequenzen,NI_Sequenzen,,,,,,,,,,,,,,
,Screen_5,canvas.Screen,0_2_29_4,,skipped,30,163405.80000001192,,,163403.19999998808,,163405.89999997616,2021-10-31T17:58:30.339Z,163439.962,1635702814,full,ni_sequenzen,NI_Sequenzen,,,,,,,,,,,,,,
,Screen_6,canvas.Screen,0_2_29_5,,skipped,30,163406.39999997616,,,163403.19999998808,,163406.39999997616,2021-10-31T17:58:30.339Z,163439.962,1635702814,full,ni_sequenzen,NI_Sequenzen,,,,,,,,,,,,,,
,Sequence,flow.Sequence,0_2_29,,completion,30,163402.19999998808,,,163403.19999998808,,163406.60000002384,2021-10-31T17:58:30.339Z,163439.962,1635702814,full,ni_sequenzen,NI_Sequenzen,,,,,,,,,,,,,,
,Instructions_II,flow.Loop,0_2,,completion,,116793.60000002384,116788.195,116804.873,163403.19999998808,46598.32699998807,163406.60000002384,2021-10-31T17:58:30.339Z,163439.962,1635702814,full,ni_sequenzen,NI_Sequenzen,,,,,,,,,,,,,,
,Move,canvas.Screen,0_3_0_0_0_0,right,response,,163430.60000002384,163422.675,163439.962,167298.80000001192,3858.8380000119214,167299.19999998808,2021-10-31T17:58:34.232Z,167306.784,1635702814,full,ni_sequenzen,NI_Sequenzen,1,0,,,,,,,,,,,,
,Move,canvas.Screen,0_3_0_0_0_1,down,response,,167302.5,167289.787,167306.784,167926.69999998808,619.9159999880649,167927.10000002384,2021-10-31T17:58:34.860Z,167940.316,1635702814,full,ni_sequenzen,NI_Sequenzen,2,0,,,,,,,,,,,,
,Move,canvas.Screen,0_3_0_0_0_2,right,response,,167929.19999998808,167923.447,167940.316,175264.10000002384,7323.78400002385,175264.60000002384,2021-10-31T17:58:42.197Z,175273.741,1635702814,full,ni_sequenzen,NI_Sequenzen,3,0,,,,,,,,,,,,
,Move,canvas.Screen,0_3_0_0_0_3,down,response,,175266.39999997616,175256.517,175273.741,176456.60000002384,1182.8590000238328,176457.10000002384,2021-10-31T17:58:43.390Z,176490.467,1635702814,full,ni_sequenzen,NI_Sequenzen,4,0,,,,,,,,,,,,
,Move,canvas.Screen,0_3_0_0_0_4,-999,skipped,,176459,,,176456.60000002384,,176459.10000002384,2021-10-31T17:58:43.392Z,176490.467,1635702814,full,ni_sequenzen,NI_Sequenzen,5,0,,,,,,,,,,,,
,Move,canvas.Screen,0_3_0_0_0_5,-999,skipped,,176460.69999998808,,,176456.60000002384,,176460.69999998808,2021-10-31T17:58:43.393Z,176490.467,1635702814,full,ni_sequenzen,NI_Sequenzen,6,0,,,,,,,,,,,,
,Move,canvas.Screen,0_3_0_0_0_6,-999,skipped,,176462.10000002384,,,176456.60000002384,,176462.10000002384,2021-10-31T17:58:43.395Z,176490.467,1635702814,full,ni_sequenzen,NI_Sequenzen,7,0,,,,,,,,,,,,
,Move,canvas.Screen,0_3_0_0_0_7,-999,skipped,,176463.69999998808,,,176456.60000002384,,176463.69999998808,2021-10-31T17:58:43.396Z,176490.467,1635702814,full,ni_sequenzen,NI_Sequenzen,8,0,,,,,,,,,,,,
,Move,canvas.Screen,0_3_0_0_0_8,-999,skipped,,176465.10000002384,,,176456.60000002384,,176465.19999998808,2021-10-31T17:58:43.398Z,176490.467,1635702814,full,ni_sequenzen,NI_Sequenzen,9,0,,,,,,,,,,,,
,Move,canvas.Screen,0_3_0_0_0_9,-999,skipped,,176466.39999997616,,,176456.60000002384,,176466.5,2021-10-31T17:58:43.399Z,176490.467,1635702814,full,ni_sequenzen,NI_Sequenzen,10,0,,,,,,,,,,,,
,Move,canvas.Screen,0_3_0_0_0_10,-999,skipped,,176468.5,,,176456.60000002384,,176468.60000002384,2021-10-31T17:58:43.401Z,176490.467,1635702814,full,ni_sequenzen,NI_Sequenzen,11,0,,,,,,,,,,,,
,Move,canvas.Screen,0_3_0_0_0_11,-999,skipped,,176470,,,176456.60000002384,,176470.10000002384,2021-10-31T17:58:43.403Z,176490.467,1635702814,full,ni_sequenzen,NI_Sequenzen,12,0,,,,,,,,,,,,
,Move,canvas.Screen,0_3_0_0_0_12,-999,skipped,,176471.80000001192,,,176456.60000002384,,176471.80000001192,2021-10-31T17:58:43.405Z,176490.467,1635702814,full,ni_sequenzen,NI_Sequenzen,13,0,,,,,,,,,,,,
,Move,canvas.Screen,0_3_0_0_0_13,-999,skipped,,176474.19999998808,,,176456.60000002384,,176474.30000001192,2021-10-31T17:58:43.407Z,176490.467,1635702814,full,ni_sequenzen,NI_Sequenzen,14,0,,,,,,,,,,,,
,Move,canvas.Screen,0_3_0_0_0_14,-999,skipped,,176475.80000001192,,,176456.60000002384,,176475.80000001192,2021-10-31T17:58:43.409Z,176490.467,1635702814,full,ni_sequenzen,NI_Sequenzen,15,0,,,,,,,,,,,,
,Loop,flow.Loop,0_3_0_0_0,-999,completion,,163426.60000002384,163422.675,163439.962,176456.60000002384,13016.638000023842,176476,2021-10-31T17:58:43.409Z,176490.467,1635702814,full,ni_sequenzen,NI_Sequenzen,,0,,,,,,,,,,,,
,Feedback,canvas.Screen,0_3_0_0_1,,timeout,,176478.19999998808,176473.706,176490.467,180473.936,4000.1389999999956,180474.60000002384,2021-10-31T17:58:47.407Z,180490.606,1635702814,full,ni_sequenzen,NI_Sequenzen,,0,,,,,,,,,,,,
,Trial,flow.Sequence,0_3_0_0,,completion,,163418.5,163422.675,163439.962,180473.936,17033.973999999987,180474.69999998808,2021-10-31T17:58:47.407Z,180507.335,1635702814,full,ni_sequenzen,NI_Sequenzen,,0,,,,,,,,,,,,
,Move,canvas.Screen,0_3_0_1_0_0,down,response,,180483.69999998808,180490.606,180507.335,186473,5965.665000000008,186473.5,2021-10-31T17:58:53.406Z,186490.859,1635702814,full,ni_sequenzen,NI_Sequenzen,1,1,,,,,,,,,,,,
,Move,canvas.Screen,0_3_0_1_0_1,left,response,,186475.30000001192,186473.745,186490.859,187487.5,996.6410000000033,187487.89999997616,2021-10-31T17:58:54.420Z,187508.77,1635702814,full,ni_sequenzen,NI_Sequenzen,2,1,,,,,,,,,,,,
,Move,canvas.Screen,0_3_0_1_0_2,down,response,,187489.80000001192,187474.123,187508.77,188259.89999997616,751.1299999761686,188260.30000001192,2021-10-31T17:58:55.192Z,188274.219,1635702814,full,ni_sequenzen,NI_Sequenzen,3,1,,,,,,,,,,,,
,Move,canvas.Screen,0_3_0_1_0_3,left,response,,188262.39999997616,188257.484,188274.219,188577.69999998808,303.4809999880672,188578.10000002384,2021-10-31T17:58:55.510Z,188607.554,1635702814,full,ni_sequenzen,NI_Sequenzen,4,1,,,,,,,,,,,,
,Move,canvas.Screen,0_3_0_1_0_4,-999,skipped,,188580.10000002384,,,188577.69999998808,,188580.19999998808,2021-10-31T17:58:55.512Z,188607.554,1635702814,full,ni_sequenzen,NI_Sequenzen,5,1,,,,,,,,,,,,
,Move,canvas.Screen,0_3_0_1_0_5,-999,skipped,,188581.69999998808,,,188577.69999998808,,188581.69999998808,2021-10-31T17:58:55.514Z,188607.554,1635702814,full,ni_sequenzen,NI_Sequenzen,6,1,,,,,,,,,,,,
,Move,canvas.Screen,0_3_0_1_0_6,-999,skipped,,188583.19999998808,,,188577.69999998808,,188583.19999998808,2021-10-31T17:58:55.515Z,188607.554,1635702814,full,ni_sequenzen,NI_Sequenzen,7,1,,,,,,,,,,,,
,Move,canvas.Screen,0_3_0_1_0_7,-999,skipped,,188585.39999997616,,,188577.69999998808,,188585.5,2021-10-31T17:58:55.518Z,188607.554,1635702814,full,ni_sequenzen,NI_Sequenzen,8,1,,,,,,,,,,,,
,Move,canvas.Screen,0_3_0_1_0_8,-999,skipped,,188586.89999997616,,,188577.69999998808,,188587,2021-10-31T17:58:55.519Z,188607.554,1635702814,full,ni_sequenzen,NI_Sequenzen,9,1,,,,,,,,,,,,
,Move,canvas.Screen,0_3_0_1_0_9,-999,skipped,,188588.39999997616,,,188577.69999998808,,188588.39999997616,2021-10-31T17:58:55.521Z,188607.554,1635702814,full,ni_sequenzen,NI_Sequenzen,10,1,,,,,,,,,,,,
,Move,canvas.Screen,0_3_0_1_0_10,-999,skipped,,188590.69999998808,,,188577.69999998808,,188590.80000001192,2021-10-31T17:58:55.523Z,188607.554,1635702814,full,ni_sequenzen,NI_Sequenzen,11,1,,,,,,,,,,,,
,Move,canvas.Screen,0_3_0_1_0_11,-999,skipped,,188592.30000001192,,,188577.69999998808,,188592.30000001192,2021-10-31T17:58:55.525Z,188607.554,1635702814,full,ni_sequenzen,NI_Sequenzen,12,1,,,,,,,,,,,,
,Move,canvas.Screen,0_3_0_1_0_12,-999,skipped,,188593.80000001192,,,188577.69999998808,,188593.80000001192,2021-10-31T17:58:55.526Z,188607.554,1635702814,full,ni_sequenzen,NI_Sequenzen,13,1,,,,,,,,,,,,
,Move,canvas.Screen,0_3_0_1_0_13,-999,skipped,,188595.89999997616,,,188577.69999998808,,188596,2021-10-31T17:58:55.528Z,188607.554,1635702814,full,ni_sequenzen,NI_Sequenzen,14,1,,,,,,,,,,,,
,Move,canvas.Screen,0_3_0_1_0_14,-999,skipped,,188598.19999998808,,,188577.69999998808,,188598.30000001192,2021-10-31T17:58:55.531Z,188607.554,1635702814,full,ni_sequenzen,NI_Sequenzen,15,1,,,,,,,,,,,,
,Loop,flow.Loop,0_3_0_1_0,-999,completion,,180482,180490.606,180507.335,188577.69999998808,8070.364999988087,188598.39999997616,2021-10-31T17:58:55.531Z,188607.554,1635702814,full,ni_sequenzen,NI_Sequenzen,,1,,,,,,,,,,,,
,Feedback,canvas.Screen,0_3_0_1_1,,timeout,,188599.89999997616,188590.893,188607.554,192591.063,4000.1909999999916,192591.39999997616,2021-10-31T17:58:59.524Z,192607.745,1635702814,full,ni_sequenzen,NI_Sequenzen,,1,,,,,,,,,,,,
,Trial,flow.Sequence,0_3_0_1,,completion,,180474.89999997616,180490.606,180507.335,192591.063,12083.728000000003,192591.60000002384,2021-10-31T17:58:59.524Z,192624.445,1635702814,full,ni_sequenzen,NI_Sequenzen,,1,,,,,,,,,,,,
,Move,canvas.Screen,0_3_0_2_0_0,down,response,,192601.5,192607.745,192624.445,195258.5,2634.054999999993,195258.89999997616,2021-10-31T17:59:02.191Z,195274.486,1635702814,full,ni_sequenzen,NI_Sequenzen,1,2,,,,,,,,,,,,
,Move,canvas.Screen,0_3_0_2_0_1,left,response,,195260.89999997616,195257.62,195274.486,197700.69999998808,2426.2139999880746,197701,2021-10-31T17:59:04.633Z,197707.893,1635702814,full,ni_sequenzen,NI_Sequenzen,2,2,,,,,,,,,,,,
,Move,canvas.Screen,0_3_0_2_0_2,down,response,,197703,197691.06,197707.893,198200.69999998808,492.8069999880681,198201.19999998808,2021-10-31T17:59:05.133Z,198207.916,1635702814,full,ni_sequenzen,NI_Sequenzen,3,2,,,,,,,,,,,,
,Move,canvas.Screen,0_3_0_2_0_3,left,response,,198203,198191.249,198207.916,198487.80000001192,279.8840000119235,198488.19999998808,2021-10-31T17:59:05.420Z,198524.61,1635702814,full,ni_sequenzen,NI_Sequenzen,4,2,,,,,,,,,,,,
,Move,canvas.Screen,0_3_0_2_0_4,-999,skipped,,198489.80000001192,,,198487.80000001192,,198490,2021-10-31T17:59:05.422Z,198524.61,1635702814,full,ni_sequenzen,NI_Sequenzen,5,2,,,,,,,,,,,,
,Move,canvas.Screen,0_3_0_2_0_5,-999,skipped,,198499.19999998808,,,198487.80000001192,,198499.39999997616,2021-10-31T17:59:05.432Z,198524.61,1635702814,full,ni_sequenzen,NI_Sequenzen,6,2,,,,,,,,,,,,
,Move,canvas.Screen,0_3_0_2_0_6,-999,skipped,,198501.30000001192,,,198487.80000001192,,198501.39999997616,2021-10-31T17:59:05.434Z,198524.61,1635702814,full,ni_sequenzen,NI_Sequenzen,7,2,,,,,,,,,,,,
,Move,canvas.Screen,0_3_0_2_0_7,-999,skipped,,198503.30000001192,,,198487.80000001192,,198503.5,2021-10-31T17:59:05.436Z,198524.61,1635702814,full,ni_sequenzen,NI_Sequenzen,8,2,,,,,,,,,,,,
,Move,canvas.Screen,0_3_0_2_0_8,-999,skipped,,198505.30000001192,,,198487.80000001192,,198505.39999997616,2021-10-31T17:59:05.438Z,198524.61,1635702814,full,ni_sequenzen,NI_Sequenzen,9,2,,,,,,,,,,,,
,Move,canvas.Screen,0_3_0_2_0_9,-999,skipped,,198507.19999998808,,,198487.80000001192,,198507.19999998808,2021-10-31T17:59:05.439Z,198524.61,1635702814,full,ni_sequenzen,NI_Sequenzen,10,2,,,,,,,,,,,,
,Move,canvas.Screen,0_3_0_2_0_10,-999,skipped,,198508.60000002384,,,198487.80000001192,,198508.69999998808,2021-10-31T17:59:05.441Z,198524.61,1635702814,full,ni_sequenzen,NI_Sequenzen,11,2,,,,,,,,,,,,
,Move,canvas.Screen,0_3_0_2_0_11,-999,skipped,,198510.10000002384,,,198487.80000001192,,198510.19999998808,2021-10-31T17:59:05.442Z,198524.61,1635702814,full,ni_sequenzen,NI_Sequenzen,12,2,,,,,,,,,,,,
,Move,canvas.Screen,0_3_0_2_0_12,-999,skipped,,198512.10000002384,,,198487.80000001192,,198512.19999998808,2021-10-31T17:59:05.444Z,198524.61,1635702814,full,ni_sequenzen,NI_Sequenzen,13,2,,,,,,,,,,,,
,Move,canvas.Screen,0_3_0_2_0_13,-999,skipped,,198513.60000002384,,,198487.80000001192,,198513.69999998808,2021-10-31T17:59:05.446Z,198524.61,1635702814,full,ni_sequenzen,NI_Sequenzen,14,2,,,,,,,,,,,,
,Move,canvas.Screen,0_3_0_2_0_14,-999,skipped,,198515.19999998808,,,198487.80000001192,,198515.19999998808,2021-10-31T17:59:05.447Z,198524.61,1635702814,full,ni_sequenzen,NI_Sequenzen,15,2,,,,,,,,,,,,
,Loop,flow.Loop,0_3_0_2_0,-999,completion,,192599.69999998808,192607.745,192624.445,198487.80000001192,5863.355000011914,198515.30000001192,2021-10-31T17:59:05.448Z,198524.61,1635702814,full,ni_sequenzen,NI_Sequenzen,,2,,,,,,,,,,,,
,Feedback,canvas.Screen,0_3_0_2_1,,timeout,,198516.60000002384,198507.934,198524.61,202508.092,4000.189000000013,202508.5,2021-10-31T17:59:09.441Z,202524.799,1635702814,full,ni_sequenzen,NI_Sequenzen,,2,,,,,,,,,,,,
,Trial,flow.Sequence,0_3_0_2,,completion,,192591.69999998808,192607.745,192624.445,202508.092,9883.646999999997,202508.5,2021-10-31T17:59:09.441Z,202541.414,1635702814,full,ni_sequenzen,NI_Sequenzen,,2,,,,,,,,,,,,
,Move,canvas.Screen,0_3_0_3_0_0,down,response,,202518,202524.799,202541.414,205034.39999997616,2492.9859999761684,205034.89999997616,2021-10-31T17:59:11.967Z,205041.488,1635702814,full,ni_sequenzen,NI_Sequenzen,1,3,,,,,,,,,,,,
,Move,canvas.Screen,0_3_0_3_0_1,right,response,,205036.80000001192,205024.651,205041.488,205558.69999998808,517.211999988067,205559,2021-10-31T17:59:12.491Z,205574.869,1635702814,full,ni_sequenzen,NI_Sequenzen,2,3,,,,,,,,,,,,
,Move,canvas.Screen,0_3_0_3_0_2,down,response,,205560.89999997616,205558.157,205574.869,205812.80000001192,237.93100001191488,205813.19999998808,2021-10-31T17:59:12.745Z,205824.847,1635702814,full,ni_sequenzen,NI_Sequenzen,3,3,,,,,,,,,,,,
,Move,canvas.Screen,0_3_0_3_0_3,right,response,,205814.80000001192,205808.16,205824.847,206493.5,668.6529999999912,206493.89999997616,2021-10-31T17:59:13.426Z,206524.922,1635702814,full,ni_sequenzen,NI_Sequenzen,4,3,,,,,,,,,,,,
,Move,canvas.Screen,0_3_0_3_0_4,-999,skipped,,206496,,,206493.5,,206496,2021-10-31T17:59:13.428Z,206524.922,1635702814,full,ni_sequenzen,NI_Sequenzen,5,3,,,,,,,,,,,,
,Move,canvas.Screen,0_3_0_3_0_5,-999,skipped,,206497.5,,,206493.5,,206497.60000002384,2021-10-31T17:59:13.430Z,206524.922,1635702814,full,ni_sequenzen,NI_Sequenzen,6,3,,,,,,,,,,,,
,Move,canvas.Screen,0_3_0_3_0_6,-999,skipped,,206499,,,206493.5,,206499,2021-10-31T17:59:13.431Z,206524.922,1635702814,full,ni_sequenzen,NI_Sequenzen,7,3,,,,,,,,,,,,
,Move,canvas.Screen,0_3_0_3_0_7,-999,skipped,,206500.89999997616,,,206493.5,,206500.89999997616,2021-10-31T17:59:13.433Z,206524.922,1635702814,full,ni_sequenzen,NI_Sequenzen,8,3,,,,,,,,,,,,
,Move,canvas.Screen,0_3_0_3_0_8,-999,skipped,,206502.30000001192,,,206493.5,,206502.30000001192,2021-10-31T17:59:13.435Z,206524.922,1635702814,full,ni_sequenzen,NI_Sequenzen,9,3,,,,,,,,,,,,
,Move,canvas.Screen,0_3_0_3_0_9,-999,skipped,,206503.80000001192,,,206493.5,,206503.89999997616,2021-10-31T17:59:13.436Z,206524.922,1635702814,full,ni_sequenzen,NI_Sequenzen,10,3,,,,,,,,,,,,
,Move,canvas.Screen,0_3_0_3_0_10,-999,skipped,,206505.89999997616,,,206493.5,,206506,2021-10-31T17:59:13.438Z,206524.922,1635702814,full,ni_sequenzen,NI_Sequenzen,11,3,,,,,,,,,,,,
,Move,canvas.Screen,0_3_0_3_0_11,-999,skipped,,206507.39999997616,,,206493.5,,206507.5,2021-10-31T17:59:13.440Z,206524.922,1635702814,full,ni_sequenzen,NI_Sequenzen,12,3,,,,,,,,,,,,
,Move,canvas.Screen,0_3_0_3_0_12,-999,skipped,,206508.89999997616,,,206493.5,,206508.89999997616,2021-10-31T17:59:13.441Z,206524.922,1635702814,full,ni_sequenzen,NI_Sequenzen,13,3,,,,,,,,,,,,
,Move,canvas.Screen,0_3_0_3_0_13,-999,skipped,,206510.39999997616,,,206493.5,,206510.5,2021-10-31T17:59:13.443Z,206524.922,1635702814,full,ni_sequenzen,NI_Sequenzen,14,3,,,,,,,,,,,,
,Move,canvas.Screen,0_3_0_3_0_14,-999,skipped,,206512.30000001192,,,206493.5,,206512.30000001192,2021-10-31T17:59:13.445Z,206524.922,1635702814,full,ni_sequenzen,NI_Sequenzen,15,3,,,,,,,,,,,,
,Loop,flow.Loop,0_3_0_3_0,-999,completion,,202516.30000001192,202524.799,202541.414,206493.5,3952.0860000000102,206512.5,2021-10-31T17:59:13.445Z,206524.922,1635702814,full,ni_sequenzen,NI_Sequenzen,,3,,,,,,,,,,,,
,Feedback,canvas.Screen,0_3_0_3_1,,timeout,,206513.69999998808,206508.202,206524.922,210508.392,4000.157999999996,210508.69999998808,2021-10-31T17:59:17.441Z,210525.08,1635702814,full,ni_sequenzen,NI_Sequenzen,,3,,,,,,,,,,,,
,Trial,flow.Sequence,0_3_0_3,,completion,,202508.69999998808,202524.799,202541.414,210508.392,7966.978000000003,210508.80000001192,2021-10-31T17:59:17.441Z,210541.763,1635702814,full,ni_sequenzen,NI_Sequenzen,,3,,,,,,,,,,,,
,Move,canvas.Screen,0_3_0_4_0_0,right,response,,210518.80000001192,210525.08,210541.763,212270.89999997616,1729.1369999761519,212271.19999998808,2021-10-31T17:59:19.203Z,212275.114,1635702814,full,ni_sequenzen,NI_Sequenzen,1,4,,,,,,,,,,,,
,Move,canvas.Screen,0_3_0_4_0_1,down,response,,212272.89999997616,212258.329,212275.114,212474.89999997616,199.78599997615675,212475.30000001192,2021-10-31T17:59:19.408Z,212491.811,1635702814,full,ni_sequenzen,NI_Sequenzen,2,4,,,,,,,,,,,,
,Move,canvas.Screen,0_3_0_4_0_2,right,response,,212477.30000001192,212475.121,212491.811,212670.39999997616,178.58899997617118,212670.80000001192,2021-10-31T17:59:19.603Z,212675.164,1635702814,full,ni_sequenzen,NI_Sequenzen,3,4,,,,,,,,,,,,
,Move,canvas.Screen,0_3_0_4_0_3,down,response,,212672.60000002384,212658.481,212675.164,212858.5,183.33600000001024,212858.89999997616,2021-10-31T17:59:19.791Z,212891.785,1635702814,full,ni_sequenzen,NI_Sequenzen,4,4,,,,,,,,,,,,
,Move,canvas.Screen,0_3_0_4_0_4,-999,skipped,,212861.10000002384,,,212858.5,,212861.19999998808,2021-10-31T17:59:19.793Z,212891.785,1635702814,full,ni_sequenzen,NI_Sequenzen,5,4,,,,,,,,,,,,
,Move,canvas.Screen,0_3_0_4_0_5,-999,skipped,,212862.60000002384,,,212858.5,,212862.60000002384,2021-10-31T17:59:19.795Z,212891.785,1635702814,full,ni_sequenzen,NI_Sequenzen,6,4,,,,,,,,,,,,
,Move,canvas.Screen,0_3_0_4_0_6,-999,skipped,,212864.19999998808,,,212858.5,,212864.19999998808,2021-10-31T17:59:19.796Z,212891.785,1635702814,full,ni_sequenzen,NI_Sequenzen,7,4,,,,,,,,,,,,
,Move,canvas.Screen,0_3_0_4_0_7,-999,skipped,,212865.80000001192,,,212858.5,,212865.80000001192,2021-10-31T17:59:19.798Z,212891.785,1635702814,full,ni_sequenzen,NI_Sequenzen,8,4,,,,,,,,,,,,
,Move,canvas.Screen,0_3_0_4_0_8,-999,skipped,,212867.69999998808,,,212858.5,,212867.80000001192,2021-10-31T17:59:19.800Z,212891.785,1635702814,full,ni_sequenzen,NI_Sequenzen,9,4,,,,,,,,,,,,
,Move,canvas.Screen,0_3_0_4_0_9,-999,skipped,,212869.19999998808,,,212858.5,,212869.19999998808,2021-10-31T17:59:19.801Z,212891.785,1635702814,full,ni_sequenzen,NI_Sequenzen,10,4,,,,,,,,,,,,
,Move,canvas.Screen,0_3_0_4_0_10,-999,skipped,,212870.60000002384,,,212858.5,,212870.69999998808,2021-10-31T17:59:19.803Z,212891.785,1635702814,full,ni_sequenzen,NI_Sequenzen,11,4,,,,,,,,,,,,
,Move,canvas.Screen,0_3_0_4_0_11,-999,skipped,,212873,,,212858.5,,212873,2021-10-31T17:59:19.805Z,212891.785,1635702814,full,ni_sequenzen,NI_Sequenzen,12,4,,,,,,,,,,,,
,Move,canvas.Screen,0_3_0_4_0_12,-999,skipped,,212874.60000002384,,,212858.5,,212874.60000002384,2021-10-31T17:59:19.807Z,212891.785,1635702814,full,ni_sequenzen,NI_Sequenzen,13,4,,,,,,,,,,,,
,Move,canvas.Screen,0_3_0_4_0_13,-999,skipped,,212876.10000002384,,,212858.5,,212876.10000002384,2021-10-31T17:59:19.808Z,212891.785,1635702814,full,ni_sequenzen,NI_Sequenzen,14,4,,,,,,,,,,,,
,Move,canvas.Screen,0_3_0_4_0_14,-999,skipped,,212877.60000002384,,,212858.5,,212877.69999998808,2021-10-31T17:59:19.810Z,212891.785,1635702814,full,ni_sequenzen,NI_Sequenzen,15,4,,,,,,,,,,,,
,Loop,flow.Loop,0_3_0_4_0,-999,completion,,210516.80000001192,210525.08,210541.763,212858.5,2316.7369999999937,212877.80000001192,2021-10-31T17:59:19.810Z,212891.785,1635702814,full,ni_sequenzen,NI_Sequenzen,,4,,,,,,,,,,,,
,Feedback,canvas.Screen,0_3_0_4_1,,timeout,,212879.39999997616,212875.121,212891.785,216875.331,4000.2110000000102,216875.60000002384,2021-10-31T17:59:23.808Z,216891.996,1635702814,full,ni_sequenzen,NI_Sequenzen,,4,,,,,,,,,,,,
,Trial,flow.Sequence,0_3_0_4,,completion,,210509.10000002384,210525.08,210541.763,216875.331,6333.567999999999,216875.69999998808,2021-10-31T17:59:23.808Z,216908.673,1635702814,full,ni_sequenzen,NI_Sequenzen,,4,,,,,,,,,,,,
,Move,canvas.Screen,0_3_0_5_0_0,down,response,,216884.5,216891.996,216908.673,217447.69999998808,539.0269999880693,217448.19999998808,2021-10-31T17:59:24.380Z,217458.667,1635702814,full,ni_sequenzen,NI_Sequenzen,1,5,,,,,,,,,,,,
,Move,canvas.Screen,0_3_0_5_0_1,down,response,,217450.39999997616,217441.941,217458.667,218464.69999998808,1006.0329999880923,218465.19999998808,2021-10-31T17:59:25.397Z,218475.349,1635702814,full,ni_sequenzen,NI_Sequenzen,2,5,,,,,,,,,,,,
,Move,canvas.Screen,0_3_0_5_0_2,right,response,,218466.69999998808,218458.64,218475.349,219456.69999998808,981.3509999880916,219457.10000002384,2021-10-31T17:59:26.389Z,219475.42,1635702814,full,ni_sequenzen,NI_Sequenzen,3,5,,,,,,,,,,,,
,Move,canvas.Screen,0_3_0_5_0_3,right,response,,219459,219458.673,219475.42,219763.80000001192,288.3800000119081,219764.30000001192,2021-10-31T17:59:26.696Z,219792.092,1635702814,full,ni_sequenzen,NI_Sequenzen,4,5,,,,,,,,,,,,
,Move,canvas.Screen,0_3_0_5_0_4,-999,skipped,,219766.69999998808,,,219763.80000001192,,219766.80000001192,2021-10-31T17:59:26.699Z,219792.092,1635702814,full,ni_sequenzen,NI_Sequenzen,5,5,,,,,,,,,,,,
,Move,canvas.Screen,0_3_0_5_0_5,-999,skipped,,219768.19999998808,,,219763.80000001192,,219768.19999998808,2021-10-31T17:59:26.700Z,219792.092,1635702814,full,ni_sequenzen,NI_Sequenzen,6,5,,,,,,,,,,,,
,Move,canvas.Screen,0_3_0_5_0_6,-999,skipped,,219770.10000002384,,,219763.80000001192,,219770.19999998808,2021-10-31T17:59:26.702Z,219792.092,1635702814,full,ni_sequenzen,NI_Sequenzen,7,5,,,,,,,,,,,,
,Move,canvas.Screen,0_3_0_5_0_7,-999,skipped,,219771.69999998808,,,219763.80000001192,,219771.69999998808,2021-10-31T17:59:26.704Z,219792.092,1635702814,full,ni_sequenzen,NI_Sequenzen,8,5,,,,,,,,,,,,
,Move,canvas.Screen,0_3_0_5_0_8,-999,skipped,,219773.39999997616,,,219763.80000001192,,219773.39999997616,2021-10-31T17:59:26.706Z,219792.092,1635702814,full,ni_sequenzen,NI_Sequenzen,9,5,,,,,,,,,,,,
,Move,canvas.Screen,0_3_0_5_0_9,-999,skipped,,219775.30000001192,,,219763.80000001192,,219775.30000001192,2021-10-31T17:59:26.708Z,219792.092,1635702814,full,ni_sequenzen,NI_Sequenzen,10,5,,,,,,,,,,,,
,Move,canvas.Screen,0_3_0_5_0_10,-999,skipped,,219776.80000001192,,,219763.80000001192,,219776.80000001192,2021-10-31T17:59:26.709Z,219792.092,1635702814,full,ni_sequenzen,NI_Sequenzen,11,5,,,,,,,,,,,,
,Move,canvas.Screen,0_3_0_5_0_11,-999,skipped,,219778.10000002384,,,219763.80000001192,,219778.19999998808,2021-10-31T17:59:26.710Z,219792.092,1635702814,full,ni_sequenzen,NI_Sequenzen,12,5,,,,,,,,,,,,
,Move,canvas.Screen,0_3_0_5_0_12,-999,skipped,,219779.60000002384,,,219763.80000001192,,219779.69999998808,2021-10-31T17:59:26.712Z,219792.092,1635702814,full,ni_sequenzen,NI_Sequenzen,13,5,,,,,,,,,,,,
,Move,canvas.Screen,0_3_0_5_0_13,-999,skipped,,219781.60000002384,,,219763.80000001192,,219781.60000002384,2021-10-31T17:59:26.714Z,219792.092,1635702814,full,ni_sequenzen,NI_Sequenzen,14,5,,,,,,,,,,,,
,Move,canvas.Screen,0_3_0_5_0_14,-999,skipped,,219783,,,219763.80000001192,,219783,2021-10-31T17:59:26.715Z,219792.092,1635702814,full,ni_sequenzen,NI_Sequenzen,15,5,,,,,,,,,,,,
,Loop,flow.Loop,0_3_0_5_0,-999,completion,,216882.60000002384,216891.996,216908.673,219763.80000001192,2855.127000011911,219783.10000002384,2021-10-31T17:59:26.715Z,219792.092,1635702814,full,ni_sequenzen,NI_Sequenzen,,5,,,,,,,,,,,,
,Feedback,canvas.Screen,0_3_0_5_1,,timeout,,219784.60000002384,219775.365,219792.092,223775.552,4000.1570000000065,223776,2021-10-31T17:59:30.708Z,223792.249,1635702814,full,ni_sequenzen,NI_Sequenzen,,5,,,,,,,,,,,,
,Trial,flow.Sequence,0_3_0_5,,completion,,216875.80000001192,216891.996,216908.673,223775.552,6866.878999999986,223776.10000002384,2021-10-31T17:59:30.708Z,223808.954,1635702814,full,ni_sequenzen,NI_Sequenzen,,5,,,,,,,,,,,,
,Move,canvas.Screen,0_3_0_6_0_0,down,response,,223787,223792.249,223808.954,224409.80000001192,600.846000011923,224410.19999998808,2021-10-31T17:59:31.342Z,224425.594,1635702814,full,ni_sequenzen,NI_Sequenzen,1,6,,,,,,,,,,,,
,Move,canvas.Screen,0_3_0_6_0_1,left,response,,224411.89999997616,224408.845,224425.594,225050.69999998808,625.1059999880672,225051.10000002384,2021-10-31T17:59:31.983Z,225058.927,1635702814,full,ni_sequenzen,NI_Sequenzen,2,6,,,,,,,,,,,,
,Move,canvas.Screen,0_3_0_6_0_2,down,response,,225052.80000001192,225042.216,225058.927,225239.69999998808,180.77299998808303,225240.10000002384,2021-10-31T17:59:32.172Z,225270.622,1635702814,full,ni_sequenzen,NI_Sequenzen,3,6,,,,,,,,,,,,
,Move,canvas.Screen,0_3_0_6_0_3,left,response,,225241.89999997616,225225.591,225270.622,225439.69999998808,169.07799998807604,225440.19999998808,2021-10-31T17:59:32.372Z,225475.612,1635702814,full,ni_sequenzen,NI_Sequenzen,4,6,,,,,,,,,,,,
,Move,canvas.Screen,0_3_0_6_0_4,-999,skipped,,225442.30000001192,,,225439.69999998808,,225442.30000001192,2021-10-31T17:59:32.375Z,225475.612,1635702814,full,ni_sequenzen,NI_Sequenzen,5,6,,,,,,,,,,,,
,Move,canvas.Screen,0_3_0_6_0_5,-999,skipped,,225444.10000002384,,,225439.69999998808,,225444.19999998808,2021-10-31T17:59:32.376Z,225475.612,1635702814,full,ni_sequenzen,NI_Sequenzen,6,6,,,,,,,,,,,,
,Move,canvas.Screen,0_3_0_6_0_6,-999,skipped,,225445.69999998808,,,225439.69999998808,,225445.80000001192,2021-10-31T17:59:32.378Z,225475.612,1635702814,full,ni_sequenzen,NI_Sequenzen,7,6,,,,,,,,,,,,
,Move,canvas.Screen,0_3_0_6_0_7,-999,skipped,,225447.60000002384,,,225439.69999998808,,225447.69999998808,2021-10-31T17:59:32.380Z,225475.612,1635702814,full,ni_sequenzen,NI_Sequenzen,8,6,,,,,,,,,,,,
,Move,canvas.Screen,0_3_0_6_0_8,-999,skipped,,225449.10000002384,,,225439.69999998808,,225449.19999998808,2021-10-31T17:59:32.381Z,225475.612,1635702814,full,ni_sequenzen,NI_Sequenzen,9,6,,,,,,,,,,,,
,Move,canvas.Screen,0_3_0_6_0_9,-999,skipped,,225450.60000002384,,,225439.69999998808,,225450.69999998808,2021-10-31T17:59:32.383Z,225475.612,1635702814,full,ni_sequenzen,NI_Sequenzen,10,6,,,,,,,,,,,,
,Move,canvas.Screen,0_3_0_6_0_10,-999,skipped,,225452.60000002384,,,225439.69999998808,,225452.60000002384,2021-10-31T17:59:32.385Z,225475.612,1635702814,full,ni_sequenzen,NI_Sequenzen,11,6,,,,,,,,,,,,
,Move,canvas.Screen,0_3_0_6_0_11,-999,skipped,,225454,,,225439.69999998808,,225454.10000002384,2021-10-31T17:59:32.386Z,225475.612,1635702814,full,ni_sequenzen,NI_Sequenzen,12,6,,,,,,,,,,,,
,Move,canvas.Screen,0_3_0_6_0_12,-999,skipped,,225455.5,,,225439.69999998808,,225455.60000002384,2021-10-31T17:59:32.388Z,225475.612,1635702814,full,ni_sequenzen,NI_Sequenzen,13,6,,,,,,,,,,,,
,Move,canvas.Screen,0_3_0_6_0_13,-999,skipped,,225457.30000001192,,,225439.69999998808,,225457.39999997616,2021-10-31T17:59:32.390Z,225475.612,1635702814,full,ni_sequenzen,NI_Sequenzen,14,6,,,,,,,,,,,,
,Move,canvas.Screen,0_3_0_6_0_14,-999,skipped,,225458.69999998808,,,225439.69999998808,,225458.69999998808,2021-10-31T17:59:32.391Z,225475.612,1635702814,full,ni_sequenzen,NI_Sequenzen,15,6,,,,,,,,,,,,
,Loop,flow.Loop,0_3_0_6_0,-999,completion,,223784.19999998808,223792.249,223808.954,225439.69999998808,1630.7459999880812,225458.80000001192,2021-10-31T17:59:32.391Z,225475.612,1635702814,full,ni_sequenzen,NI_Sequenzen,,6,,,,,,,,,,,,
,Feedback,canvas.Screen,0_3_0_6_1,,timeout,,225460,225458.903,225475.612,229459.119,4000.1959999999963,229459.39999997616,2021-10-31T17:59:36.392Z,229475.808,1635702814,full,ni_sequenzen,NI_Sequenzen,,6,,,,,,,,,,,,
,Trial,flow.Sequence,0_3_0_6,,completion,,223776.30000001192,223792.249,223808.954,229459.119,5650.165000000008,229459.5,2021-10-31T17:59:36.392Z,229492.46,1635702814,full,ni_sequenzen,NI_Sequenzen,,6,,,,,,,,,,,,
,Move,canvas.Screen,0_3_0_7_0_0,down,response,,229468.80000001192,229475.808,229492.46,229988.39999997616,495.9399999761663,229988.80000001192,2021-10-31T17:59:36.921Z,229992.436,1635702814,full,ni_sequenzen,NI_Sequenzen,1,7,,,,,,,,,,,,
,Move,canvas.Screen,0_3_0_7_0_1,right,response,,229990.60000002384,229975.753,229992.436,230306.60000002384,314.1640000238549,230307,2021-10-31T17:59:37.239Z,230330.493,1635702814,full,ni_sequenzen,NI_Sequenzen,2,7,,,,,,,,,,,,
,Move,canvas.Screen,0_3_0_7_0_2,down,response,,230308.69999998808,230292.437,230330.493,230804.89999997616,474.4069999761705,230805.30000001192,2021-10-31T17:59:37.737Z,230809.143,1635702814,full,ni_sequenzen,NI_Sequenzen,3,7,,,,,,,,,,,,
,Move,canvas.Screen,0_3_0_7_0_3,right,response,,230807,230792.468,230809.143,231402.60000002384,593.4570000238309,231402.89999997616,2021-10-31T17:59:38.335Z,231442.502,1635702814,full,ni_sequenzen,NI_Sequenzen,4,7,,,,,,,,,,,,
,Move,canvas.Screen,0_3_0_7_0_4,-999,skipped,,231405,,,231402.60000002384,,231405,2021-10-31T17:59:38.337Z,231442.502,1635702814,full,ni_sequenzen,NI_Sequenzen,5,7,,,,,,,,,,,,
,Move,canvas.Screen,0_3_0_7_0_5,-999,skipped,,231406.39999997616,,,231402.60000002384,,231406.39999997616,2021-10-31T17:59:38.339Z,231442.502,1635702814,full,ni_sequenzen,NI_Sequenzen,6,7,,,,,,,,,,,,
,Move,canvas.Screen,0_3_0_7_0_6,-999,skipped,,231408,,,231402.60000002384,,231408,2021-10-31T17:59:38.340Z,231442.502,1635702814,full,ni_sequenzen,NI_Sequenzen,7,7,,,,,,,,,,,,
,Move,canvas.Screen,0_3_0_7_0_7,-999,skipped,,231409.30000001192,,,231402.60000002384,,231409.39999997616,2021-10-31T17:59:38.342Z,231442.502,1635702814,full,ni_sequenzen,NI_Sequenzen,8,7,,,,,,,,,,,,
,Move,canvas.Screen,0_3_0_7_0_8,-999,skipped,,231419.80000001192,,,231402.60000002384,,231419.89999997616,2021-10-31T17:59:38.352Z,231442.502,1635702814,full,ni_sequenzen,NI_Sequenzen,9,7,,,,,,,,,,,,
,Move,canvas.Screen,0_3_0_7_0_9,-999,skipped,,231421.69999998808,,,231402.60000002384,,231421.80000001192,2021-10-31T17:59:38.354Z,231442.502,1635702814,full,ni_sequenzen,NI_Sequenzen,10,7,,,,,,,,,,,,
,Move,canvas.Screen,0_3_0_7_0_10,-999,skipped,,231423.69999998808,,,231402.60000002384,,231423.69999998808,2021-10-31T17:59:38.356Z,231442.502,1635702814,full,ni_sequenzen,NI_Sequenzen,11,7,,,,,,,,,,,,
,Move,canvas.Screen,0_3_0_7_0_11,-999,skipped,,231425.30000001192,,,231402.60000002384,,231425.30000001192,2021-10-31T17:59:38.358Z,231442.502,1635702814,full,ni_sequenzen,NI_Sequenzen,12,7,,,,,,,,,,,,
,Move,canvas.Screen,0_3_0_7_0_12,-999,skipped,,231427.10000002384,,,231402.60000002384,,231427.19999998808,2021-10-31T17:59:38.359Z,231442.502,1635702814,full,ni_sequenzen,NI_Sequenzen,13,7,,,,,,,,,,,,
,Move,canvas.Screen,0_3_0_7_0_13,-999,skipped,,231428.69999998808,,,231402.60000002384,,231428.69999998808,2021-10-31T17:59:38.361Z,231442.502,1635702814,full,ni_sequenzen,NI_Sequenzen,14,7,,,,,,,,,,,,
,Move,canvas.Screen,0_3_0_7_0_14,-999,skipped,,231430.10000002384,,,231402.60000002384,,231430.10000002384,2021-10-31T17:59:38.362Z,231442.502,1635702814,full,ni_sequenzen,NI_Sequenzen,15,7,,,,,,,,,,,,
,Loop,flow.Loop,0_3_0_7_0,-999,completion,,229467,229475.808,229492.46,231402.60000002384,1910.14000002385,231430.30000001192,2021-10-31T17:59:38.363Z,231442.502,1635702814,full,ni_sequenzen,NI_Sequenzen,,7,,,,,,,,,,,,
,Feedback,canvas.Screen,0_3_0_7_1,,timeout,,231431.60000002384,231425.84,231442.502,235425.981,4000.1989999999932,235426.30000001192,2021-10-31T17:59:42.359Z,235442.701,1635702814,full,ni_sequenzen,NI_Sequenzen,,7,,,,,,,,,,,,
,Trial,flow.Sequence,0_3_0_7,,completion,,229459.60000002384,229475.808,229492.46,235425.981,5933.521000000008,235426.39999997616,2021-10-31T17:59:42.359Z,235459.341,1635702814,full,ni_sequenzen,NI_Sequenzen,,7,,,,,,,,,,,,
,Move,canvas.Screen,0_3_0_8_0_0,right,response,,235434.39999997616,235442.701,235459.341,236625,1165.6590000000142,236625.39999997616,2021-10-31T17:59:43.558Z,236642.714,1635702814,full,ni_sequenzen,NI_Sequenzen,1,8,,,,,,,,,,,,
,Move,canvas.Screen,0_3_0_8_0_1,down,response,,236627.5,236625.941,236642.714,236850.5,207.78599999999278,236850.80000001192,2021-10-31T17:59:43.783Z,236859.368,1635702814,full,ni_sequenzen,NI_Sequenzen,2,8,,,,,,,,,,,,
,Move,canvas.Screen,0_3_0_8_0_2,right,response,,236852.80000001192,236842.678,236859.368,237061.60000002384,202.2320000238542,237062.10000002384,2021-10-31T17:59:43.994Z,237076.123,1635702814,full,ni_sequenzen,NI_Sequenzen,3,8,,,,,,,,,,,,
,Move,canvas.Screen,0_3_0_8_0_3,down,response,,237063.80000001192,237059.366,237076.123,237234.89999997616,158.77699997616583,237235.19999998808,2021-10-31T17:59:44.167Z,237276.067,1635702814,full,ni_sequenzen,NI_Sequenzen,4,8,,,,,,,,,,,,
,Move,canvas.Screen,0_3_0_8_0_4,-999,skipped,,237236.89999997616,,,237234.89999997616,,237237,2021-10-31T17:59:44.169Z,237276.067,1635702814,full,ni_sequenzen,NI_Sequenzen,5,8,,,,,,,,,,,,
,Move,canvas.Screen,0_3_0_8_0_5,-999,skipped,,237239,,,237234.89999997616,,237239.10000002384,2021-10-31T17:59:44.171Z,237276.067,1635702814,full,ni_sequenzen,NI_Sequenzen,6,8,,,,,,,,,,,,
,Move,canvas.Screen,0_3_0_8_0_6,-999,skipped,,237249.10000002384,,,237234.89999997616,,237249.30000001192,2021-10-31T17:59:44.181Z,237276.067,1635702814,full,ni_sequenzen,NI_Sequenzen,7,8,,,,,,,,,,,,
,Move,canvas.Screen,0_3_0_8_0_7,-999,skipped,,237251.69999998808,,,237234.89999997616,,237251.69999998808,2021-10-31T17:59:44.184Z,237276.067,1635702814,full,ni_sequenzen,NI_Sequenzen,8,8,,,,,,,,,,,,
,Move,canvas.Screen,0_3_0_8_0_8,-999,skipped,,237253.39999997616,,,237234.89999997616,,237253.5,2021-10-31T17:59:44.186Z,237276.067,1635702814,full,ni_sequenzen,NI_Sequenzen,9,8,,,,,,,,,,,,
,Move,canvas.Screen,0_3_0_8_0_9,-999,skipped,,237255.89999997616,,,237234.89999997616,,237255.89999997616,2021-10-31T17:59:44.188Z,237276.067,1635702814,full,ni_sequenzen,NI_Sequenzen,10,8,,,,,,,,,,,,
