meta,sender,sender_type,sender_id,response,ended_on,instrCount,time_run,time_render,time_show,time_end,duration,time_commit,timestamp,time_switch,openLabId,type,task,project,move,trialN,blockN_Train,blockN,moveCount,currPP,points,movesTrial,visitedFields,diff,reward,Strategie,Zweck,Probleme
[object Object],Screen_1,canvas.Screen,0_0_0_0,cont,response,1,1628.300000011921,1620.019,1653.351,2862.300000011921,1208.9490000119208,2898.600000023842,2021-10-24T15:09:07.991Z,3153.291,1635087074,incremental,ni_sequenzen,NI_Sequenzen,,,,,,,,,,,,,,
,Screen_2,canvas.Screen,0_0_0_1,cont,response,1,3146.100000023842,3136.625,3153.291,3502.600000023842,349.3090000238417,3513.300000011921,2021-10-24T15:09:08.606Z,3703.269,1635087074,incremental,ni_sequenzen,NI_Sequenzen,,,,,,,,,,,,,,
,Screen_3,canvas.Screen,0_0_0_2,cont,response,1,3689.800000011921,3686.603,3703.269,3844.4000000059605,141.1310000059607,3850.5,2021-10-24T15:09:08.943Z,3869.929,1635087074,incremental,ni_sequenzen,NI_Sequenzen,,,,,,,,,,,,,,
,Screen_4,canvas.Screen,0_0_0_3,cont,response,1,3853.600000023842,3853.263,3869.929,4230.600000023842,360.67100002384177,4236.700000017881,2021-10-24T15:09:09.329Z,4319.911,1635087074,incremental,ni_sequenzen,NI_Sequenzen,,,,,,,,,,,,,,
,Sequence,flow.Sequence,0_0_0,,completion,1,1387.300000011921,1620.019,1653.351,4230.600000023842,2577.2490000238417,4237.200000017881,2021-10-24T15:09:09.330Z,4319.911,1635087074,incremental,ni_sequenzen,NI_Sequenzen,,,,,,,,,,,,,,
,Screen_1,canvas.Screen,0_0_1_0,,skipped,2,4240.300000011921,,,4240.300000011921,,4240.4000000059605,2021-10-24T15:09:09.333Z,4319.911,1635087074,incremental,ni_sequenzen,NI_Sequenzen,,,,,,,,,,,,,,
,Screen_2,canvas.Screen,0_0_1_1,,skipped,2,4241.9000000059605,,,4240.300000011921,,4242.100000023842,2021-10-24T15:09:09.335Z,4319.911,1635087074,incremental,ni_sequenzen,NI_Sequenzen,,,,,,,,,,,,,,
,Screen_3,canvas.Screen,0_0_1_2,,skipped,2,4243.600000023842,,,4240.300000011921,,4243.700000017881,2021-10-24T15:09:09.336Z,4319.911,1635087074,incremental,ni_sequenzen,NI_Sequenzen,,,,,,,,,,,,,,
,Screen_4,canvas.Screen,0_0_1_3,,skipped,2,4245.100000023842,,,4240.300000011921,,4245.300000011921,2021-10-24T15:09:09.338Z,4319.911,1635087074,incremental,ni_sequenzen,NI_Sequenzen,,,,,,,,,,,,,,
,Sequence,flow.Sequence,0_0_1,,completion,2,4238.4000000059605,,,4240.300000011921,,4245.4000000059605,2021-10-24T15:09:09.338Z,4319.911,1635087074,incremental,ni_sequenzen,NI_Sequenzen,,,,,,,,,,,,,,
,Screen_1,canvas.Screen,0_0_2_0,,skipped,3,4246.9000000059605,,,4246.9000000059605,,4247,2021-10-24T15:09:09.340Z,4319.911,1635087074,incremental,ni_sequenzen,NI_Sequenzen,,,,,,,,,,,,,,
,Screen_2,canvas.Screen,0_0_2_1,,skipped,3,4248,,,4246.9000000059605,,4248.100000023842,2021-10-24T15:09:09.341Z,4319.911,1635087074,incremental,ni_sequenzen,NI_Sequenzen,,,,,,,,,,,,,,
,Screen_3,canvas.Screen,0_0_2_2,,skipped,3,4249.200000017881,,,4246.9000000059605,,4249.300000011921,2021-10-24T15:09:09.342Z,4319.911,1635087074,incremental,ni_sequenzen,NI_Sequenzen,,,,,,,,,,,,,,
,Screen_4,canvas.Screen,0_0_2_3,,skipped,3,4250.100000023842,,,4246.9000000059605,,4250.200000017881,2021-10-24T15:09:09.343Z,4319.911,1635087074,incremental,ni_sequenzen,NI_Sequenzen,,,,,,,,,,,,,,
,Sequence,flow.Sequence,0_0_2,,completion,3,4245.9000000059605,,,4246.9000000059605,,4250.4000000059605,2021-10-24T15:09:09.343Z,4319.911,1635087074,incremental,ni_sequenzen,NI_Sequenzen,,,,,,,,,,,,,,
,Screen_1,canvas.Screen,0_0_3_0,,skipped,4,4251.300000011921,,,4251.300000011921,,4251.4000000059605,2021-10-24T15:09:09.344Z,4319.911,1635087074,incremental,ni_sequenzen,NI_Sequenzen,,,,,,,,,,,,,,
,Screen_2,canvas.Screen,0_0_3_1,,skipped,4,4252.200000017881,,,4251.300000011921,,4252.200000017881,2021-10-24T15:09:09.345Z,4319.911,1635087074,incremental,ni_sequenzen,NI_Sequenzen,,,,,,,,,,,,,,
,Screen_3,canvas.Screen,0_0_3_2,,skipped,4,4253.100000023842,,,4251.300000011921,,4253.200000017881,2021-10-24T15:09:09.346Z,4319.911,1635087074,incremental,ni_sequenzen,NI_Sequenzen,,,,,,,,,,,,,,
,Screen_4,canvas.Screen,0_0_3_3,,skipped,4,4254.100000023842,,,4251.300000011921,,4254.200000017881,2021-10-24T15:09:09.347Z,4319.911,1635087074,incremental,ni_sequenzen,NI_Sequenzen,,,,,,,,,,,,,,
,Sequence,flow.Sequence,0_0_3,,completion,4,4250.700000017881,,,4251.300000011921,,4254.300000011921,2021-10-24T15:09:09.347Z,4319.911,1635087074,incremental,ni_sequenzen,NI_Sequenzen,,,,,,,,,,,,,,
,Screen_1,canvas.Screen,0_0_4_0,,skipped,5,4255.300000011921,,,4255.300000011921,,4255.4000000059605,2021-10-24T15:09:09.348Z,4319.911,1635087074,incremental,ni_sequenzen,NI_Sequenzen,,,,,,,,,,,,,,
,Screen_2,canvas.Screen,0_0_4_1,,skipped,5,4256.200000017881,,,4255.300000011921,,4256.300000011921,2021-10-24T15:09:09.349Z,4319.911,1635087074,incremental,ni_sequenzen,NI_Sequenzen,,,,,,,,,,,,,,
,Screen_3,canvas.Screen,0_0_4_2,,skipped,5,4257.100000023842,,,4255.300000011921,,4257.200000017881,2021-10-24T15:09:09.350Z,4319.911,1635087074,incremental,ni_sequenzen,NI_Sequenzen,,,,,,,,,,,,,,
,Screen_4,canvas.Screen,0_0_4_3,,skipped,5,4258,,,4255.300000011921,,4258,2021-10-24T15:09:09.351Z,4319.911,1635087074,incremental,ni_sequenzen,NI_Sequenzen,,,,,,,,,,,,,,
,Sequence,flow.Sequence,0_0_4,,completion,5,4254.600000023842,,,4255.300000011921,,4258.100000023842,2021-10-24T15:09:09.351Z,4319.911,1635087074,incremental,ni_sequenzen,NI_Sequenzen,,,,,,,,,,,,,,
,Screen_1,canvas.Screen,0_0_5_0,,skipped,6,4259,,,4259,,4259,2021-10-24T15:09:09.352Z,4319.911,1635087074,incremental,ni_sequenzen,NI_Sequenzen,,,,,,,,,,,,,,
,Screen_2,canvas.Screen,0_0_5_1,,skipped,6,4259.700000017881,,,4259,,4259.800000011921,2021-10-24T15:09:09.352Z,4319.911,1635087074,incremental,ni_sequenzen,NI_Sequenzen,,,,,,,,,,,,,,
,Screen_3,canvas.Screen,0_0_5_2,,skipped,6,4260.600000023842,,,4259,,4260.700000017881,2021-10-24T15:09:09.353Z,4319.911,1635087074,incremental,ni_sequenzen,NI_Sequenzen,,,,,,,,,,,,,,
,Screen_4,canvas.Screen,0_0_5_3,,skipped,6,4261.4000000059605,,,4259,,4261.4000000059605,2021-10-24T15:09:09.354Z,4319.911,1635087074,incremental,ni_sequenzen,NI_Sequenzen,,,,,,,,,,,,,,
,Sequence,flow.Sequence,0_0_5,,completion,6,4258.4000000059605,,,4259,,4261.600000023842,2021-10-24T15:09:09.354Z,4319.911,1635087074,incremental,ni_sequenzen,NI_Sequenzen,,,,,,,,,,,,,,
,Screen_1,canvas.Screen,0_0_6_0,,skipped,7,4262.5,,,4262.5,,4262.5,2021-10-24T15:09:09.355Z,4319.911,1635087074,incremental,ni_sequenzen,NI_Sequenzen,,,,,,,,,,,,,,
,Screen_2,canvas.Screen,0_0_6_1,,skipped,7,4263.200000017881,,,4262.5,,4263.300000011921,2021-10-24T15:09:09.356Z,4319.911,1635087074,incremental,ni_sequenzen,NI_Sequenzen,,,,,,,,,,,,,,
,Screen_3,canvas.Screen,0_0_6_2,,skipped,7,4264,,,4262.5,,4264,2021-10-24T15:09:09.357Z,4319.911,1635087074,incremental,ni_sequenzen,NI_Sequenzen,,,,,,,,,,,,,,
,Screen_4,canvas.Screen,0_0_6_3,,skipped,7,4264.800000011921,,,4262.5,,4264.800000011921,2021-10-24T15:09:09.357Z,4319.911,1635087074,incremental,ni_sequenzen,NI_Sequenzen,,,,,,,,,,,,,,
,Sequence,flow.Sequence,0_0_6,,completion,7,4261.800000011921,,,4262.5,,4264.9000000059605,2021-10-24T15:09:09.357Z,4319.911,1635087074,incremental,ni_sequenzen,NI_Sequenzen,,,,,,,,,,,,,,
,Screen_1,canvas.Screen,0_0_7_0,,skipped,8,4265.800000011921,,,4265.800000011921,,4265.800000011921,2021-10-24T15:09:09.358Z,4319.911,1635087074,incremental,ni_sequenzen,NI_Sequenzen,,,,,,,,,,,,,,
,Screen_2,canvas.Screen,0_0_7_1,,skipped,8,4266.5,,,4265.800000011921,,4266.600000023842,2021-10-24T15:09:09.359Z,4319.911,1635087074,incremental,ni_sequenzen,NI_Sequenzen,,,,,,,,,,,,,,
,Screen_3,canvas.Screen,0_0_7_2,,skipped,8,4267.300000011921,,,4265.800000011921,,4267.300000011921,2021-10-24T15:09:09.360Z,4319.911,1635087074,incremental,ni_sequenzen,NI_Sequenzen,,,,,,,,,,,,,,
,Screen_4,canvas.Screen,0_0_7_3,,skipped,8,4268,,,4265.800000011921,,4268.100000023842,2021-10-24T15:09:09.361Z,4319.911,1635087074,incremental,ni_sequenzen,NI_Sequenzen,,,,,,,,,,,,,,
,Sequence,flow.Sequence,0_0_7,,completion,8,4265.200000017881,,,4265.800000011921,,4268.100000023842,2021-10-24T15:09:09.361Z,4319.911,1635087074,incremental,ni_sequenzen,NI_Sequenzen,,,,,,,,,,,,,,
,Screen_1,canvas.Screen,0_0_8_0,,skipped,9,4269.5,,,4269.5,,4269.5,2021-10-24T15:09:09.362Z,4319.911,1635087074,incremental,ni_sequenzen,NI_Sequenzen,,,,,,,,,,,,,,
,Screen_2,canvas.Screen,0_0_8_1,,skipped,9,4270.100000023842,,,4269.5,,4270.100000023842,2021-10-24T15:09:09.363Z,4319.911,1635087074,incremental,ni_sequenzen,NI_Sequenzen,,,,,,,,,,,,,,
,Screen_3,canvas.Screen,0_0_8_2,,skipped,9,4270.700000017881,,,4269.5,,4270.700000017881,2021-10-24T15:09:09.363Z,4319.911,1635087074,incremental,ni_sequenzen,NI_Sequenzen,,,,,,,,,,,,,,
,Screen_4,canvas.Screen,0_0_8_3,,skipped,9,4271.4000000059605,,,4269.5,,4271.4000000059605,2021-10-24T15:09:09.364Z,4319.911,1635087074,incremental,ni_sequenzen,NI_Sequenzen,,,,,,,,,,,,,,
,Sequence,flow.Sequence,0_0_8,,completion,9,4268.9000000059605,,,4269.5,,4271.5,2021-10-24T15:09:09.364Z,4319.911,1635087074,incremental,ni_sequenzen,NI_Sequenzen,,,,,,,,,,,,,,
,Screen_1,canvas.Screen,0_0_9_0,,skipped,10,4272.300000011921,,,4272.300000011921,,4272.300000011921,2021-10-24T15:09:09.365Z,4319.911,1635087074,incremental,ni_sequenzen,NI_Sequenzen,,,,,,,,,,,,,,
,Screen_2,canvas.Screen,0_0_9_1,,skipped,10,4273,,,4272.300000011921,,4273,2021-10-24T15:09:09.366Z,4319.911,1635087074,incremental,ni_sequenzen,NI_Sequenzen,,,,,,,,,,,,,,
,Screen_3,canvas.Screen,0_0_9_2,,skipped,10,4273.700000017881,,,4272.300000011921,,4273.700000017881,2021-10-24T15:09:09.366Z,4319.911,1635087074,incremental,ni_sequenzen,NI_Sequenzen,,,,,,,,,,,,,,
,Screen_4,canvas.Screen,0_0_9_3,,skipped,10,4274.300000011921,,,4272.300000011921,,4274.4000000059605,2021-10-24T15:09:09.367Z,4319.911,1635087074,incremental,ni_sequenzen,NI_Sequenzen,,,,,,,,,,,,,,
,Sequence,flow.Sequence,0_0_9,,completion,10,4271.800000011921,,,4272.300000011921,,4274.5,2021-10-24T15:09:09.367Z,4319.911,1635087074,incremental,ni_sequenzen,NI_Sequenzen,,,,,,,,,,,,,,
,Screen_1,canvas.Screen,0_0_10_0,,skipped,11,4275.200000017881,,,4275.200000017881,,4275.300000011921,2021-10-24T15:09:09.368Z,4319.911,1635087074,incremental,ni_sequenzen,NI_Sequenzen,,,,,,,,,,,,,,
,Screen_2,canvas.Screen,0_0_10_1,,skipped,11,4275.800000011921,,,4275.200000017881,,4275.9000000059605,2021-10-24T15:09:09.368Z,4319.911,1635087074,incremental,ni_sequenzen,NI_Sequenzen,,,,,,,,,,,,,,
,Screen_3,canvas.Screen,0_0_10_2,,skipped,11,4276.5,,,4275.200000017881,,4276.5,2021-10-24T15:09:09.369Z,4319.911,1635087074,incremental,ni_sequenzen,NI_Sequenzen,,,,,,,,,,,,,,
,Screen_4,canvas.Screen,0_0_10_3,,skipped,11,4277.100000023842,,,4275.200000017881,,4277.100000023842,2021-10-24T15:09:09.370Z,4319.911,1635087074,incremental,ni_sequenzen,NI_Sequenzen,,,,,,,,,,,,,,
,Sequence,flow.Sequence,0_0_10,,completion,11,4274.800000011921,,,4275.200000017881,,4277.200000017881,2021-10-24T15:09:09.370Z,4319.911,1635087074,incremental,ni_sequenzen,NI_Sequenzen,,,,,,,,,,,,,,
,Screen_1,canvas.Screen,0_0_11_0,,skipped,12,4278.300000011921,,,4278.300000011921,,4279.100000023842,2021-10-24T15:09:09.372Z,4319.911,1635087074,incremental,ni_sequenzen,NI_Sequenzen,,,,,,,,,,,,,,
,Screen_2,canvas.Screen,0_0_11_1,,skipped,12,4279.800000011921,,,4278.300000011921,,4279.9000000059605,2021-10-24T15:09:09.372Z,4319.911,1635087074,incremental,ni_sequenzen,NI_Sequenzen,,,,,,,,,,,,,,
,Screen_3,canvas.Screen,0_0_11_2,,skipped,12,4280.4000000059605,,,4278.300000011921,,4280.5,2021-10-24T15:09:09.373Z,4319.911,1635087074,incremental,ni_sequenzen,NI_Sequenzen,,,,,,,,,,,,,,
,Screen_4,canvas.Screen,0_0_11_3,,skipped,12,4281.100000023842,,,4278.300000011921,,4281.200000017881,2021-10-24T15:09:09.374Z,4319.911,1635087074,incremental,ni_sequenzen,NI_Sequenzen,,,,,,,,,,,,,,
,Sequence,flow.Sequence,0_0_11,,completion,12,4277.800000011921,,,4278.300000011921,,4281.200000017881,2021-10-24T15:09:09.374Z,4319.911,1635087074,incremental,ni_sequenzen,NI_Sequenzen,,,,,,,,,,,,,,
,Screen_1,canvas.Screen,0_0_12_0,,skipped,13,4281.9000000059605,,,4281.9000000059605,,4282,2021-10-24T15:09:09.375Z,4319.911,1635087074,incremental,ni_sequenzen,NI_Sequenzen,,,,,,,,,,,,,,
,Screen_2,canvas.Screen,0_0_12_1,,skipped,13,4282.5,,,4281.9000000059605,,4282.5,2021-10-24T15:09:09.375Z,4319.911,1635087074,incremental,ni_sequenzen,NI_Sequenzen,,,,,,,,,,,,,,
,Screen_3,canvas.Screen,0_0_12_2,,skipped,13,4283.100000023842,,,4281.9000000059605,,4283.200000017881,2021-10-24T15:09:09.376Z,4319.911,1635087074,incremental,ni_sequenzen,NI_Sequenzen,,,,,,,,,,,,,,
,Screen_4,canvas.Screen,0_0_12_3,,skipped,13,4283.700000017881,,,4281.9000000059605,,4283.800000011921,2021-10-24T15:09:09.376Z,4319.911,1635087074,incremental,ni_sequenzen,NI_Sequenzen,,,,,,,,,,,,,,
,Sequence,flow.Sequence,0_0_12,,completion,13,4281.4000000059605,,,4281.9000000059605,,4283.800000011921,2021-10-24T15:09:09.376Z,4319.911,1635087074,incremental,ni_sequenzen,NI_Sequenzen,,,,,,,,,,,,,,
,Screen_1,canvas.Screen,0_0_13_0,,skipped,14,4284.600000023842,,,4284.600000023842,,4284.700000017881,2021-10-24T15:09:09.377Z,4319.911,1635087074,incremental,ni_sequenzen,NI_Sequenzen,,,,,,,,,,,,,,
,Screen_2,canvas.Screen,0_0_13_1,,skipped,14,4285.100000023842,,,4284.600000023842,,4285.200000017881,2021-10-24T15:09:09.378Z,4319.911,1635087074,incremental,ni_sequenzen,NI_Sequenzen,,,,,,,,,,,,,,
,Screen_3,canvas.Screen,0_0_13_2,,skipped,14,4285.700000017881,,,4284.600000023842,,4285.800000011921,2021-10-24T15:09:09.378Z,4319.911,1635087074,incremental,ni_sequenzen,NI_Sequenzen,,,,,,,,,,,,,,
,Screen_4,canvas.Screen,0_0_13_3,,skipped,14,4286.300000011921,,,4284.600000023842,,4286.300000011921,2021-10-24T15:09:09.379Z,4319.911,1635087074,incremental,ni_sequenzen,NI_Sequenzen,,,,,,,,,,,,,,
,Sequence,flow.Sequence,0_0_13,,completion,14,4284.100000023842,,,4284.600000023842,,4286.4000000059605,2021-10-24T15:09:09.379Z,4319.911,1635087074,incremental,ni_sequenzen,NI_Sequenzen,,,,,,,,,,,,,,
,Screen_1,canvas.Screen,0_0_14_0,,skipped,15,4287.200000017881,,,4287.200000017881,,4287.300000011921,2021-10-24T15:09:09.380Z,4319.911,1635087074,incremental,ni_sequenzen,NI_Sequenzen,,,,,,,,,,,,,,
,Screen_2,canvas.Screen,0_0_14_1,,skipped,15,4288.4000000059605,,,4287.200000017881,,4288.5,2021-10-24T15:09:09.381Z,4319.911,1635087074,incremental,ni_sequenzen,NI_Sequenzen,,,,,,,,,,,,,,
,Screen_3,canvas.Screen,0_0_14_2,,skipped,15,4289.100000023842,,,4287.200000017881,,4289.100000023842,2021-10-24T15:09:09.382Z,4319.911,1635087074,incremental,ni_sequenzen,NI_Sequenzen,,,,,,,,,,,,,,
,Screen_4,canvas.Screen,0_0_14_3,,skipped,15,4289.600000023842,,,4287.200000017881,,4289.700000017881,2021-10-24T15:09:09.382Z,4319.911,1635087074,incremental,ni_sequenzen,NI_Sequenzen,,,,,,,,,,,,,,
,Sequence,flow.Sequence,0_0_14,,completion,15,4286.600000023842,,,4287.200000017881,,4289.800000011921,2021-10-24T15:09:09.382Z,4319.911,1635087074,incremental,ni_sequenzen,NI_Sequenzen,,,,,,,,,,,,,,
,Screen_1,canvas.Screen,0_0_15_0,,skipped,16,4290.600000023842,,,4290.600000023842,,4290.600000023842,2021-10-24T15:09:09.383Z,4319.911,1635087074,incremental,ni_sequenzen,NI_Sequenzen,,,,,,,,,,,,,,
,Screen_2,canvas.Screen,0_0_15_1,,skipped,16,4291.5,,,4290.600000023842,,4291.600000023842,2021-10-24T15:09:09.384Z,4319.911,1635087074,incremental,ni_sequenzen,NI_Sequenzen,,,,,,,,,,,,,,
,Screen_3,canvas.Screen,0_0_15_2,,skipped,16,4292,,,4290.600000023842,,4292.700000017881,2021-10-24T15:09:09.385Z,4319.911,1635087074,incremental,ni_sequenzen,NI_Sequenzen,,,,,,,,,,,,,,
,Screen_4,canvas.Screen,0_0_15_3,,skipped,16,4293.4000000059605,,,4290.600000023842,,4293.5,2021-10-24T15:09:09.386Z,4319.911,1635087074,incremental,ni_sequenzen,NI_Sequenzen,,,,,,,,,,,,,,
,Sequence,flow.Sequence,0_0_15,,completion,16,4289.9000000059605,,,4290.600000023842,,4293.600000023842,2021-10-24T15:09:09.386Z,4319.911,1635087074,incremental,ni_sequenzen,NI_Sequenzen,,,,,,,,,,,,,,
,Screen_1,canvas.Screen,0_0_16_0,,skipped,17,4294.300000011921,,,4294.300000011921,,4294.4000000059605,2021-10-24T15:09:09.387Z,4319.911,1635087074,incremental,ni_sequenzen,NI_Sequenzen,,,,,,,,,,,,,,
,Screen_2,canvas.Screen,0_0_16_1,,skipped,17,4294.9000000059605,,,4294.300000011921,,4294.9000000059605,2021-10-24T15:09:09.387Z,4319.911,1635087074,incremental,ni_sequenzen,NI_Sequenzen,,,,,,,,,,,,,,
,Screen_3,canvas.Screen,0_0_16_2,,skipped,17,4295.5,,,4294.300000011921,,4295.5,2021-10-24T15:09:09.388Z,4319.911,1635087074,incremental,ni_sequenzen,NI_Sequenzen,,,,,,,,,,,,,,
,Screen_4,canvas.Screen,0_0_16_3,,skipped,17,4296,,,4294.300000011921,,4296.100000023842,2021-10-24T15:09:09.389Z,4319.911,1635087074,incremental,ni_sequenzen,NI_Sequenzen,,,,,,,,,,,,,,
,Sequence,flow.Sequence,0_0_16,,completion,17,4293.800000011921,,,4294.300000011921,,4296.100000023842,2021-10-24T15:09:09.389Z,4319.911,1635087074,incremental,ni_sequenzen,NI_Sequenzen,,,,,,,,,,,,,,
,Screen_1,canvas.Screen,0_0_17_0,,skipped,18,4296.800000011921,,,4296.800000011921,,4296.800000011921,2021-10-24T15:09:09.389Z,4319.911,1635087074,incremental,ni_sequenzen,NI_Sequenzen,,,,,,,,,,,,,,
,Screen_2,canvas.Screen,0_0_17_1,,skipped,18,4297.4000000059605,,,4296.800000011921,,4297.4000000059605,2021-10-24T15:09:09.390Z,4319.911,1635087074,incremental,ni_sequenzen,NI_Sequenzen,,,,,,,,,,,,,,
,Screen_3,canvas.Screen,0_0_17_2,,skipped,18,4297.9000000059605,,,4296.800000011921,,4298,2021-10-24T15:09:09.391Z,4319.911,1635087074,incremental,ni_sequenzen,NI_Sequenzen,,,,,,,,,,,,,,
,Screen_4,canvas.Screen,0_0_17_3,,skipped,18,4298.5,,,4296.800000011921,,4298.5,2021-10-24T15:09:09.391Z,4319.911,1635087074,incremental,ni_sequenzen,NI_Sequenzen,,,,,,,,,,,,,,
,Sequence,flow.Sequence,0_0_17,,completion,18,4296.300000011921,,,4296.800000011921,,4298.700000017881,2021-10-24T15:09:09.391Z,4319.911,1635087074,incremental,ni_sequenzen,NI_Sequenzen,,,,,,,,,,,,,,
,Screen_1,canvas.Screen,0_0_18_0,,skipped,19,4299.4000000059605,,,4299.4000000059605,,4299.5,2021-10-24T15:09:09.392Z,4319.911,1635087074,incremental,ni_sequenzen,NI_Sequenzen,,,,,,,,,,,,,,
,Screen_2,canvas.Screen,0_0_18_1,,skipped,19,4299.9000000059605,,,4299.4000000059605,,4300,2021-10-24T15:09:09.393Z,4319.911,1635087074,incremental,ni_sequenzen,NI_Sequenzen,,,,,,,,,,,,,,
,Screen_3,canvas.Screen,0_0_18_2,,skipped,19,4300.5,,,4299.4000000059605,,4300.5,2021-10-24T15:09:09.393Z,4319.911,1635087074,incremental,ni_sequenzen,NI_Sequenzen,,,,,,,,,,,,,,
,Screen_4,canvas.Screen,0_0_18_3,,skipped,19,4301,,,4299.4000000059605,,4301.100000023842,2021-10-24T15:09:09.394Z,4319.911,1635087074,incremental,ni_sequenzen,NI_Sequenzen,,,,,,,,,,,,,,
,Sequence,flow.Sequence,0_0_18,,completion,19,4298.800000011921,,,4299.4000000059605,,4301.200000017881,2021-10-24T15:09:09.394Z,4319.911,1635087074,incremental,ni_sequenzen,NI_Sequenzen,,,,,,,,,,,,,,
,Screen_1,canvas.Screen,0_0_19_0,,skipped,20,4301.9000000059605,,,4301.9000000059605,,4301.9000000059605,2021-10-24T15:09:09.395Z,4319.911,1635087074,incremental,ni_sequenzen,NI_Sequenzen,,,,,,,,,,,,,,
,Screen_2,canvas.Screen,0_0_19_1,,skipped,20,4302.5,,,4301.9000000059605,,4302.5,2021-10-24T15:09:09.395Z,4319.911,1635087074,incremental,ni_sequenzen,NI_Sequenzen,,,,,,,,,,,,,,
,Screen_3,canvas.Screen,0_0_19_2,,skipped,20,4303,,,4301.9000000059605,,4303.100000023842,2021-10-24T15:09:09.396Z,4319.911,1635087074,incremental,ni_sequenzen,NI_Sequenzen,,,,,,,,,,,,,,
,Screen_4,canvas.Screen,0_0_19_3,,skipped,20,4303.5,,,4301.9000000059605,,4303.600000023842,2021-10-24T15:09:09.396Z,4319.911,1635087074,incremental,ni_sequenzen,NI_Sequenzen,,,,,,,,,,,,,,
,Sequence,flow.Sequence,0_0_19,,completion,20,4301.300000011921,,,4301.9000000059605,,4303.600000023842,2021-10-24T15:09:09.396Z,4319.911,1635087074,incremental,ni_sequenzen,NI_Sequenzen,,,,,,,,,,,,,,
,Instructions_I,flow.Loop,0_0,,completion,,1386.6000000238419,1620.019,1653.351,4301.9000000059605,2648.5490000059604,4303.800000011921,2021-10-24T15:09:09.396Z,4319.911,1635087074,incremental,ni_sequenzen,NI_Sequenzen,,,,,,,,,,,,,,
,Move,canvas.Screen,0_1_0_0,right,response,,4312.4000000059605,4303.245,4319.911,4643.5,323.58899999999994,4649.9000000059605,2021-10-24T15:09:09.742Z,4669.897,1635087074,incremental,ni_sequenzen,NI_Sequenzen,1,,,,,,,,,,,,,
,Move,canvas.Screen,0_1_0_1,right,response,,4654.5,4653.231,4669.897,4854.600000023842,184.70300002384192,4860.700000017881,2021-10-24T15:09:09.953Z,4869.889,1635087074,incremental,ni_sequenzen,NI_Sequenzen,2,,,,,,,,,,,,,
,Move,canvas.Screen,0_1_0_2,down,response,,4865,4853.223,4869.889,5819.5,949.6109999999999,5825.700000017881,2021-10-24T15:09:10.918Z,5836.517,1635087074,incremental,ni_sequenzen,NI_Sequenzen,3,,,,,,,,,,,,,
,Move,canvas.Screen,0_1_0_3,down,response,,5828.4000000059605,5819.851,5836.517,5979.5,142.98300000000017,5985.4000000059605,2021-10-24T15:09:11.078Z,6003.177,1635087074,incremental,ni_sequenzen,NI_Sequenzen,4,,,,,,,,,,,,,
,Move,canvas.Screen,0_1_0_4,left,response,,5988,5986.511,6003.177,6188.9000000059605,185.72300000596078,6195,2021-10-24T15:09:11.288Z,6203.169,1635087074,incremental,ni_sequenzen,NI_Sequenzen,5,,,,,,,,,,,,,
,Move,canvas.Screen,0_1_0_5,left,response,,6197.9000000059605,6186.503,6203.169,6365.100000023842,161.931000023842,6371.200000017881,2021-10-24T15:09:11.464Z,6386.495,1635087074,incremental,ni_sequenzen,NI_Sequenzen,6,,,,,,,,,,,,,
,Move,canvas.Screen,0_1_0_6,down,response,,6373.300000011921,6369.829,6386.495,6532.4000000059605,145.90500000596057,6538.300000011921,2021-10-24T15:09:11.631Z,6553.155,1635087074,incremental,ni_sequenzen,NI_Sequenzen,7,,,,,,,,,,,,,
,Move,canvas.Screen,0_1_0_7,right,response,,6541.600000023842,6536.489,6553.155,6708.100000023842,154.9450000238421,6714.200000017881,2021-10-24T15:09:11.807Z,6719.815,1635087074,incremental,ni_sequenzen,NI_Sequenzen,8,,,,,,,,,,,,,
,Move,canvas.Screen,0_1_0_8,right,response,,6717,6703.149,6719.815,6853.100000023842,133.28500002384226,6859.5,2021-10-24T15:09:11.952Z,6869.809,1635087074,incremental,ni_sequenzen,NI_Sequenzen,9,,,,,,,,,,,,,
,Move,canvas.Screen,0_1_0_9,right,response,,6862.300000011921,6853.143,6869.809,7019.4000000059605,149.59100000596027,7025.5,2021-10-24T15:09:12.118Z,7036.469,1635087074,incremental,ni_sequenzen,NI_Sequenzen,10,,,,,,,,,,,,,
,Move,canvas.Screen,0_1_0_10,down,response,,7028.100000023842,7019.803,7036.469,7083.100000023842,46.63100002384181,7088.800000011921,2021-10-24T15:09:12.181Z,7103.133,1635087074,incremental,ni_sequenzen,NI_Sequenzen,11,,,,,,,,,,,,,
,Move,canvas.Screen,0_1_0_11,down,response,,7091.9000000059605,7086.467,7103.133,7322.4000000059605,219.26700000596065,7328.5,2021-10-24T15:09:12.421Z,7336.457,1635087074,incremental,ni_sequenzen,NI_Sequenzen,12,,,,,,,,,,,,,
,Move,canvas.Screen,0_1_0_12,down,response,,7331.200000017881,7319.791,7336.457,7474.4000000059605,137.94300000596013,7480.4000000059605,2021-10-24T15:09:12.573Z,7486.451,1635087074,incremental,ni_sequenzen,NI_Sequenzen,13,,,,,,,,,,,,,
,Move,canvas.Screen,0_1_0_13,down,response,,7483.300000011921,7469.785,7486.451,7625,138.54899999999998,7631,2021-10-24T15:09:12.724Z,7644.482,1635087074,incremental,ni_sequenzen,NI_Sequenzen,14,,,,,,,,,,,,,
,Move,canvas.Screen,0_1_0_14,left,response,,7633.100000023842,7627.816,7644.482,7751.5,107.01800000000003,7757.4000000059605,2021-10-24T15:09:12.850Z,7761.144,1635087074,incremental,ni_sequenzen,NI_Sequenzen,15,,,,,,,,,,,,,
,Move,canvas.Screen,0_1_0_15,left,response,,7760,7744.478,7761.144,7922.4000000059605,161.25600000596023,7928.4000000059605,2021-10-24T15:09:13.021Z,7944.47,1635087074,incremental,ni_sequenzen,NI_Sequenzen,16,,,,,,,,,,,,,
,Move,canvas.Screen,0_1_0_16,left,response,,7931.4000000059605,7927.804,7944.47,8045.300000011921,100.83000001192067,8051.4000000059605,2021-10-24T15:09:13.144Z,8061.132,1635087074,incremental,ni_sequenzen,NI_Sequenzen,17,,,,,,,,,,,,,
,Move,canvas.Screen,0_1_0_17,left,response,,8054.300000011921,8044.466,8061.132,8158,96.8680000000004,8164.200000017881,2021-10-24T15:09:13.257Z,8177.794,1635087074,incremental,ni_sequenzen,NI_Sequenzen,18,,,,,,,,,,,,,
,Move,canvas.Screen,0_1_0_18,right,response,,8167,8161.128,8177.794,8324.100000023842,146.306000023842,8330.300000011921,2021-10-24T15:09:13.423Z,8344.454,1635087074,incremental,ni_sequenzen,NI_Sequenzen,19,,,,,,,,,,,,,
,Move,canvas.Screen,0_1_0_19,down,response,,8333.40000000596,8327.788,8344.454,8606,261.5460000000003,8612,2021-10-24T15:09:13.705Z,8627.776,1635087074,incremental,ni_sequenzen,NI_Sequenzen,20,,,,,,,,,,,,,
,Move,canvas.Screen,0_1_0_20,right,response,,8614.600000023842,8611.11,8627.776,8661.90000000596,34.124000005960625,8668.100000023842,2021-10-24T15:09:13.761Z,8694.44,1635087074,incremental,ni_sequenzen,NI_Sequenzen,21,,,,,,,,,,,,,
,Move,canvas.Screen,0_1_0_21,down,response,,8671,8677.774,8694.44,8770,75.55999999999949,8776.200000017881,2021-10-24T15:09:13.869Z,8794.436,1635087074,incremental,ni_sequenzen,NI_Sequenzen,22,,,,,,,,,,,,,
,Move,canvas.Screen,0_1_0_22,down,response,,8779.200000017881,8777.77,8794.436,8906.200000017881,111.7640000178817,8912.40000000596,2021-10-24T15:09:14.005Z,8927.764,1635087074,incremental,ni_sequenzen,NI_Sequenzen,23,,,,,,,,,,,,,
,Move,canvas.Screen,0_1_0_23,down,response,,8915.200000017881,8911.098,8927.764,9047.300000011921,119.53600001192171,9053.40000000596,2021-10-24T15:09:14.146Z,9061.092,1635087074,incremental,ni_sequenzen,NI_Sequenzen,24,,,,,,,,,,,,,
,Move,canvas.Screen,0_1_0_24,down,response,,9056.40000000596,9044.426,9061.092,9188.300000011921,127.20800001192038,9194.40000000596,2021-10-24T15:09:14.287Z,9211.086,1635087074,incremental,ni_sequenzen,NI_Sequenzen,25,,,,,,,,,,,,,
,Move,canvas.Screen,0_1_0_25,right,response,,9197.700000017881,9194.42,9211.086,9293.90000000596,82.81400000596113,9300,2021-10-24T15:09:14.393Z,9311.082,1635087074,incremental,ni_sequenzen,NI_Sequenzen,26,,,,,,,,,,,,,
,Move,canvas.Screen,0_1_0_26,left,response,,9302.600000023842,9294.416,9311.082,9426,114.91799999999967,9432,2021-10-24T15:09:14.525Z,9444.41,1635087074,incremental,ni_sequenzen,NI_Sequenzen,27,,,,,,,,,,,,,
,Move,canvas.Screen,0_1_0_27,right,response,,9435.200000017881,9427.744,9444.41,9481.90000000596,37.49000000596061,9488.100000023842,2021-10-24T15:09:14.581Z,9511.074,1635087074,incremental,ni_sequenzen,NI_Sequenzen,28,,,,,,,,,,,,,
,Move,canvas.Screen,0_1_0_28,right,response,,9490.90000000596,9494.408,9511.074,9628.300000011921,117.2260000119204,9634.5,2021-10-24T15:09:14.727Z,9644.402,1635087074,incremental,ni_sequenzen,NI_Sequenzen,29,,,,,,,,,,,,,
,Move,canvas.Screen,0_1_0_29,left,response,,9637.40000000596,9627.736,9644.402,9716,71.59799999999996,9724,2021-10-24T15:09:14.817Z,9761.064,1635087074,incremental,ni_sequenzen,NI_Sequenzen,30,,,,,,,,,,,,,
,Loop,flow.Loop,0_1_0,-999,completion,,4310.9000000059605,4303.245,4319.911,9716,5396.089,9724.200000017881,2021-10-24T15:09:14.817Z,9761.064,1635087074,incremental,ni_sequenzen,NI_Sequenzen,,,,,,,,,,,,,,
,Training_I,flow.Sequence,0_1,,completion,,4304,4303.245,4319.911,9716,5396.089,9724.40000000596,2021-10-24T15:09:14.817Z,9761.064,1635087074,incremental,ni_sequenzen,NI_Sequenzen,,,,,,,,,,,,,,
,Screen_1,canvas.Screen,0_2_0_0,cont,response,1,9759.800000011921,9744.398,9761.064,10339.300000011921,578.2360000119206,10345.700000017881,2021-10-24T15:09:15.438Z,10677.694,1635087074,incremental,ni_sequenzen,NI_Sequenzen,,,,,,,,,,,,,,
,Screen_2,canvas.Screen,0_2_0_1,cont,response,1,10669.90000000596,10661.028,10677.694,10681.800000011921,4.106000011921424,10708.100000023842,2021-10-24T15:09:15.801Z,10711.026,1635087074,incremental,ni_sequenzen,NI_Sequenzen,,,,,,,,,,,,,,
,Screen_3,canvas.Screen,0_2_0_2,cont,response,1,10710.40000000596,10694.36,10711.026,11009.200000017881,298.17400001788155,11015.100000023842,2021-10-24T15:09:16.108Z,11261.004,1635087074,incremental,ni_sequenzen,NI_Sequenzen,,,,,,,,,,,,,,
,Screen_4,canvas.Screen,0_2_0_3,cont,response,1,11258.100000023842,11244.338,11261.004,11668.90000000596,407.89600000595965,11674.800000011921,2021-10-24T15:09:16.767Z,11677.654,1635087074,incremental,ni_sequenzen,NI_Sequenzen,,,,,,,,,,,,,,
,Screen_5,canvas.Screen,0_2_0_4,cont,response,1,11676.800000011921,11660.988,11677.654,12117.90000000596,440.24600000596,12122.700000017881,2021-10-24T15:09:17.215Z,12377.626,1635087074,incremental,ni_sequenzen,NI_Sequenzen,,,,,,,,,,,,,,
,Screen_6,canvas.Screen,0_2_0_5,cont,response,1,12364.200000017881,12360.96,12377.626,12710.100000023842,332.47400002384165,12716.200000017881,2021-10-24T15:09:17.809Z,12860.94,1635087074,incremental,ni_sequenzen,NI_Sequenzen,,,,,,,,,,,,,,
,Sequence,flow.Sequence,0_2_0,,completion,1,9759,9744.398,9761.064,12710.100000023842,2949.0360000238416,12716.5,2021-10-24T15:09:17.809Z,12860.94,1635087074,incremental,ni_sequenzen,NI_Sequenzen,,,,,,,,,,,,,,
,Screen_1,canvas.Screen,0_2_1_0,,skipped,2,12720.300000011921,,,12720.300000011921,,12720.40000000596,2021-10-24T15:09:17.813Z,12860.94,1635087074,incremental,ni_sequenzen,NI_Sequenzen,,,,,,,,,,,,,,
,Screen_2,canvas.Screen,0_2_1_1,,skipped,2,12721.800000011921,,,12720.300000011921,,12721.90000000596,2021-10-24T15:09:17.814Z,12860.94,1635087074,incremental,ni_sequenzen,NI_Sequenzen,,,,,,,,,,,,,,
,Screen_3,canvas.Screen,0_2_1_2,,skipped,2,12723,,,12720.300000011921,,12723.200000017881,2021-10-24T15:09:17.816Z,12860.94,1635087074,incremental,ni_sequenzen,NI_Sequenzen,,,,,,,,,,,,,,
,Screen_4,canvas.Screen,0_2_1_3,,skipped,2,12724.300000011921,,,12720.300000011921,,12724.40000000596,2021-10-24T15:09:17.817Z,12860.94,1635087074,incremental,ni_sequenzen,NI_Sequenzen,,,,,,,,,,,,,,
,Screen_5,canvas.Screen,0_2_1_4,,skipped,2,12725.5,,,12720.300000011921,,12725.600000023842,2021-10-24T15:09:17.818Z,12860.94,1635087074,incremental,ni_sequenzen,NI_Sequenzen,,,,,,,,,,,,,,
,Screen_6,canvas.Screen,0_2_1_5,,skipped,2,12726.90000000596,,,12720.300000011921,,12726.90000000596,2021-10-24T15:09:17.819Z,12860.94,1635087074,incremental,ni_sequenzen,NI_Sequenzen,,,,,,,,,,,,,,
,Sequence,flow.Sequence,0_2_1,,completion,2,12718.600000023842,,,12720.300000011921,,12727,2021-10-24T15:09:17.820Z,12860.94,1635087074,incremental,ni_sequenzen,NI_Sequenzen,,,,,,,,,,,,,,
,Screen_1,canvas.Screen,0_2_2_0,,skipped,3,12728.300000011921,,,12728.300000011921,,12728.40000000596,2021-10-24T15:09:17.821Z,12860.94,1635087074,incremental,ni_sequenzen,NI_Sequenzen,,,,,,,,,,,,,,
,Screen_2,canvas.Screen,0_2_2_1,,skipped,3,12729.200000017881,,,12728.300000011921,,12729.200000017881,2021-10-24T15:09:17.822Z,12860.94,1635087074,incremental,ni_sequenzen,NI_Sequenzen,,,,,,,,,,,,,,
,Screen_3,canvas.Screen,0_2_2_2,,skipped,3,12729.90000000596,,,12728.300000011921,,12730,2021-10-24T15:09:17.823Z,12860.94,1635087074,incremental,ni_sequenzen,NI_Sequenzen,,,,,,,,,,,,,,
,Screen_4,canvas.Screen,0_2_2_3,,skipped,3,12730.700000017881,,,12728.300000011921,,12730.700000017881,2021-10-24T15:09:17.823Z,12860.94,1635087074,incremental,ni_sequenzen,NI_Sequenzen,,,,,,,,,,,,,,
,Screen_5,canvas.Screen,0_2_2_4,,skipped,3,12731.40000000596,,,12728.300000011921,,12731.600000023842,2021-10-24T15:09:17.824Z,12860.94,1635087074,incremental,ni_sequenzen,NI_Sequenzen,,,,,,,,,,,,,,
,Screen_6,canvas.Screen,0_2_2_5,,skipped,3,12732.200000017881,,,12728.300000011921,,12732.300000011921,2021-10-24T15:09:17.825Z,12860.94,1635087074,incremental,ni_sequenzen,NI_Sequenzen,,,,,,,,,,,,,,
,Sequence,flow.Sequence,0_2_2,,completion,3,12727.5,,,12728.300000011921,,12732.40000000596,2021-10-24T15:09:17.825Z,12860.94,1635087074,incremental,ni_sequenzen,NI_Sequenzen,,,,,,,,,,,,,,
,Screen_1,canvas.Screen,0_2_3_0,,skipped,4,12733.300000011921,,,12733.300000011921,,12733.300000011921,2021-10-24T15:09:17.826Z,12860.94,1635087074,incremental,ni_sequenzen,NI_Sequenzen,,,,,,,,,,,,,,
,Screen_2,canvas.Screen,0_2_3_1,,skipped,4,12734,,,12733.300000011921,,12734.100000023842,2021-10-24T15:09:17.827Z,12860.94,1635087074,incremental,ni_sequenzen,NI_Sequenzen,,,,,,,,,,,,,,
,Screen_3,canvas.Screen,0_2_3_2,,skipped,4,12734.800000011921,,,12733.300000011921,,12734.90000000596,2021-10-24T15:09:17.827Z,12860.94,1635087074,incremental,ni_sequenzen,NI_Sequenzen,,,,,,,,,,,,,,
,Screen_4,canvas.Screen,0_2_3_3,,skipped,4,12735.600000023842,,,12733.300000011921,,12735.600000023842,2021-10-24T15:09:17.828Z,12860.94,1635087074,incremental,ni_sequenzen,NI_Sequenzen,,,,,,,,,,,,,,
,Screen_5,canvas.Screen,0_2_3_4,,skipped,4,12736.40000000596,,,12733.300000011921,,12736.40000000596,2021-10-24T15:09:17.829Z,12860.94,1635087074,incremental,ni_sequenzen,NI_Sequenzen,,,,,,,,,,,,,,
,Screen_6,canvas.Screen,0_2_3_5,,skipped,4,12737.100000023842,,,12733.300000011921,,12737.100000023842,2021-10-24T15:09:17.830Z,12860.94,1635087074,incremental,ni_sequenzen,NI_Sequenzen,,,,,,,,,,,,,,
,Sequence,flow.Sequence,0_2_3,,completion,4,12732.600000023842,,,12733.300000011921,,12737.200000017881,2021-10-24T15:09:17.830Z,12860.94,1635087074,incremental,ni_sequenzen,NI_Sequenzen,,,,,,,,,,,,,,
,Screen_1,canvas.Screen,0_2_4_0,,skipped,5,12737.90000000596,,,12737.90000000596,,12738,2021-10-24T15:09:17.831Z,12860.94,1635087074,incremental,ni_sequenzen,NI_Sequenzen,,,,,,,,,,,,,,
,Screen_2,canvas.Screen,0_2_4_1,,skipped,5,12738.600000023842,,,12737.90000000596,,12738.600000023842,2021-10-24T15:09:17.831Z,12860.94,1635087074,incremental,ni_sequenzen,NI_Sequenzen,,,,,,,,,,,,,,
,Screen_3,canvas.Screen,0_2_4_2,,skipped,5,12739.300000011921,,,12737.90000000596,,12739.300000011921,2021-10-24T15:09:17.832Z,12860.94,1635087074,incremental,ni_sequenzen,NI_Sequenzen,,,,,,,,,,,,,,
,Screen_4,canvas.Screen,0_2_4_3,,skipped,5,12744.5,,,12737.90000000596,,12744.700000017881,2021-10-24T15:09:17.837Z,12860.94,1635087074,incremental,ni_sequenzen,NI_Sequenzen,,,,,,,,,,,,,,
,Screen_5,canvas.Screen,0_2_4_4,,skipped,5,12745.5,,,12737.90000000596,,12745.600000023842,2021-10-24T15:09:17.838Z,12860.94,1635087074,incremental,ni_sequenzen,NI_Sequenzen,,,,,,,,,,,,,,
,Screen_6,canvas.Screen,0_2_4_5,,skipped,5,12746.200000017881,,,12737.90000000596,,12746.300000011921,2021-10-24T15:09:17.839Z,12860.94,1635087074,incremental,ni_sequenzen,NI_Sequenzen,,,,,,,,,,,,,,
,Sequence,flow.Sequence,0_2_4,,completion,5,12737.5,,,12737.90000000596,,12746.40000000596,2021-10-24T15:09:17.839Z,12860.94,1635087074,incremental,ni_sequenzen,NI_Sequenzen,,,,,,,,,,,,,,
,Screen_1,canvas.Screen,0_2_5_0,,skipped,6,12747.300000011921,,,12747.300000011921,,12747.300000011921,2021-10-24T15:09:17.840Z,12860.94,1635087074,incremental,ni_sequenzen,NI_Sequenzen,,,,,,,,,,,,,,
,Screen_2,canvas.Screen,0_2_5_1,,skipped,6,12747.90000000596,,,12747.300000011921,,12747.90000000596,2021-10-24T15:09:17.840Z,12860.94,1635087074,incremental,ni_sequenzen,NI_Sequenzen,,,,,,,,,,,,,,
,Screen_3,canvas.Screen,0_2_5_2,,skipped,6,12748.40000000596,,,12747.300000011921,,12748.5,2021-10-24T15:09:17.841Z,12860.94,1635087074,incremental,ni_sequenzen,NI_Sequenzen,,,,,,,,,,,,,,
,Screen_4,canvas.Screen,0_2_5_3,,skipped,6,12749,,,12747.300000011921,,12749,2021-10-24T15:09:17.842Z,12860.94,1635087074,incremental,ni_sequenzen,NI_Sequenzen,,,,,,,,,,,,,,
,Screen_5,canvas.Screen,0_2_5_4,,skipped,6,12749.600000023842,,,12747.300000011921,,12749.600000023842,2021-10-24T15:09:17.842Z,12860.94,1635087074,incremental,ni_sequenzen,NI_Sequenzen,,,,,,,,,,,,,,
,Screen_6,canvas.Screen,0_2_5_5,,skipped,6,12750.200000017881,,,12747.300000011921,,12750.200000017881,2021-10-24T15:09:17.843Z,12860.94,1635087074,incremental,ni_sequenzen,NI_Sequenzen,,,,,,,,,,,,,,
,Sequence,flow.Sequence,0_2_5,,completion,6,12746.600000023842,,,12747.300000011921,,12750.300000011921,2021-10-24T15:09:17.843Z,12860.94,1635087074,incremental,ni_sequenzen,NI_Sequenzen,,,,,,,,,,,,,,
,Screen_1,canvas.Screen,0_2_6_0,,skipped,7,12751,,,12751.100000023842,,12751.100000023842,2021-10-24T15:09:17.844Z,12860.94,1635087074,incremental,ni_sequenzen,NI_Sequenzen,,,,,,,,,,,,,,
,Screen_2,canvas.Screen,0_2_6_1,,skipped,7,12751.600000023842,,,12751.100000023842,,12751.600000023842,2021-10-24T15:09:17.844Z,12860.94,1635087074,incremental,ni_sequenzen,NI_Sequenzen,,,,,,,,,,,,,,
,Screen_3,canvas.Screen,0_2_6_2,,skipped,7,12752.100000023842,,,12751.100000023842,,12752.200000017881,2021-10-24T15:09:17.845Z,12860.94,1635087074,incremental,ni_sequenzen,NI_Sequenzen,,,,,,,,,,,,,,
,Screen_4,canvas.Screen,0_2_6_3,,skipped,7,12752.600000023842,,,12751.100000023842,,12752.700000017881,2021-10-24T15:09:17.845Z,12860.94,1635087074,incremental,ni_sequenzen,NI_Sequenzen,,,,,,,,,,,,,,
,Screen_5,canvas.Screen,0_2_6_4,,skipped,7,12753.300000011921,,,12751.100000023842,,12753.300000011921,2021-10-24T15:09:17.846Z,12860.94,1635087074,incremental,ni_sequenzen,NI_Sequenzen,,,,,,,,,,,,,,
,Screen_6,canvas.Screen,0_2_6_5,,skipped,7,12753.800000011921,,,12751.100000023842,,12753.90000000596,2021-10-24T15:09:17.846Z,12860.94,1635087074,incremental,ni_sequenzen,NI_Sequenzen,,,,,,,,,,,,,,
,Sequence,flow.Sequence,0_2_6,,completion,7,12750.5,,,12751.100000023842,,12754,2021-10-24T15:09:17.847Z,12860.94,1635087074,incremental,ni_sequenzen,NI_Sequenzen,,,,,,,,,,,,,,
,Screen_1,canvas.Screen,0_2_7_0,,skipped,8,12754.600000023842,,,12754.700000017881,,12754.700000017881,2021-10-24T15:09:17.847Z,12860.94,1635087074,incremental,ni_sequenzen,NI_Sequenzen,,,,,,,,,,,,,,
,Screen_2,canvas.Screen,0_2_7_1,,skipped,8,12755.100000023842,,,12754.700000017881,,12755.300000011921,2021-10-24T15:09:17.848Z,12860.94,1635087074,incremental,ni_sequenzen,NI_Sequenzen,,,,,,,,,,,,,,
,Screen_3,canvas.Screen,0_2_7_2,,skipped,8,12755.700000017881,,,12754.700000017881,,12755.800000011921,2021-10-24T15:09:17.848Z,12860.94,1635087074,incremental,ni_sequenzen,NI_Sequenzen,,,,,,,,,,,,,,
,Screen_4,canvas.Screen,0_2_7_3,,skipped,8,12756.300000011921,,,12754.700000017881,,12756.40000000596,2021-10-24T15:09:17.849Z,12860.94,1635087074,incremental,ni_sequenzen,NI_Sequenzen,,,,,,,,,,,,,,
,Screen_5,canvas.Screen,0_2_7_4,,skipped,8,12756.90000000596,,,12754.700000017881,,12756.90000000596,2021-10-24T15:09:17.850Z,12860.94,1635087074,incremental,ni_sequenzen,NI_Sequenzen,,,,,,,,,,,,,,
,Screen_6,canvas.Screen,0_2_7_5,,skipped,8,12757.40000000596,,,12754.700000017881,,12757.5,2021-10-24T15:09:17.850Z,12860.94,1635087074,incremental,ni_sequenzen,NI_Sequenzen,,,,,,,,,,,,,,
,Sequence,flow.Sequence,0_2_7,,completion,8,12754.100000023842,,,12754.700000017881,,12757.600000023842,2021-10-24T15:09:17.850Z,12860.94,1635087074,incremental,ni_sequenzen,NI_Sequenzen,,,,,,,,,,,,,,
,Screen_1,canvas.Screen,0_2_8_0,,skipped,9,12758.300000011921,,,12758.300000011921,,12758.300000011921,2021-10-24T15:09:17.851Z,12860.94,1635087074,incremental,ni_sequenzen,NI_Sequenzen,,,,,,,,,,,,,,
,Screen_2,canvas.Screen,0_2_8_1,,skipped,9,12758.800000011921,,,12758.300000011921,,12758.90000000596,2021-10-24T15:09:17.851Z,12860.94,1635087074,incremental,ni_sequenzen,NI_Sequenzen,,,,,,,,,,,,,,
,Screen_3,canvas.Screen,0_2_8_2,,skipped,9,12759.40000000596,,,12758.300000011921,,12759.40000000596,2021-10-24T15:09:17.852Z,12860.94,1635087074,incremental,ni_sequenzen,NI_Sequenzen,,,,,,,,,,,,,,
,Screen_4,canvas.Screen,0_2_8_3,,skipped,9,12760,,,12758.300000011921,,12760,2021-10-24T15:09:17.853Z,12860.94,1635087074,incremental,ni_sequenzen,NI_Sequenzen,,,,,,,,,,,,,,
,Screen_5,canvas.Screen,0_2_8_4,,skipped,9,12760.600000023842,,,12758.300000011921,,12760.600000023842,2021-10-24T15:09:17.853Z,12860.94,1635087074,incremental,ni_sequenzen,NI_Sequenzen,,,,,,,,,,,,,,
,Screen_6,canvas.Screen,0_2_8_5,,skipped,9,12761.200000017881,,,12758.300000011921,,12761.200000017881,2021-10-24T15:09:17.854Z,12860.94,1635087074,incremental,ni_sequenzen,NI_Sequenzen,,,,,,,,,,,,,,
,Sequence,flow.Sequence,0_2_8,,completion,9,12757.800000011921,,,12758.300000011921,,12761.300000011921,2021-10-24T15:09:17.854Z,12860.94,1635087074,incremental,ni_sequenzen,NI_Sequenzen,,,,,,,,,,,,,,
,Screen_1,canvas.Screen,0_2_9_0,,skipped,10,12762.200000017881,,,12762.200000017881,,12762.200000017881,2021-10-24T15:09:17.855Z,12860.94,1635087074,incremental,ni_sequenzen,NI_Sequenzen,,,,,,,,,,,,,,
,Screen_2,canvas.Screen,0_2_9_1,,skipped,10,12762.700000017881,,,12762.200000017881,,12762.800000011921,2021-10-24T15:09:17.855Z,12860.94,1635087074,incremental,ni_sequenzen,NI_Sequenzen,,,,,,,,,,,,,,
,Screen_3,canvas.Screen,0_2_9_2,,skipped,10,12763.300000011921,,,12762.200000017881,,12763.300000011921,2021-10-24T15:09:17.856Z,12860.94,1635087074,incremental,ni_sequenzen,NI_Sequenzen,,,,,,,,,,,,,,
,Screen_4,canvas.Screen,0_2_9_3,,skipped,10,12763.90000000596,,,12762.200000017881,,12763.90000000596,2021-10-24T15:09:17.856Z,12860.94,1635087074,incremental,ni_sequenzen,NI_Sequenzen,,,,,,,,,,,,,,
,Screen_5,canvas.Screen,0_2_9_4,,skipped,10,12764.600000023842,,,12762.200000017881,,12764.700000017881,2021-10-24T15:09:17.857Z,12860.94,1635087074,incremental,ni_sequenzen,NI_Sequenzen,,,,,,,,,,,,,,
,Screen_6,canvas.Screen,0_2_9_5,,skipped,10,12765.200000017881,,,12762.200000017881,,12765.300000011921,2021-10-24T15:09:17.858Z,12860.94,1635087074,incremental,ni_sequenzen,NI_Sequenzen,,,,,,,,,,,,,,
,Sequence,flow.Sequence,0_2_9,,completion,10,12761.5,,,12762.200000017881,,12765.300000011921,2021-10-24T15:09:17.858Z,12860.94,1635087074,incremental,ni_sequenzen,NI_Sequenzen,,,,,,,,,,,,,,
,Screen_1,canvas.Screen,0_2_10_0,,skipped,11,12766.200000017881,,,12766.200000017881,,12766.200000017881,2021-10-24T15:09:17.859Z,12860.94,1635087074,incremental,ni_sequenzen,NI_Sequenzen,,,,,,,,,,,,,,
,Screen_2,canvas.Screen,0_2_10_1,,skipped,11,12766.700000017881,,,12766.200000017881,,12766.800000011921,2021-10-24T15:09:17.859Z,12860.94,1635087074,incremental,ni_sequenzen,NI_Sequenzen,,,,,,,,,,,,,,
,Screen_3,canvas.Screen,0_2_10_2,,skipped,11,12767.300000011921,,,12766.200000017881,,12767.300000011921,2021-10-24T15:09:17.860Z,12860.94,1635087074,incremental,ni_sequenzen,NI_Sequenzen,,,,,,,,,,,,,,
,Screen_4,canvas.Screen,0_2_10_3,,skipped,11,12767.800000011921,,,12766.200000017881,,12767.800000011921,2021-10-24T15:09:17.860Z,12860.94,1635087074,incremental,ni_sequenzen,NI_Sequenzen,,,,,,,,,,,,,,
,Screen_5,canvas.Screen,0_2_10_4,,skipped,11,12768.40000000596,,,12766.200000017881,,12768.40000000596,2021-10-24T15:09:17.861Z,12860.94,1635087074,incremental,ni_sequenzen,NI_Sequenzen,,,,,,,,,,,,,,
,Screen_6,canvas.Screen,0_2_10_5,,skipped,11,12769,,,12766.200000017881,,12769,2021-10-24T15:09:17.862Z,12860.94,1635087074,incremental,ni_sequenzen,NI_Sequenzen,,,,,,,,,,,,,,
,Sequence,flow.Sequence,0_2_10,,completion,11,12765.600000023842,,,12766.200000017881,,12769,2021-10-24T15:09:17.862Z,12860.94,1635087074,incremental,ni_sequenzen,NI_Sequenzen,,,,,,,,,,,,,,
,Screen_1,canvas.Screen,0_2_11_0,,skipped,12,12769.90000000596,,,12769.90000000596,,12770,2021-10-24T15:09:17.863Z,12860.94,1635087074,incremental,ni_sequenzen,NI_Sequenzen,,,,,,,,,,,,,,
,Screen_2,canvas.Screen,0_2_11_1,,skipped,12,12770.40000000596,,,12769.90000000596,,12770.5,2021-10-24T15:09:17.863Z,12860.94,1635087074,incremental,ni_sequenzen,NI_Sequenzen,,,,,,,,,,,,,,
,Screen_3,canvas.Screen,0_2_11_2,,skipped,12,12771.100000023842,,,12769.90000000596,,12771.100000023842,2021-10-24T15:09:17.864Z,12860.94,1635087074,incremental,ni_sequenzen,NI_Sequenzen,,,,,,,,,,,,,,
,Screen_4,canvas.Screen,0_2_11_3,,skipped,12,12771.5,,,12769.90000000596,,12771.5,2021-10-24T15:09:17.864Z,12860.94,1635087074,incremental,ni_sequenzen,NI_Sequenzen,,,,,,,,,,,,,,
,Screen_5,canvas.Screen,0_2_11_4,,skipped,12,12772.100000023842,,,12769.90000000596,,12772.200000017881,2021-10-24T15:09:17.865Z,12860.94,1635087074,incremental,ni_sequenzen,NI_Sequenzen,,,,,,,,,,,,,,
,Screen_6,canvas.Screen,0_2_11_5,,skipped,12,12772.700000017881,,,12769.90000000596,,12772.700000017881,2021-10-24T15:09:17.865Z,12860.94,1635087074,incremental,ni_sequenzen,NI_Sequenzen,,,,,,,,,,,,,,
,Sequence,flow.Sequence,0_2_11,,completion,12,12769.200000017881,,,12769.90000000596,,12772.800000011921,2021-10-24T15:09:17.865Z,12860.94,1635087074,incremental,ni_sequenzen,NI_Sequenzen,,,,,,,,,,,,,,
,Screen_1,canvas.Screen,0_2_12_0,,skipped,13,12773.600000023842,,,12773.600000023842,,12773.700000017881,2021-10-24T15:09:17.866Z,12860.94,1635087074,incremental,ni_sequenzen,NI_Sequenzen,,,,,,,,,,,,,,
,Screen_2,canvas.Screen,0_2_12_1,,skipped,13,12774.100000023842,,,12773.600000023842,,12774.100000023842,2021-10-24T15:09:17.867Z,12860.94,1635087074,incremental,ni_sequenzen,NI_Sequenzen,,,,,,,,,,,,,,
,Screen_3,canvas.Screen,0_2_12_2,,skipped,13,12774.800000011921,,,12773.600000023842,,12774.800000011921,2021-10-24T15:09:17.867Z,12860.94,1635087074,incremental,ni_sequenzen,NI_Sequenzen,,,,,,,,,,,,,,
,Screen_4,canvas.Screen,0_2_12_3,,skipped,13,12775.40000000596,,,12773.600000023842,,12775.40000000596,2021-10-24T15:09:17.868Z,12860.94,1635087074,incremental,ni_sequenzen,NI_Sequenzen,,,,,,,,,,,,,,
,Screen_5,canvas.Screen,0_2_12_4,,skipped,13,12776,,,12773.600000023842,,12776.100000023842,2021-10-24T15:09:17.869Z,12860.94,1635087074,incremental,ni_sequenzen,NI_Sequenzen,,,,,,,,,,,,,,
,Screen_6,canvas.Screen,0_2_12_5,,skipped,13,12776.600000023842,,,12773.600000023842,,12776.700000017881,2021-10-24T15:09:17.869Z,12860.94,1635087074,incremental,ni_sequenzen,NI_Sequenzen,,,,,,,,,,,,,,
,Sequence,flow.Sequence,0_2_12,,completion,13,12773,,,12773.600000023842,,12776.700000017881,2021-10-24T15:09:17.869Z,12860.94,1635087074,incremental,ni_sequenzen,NI_Sequenzen,,,,,,,,,,,,,,
,Screen_1,canvas.Screen,0_2_13_0,,skipped,14,12777.600000023842,,,12777.600000023842,,12777.700000017881,2021-10-24T15:09:17.870Z,12860.94,1635087074,incremental,ni_sequenzen,NI_Sequenzen,,,,,,,,,,,,,,
,Screen_2,canvas.Screen,0_2_13_1,,skipped,14,12778.300000011921,,,12777.600000023842,,12778.300000011921,2021-10-24T15:09:17.871Z,12860.94,1635087074,incremental,ni_sequenzen,NI_Sequenzen,,,,,,,,,,,,,,
,Screen_3,canvas.Screen,0_2_13_2,,skipped,14,12778.800000011921,,,12777.600000023842,,12778.90000000596,2021-10-24T15:09:17.871Z,12860.94,1635087074,incremental,ni_sequenzen,NI_Sequenzen,,,,,,,,,,,,,,
,Screen_4,canvas.Screen,0_2_13_3,,skipped,14,12779.40000000596,,,12777.600000023842,,12779.5,2021-10-24T15:09:17.872Z,12860.94,1635087074,incremental,ni_sequenzen,NI_Sequenzen,,,,,,,,,,,,,,
,Screen_5,canvas.Screen,0_2_13_4,,skipped,14,12780,,,12777.600000023842,,12780,2021-10-24T15:09:17.873Z,12860.94,1635087074,incremental,ni_sequenzen,NI_Sequenzen,,,,,,,,,,,,,,
,Screen_6,canvas.Screen,0_2_13_5,,skipped,14,12780.600000023842,,,12777.600000023842,,12780.600000023842,2021-10-24T15:09:17.873Z,12860.94,1635087074,incremental,ni_sequenzen,NI_Sequenzen,,,,,,,,,,,,,,
,Sequence,flow.Sequence,0_2_13,,completion,14,12777,,,12777.600000023842,,12780.700000017881,2021-10-24T15:09:17.873Z,12860.94,1635087074,incremental,ni_sequenzen,NI_Sequenzen,,,,,,,,,,,,,,
,Screen_1,canvas.Screen,0_2_14_0,,skipped,15,12781.5,,,12781.5,,12781.5,2021-10-24T15:09:17.874Z,12860.94,1635087074,incremental,ni_sequenzen,NI_Sequenzen,,,,,,,,,,,,,,
,Screen_2,canvas.Screen,0_2_14_1,,skipped,15,12782,,,12781.5,,12782.100000023842,2021-10-24T15:09:17.875Z,12860.94,1635087074,incremental,ni_sequenzen,NI_Sequenzen,,,,,,,,,,,,,,
,Screen_3,canvas.Screen,0_2_14_2,,skipped,15,12782.600000023842,,,12781.5,,12782.700000017881,2021-10-24T15:09:17.875Z,12860.94,1635087074,incremental,ni_sequenzen,NI_Sequenzen,,,,,,,,,,,,,,
,Screen_4,canvas.Screen,0_2_14_3,,skipped,15,12783.200000017881,,,12781.5,,12783.200000017881,2021-10-24T15:09:17.876Z,12860.94,1635087074,incremental,ni_sequenzen,NI_Sequenzen,,,,,,,,,,,,,,
,Screen_5,canvas.Screen,0_2_14_4,,skipped,15,12783.800000011921,,,12781.5,,12783.800000011921,2021-10-24T15:09:17.876Z,12860.94,1635087074,incremental,ni_sequenzen,NI_Sequenzen,,,,,,,,,,,,,,
,Screen_6,canvas.Screen,0_2_14_5,,skipped,15,12784.300000011921,,,12781.5,,12784.40000000596,2021-10-24T15:09:17.877Z,12860.94,1635087074,incremental,ni_sequenzen,NI_Sequenzen,,,,,,,,,,,,,,
,Sequence,flow.Sequence,0_2_14,,completion,15,12780.90000000596,,,12781.5,,12784.5,2021-10-24T15:09:17.877Z,12860.94,1635087074,incremental,ni_sequenzen,NI_Sequenzen,,,,,,,,,,,,,,
,Screen_1,canvas.Screen,0_2_15_0,,skipped,16,12785.300000011921,,,12785.300000011921,,12785.40000000596,2021-10-24T15:09:17.878Z,12860.94,1635087074,incremental,ni_sequenzen,NI_Sequenzen,,,,,,,,,,,,,,
,Screen_2,canvas.Screen,0_2_15_1,,skipped,16,12786.800000011921,,,12785.300000011921,,12786.90000000596,2021-10-24T15:09:17.879Z,12860.94,1635087074,incremental,ni_sequenzen,NI_Sequenzen,,,,,,,,,,,,,,
,Screen_3,canvas.Screen,0_2_15_2,,skipped,16,12787.600000023842,,,12785.300000011921,,12787.600000023842,2021-10-24T15:09:17.880Z,12860.94,1635087074,incremental,ni_sequenzen,NI_Sequenzen,,,,,,,,,,,,,,
,Screen_4,canvas.Screen,0_2_15_3,,skipped,16,12788.200000017881,,,12785.300000011921,,12788.200000017881,2021-10-24T15:09:17.881Z,12860.94,1635087074,incremental,ni_sequenzen,NI_Sequenzen,,,,,,,,,,,,,,
,Screen_5,canvas.Screen,0_2_15_4,,skipped,16,12788.600000023842,,,12785.300000011921,,12788.600000023842,2021-10-24T15:09:17.881Z,12860.94,1635087074,incremental,ni_sequenzen,NI_Sequenzen,,,,,,,,,,,,,,
,Screen_6,canvas.Screen,0_2_15_5,,skipped,16,12789.100000023842,,,12785.300000011921,,12789.200000017881,2021-10-24T15:09:17.882Z,12860.94,1635087074,incremental,ni_sequenzen,NI_Sequenzen,,,,,,,,,,,,,,
,Sequence,flow.Sequence,0_2_15,,completion,16,12784.700000017881,,,12785.300000011921,,12789.300000011921,2021-10-24T15:09:17.882Z,12860.94,1635087074,incremental,ni_sequenzen,NI_Sequenzen,,,,,,,,,,,,,,
,Screen_1,canvas.Screen,0_2_16_0,,skipped,17,12790,,,12790,,12790,2021-10-24T15:09:17.883Z,12860.94,1635087074,incremental,ni_sequenzen,NI_Sequenzen,,,,,,,,,,,,,,
,Screen_2,canvas.Screen,0_2_16_1,,skipped,17,12790.5,,,12790,,12790.600000023842,2021-10-24T15:09:17.883Z,12860.94,1635087074,incremental,ni_sequenzen,NI_Sequenzen,,,,,,,,,,,,,,
,Screen_3,canvas.Screen,0_2_16_2,,skipped,17,12791,,,12790,,12791,2021-10-24T15:09:17.884Z,12860.94,1635087074,incremental,ni_sequenzen,NI_Sequenzen,,,,,,,,,,,,,,
,Screen_4,canvas.Screen,0_2_16_3,,skipped,17,12791.5,,,12790,,12791.5,2021-10-24T15:09:17.884Z,12860.94,1635087074,incremental,ni_sequenzen,NI_Sequenzen,,,,,,,,,,,,,,
,Screen_5,canvas.Screen,0_2_16_4,,skipped,17,12792,,,12790,,12792.100000023842,2021-10-24T15:09:17.885Z,12860.94,1635087074,incremental,ni_sequenzen,NI_Sequenzen,,,,,,,,,,,,,,
,Screen_6,canvas.Screen,0_2_16_5,,skipped,17,12792.5,,,12790,,12792.5,2021-10-24T15:09:17.885Z,12860.94,1635087074,incremental,ni_sequenzen,NI_Sequenzen,,,,,,,,,,,,,,
,Sequence,flow.Sequence,0_2_16,,completion,17,12789.5,,,12790,,12792.600000023842,2021-10-24T15:09:17.885Z,12860.94,1635087074,incremental,ni_sequenzen,NI_Sequenzen,,,,,,,,,,,,,,
,Screen_1,canvas.Screen,0_2_17_0,,skipped,18,12793.300000011921,,,12793.300000011921,,12793.300000011921,2021-10-24T15:09:17.886Z,12860.94,1635087074,incremental,ni_sequenzen,NI_Sequenzen,,,,,,,,,,,,,,
,Screen_2,canvas.Screen,0_2_17_1,,skipped,18,12793.90000000596,,,12793.300000011921,,12793.90000000596,2021-10-24T15:09:17.886Z,12860.94,1635087074,incremental,ni_sequenzen,NI_Sequenzen,,,,,,,,,,,,,,
,Screen_3,canvas.Screen,0_2_17_2,,skipped,18,12794.300000011921,,,12793.300000011921,,12794.300000011921,2021-10-24T15:09:17.887Z,12860.94,1635087074,incremental,ni_sequenzen,NI_Sequenzen,,,,,,,,,,,,,,
,Screen_4,canvas.Screen,0_2_17_3,,skipped,18,12794.90000000596,,,12793.300000011921,,12794.90000000596,2021-10-24T15:09:17.887Z,12860.94,1635087074,incremental,ni_sequenzen,NI_Sequenzen,,,,,,,,,,,,,,
,Screen_5,canvas.Screen,0_2_17_4,,skipped,18,12795.40000000596,,,12793.300000011921,,12795.40000000596,2021-10-24T15:09:17.888Z,12860.94,1635087074,incremental,ni_sequenzen,NI_Sequenzen,,,,,,,,,,,,,,
,Screen_6,canvas.Screen,0_2_17_5,,skipped,18,12795.90000000596,,,12793.300000011921,,12795.90000000596,2021-10-24T15:09:17.888Z,12860.94,1635087074,incremental,ni_sequenzen,NI_Sequenzen,,,,,,,,,,,,,,
,Sequence,flow.Sequence,0_2_17,,completion,18,12792.800000011921,,,12793.300000011921,,12795.90000000596,2021-10-24T15:09:17.889Z,12860.94,1635087074,incremental,ni_sequenzen,NI_Sequenzen,,,,,,,,,,,,,,
,Screen_1,canvas.Screen,0_2_18_0,,skipped,19,12796.700000017881,,,12796.700000017881,,12796.700000017881,2021-10-24T15:09:17.889Z,12860.94,1635087074,incremental,ni_sequenzen,NI_Sequenzen,,,,,,,,,,,,,,
,Screen_2,canvas.Screen,0_2_18_1,,skipped,19,12797.200000017881,,,12796.700000017881,,12797.200000017881,2021-10-24T15:09:17.890Z,12860.94,1635087074,incremental,ni_sequenzen,NI_Sequenzen,,,,,,,,,,,,,,
,Screen_3,canvas.Screen,0_2_18_2,,skipped,19,12797.700000017881,,,12796.700000017881,,12797.800000011921,2021-10-24T15:09:17.890Z,12860.94,1635087074,incremental,ni_sequenzen,NI_Sequenzen,,,,,,,,,,,,,,
,Screen_4,canvas.Screen,0_2_18_3,,skipped,19,12798.200000017881,,,12796.700000017881,,12798.200000017881,2021-10-24T15:09:17.891Z,12860.94,1635087074,incremental,ni_sequenzen,NI_Sequenzen,,,,,,,,,,,,,,
,Screen_5,canvas.Screen,0_2_18_4,,skipped,19,12798.700000017881,,,12796.700000017881,,12798.800000011921,2021-10-24T15:09:17.891Z,12860.94,1635087074,incremental,ni_sequenzen,NI_Sequenzen,,,,,,,,,,,,,,
,Screen_6,canvas.Screen,0_2_18_5,,skipped,19,12799.200000017881,,,12796.700000017881,,12799.300000011921,2021-10-24T15:09:17.892Z,12860.94,1635087074,incremental,ni_sequenzen,NI_Sequenzen,,,,,,,,,,,,,,
,Sequence,flow.Sequence,0_2_18,,completion,19,12796.200000017881,,,12796.700000017881,,12799.40000000596,2021-10-24T15:09:17.892Z,12860.94,1635087074,incremental,ni_sequenzen,NI_Sequenzen,,,,,,,,,,,,,,
,Screen_1,canvas.Screen,0_2_19_0,,skipped,20,12800.100000023842,,,12800.100000023842,,12800.100000023842,2021-10-24T15:09:17.893Z,12860.94,1635087074,incremental,ni_sequenzen,NI_Sequenzen,,,,,,,,,,,,,,
,Screen_2,canvas.Screen,0_2_19_1,,skipped,20,12800.600000023842,,,12800.100000023842,,12800.600000023842,2021-10-24T15:09:17.893Z,12860.94,1635087074,incremental,ni_sequenzen,NI_Sequenzen,,,,,,,,,,,,,,
,Screen_3,canvas.Screen,0_2_19_2,,skipped,20,12801.100000023842,,,12800.100000023842,,12801.200000017881,2021-10-24T15:09:17.894Z,12860.94,1635087074,incremental,ni_sequenzen,NI_Sequenzen,,,,,,,,,,,,,,
,Screen_4,canvas.Screen,0_2_19_3,,skipped,20,12801.600000023842,,,12800.100000023842,,12801.700000017881,2021-10-24T15:09:17.894Z,12860.94,1635087074,incremental,ni_sequenzen,NI_Sequenzen,,,,,,,,,,,,,,
,Screen_5,canvas.Screen,0_2_19_4,,skipped,20,12802.200000017881,,,12800.100000023842,,12802.200000017881,2021-10-24T15:09:17.895Z,12860.94,1635087074,incremental,ni_sequenzen,NI_Sequenzen,,,,,,,,,,,,,,
,Screen_6,canvas.Screen,0_2_19_5,,skipped,20,12802.700000017881,,,12800.100000023842,,12802.700000017881,2021-10-24T15:09:17.895Z,12860.94,1635087074,incremental,ni_sequenzen,NI_Sequenzen,,,,,,,,,,,,,,
,Sequence,flow.Sequence,0_2_19,,completion,20,12799.5,,,12800.100000023842,,12802.700000017881,2021-10-24T15:09:17.895Z,12860.94,1635087074,incremental,ni_sequenzen,NI_Sequenzen,,,,,,,,,,,,,,
,Screen_1,canvas.Screen,0_2_20_0,,skipped,21,12803.5,,,12803.5,,12803.5,2021-10-24T15:09:17.896Z,12860.94,1635087074,incremental,ni_sequenzen,NI_Sequenzen,,,,,,,,,,,,,,
,Screen_2,canvas.Screen,0_2_20_1,,skipped,21,12804,,,12803.5,,12804,2021-10-24T15:09:17.897Z,12860.94,1635087074,incremental,ni_sequenzen,NI_Sequenzen,,,,,,,,,,,,,,
,Screen_3,canvas.Screen,0_2_20_2,,skipped,21,12804.5,,,12803.5,,12804.5,2021-10-24T15:09:17.897Z,12860.94,1635087074,incremental,ni_sequenzen,NI_Sequenzen,,,,,,,,,,,,,,
,Screen_4,canvas.Screen,0_2_20_3,,skipped,21,12805,,,12803.5,,12805,2021-10-24T15:09:17.898Z,12860.94,1635087074,incremental,ni_sequenzen,NI_Sequenzen,,,,,,,,,,,,,,
,Screen_5,canvas.Screen,0_2_20_4,,skipped,21,12805.5,,,12803.5,,12805.5,2021-10-24T15:09:17.898Z,12860.94,1635087074,incremental,ni_sequenzen,NI_Sequenzen,,,,,,,,,,,,,,
,Screen_6,canvas.Screen,0_2_20_5,,skipped,21,12806,,,12803.5,,12806,2021-10-24T15:09:17.899Z,12860.94,1635087074,incremental,ni_sequenzen,NI_Sequenzen,,,,,,,,,,,,,,
,Sequence,flow.Sequence,0_2_20,,completion,21,12802.90000000596,,,12803.5,,12806,2021-10-24T15:09:17.899Z,12860.94,1635087074,incremental,ni_sequenzen,NI_Sequenzen,,,,,,,,,,,,,,
,Screen_1,canvas.Screen,0_2_21_0,,skipped,22,12806.800000011921,,,12806.800000011921,,12806.90000000596,2021-10-24T15:09:17.899Z,12860.94,1635087074,incremental,ni_sequenzen,NI_Sequenzen,,,,,,,,,,,,,,
,Screen_2,canvas.Screen,0_2_21_1,,skipped,22,12807.300000011921,,,12806.800000011921,,12807.40000000596,2021-10-24T15:09:17.900Z,12860.94,1635087074,incremental,ni_sequenzen,NI_Sequenzen,,,,,,,,,,,,,,
,Screen_3,canvas.Screen,0_2_21_2,,skipped,22,12807.800000011921,,,12806.800000011921,,12807.800000011921,2021-10-24T15:09:17.900Z,12860.94,1635087074,incremental,ni_sequenzen,NI_Sequenzen,,,,,,,,,,,,,,
,Screen_4,canvas.Screen,0_2_21_3,,skipped,22,12808.300000011921,,,12806.800000011921,,12808.300000011921,2021-10-24T15:09:17.901Z,12860.94,1635087074,incremental,ni_sequenzen,NI_Sequenzen,,,,,,,,,,,,,,
,Screen_5,canvas.Screen,0_2_21_4,,skipped,22,12809.200000017881,,,12806.800000011921,,12809.300000011921,2021-10-24T15:09:17.902Z,12860.94,1635087074,incremental,ni_sequenzen,NI_Sequenzen,,,,,,,,,,,,,,
,Screen_6,canvas.Screen,0_2_21_5,,skipped,22,12809.800000011921,,,12806.800000011921,,12809.90000000596,2021-10-24T15:09:17.902Z,12860.94,1635087074,incremental,ni_sequenzen,NI_Sequenzen,,,,,,,,,,,,,,
,Sequence,flow.Sequence,0_2_21,,completion,22,12806.200000017881,,,12806.800000011921,,12809.90000000596,2021-10-24T15:09:17.902Z,12860.94,1635087074,incremental,ni_sequenzen,NI_Sequenzen,,,,,,,,,,,,,,
,Screen_1,canvas.Screen,0_2_22_0,,skipped,23,12810.600000023842,,,12810.600000023842,,12810.600000023842,2021-10-24T15:09:17.903Z,12860.94,1635087074,incremental,ni_sequenzen,NI_Sequenzen,,,,,,,,,,,,,,
,Screen_2,canvas.Screen,0_2_22_1,,skipped,23,12811.100000023842,,,12810.600000023842,,12811.100000023842,2021-10-24T15:09:17.904Z,12860.94,1635087074,incremental,ni_sequenzen,NI_Sequenzen,,,,,,,,,,,,,,
,Screen_3,canvas.Screen,0_2_22_2,,skipped,23,12812,,,12810.600000023842,,12812,2021-10-24T15:09:17.905Z,12860.94,1635087074,incremental,ni_sequenzen,NI_Sequenzen,,,,,,,,,,,,,,
,Screen_4,canvas.Screen,0_2_22_3,,skipped,23,12812.600000023842,,,12810.600000023842,,12812.700000017881,2021-10-24T15:09:17.905Z,12860.94,1635087074,incremental,ni_sequenzen,NI_Sequenzen,,,,,,,,,,,,,,
,Screen_5,canvas.Screen,0_2_22_4,,skipped,23,12813.100000023842,,,12810.600000023842,,12813.200000017881,2021-10-24T15:09:17.906Z,12860.94,1635087074,incremental,ni_sequenzen,NI_Sequenzen,,,,,,,,,,,,,,
,Screen_6,canvas.Screen,0_2_22_5,,skipped,23,12813.600000023842,,,12810.600000023842,,12813.700000017881,2021-10-24T15:09:17.906Z,12860.94,1635087074,incremental,ni_sequenzen,NI_Sequenzen,,,,,,,,,,,,,,
,Sequence,flow.Sequence,0_2_22,,completion,23,12810.100000023842,,,12810.600000023842,,12813.700000017881,2021-10-24T15:09:17.906Z,12860.94,1635087074,incremental,ni_sequenzen,NI_Sequenzen,,,,,,,,,,,,,,
,Screen_1,canvas.Screen,0_2_23_0,,skipped,24,12814.5,,,12814.5,,12814.600000023842,2021-10-24T15:09:17.907Z,12860.94,1635087074,incremental,ni_sequenzen,NI_Sequenzen,,,,,,,,,,,,,,
,Screen_2,canvas.Screen,0_2_23_1,,skipped,24,12815,,,12814.5,,12815.100000023842,2021-10-24T15:09:17.908Z,12860.94,1635087074,incremental,ni_sequenzen,NI_Sequenzen,,,,,,,,,,,,,,
,Screen_3,canvas.Screen,0_2_23_2,,skipped,24,12815.600000023842,,,12814.5,,12815.600000023842,2021-10-24T15:09:17.908Z,12860.94,1635087074,incremental,ni_sequenzen,NI_Sequenzen,,,,,,,,,,,,,,
,Screen_4,canvas.Screen,0_2_23_3,,skipped,24,12816,,,12814.5,,12816.100000023842,2021-10-24T15:09:17.909Z,12860.94,1635087074,incremental,ni_sequenzen,NI_Sequenzen,,,,,,,,,,,,,,
,Screen_5,canvas.Screen,0_2_23_4,,skipped,24,12816.600000023842,,,12814.5,,12816.700000017881,2021-10-24T15:09:17.909Z,12860.94,1635087074,incremental,ni_sequenzen,NI_Sequenzen,,,,,,,,,,,,,,
,Screen_6,canvas.Screen,0_2_23_5,,skipped,24,12817.300000011921,,,12814.5,,12817.300000011921,2021-10-24T15:09:17.910Z,12860.94,1635087074,incremental,ni_sequenzen,NI_Sequenzen,,,,,,,,,,,,,,
,Sequence,flow.Sequence,0_2_23,,completion,24,12813.90000000596,,,12814.5,,12817.40000000596,2021-10-24T15:09:17.910Z,12860.94,1635087074,incremental,ni_sequenzen,NI_Sequenzen,,,,,,,,,,,,,,
,Screen_1,canvas.Screen,0_2_24_0,,skipped,25,12818.200000017881,,,12818.200000017881,,12818.200000017881,2021-10-24T15:09:17.911Z,12860.94,1635087074,incremental,ni_sequenzen,NI_Sequenzen,,,,,,,,,,,,,,
,Screen_2,canvas.Screen,0_2_24_1,,skipped,25,12818.700000017881,,,12818.200000017881,,12818.800000011921,2021-10-24T15:09:17.911Z,12860.94,1635087074,incremental,ni_sequenzen,NI_Sequenzen,,,,,,,,,,,,,,
,Screen_3,canvas.Screen,0_2_24_2,,skipped,25,12819.200000017881,,,12818.200000017881,,12819.200000017881,2021-10-24T15:09:17.912Z,12860.94,1635087074,incremental,ni_sequenzen,NI_Sequenzen,,,,,,,,,,,,,,
,Screen_4,canvas.Screen,0_2_24_3,,skipped,25,12819.800000011921,,,12818.200000017881,,12819.800000011921,2021-10-24T15:09:17.912Z,12860.94,1635087074,incremental,ni_sequenzen,NI_Sequenzen,,,,,,,,,,,,,,
,Screen_5,canvas.Screen,0_2_24_4,,skipped,25,12821.300000011921,,,12818.200000017881,,12821.300000011921,2021-10-24T15:09:17.914Z,12860.94,1635087074,incremental,ni_sequenzen,NI_Sequenzen,,,,,,,,,,,,,,
,Screen_6,canvas.Screen,0_2_24_5,,skipped,25,12821.90000000596,,,12818.200000017881,,12821.90000000596,2021-10-24T15:09:17.914Z,12860.94,1635087074,incremental,ni_sequenzen,NI_Sequenzen,,,,,,,,,,,,,,
,Sequence,flow.Sequence,0_2_24,,completion,25,12817.600000023842,,,12818.200000017881,,12822,2021-10-24T15:09:17.915Z,12860.94,1635087074,incremental,ni_sequenzen,NI_Sequenzen,,,,,,,,,,,,,,
,Screen_1,canvas.Screen,0_2_25_0,,skipped,26,12822.800000011921,,,12822.800000011921,,12822.800000011921,2021-10-24T15:09:17.915Z,12860.94,1635087074,incremental,ni_sequenzen,NI_Sequenzen,,,,,,,,,,,,,,
,Screen_2,canvas.Screen,0_2_25_1,,skipped,26,12823.300000011921,,,12822.800000011921,,12823.300000011921,2021-10-24T15:09:17.916Z,12860.94,1635087074,incremental,ni_sequenzen,NI_Sequenzen,,,,,,,,,,,,,,
,Screen_3,canvas.Screen,0_2_25_2,,skipped,26,12823.800000011921,,,12822.800000011921,,12823.800000011921,2021-10-24T15:09:17.916Z,12860.94,1635087074,incremental,ni_sequenzen,NI_Sequenzen,,,,,,,,,,,,,,
,Screen_4,canvas.Screen,0_2_25_3,,skipped,26,12824.300000011921,,,12822.800000011921,,12824.40000000596,2021-10-24T15:09:17.917Z,12860.94,1635087074,incremental,ni_sequenzen,NI_Sequenzen,,,,,,,,,,,,,,
,Screen_5,canvas.Screen,0_2_25_4,,skipped,26,12824.800000011921,,,12822.800000011921,,12824.90000000596,2021-10-24T15:09:17.917Z,12860.94,1635087074,incremental,ni_sequenzen,NI_Sequenzen,,,,,,,,,,,,,,
,Screen_6,canvas.Screen,0_2_25_5,,skipped,26,12825.40000000596,,,12822.800000011921,,12825.40000000596,2021-10-24T15:09:17.918Z,12860.94,1635087074,incremental,ni_sequenzen,NI_Sequenzen,,,,,,,,,,,,,,
,Sequence,flow.Sequence,0_2_25,,completion,26,12822.200000017881,,,12822.800000011921,,12825.5,2021-10-24T15:09:17.918Z,12860.94,1635087074,incremental,ni_sequenzen,NI_Sequenzen,,,,,,,,,,,,,,
,Screen_1,canvas.Screen,0_2_26_0,,skipped,27,12826.40000000596,,,12826.40000000596,,12826.5,2021-10-24T15:09:17.919Z,12860.94,1635087074,incremental,ni_sequenzen,NI_Sequenzen,,,,,,,,,,,,,,
,Screen_2,canvas.Screen,0_2_26_1,,skipped,27,12827.100000023842,,,12826.40000000596,,12827.40000000596,2021-10-24T15:09:17.920Z,12860.94,1635087074,incremental,ni_sequenzen,NI_Sequenzen,,,,,,,,,,,,,,
,Screen_3,canvas.Screen,0_2_26_2,,skipped,27,12828.200000017881,,,12826.40000000596,,12828.300000011921,2021-10-24T15:09:17.921Z,12860.94,1635087074,incremental,ni_sequenzen,NI_Sequenzen,,,,,,,,,,,,,,
,Screen_4,canvas.Screen,0_2_26_3,,skipped,27,12829,,,12826.40000000596,,12829.100000023842,2021-10-24T15:09:17.922Z,12860.94,1635087074,incremental,ni_sequenzen,NI_Sequenzen,,,,,,,,,,,,,,
,Screen_5,canvas.Screen,0_2_26_4,,skipped,27,12829.700000017881,,,12826.40000000596,,12829.800000011921,2021-10-24T15:09:17.922Z,12860.94,1635087074,incremental,ni_sequenzen,NI_Sequenzen,,,,,,,,,,,,,,
,Screen_6,canvas.Screen,0_2_26_5,,skipped,27,12830.300000011921,,,12826.40000000596,,12830.300000011921,2021-10-24T15:09:17.923Z,12860.94,1635087074,incremental,ni_sequenzen,NI_Sequenzen,,,,,,,,,,,,,,
,Sequence,flow.Sequence,0_2_26,,completion,27,12825.700000017881,,,12826.40000000596,,12830.40000000596,2021-10-24T15:09:17.923Z,12860.94,1635087074,incremental,ni_sequenzen,NI_Sequenzen,,,,,,,,,,,,,,
,Screen_1,canvas.Screen,0_2_27_0,,skipped,28,12831,,,12831,,12831.100000023842,2021-10-24T15:09:17.924Z,12860.94,1635087074,incremental,ni_sequenzen,NI_Sequenzen,,,,,,,,,,,,,,
,Screen_2,canvas.Screen,0_2_27_1,,skipped,28,12831.600000023842,,,12831,,12831.600000023842,2021-10-24T15:09:17.924Z,12860.94,1635087074,incremental,ni_sequenzen,NI_Sequenzen,,,,,,,,,,,,,,
,Screen_3,canvas.Screen,0_2_27_2,,skipped,28,12832.100000023842,,,12831,,12832.200000017881,2021-10-24T15:09:17.925Z,12860.94,1635087074,incremental,ni_sequenzen,NI_Sequenzen,,,,,,,,,,,,,,
,Screen_4,canvas.Screen,0_2_27_3,,skipped,28,12832.600000023842,,,12831,,12832.600000023842,2021-10-24T15:09:17.925Z,12860.94,1635087074,incremental,ni_sequenzen,NI_Sequenzen,,,,,,,,,,,,,,
,Screen_5,canvas.Screen,0_2_27_4,,skipped,28,12833.100000023842,,,12831,,12833.200000017881,2021-10-24T15:09:17.926Z,12860.94,1635087074,incremental,ni_sequenzen,NI_Sequenzen,,,,,,,,,,,,,,
,Screen_6,canvas.Screen,0_2_27_5,,skipped,28,12833.600000023842,,,12831,,12833.600000023842,2021-10-24T15:09:17.926Z,12860.94,1635087074,incremental,ni_sequenzen,NI_Sequenzen,,,,,,,,,,,,,,
,Sequence,flow.Sequence,0_2_27,,completion,28,12830.600000023842,,,12831,,12833.700000017881,2021-10-24T15:09:17.926Z,12860.94,1635087074,incremental,ni_sequenzen,NI_Sequenzen,,,,,,,,,,,,,,
,Screen_1,canvas.Screen,0_2_28_0,,skipped,29,12834.40000000596,,,12834.40000000596,,12834.40000000596,2021-10-24T15:09:17.927Z,12860.94,1635087074,incremental,ni_sequenzen,NI_Sequenzen,,,,,,,,,,,,,,
,Screen_2,canvas.Screen,0_2_28_1,,skipped,29,12834.90000000596,,,12834.40000000596,,12835,2021-10-24T15:09:17.928Z,12860.94,1635087074,incremental,ni_sequenzen,NI_Sequenzen,,,,,,,,,,,,,,
,Screen_3,canvas.Screen,0_2_28_2,,skipped,29,12835.40000000596,,,12834.40000000596,,12835.40000000596,2021-10-24T15:09:17.928Z,12860.94,1635087074,incremental,ni_sequenzen,NI_Sequenzen,,,,,,,,,,,,,,
,Screen_4,canvas.Screen,0_2_28_3,,skipped,29,12835.90000000596,,,12834.40000000596,,12835.90000000596,2021-10-24T15:09:17.929Z,12860.94,1635087074,incremental,ni_sequenzen,NI_Sequenzen,,,,,,,,,,,,,,
,Screen_5,canvas.Screen,0_2_28_4,,skipped,29,12836.5,,,12834.40000000596,,12836.5,2021-10-24T15:09:17.929Z,12860.94,1635087074,incremental,ni_sequenzen,NI_Sequenzen,,,,,,,,,,,,,,
,Screen_6,canvas.Screen,0_2_28_5,,skipped,29,12837,,,12834.40000000596,,12837,2021-10-24T15:09:17.930Z,12860.94,1635087074,incremental,ni_sequenzen,NI_Sequenzen,,,,,,,,,,,,,,
,Sequence,flow.Sequence,0_2_28,,completion,29,12833.90000000596,,,12834.40000000596,,12837.100000023842,2021-10-24T15:09:17.930Z,12860.94,1635087074,incremental,ni_sequenzen,NI_Sequenzen,,,,,,,,,,,,,,
,Screen_1,canvas.Screen,0_2_29_0,,skipped,30,12837.700000017881,,,12837.700000017881,,12837.700000017881,2021-10-24T15:09:17.930Z,12860.94,1635087074,incremental,ni_sequenzen,NI_Sequenzen,,,,,,,,,,,,,,
,Screen_2,canvas.Screen,0_2_29_1,,skipped,30,12838.200000017881,,,12837.700000017881,,12838.300000011921,2021-10-24T15:09:17.931Z,12860.94,1635087074,incremental,ni_sequenzen,NI_Sequenzen,,,,,,,,,,,,,,
,Screen_3,canvas.Screen,0_2_29_2,,skipped,30,12838.800000011921,,,12837.700000017881,,12838.800000011921,2021-10-24T15:09:17.931Z,12860.94,1635087074,incremental,ni_sequenzen,NI_Sequenzen,,,,,,,,,,,,,,
,Screen_4,canvas.Screen,0_2_29_3,,skipped,30,12839.300000011921,,,12837.700000017881,,12839.300000011921,2021-10-24T15:09:17.932Z,12860.94,1635087074,incremental,ni_sequenzen,NI_Sequenzen,,,,,,,,,,,,,,
,Screen_5,canvas.Screen,0_2_29_4,,skipped,30,12839.800000011921,,,12837.700000017881,,12839.90000000596,2021-10-24T15:09:17.932Z,12860.94,1635087074,incremental,ni_sequenzen,NI_Sequenzen,,,,,,,,,,,,,,
,Screen_6,canvas.Screen,0_2_29_5,,skipped,30,12840.300000011921,,,12837.700000017881,,12840.40000000596,2021-10-24T15:09:17.933Z,12860.94,1635087074,incremental,ni_sequenzen,NI_Sequenzen,,,,,,,,,,,,,,
,Sequence,flow.Sequence,0_2_29,,completion,30,12837.300000011921,,,12837.700000017881,,12840.5,2021-10-24T15:09:17.933Z,12860.94,1635087074,incremental,ni_sequenzen,NI_Sequenzen,,,,,,,,,,,,,,
,Instructions_II,flow.Loop,0_2,,completion,,9758.5,9744.398,9761.064,12837.700000017881,3076.636000017881,12840.5,2021-10-24T15:09:17.933Z,12860.94,1635087074,incremental,ni_sequenzen,NI_Sequenzen,,,,,,,,,,,,,,
,Move,canvas.Screen,0_3_0_0_0_0,down,response,,12860.200000017881,12844.274,12860.94,13344.300000011921,483.3600000119204,13350.40000000596,2021-10-24T15:09:18.443Z,13360.92,1635087074,incremental,ni_sequenzen,NI_Sequenzen,1,0,,,,,,,,,,,,
,Move,canvas.Screen,0_3_0_0_0_1,down,response,,13358.40000000596,13344.254,13360.92,13486.100000023842,125.18000002384179,13492.200000017881,2021-10-24T15:09:18.585Z,13510.914,1635087074,incremental,ni_sequenzen,NI_Sequenzen,2,0,,,,,,,,,,,,
,Move,canvas.Screen,0_3_0_0_0_2,down,response,,13496,13494.248,13510.914,13642.100000023842,131.1860000238412,13648.100000023842,2021-10-24T15:09:18.741Z,13660.908,1635087074,incremental,ni_sequenzen,NI_Sequenzen,3,0,,,,,,,,,,,,
,Move,canvas.Screen,0_3_0_0_0_3,right,response,,13652,13644.242,13660.908,13867.700000017881,206.79200001788195,13873.700000017881,2021-10-24T15:09:18.966Z,13877.566,1635087074,incremental,ni_sequenzen,NI_Sequenzen,4,0,,,,,,,,,,,,
,Move,canvas.Screen,0_3_0_0_0_4,right,response,,13877,13860.9,13877.566,14035.100000023842,157.53400002384114,14041.300000011921,2021-10-24T15:09:19.134Z,14077.558,1635087074,incremental,ni_sequenzen,NI_Sequenzen,5,0,,,,,,,,,,,,
,Move,canvas.Screen,0_3_0_0_0_5,-999,skipped,,14044.800000011921,,,14035.100000023842,,14044.90000000596,2021-10-24T15:09:19.137Z,14077.558,1635087074,incremental,ni_sequenzen,NI_Sequenzen,6,0,,,,,,,,,,,,
,Move,canvas.Screen,0_3_0_0_0_6,-999,skipped,,14047.90000000596,,,14035.100000023842,,14048,2021-10-24T15:09:19.141Z,14077.558,1635087074,incremental,ni_sequenzen,NI_Sequenzen,7,0,,,,,,,,,,,,
,Move,canvas.Screen,0_3_0_0_0_7,-999,skipped,,14050.100000023842,,,14035.100000023842,,14050.300000011921,2021-10-24T15:09:19.143Z,14077.558,1635087074,incremental,ni_sequenzen,NI_Sequenzen,8,0,,,,,,,,,,,,
,Move,canvas.Screen,0_3_0_0_0_8,-999,skipped,,14052.300000011921,,,14035.100000023842,,14052.40000000596,2021-10-24T15:09:19.145Z,14077.558,1635087074,incremental,ni_sequenzen,NI_Sequenzen,9,0,,,,,,,,,,,,
,Move,canvas.Screen,0_3_0_0_0_9,-999,skipped,,14054.300000011921,,,14035.100000023842,,14054.40000000596,2021-10-24T15:09:19.147Z,14077.558,1635087074,incremental,ni_sequenzen,NI_Sequenzen,10,0,,,,,,,,,,,,
,Move,canvas.Screen,0_3_0_0_0_10,-999,skipped,,14056,,,14035.100000023842,,14056.100000023842,2021-10-24T15:09:19.149Z,14077.558,1635087074,incremental,ni_sequenzen,NI_Sequenzen,11,0,,,,,,,,,,,,
,Move,canvas.Screen,0_3_0_0_0_11,-999,skipped,,14057.600000023842,,,14035.100000023842,,14057.700000017881,2021-10-24T15:09:19.150Z,14077.558,1635087074,incremental,ni_sequenzen,NI_Sequenzen,12,0,,,,,,,,,,,,
,Move,canvas.Screen,0_3_0_0_0_12,-999,skipped,,14059.200000017881,,,14035.100000023842,,14059.300000011921,2021-10-24T15:09:19.152Z,14077.558,1635087074,incremental,ni_sequenzen,NI_Sequenzen,13,0,,,,,,,,,,,,
,Move,canvas.Screen,0_3_0_0_0_13,-999,skipped,,14061.40000000596,,,14035.100000023842,,14061.40000000596,2021-10-24T15:09:19.154Z,14077.558,1635087074,incremental,ni_sequenzen,NI_Sequenzen,14,0,,,,,,,,,,,,
,Move,canvas.Screen,0_3_0_0_0_14,-999,skipped,,14063.90000000596,,,14035.100000023842,,14063.90000000596,2021-10-24T15:09:19.156Z,14077.558,1635087074,incremental,ni_sequenzen,NI_Sequenzen,15,0,,,,,,,,,,,,
,Loop,flow.Loop,0_3_0_0_0,-999,completion,,12856.90000000596,12844.274,12860.94,14035.100000023842,1174.1600000238413,14064,2021-10-24T15:09:19.157Z,14077.558,1635087074,incremental,ni_sequenzen,NI_Sequenzen,,0,,,,,,,,,,,,
,Feedback,canvas.Screen,0_3_0_0_1,,timeout,,14065.300000011921,14060.892,14077.558,18060.732,3999.84,18063.100000023842,2021-10-24T15:09:23.156Z,18077.398,1635087074,incremental,ni_sequenzen,NI_Sequenzen,,0,,,,,,,,,,,,
,Trial,flow.Sequence,0_3_0_0,,completion,,12849.5,12844.274,12860.94,18060.732,5199.7919999999995,18063.30000001192,2021-10-24T15:09:23.156Z,18094.064,1635087074,incremental,ni_sequenzen,NI_Sequenzen,,0,,,,,,,,,,,,
,Move,canvas.Screen,0_3_0_1_0_0,left,response,,18077.80000001192,18077.398,18094.064,19292.80000001192,1198.7360000119224,19297.5,2021-10-24T15:09:24.390Z,19310.682,1635087074,incremental,ni_sequenzen,NI_Sequenzen,1,1,,,,,,,,,,,,
,Move,canvas.Screen,0_3_0_1_0_1,down,response,,19300.20000001788,19294.016,19310.682,19654.90000000596,344.21800000595977,19661.100000023842,2021-10-24T15:09:24.754Z,19667.844,1635087074,incremental,ni_sequenzen,NI_Sequenzen,2,1,,,,,,,,,,,,
,Move,canvas.Screen,0_3_0_1_0_2,right,response,,19664.80000001192,19651.178,19667.844,19877.80000001192,209.95600001191997,19883.90000000596,2021-10-24T15:09:24.977Z,19901.168,1635087074,incremental,ni_sequenzen,NI_Sequenzen,3,1,,,,,,,,,,,,
,Move,canvas.Screen,0_3_0_1_0_3,right,response,,19887.80000001192,19884.502,19901.168,20234.90000000596,333.732000005959,20241,2021-10-24T15:09:25.334Z,20267.82,1635087074,incremental,ni_sequenzen,NI_Sequenzen,4,1,,,,,,,,,,,,
,Move,canvas.Screen,0_3_0_1_0_4,-999,skipped,,20244.70000001788,,,20234.90000000596,,20244.80000001192,2021-10-24T15:09:25.337Z,20267.82,1635087074,incremental,ni_sequenzen,NI_Sequenzen,5,1,,,,,,,,,,,,
,Move,canvas.Screen,0_3_0_1_0_5,-999,skipped,,20247.20000001788,,,20234.90000000596,,20247.30000001192,2021-10-24T15:09:25.340Z,20267.82,1635087074,incremental,ni_sequenzen,NI_Sequenzen,6,1,,,,,,,,,,,,
,Move,canvas.Screen,0_3_0_1_0_6,-999,skipped,,20249.5,,,20234.90000000596,,20249.600000023842,2021-10-24T15:09:25.342Z,20267.82,1635087074,incremental,ni_sequenzen,NI_Sequenzen,7,1,,,,,,,,,,,,
,Move,canvas.Screen,0_3_0_1_0_7,-999,skipped,,20251.600000023842,,,20234.90000000596,,20251.70000001788,2021-10-24T15:09:25.344Z,20267.82,1635087074,incremental,ni_sequenzen,NI_Sequenzen,8,1,,,,,,,,,,,,
,Move,canvas.Screen,0_3_0_1_0_8,-999,skipped,,20253.600000023842,,,20234.90000000596,,20253.70000001788,2021-10-24T15:09:25.346Z,20267.82,1635087074,incremental,ni_sequenzen,NI_Sequenzen,9,1,,,,,,,,,,,,
,Move,canvas.Screen,0_3_0_1_0_9,-999,skipped,,20256.100000023842,,,20234.90000000596,,20256.20000001788,2021-10-24T15:09:25.349Z,20267.82,1635087074,incremental,ni_sequenzen,NI_Sequenzen,10,1,,,,,,,,,,,,
,Move,canvas.Screen,0_3_0_1_0_10,-999,skipped,,20257.80000001192,,,20234.90000000596,,20257.90000000596,2021-10-24T15:09:25.350Z,20267.82,1635087074,incremental,ni_sequenzen,NI_Sequenzen,11,1,,,,,,,,,,,,
,Move,canvas.Screen,0_3_0_1_0_11,-999,skipped,,20259.30000001192,,,20234.90000000596,,20259.40000000596,2021-10-24T15:09:25.352Z,20267.82,1635087074,incremental,ni_sequenzen,NI_Sequenzen,12,1,,,,,,,,,,,,
,Move,canvas.Screen,0_3_0_1_0_12,-999,skipped,,20261,,,20234.90000000596,,20261,2021-10-24T15:09:25.354Z,20267.82,1635087074,incremental,ni_sequenzen,NI_Sequenzen,13,1,,,,,,,,,,,,
,Move,canvas.Screen,0_3_0_1_0_13,-999,skipped,,20262.5,,,20234.90000000596,,20262.5,2021-10-24T15:09:25.355Z,20267.82,1635087074,incremental,ni_sequenzen,NI_Sequenzen,14,1,,,,,,,,,,,,
,Move,canvas.Screen,0_3_0_1_0_14,-999,skipped,,20264.30000001192,,,20234.90000000596,,20264.40000000596,2021-10-24T15:09:25.357Z,20267.82,1635087074,incremental,ni_sequenzen,NI_Sequenzen,15,1,,,,,,,,,,,,
,Loop,flow.Loop,0_3_0_1_0,-999,completion,,18075.600000023842,18077.398,18094.064,20234.90000000596,2140.836000005962,20264.40000000596,2021-10-24T15:09:25.357Z,20267.82,1635087074,incremental,ni_sequenzen,NI_Sequenzen,,1,,,,,,,,,,,,
,Feedback,canvas.Screen,0_3_0_1_1,,timeout,,20265.600000023842,20251.154,20267.82,24250.994,3999.84,24253.30000001192,2021-10-24T15:09:29.346Z,24267.66,1635087074,incremental,ni_sequenzen,NI_Sequenzen,,1,,,,,,,,,,,,
,Trial,flow.Sequence,0_3_0_1,,completion,,18063.80000001192,18077.398,18094.064,24250.994,6156.93,24253.40000000596,2021-10-24T15:09:29.346Z,24284.326,1635087074,incremental,ni_sequenzen,NI_Sequenzen,,1,,,,,,,,,,,,
,Move,canvas.Screen,0_3_0_2_0_0,down,response,,24269.5,24267.66,24284.326,24633.600000023842,349.2740000238409,24639.90000000596,2021-10-24T15:09:29.733Z,24650.978,1635087074,incremental,ni_sequenzen,NI_Sequenzen,1,2,,,,,,,,,,,,
,Move,canvas.Screen,0_3_0_2_0_1,down,response,,24643.70000001788,24634.312,24650.978,24950.100000023842,299.1220000238427,24956.20000001788,2021-10-24T15:09:30.049Z,24967.632,1635087074,incremental,ni_sequenzen,NI_Sequenzen,2,2,,,,,,,,,,,,
,Move,canvas.Screen,0_3_0_2_0_2,right,response,,24959.80000001192,24950.966,24967.632,25166,198.36799999999857,25172.100000023842,2021-10-24T15:09:30.265Z,25184.29,1635087074,incremental,ni_sequenzen,NI_Sequenzen,3,2,,,,,,,,,,,,
,Move,canvas.Screen,0_3_0_2_0_3,right,response,,25175.70000001788,25167.624,25184.29,25344.90000000596,160.6100000059596,25351,2021-10-24T15:09:30.444Z,25384.282,1635087074,incremental,ni_sequenzen,NI_Sequenzen,4,2,,,,,,,,,,,,
,Move,canvas.Screen,0_3_0_2_0_4,-999,skipped,,25355.20000001788,,,25344.90000000596,,25355.30000001192,2021-10-24T15:09:30.448Z,25384.282,1635087074,incremental,ni_sequenzen,NI_Sequenzen,5,2,,,,,,,,,,,,
,Move,canvas.Screen,0_3_0_2_0_5,-999,skipped,,25357.600000023842,,,25344.90000000596,,25357.70000001788,2021-10-24T15:09:30.450Z,25384.282,1635087074,incremental,ni_sequenzen,NI_Sequenzen,6,2,,,,,,,,,,,,
,Move,canvas.Screen,0_3_0_2_0_6,-999,skipped,,25359.90000000596,,,25344.90000000596,,25359.90000000596,2021-10-24T15:09:30.453Z,25384.282,1635087074,incremental,ni_sequenzen,NI_Sequenzen,7,2,,,,,,,,,,,,
,Move,canvas.Screen,0_3_0_2_0_7,-999,skipped,,25361.90000000596,,,25344.90000000596,,25362,2021-10-24T15:09:30.455Z,25384.282,1635087074,incremental,ni_sequenzen,NI_Sequenzen,8,2,,,,,,,,,,,,
,Move,canvas.Screen,0_3_0_2_0_8,-999,skipped,,25363.90000000596,,,25344.90000000596,,25364,2021-10-24T15:09:30.457Z,25384.282,1635087074,incremental,ni_sequenzen,NI_Sequenzen,9,2,,,,,,,,,,,,
,Move,canvas.Screen,0_3_0_2_0_9,-999,skipped,,25372,,,25344.90000000596,,25372.100000023842,2021-10-24T15:09:30.465Z,25384.282,1635087074,incremental,ni_sequenzen,NI_Sequenzen,10,2,,,,,,,,,,,,
,Move,canvas.Screen,0_3_0_2_0_10,-999,skipped,,25373.90000000596,,,25344.90000000596,,25374,2021-10-24T15:09:30.467Z,25384.282,1635087074,incremental,ni_sequenzen,NI_Sequenzen,11,2,,,,,,,,,,,,
,Move,canvas.Screen,0_3_0_2_0_11,-999,skipped,,25375.40000000596,,,25344.90000000596,,25375.40000000596,2021-10-24T15:09:30.468Z,25384.282,1635087074,incremental,ni_sequenzen,NI_Sequenzen,12,2,,,,,,,,,,,,
,Move,canvas.Screen,0_3_0_2_0_12,-999,skipped,,25376.80000001192,,,25344.90000000596,,25376.80000001192,2021-10-24T15:09:30.469Z,25384.282,1635087074,incremental,ni_sequenzen,NI_Sequenzen,13,2,,,,,,,,,,,,
,Move,canvas.Screen,0_3_0_2_0_13,-999,skipped,,25378,,,25344.90000000596,,25378.100000023842,2021-10-24T15:09:30.471Z,25384.282,1635087074,incremental,ni_sequenzen,NI_Sequenzen,14,2,,,,,,,,,,,,
,Move,canvas.Screen,0_3_0_2_0_14,-999,skipped,,25379.30000001192,,,25344.90000000596,,25379.30000001192,2021-10-24T15:09:30.472Z,25384.282,1635087074,incremental,ni_sequenzen,NI_Sequenzen,15,2,,,,,,,,,,,,
,Loop,flow.Loop,0_3_0_2_0,-999,completion,,24266.600000023842,24267.66,24284.326,25344.90000000596,1060.5740000059595,25379.40000000596,2021-10-24T15:09:30.472Z,25384.282,1635087074,incremental,ni_sequenzen,NI_Sequenzen,,2,,,,,,,,,,,,
,Feedback,canvas.Screen,0_3_0_2_1,,timeout,,25380.70000001788,25367.616,25384.282,29367.456,3999.84,29370,2021-10-24T15:09:34.463Z,29384.122,1635087074,incremental,ni_sequenzen,NI_Sequenzen,,2,,,,,,,,,,,,
,Trial,flow.Sequence,0_3_0_2,,completion,,24253.80000001192,24267.66,24284.326,29367.456,5083.129999999997,29370.20000001788,2021-10-24T15:09:34.463Z,29400.788,1635087074,incremental,ni_sequenzen,NI_Sequenzen,,2,,,,,,,,,,,,
,Move,canvas.Screen,0_3_0_3_0_0,left,response,,29385.30000001192,29384.122,29400.788,29892,491.21199999999953,29898.40000000596,2021-10-24T15:09:34.991Z,29917.434,1635087074,incremental,ni_sequenzen,NI_Sequenzen,1,3,,,,,,,,,,,,
,Move,canvas.Screen,0_3_0_3_0_1,right,response,,29902.100000023842,29900.768,29917.434,30163.600000023842,246.16600002384075,30169.90000000596,2021-10-24T15:09:35.262Z,30189.401,1635087074,incremental,ni_sequenzen,NI_Sequenzen,2,3,,,,,,,,,,,,
,Move,canvas.Screen,0_3_0_3_0_2,down,response,,30173.30000001192,30172.735,30189.401,30393.600000023842,204.1990000238402,30399.70000001788,2021-10-24T15:09:35.492Z,30422.725,1635087074,incremental,ni_sequenzen,NI_Sequenzen,3,3,,,,,,,,,,,,
,Move,canvas.Screen,0_3_0_3_0_3,left,response,,30411,30406.059,30422.725,30681.70000001788,258.97500001788285,30688.100000023842,2021-10-24T15:09:35.781Z,30722.713,1635087074,incremental,ni_sequenzen,NI_Sequenzen,4,3,,,,,,,,,,,,
,Move,canvas.Screen,0_3_0_3_0_4,-999,skipped,,30691.80000001192,,,30681.70000001788,,30691.80000001192,2021-10-24T15:09:35.784Z,30722.713,1635087074,incremental,ni_sequenzen,NI_Sequenzen,5,3,,,,,,,,,,,,
,Move,canvas.Screen,0_3_0_3_0_5,-999,skipped,,30694.100000023842,,,30681.70000001788,,30694.30000001192,2021-10-24T15:09:35.787Z,30722.713,1635087074,incremental,ni_sequenzen,NI_Sequenzen,6,3,,,,,,,,,,,,
,Move,canvas.Screen,0_3_0_3_0_6,-999,skipped,,30696.40000000596,,,30681.70000001788,,30696.5,2021-10-24T15:09:35.789Z,30722.713,1635087074,incremental,ni_sequenzen,NI_Sequenzen,7,3,,,,,,,,,,,,
,Move,canvas.Screen,0_3_0_3_0_7,-999,skipped,,30698.40000000596,,,30681.70000001788,,30698.5,2021-10-24T15:09:35.791Z,30722.713,1635087074,incremental,ni_sequenzen,NI_Sequenzen,8,3,,,,,,,,,,,,
,Move,canvas.Screen,0_3_0_3_0_8,-999,skipped,,30700.30000001192,,,30681.70000001788,,30700.30000001192,2021-10-24T15:09:35.793Z,30722.713,1635087074,incremental,ni_sequenzen,NI_Sequenzen,9,3,,,,,,,,,,,,
,Move,canvas.Screen,0_3_0_3_0_9,-999,skipped,,30702.20000001788,,,30681.70000001788,,30702.40000000596,2021-10-24T15:09:35.795Z,30722.713,1635087074,incremental,ni_sequenzen,NI_Sequenzen,10,3,,,,,,,,,,,,
,Move,canvas.Screen,0_3_0_3_0_10,-999,skipped,,30703.80000001192,,,30681.70000001788,,30703.90000000596,2021-10-24T15:09:35.796Z,30722.713,1635087074,incremental,ni_sequenzen,NI_Sequenzen,11,3,,,,,,,,,,,,
,Move,canvas.Screen,0_3_0_3_0_11,-999,skipped,,30705.20000001788,,,30681.70000001788,,30705.40000000596,2021-10-24T15:09:35.798Z,30722.713,1635087074,incremental,ni_sequenzen,NI_Sequenzen,12,3,,,,,,,,,,,,
,Move,canvas.Screen,0_3_0_3_0_12,-999,skipped,,30706.90000000596,,,30681.70000001788,,30707,2021-10-24T15:09:35.800Z,30722.713,1635087074,incremental,ni_sequenzen,NI_Sequenzen,13,3,,,,,,,,,,,,
,Move,canvas.Screen,0_3_0_3_0_13,-999,skipped,,30708.5,,,30681.70000001788,,30708.600000023842,2021-10-24T15:09:35.801Z,30722.713,1635087074,incremental,ni_sequenzen,NI_Sequenzen,14,3,,,,,,,,,,,,
,Move,canvas.Screen,0_3_0_3_0_14,-999,skipped,,30710,,,30681.70000001788,,30710.100000023842,2021-10-24T15:09:35.803Z,30722.713,1635087074,incremental,ni_sequenzen,NI_Sequenzen,15,3,,,,,,,,,,,,
,Loop,flow.Loop,0_3_0_3_0,-999,completion,,29382.30000001192,29384.122,29400.788,30681.70000001788,1280.912000017881,30710.20000001788,2021-10-24T15:09:35.803Z,30722.713,1635087074,incremental,ni_sequenzen,NI_Sequenzen,,3,,,,,,,,,,,,
,Feedback,canvas.Screen,0_3_0_3_1,,timeout,,30711.5,30706.047,30722.713,34705.887,3999.84,34708.40000000596,2021-10-24T15:09:39.801Z,34722.553,1635087074,incremental,ni_sequenzen,NI_Sequenzen,,3,,,,,,,,,,,,
,Trial,flow.Sequence,0_3_0_3,,completion,,29370.600000023842,29384.122,29400.788,34705.887,5305.099000000002,34708.5,2021-10-24T15:09:39.801Z,34739.219,1635087074,incremental,ni_sequenzen,NI_Sequenzen,,3,,,,,,,,,,,,
,Move,canvas.Screen,0_3_0_4_0_0,right,response,,34723.40000000596,34722.553,34739.219,35619.30000001192,880.0810000119236,35625.5,2021-10-24T15:09:40.718Z,35639.183,1635087074,incremental,ni_sequenzen,NI_Sequenzen,1,4,,,,,,,,,,,,
,Move,canvas.Screen,0_3_0_4_0_1,right,response,,35637.70000001788,35622.517,35639.183,35789.60000002384,150.4170000238446,35795.70000001788,2021-10-24T15:09:40.888Z,35805.843,1635087074,incremental,ni_sequenzen,NI_Sequenzen,2,4,,,,,,,,,,,,
,Move,canvas.Screen,0_3_0_4_0_2,down,response,,35799.40000000596,35789.177,35805.843,35918.90000000596,113.05700000595971,35924.80000001192,2021-10-24T15:09:41.017Z,35939.171,1635087074,incremental,ni_sequenzen,NI_Sequenzen,3,4,,,,,,,,,,,,
,Move,canvas.Screen,0_3_0_4_0_3,down,response,,35928,35922.505,35939.171,36104.5,165.3289999999979,36111,2021-10-24T15:09:41.204Z,36139.163,1635087074,incremental,ni_sequenzen,NI_Sequenzen,4,4,,,,,,,,,,,,
,Move,canvas.Screen,0_3_0_4_0_4,-999,skipped,,36114.10000002384,,,36104.5,,36114.20000001788,2021-10-24T15:09:41.207Z,36139.163,1635087074,incremental,ni_sequenzen,NI_Sequenzen,5,4,,,,,,,,,,,,
,Move,canvas.Screen,0_3_0_4_0_5,-999,skipped,,36116.5,,,36104.5,,36116.60000002384,2021-10-24T15:09:41.209Z,36139.163,1635087074,incremental,ni_sequenzen,NI_Sequenzen,6,4,,,,,,,,,,,,
,Move,canvas.Screen,0_3_0_4_0_6,-999,skipped,,36119.90000000596,,,36104.5,,36119.90000000596,2021-10-24T15:09:41.213Z,36139.163,1635087074,incremental,ni_sequenzen,NI_Sequenzen,7,4,,,,,,,,,,,,
,Move,canvas.Screen,0_3_0_4_0_7,-999,skipped,,36122.20000001788,,,36104.5,,36122.30000001192,2021-10-24T15:09:41.215Z,36139.163,1635087074,incremental,ni_sequenzen,NI_Sequenzen,8,4,,,,,,,,,,,,
,Move,canvas.Screen,0_3_0_4_0_8,-999,skipped,,36124.40000000596,,,36104.5,,36124.5,2021-10-24T15:09:41.217Z,36139.163,1635087074,incremental,ni_sequenzen,NI_Sequenzen,9,4,,,,,,,,,,,,
,Move,canvas.Screen,0_3_0_4_0_9,-999,skipped,,36127,,,36104.5,,36127.10000002384,2021-10-24T15:09:41.220Z,36139.163,1635087074,incremental,ni_sequenzen,NI_Sequenzen,10,4,,,,,,,,,,,,
,Move,canvas.Screen,0_3_0_4_0_10,-999,skipped,,36128.70000001788,,,36104.5,,36128.80000001192,2021-10-24T15:09:41.221Z,36139.163,1635087074,incremental,ni_sequenzen,NI_Sequenzen,11,4,,,,,,,,,,,,
,Move,canvas.Screen,0_3_0_4_0_11,-999,skipped,,36130.40000000596,,,36104.5,,36130.5,2021-10-24T15:09:41.223Z,36139.163,1635087074,incremental,ni_sequenzen,NI_Sequenzen,12,4,,,,,,,,,,,,
,Move,canvas.Screen,0_3_0_4_0_12,-999,skipped,,36132.10000002384,,,36104.5,,36132.10000002384,2021-10-24T15:09:41.225Z,36139.163,1635087074,incremental,ni_sequenzen,NI_Sequenzen,13,4,,,,,,,,,,,,
,Move,canvas.Screen,0_3_0_4_0_13,-999,skipped,,36133.90000000596,,,36104.5,,36133.90000000596,2021-10-24T15:09:41.226Z,36139.163,1635087074,incremental,ni_sequenzen,NI_Sequenzen,14,4,,,,,,,,,,,,
,Move,canvas.Screen,0_3_0_4_0_14,-999,skipped,,36135.10000002384,,,36104.5,,36135.20000001788,2021-10-24T15:09:41.228Z,36139.163,1635087074,incremental,ni_sequenzen,NI_Sequenzen,15,4,,,,,,,,,,,,
,Loop,flow.Loop,0_3_0_4_0,-999,completion,,34721.10000002384,34722.553,34739.219,36104.5,1365.2810000000027,36135.30000001192,2021-10-24T15:09:41.228Z,36139.163,1635087074,incremental,ni_sequenzen,NI_Sequenzen,,4,,,,,,,,,,,,
,Feedback,canvas.Screen,0_3_0_4_1,,timeout,,36136.5,36122.497,36139.163,40122.337,3999.8399999999965,40125.10000002384,2021-10-24T15:09:45.218Z,40139.003,1635087074,incremental,ni_sequenzen,NI_Sequenzen,,4,,,,,,,,,,,,
,Trial,flow.Sequence,0_3_0_4,,completion,,34709,34722.553,34739.219,40122.337,5383.118000000002,40125.30000001192,2021-10-24T15:09:45.218Z,40155.669,1635087074,incremental,ni_sequenzen,NI_Sequenzen,,4,,,,,,,,,,,,
,Move,canvas.Screen,0_3_0_5_0_0,left,response,,40140.80000001192,40139.003,40155.669,40476.60000002384,320.93100002384017,40483,2021-10-24T15:09:45.576Z,40488.989,1635087074,incremental,ni_sequenzen,NI_Sequenzen,1,5,,,,,,,,,,,,
,Move,canvas.Screen,0_3_0_5_0_1,left,response,,40487.20000001788,40472.323,40488.989,40793.30000001192,304.31100001191953,40799.70000001788,2021-10-24T15:09:45.892Z,40805.937,1635087074,incremental,ni_sequenzen,NI_Sequenzen,2,5,,,,,,,,,,,,
,Move,canvas.Screen,0_3_0_5_0_2,down,response,,40802.90000000596,40789.271,40805.937,41050.10000002384,244.16300002384378,41055,2021-10-24T15:09:46.148Z,41072.593,1635087074,incremental,ni_sequenzen,NI_Sequenzen,3,5,,,,,,,,,,,,
,Move,canvas.Screen,0_3_0_5_0_3,down,response,,41058.5,41055.927,41072.593,41209.90000000596,137.3070000059597,41216,2021-10-24T15:09:46.309Z,41255.919,1635087074,incremental,ni_sequenzen,NI_Sequenzen,4,5,,,,,,,,,,,,
,Move,canvas.Screen,0_3_0_5_0_4,-999,skipped,,41220.40000000596,,,41209.90000000596,,41220.5,2021-10-24T15:09:46.313Z,41255.919,1635087074,incremental,ni_sequenzen,NI_Sequenzen,5,5,,,,,,,,,,,,
,Move,canvas.Screen,0_3_0_5_0_5,-999,skipped,,41222.90000000596,,,41209.90000000596,,41223,2021-10-24T15:09:46.316Z,41255.919,1635087074,incremental,ni_sequenzen,NI_Sequenzen,6,5,,,,,,,,,,,,
,Move,canvas.Screen,0_3_0_5_0_6,-999,skipped,,41234.20000001788,,,41209.90000000596,,41234.30000001192,2021-10-24T15:09:46.327Z,41255.919,1635087074,incremental,ni_sequenzen,NI_Sequenzen,7,5,,,,,,,,,,,,
,Move,canvas.Screen,0_3_0_5_0_7,-999,skipped,,41236.30000001192,,,41209.90000000596,,41236.30000001192,2021-10-24T15:09:46.329Z,41255.919,1635087074,incremental,ni_sequenzen,NI_Sequenzen,8,5,,,,,,,,,,,,
,Move,canvas.Screen,0_3_0_5_0_8,-999,skipped,,41238.10000002384,,,41209.90000000596,,41238.20000001788,2021-10-24T15:09:46.331Z,41255.919,1635087074,incremental,ni_sequenzen,NI_Sequenzen,9,5,,,,,,,,,,,,
,Move,canvas.Screen,0_3_0_5_0_9,-999,skipped,,41239.90000000596,,,41209.90000000596,,41239.90000000596,2021-10-24T15:09:46.332Z,41255.919,1635087074,incremental,ni_sequenzen,NI_Sequenzen,10,5,,,,,,,,,,,,
,Move,canvas.Screen,0_3_0_5_0_10,-999,skipped,,41241.20000001788,,,41209.90000000596,,41241.20000001788,2021-10-24T15:09:46.334Z,41255.919,1635087074,incremental,ni_sequenzen,NI_Sequenzen,11,5,,,,,,,,,,,,
,Move,canvas.Screen,0_3_0_5_0_11,-999,skipped,,41242.5,,,41209.90000000596,,41242.5,2021-10-24T15:09:46.335Z,41255.919,1635087074,incremental,ni_sequenzen,NI_Sequenzen,12,5,,,,,,,,,,,,
,Move,canvas.Screen,0_3_0_5_0_12,-999,skipped,,41244,,,41209.90000000596,,41244.10000002384,2021-10-24T15:09:46.337Z,41255.919,1635087074,incremental,ni_sequenzen,NI_Sequenzen,13,5,,,,,,,,,,,,
,Move,canvas.Screen,0_3_0_5_0_13,-999,skipped,,41245.30000001192,,,41209.90000000596,,41245.5,2021-10-24T15:09:46.338Z,41255.919,1635087074,incremental,ni_sequenzen,NI_Sequenzen,14,5,,,,,,,,,,,,
,Move,canvas.Screen,0_3_0_5_0_14,-999,skipped,,41246.60000002384,,,41209.90000000596,,41246.70000001788,2021-10-24T15:09:46.339Z,41255.919,1635087074,incremental,ni_sequenzen,NI_Sequenzen,15,5,,,,,,,,,,,,
,Loop,flow.Loop,0_3_0_5_0,-999,completion,,40138,40139.003,40155.669,41209.90000000596,1054.2310000059588,41246.80000001192,2021-10-24T15:09:46.339Z,41255.919,1635087074,incremental,ni_sequenzen,NI_Sequenzen,,5,,,,,,,,,,,,
,Feedback,canvas.Screen,0_3_0_5_1,,timeout,,41248.20000001788,41239.253,41255.919,45239.093,3999.8399999999965,45241.60000002384,2021-10-24T15:09:50.334Z,45255.759,1635087074,incremental,ni_sequenzen,NI_Sequenzen,,5,,,,,,,,,,,,
,Trial,flow.Sequence,0_3_0_5,,completion,,40125.70000001788,40139.003,40155.669,45239.093,5083.423999999999,45241.80000001192,2021-10-24T15:09:50.334Z,45272.425,1635087074,incremental,ni_sequenzen,NI_Sequenzen,,5,,,,,,,,,,,,
,Move,canvas.Screen,0_3_0_6_0_0,left,response,,45257.30000001192,45255.759,45272.425,45687.40000000596,414.97500000595755,45693.80000001192,2021-10-24T15:09:50.786Z,45705.741,1635087074,incremental,ni_sequenzen,NI_Sequenzen,1,6,,,,,,,,,,,,
,Move,canvas.Screen,0_3_0_6_0_1,right,response,,45697.60000002384,45689.075,45705.741,46051.10000002384,345.35900002384005,46057.30000001192,2021-10-24T15:09:51.150Z,46072.393,1635087074,incremental,ni_sequenzen,NI_Sequenzen,2,6,,,,,,,,,,,,
,Move,canvas.Screen,0_3_0_6_0_2,down,response,,46060.80000001192,46055.727,46072.393,46357.90000000596,285.5070000059641,46364.10000002384,2021-10-24T15:09:51.457Z,46372.381,1635087074,incremental,ni_sequenzen,NI_Sequenzen,3,6,,,,,,,,,,,,
,Move,canvas.Screen,0_3_0_6_0_3,down,response,,46367.5,46355.715,46372.381,46576.20000001788,203.81900001788017,46582.5,2021-10-24T15:09:51.675Z,46589.039,1635087074,incremental,ni_sequenzen,NI_Sequenzen,4,6,,,,,,,,,,,,
,Move,canvas.Screen,0_3_0_6_0_4,right,response,,46586.20000001788,46572.373,46589.039,47290,700.961000000003,47296.40000000596,2021-10-24T15:09:52.389Z,47322.343,1635087074,incremental,ni_sequenzen,NI_Sequenzen,5,6,,,,,,,,,,,,
,Move,canvas.Screen,0_3_0_6_0_5,-999,skipped,,47300.20000001788,,,47290,,47300.30000001192,2021-10-24T15:09:52.393Z,47322.343,1635087074,incremental,ni_sequenzen,NI_Sequenzen,6,6,,,,,,,,,,,,
,Move,canvas.Screen,0_3_0_6_0_6,-999,skipped,,47303.5,,,47290,,47303.70000001788,2021-10-24T15:09:52.396Z,47322.343,1635087074,incremental,ni_sequenzen,NI_Sequenzen,7,6,,,,,,,,,,,,
,Move,canvas.Screen,0_3_0_6_0_7,-999,skipped,,47305.80000001192,,,47290,,47305.90000000596,2021-10-24T15:09:52.398Z,47322.343,1635087074,incremental,ni_sequenzen,NI_Sequenzen,8,6,,,,,,,,,,,,
,Move,canvas.Screen,0_3_0_6_0_8,-999,skipped,,47308.10000002384,,,47290,,47308.10000002384,2021-10-24T15:09:52.401Z,47322.343,1635087074,incremental,ni_sequenzen,NI_Sequenzen,9,6,,,,,,,,,,,,
,Move,canvas.Screen,0_3_0_6_0_9,-999,skipped,,47310.30000001192,,,47290,,47310.40000000596,2021-10-24T15:09:52.403Z,47322.343,1635087074,incremental,ni_sequenzen,NI_Sequenzen,10,6,,,,,,,,,,,,
,Move,canvas.Screen,0_3_0_6_0_10,-999,skipped,,47312.5,,,47290,,47312.5,2021-10-24T15:09:52.405Z,47322.343,1635087074,incremental,ni_sequenzen,NI_Sequenzen,11,6,,,,,,,,,,,,
,Move,canvas.Screen,0_3_0_6_0_11,-999,skipped,,47314,,,47290,,47314.10000002384,2021-10-24T15:09:52.407Z,47322.343,1635087074,incremental,ni_sequenzen,NI_Sequenzen,12,6,,,,,,,,,,,,
,Move,canvas.Screen,0_3_0_6_0_12,-999,skipped,,47315.5,,,47290,,47315.60000002384,2021-10-24T15:09:52.408Z,47322.343,1635087074,incremental,ni_sequenzen,NI_Sequenzen,13,6,,,,,,,,,,,,
,Move,canvas.Screen,0_3_0_6_0_13,-999,skipped,,47317.60000002384,,,47290,,47317.70000001788,2021-10-24T15:09:52.410Z,47322.343,1635087074,incremental,ni_sequenzen,NI_Sequenzen,14,6,,,,,,,,,,,,
,Move,canvas.Screen,0_3_0_6_0_14,-999,skipped,,47319.20000001788,,,47290,,47319.20000001788,2021-10-24T15:09:52.412Z,47322.343,1635087074,incremental,ni_sequenzen,NI_Sequenzen,15,6,,,,,,,,,,,,
,Loop,flow.Loop,0_3_0_6_0,-999,completion,,45254.80000001192,45255.759,45272.425,47290,2017.574999999997,47319.40000000596,2021-10-24T15:09:52.412Z,47322.343,1635087074,incremental,ni_sequenzen,NI_Sequenzen,,6,,,,,,,,,,,,
,Feedback,canvas.Screen,0_3_0_6_1,,timeout,,47320.70000001788,47305.677,47322.343,51305.517,3999.8399999999965,51308.10000002384,2021-10-24T15:09:56.401Z,51322.183,1635087074,incremental,ni_sequenzen,NI_Sequenzen,,6,,,,,,,,,,,,
,Trial,flow.Sequence,0_3_0_6,,completion,,45242.20000001788,45255.759,45272.425,51305.517,6033.091999999997,51308.30000001192,2021-10-24T15:09:56.401Z,51338.849,1635087074,incremental,ni_sequenzen,NI_Sequenzen,,6,,,,,,,,,,,,
,Move,canvas.Screen,0_3_0_7_0_0,left,response,,51325.60000002384,51322.183,51338.849,52021.70000001788,682.8510000178794,52028.20000001788,2021-10-24T15:09:57.121Z,52038.821,1635087074,incremental,ni_sequenzen,NI_Sequenzen,1,7,,,,,,,,,,,,
,Move,canvas.Screen,0_3_0_7_0_1,left,response,,52031.5,52022.155,52038.821,52379.10000002384,340.2790000238383,52386.5,2021-10-24T15:09:57.479Z,52413.048,1635087074,incremental,ni_sequenzen,NI_Sequenzen,2,7,,,,,,,,,,,,
,Move,canvas.Screen,0_3_0_7_0_2,down,response,,52399.60000002384,52396.382,52413.048,52652.40000000596,239.35200000595796,52658.70000001788,2021-10-24T15:09:57.751Z,52663.038,1635087074,incremental,ni_sequenzen,NI_Sequenzen,3,7,,,,,,,,,,,,
,Move,canvas.Screen,0_3_0_7_0_3,right,response,,52662.5,52646.372,52663.038,52957.30000001192,294.26200001192046,52963.30000001192,2021-10-24T15:09:58.056Z,52996.358,1635087074,incremental,ni_sequenzen,NI_Sequenzen,4,7,,,,,,,,,,,,
,Move,canvas.Screen,0_3_0_7_0_4,-999,skipped,,52966.40000000596,,,52957.30000001192,,52966.5,2021-10-24T15:09:58.059Z,52996.358,1635087074,incremental,ni_sequenzen,NI_Sequenzen,5,7,,,,,,,,,,,,
,Move,canvas.Screen,0_3_0_7_0_5,-999,skipped,,52969.5,,,52957.30000001192,,52969.60000002384,2021-10-24T15:09:58.062Z,52996.358,1635087074,incremental,ni_sequenzen,NI_Sequenzen,6,7,,,,,,,,,,,,
,Move,canvas.Screen,0_3_0_7_0_6,-999,skipped,,52971.60000002384,,,52957.30000001192,,52971.60000002384,2021-10-24T15:09:58.064Z,52996.358,1635087074,incremental,ni_sequenzen,NI_Sequenzen,7,7,,,,,,,,,,,,
,Move,canvas.Screen,0_3_0_7_0_7,-999,skipped,,52973.60000002384,,,52957.30000001192,,52973.60000002384,2021-10-24T15:09:58.066Z,52996.358,1635087074,incremental,ni_sequenzen,NI_Sequenzen,8,7,,,,,,,,,,,,
,Move,canvas.Screen,0_3_0_7_0_8,-999,skipped,,52976,,,52957.30000001192,,52976.10000002384,2021-10-24T15:09:58.069Z,52996.358,1635087074,incremental,ni_sequenzen,NI_Sequenzen,9,7,,,,,,,,,,,,
,Move,canvas.Screen,0_3_0_7_0_9,-999,skipped,,52978.20000001788,,,52957.30000001192,,52978.20000001788,2021-10-24T15:09:58.071Z,52996.358,1635087074,incremental,ni_sequenzen,NI_Sequenzen,10,7,,,,,,,,,,,,
,Move,canvas.Screen,0_3_0_7_0_10,-999,skipped,,52979.90000000596,,,52957.30000001192,,52979.90000000596,2021-10-24T15:09:58.072Z,52996.358,1635087074,incremental,ni_sequenzen,NI_Sequenzen,11,7,,,,,,,,,,,,
,Move,canvas.Screen,0_3_0_7_0_11,-999,skipped,,52981.40000000596,,,52957.30000001192,,52981.5,2021-10-24T15:09:58.074Z,52996.358,1635087074,incremental,ni_sequenzen,NI_Sequenzen,12,7,,,,,,,,,,,,
,Move,canvas.Screen,0_3_0_7_0_12,-999,skipped,,52983.40000000596,,,52957.30000001192,,52983.5,2021-10-24T15:09:58.076Z,52996.358,1635087074,incremental,ni_sequenzen,NI_Sequenzen,13,7,,,,,,,,,,,,
,Move,canvas.Screen,0_3_0_7_0_13,-999,skipped,,52984.90000000596,,,52957.30000001192,,52985,2021-10-24T15:09:58.078Z,52996.358,1635087074,incremental,ni_sequenzen,NI_Sequenzen,14,7,,,,,,,,,,,,
,Move,canvas.Screen,0_3_0_7_0_14,-999,skipped,,52986.10000002384,,,52957.30000001192,,52986.20000001788,2021-10-24T15:09:58.079Z,52996.358,1635087074,incremental,ni_sequenzen,NI_Sequenzen,15,7,,,,,,,,,,,,
,Loop,flow.Loop,0_3_0_7_0,-999,completion,,51322.30000001192,51322.183,51338.849,52957.30000001192,1618.451000011919,52986.30000001192,2021-10-24T15:09:58.079Z,52996.358,1635087074,incremental,ni_sequenzen,NI_Sequenzen,,7,,,,,,,,,,,,
,Feedback,canvas.Screen,0_3_0_7_1,,timeout,,52987.90000000596,52979.692,52996.358,56979.532,3999.8399999999965,56982,2021-10-24T15:10:02.075Z,56996.198,1635087074,incremental,ni_sequenzen,NI_Sequenzen,,7,,,,,,,,,,,,
,Trial,flow.Sequence,0_3_0_7,,completion,,51308.80000001192,51322.183,51338.849,56979.532,5640.682999999997,56982.20000001788,2021-10-24T15:10:02.075Z,57012.864,1635087074,incremental,ni_sequenzen,NI_Sequenzen,,7,,,,,,,,,,,,
,Move,canvas.Screen,0_3_0_8_0_0,down,response,,56996.70000001788,56996.198,57012.864,57374.80000001192,361.93600001191953,57381.40000000596,2021-10-24T15:10:02.474Z,57396.182,1635087074,incremental,ni_sequenzen,NI_Sequenzen,1,8,,,,,,,,,,,,
,Move,canvas.Screen,0_3_0_8_0_1,down,response,,57386.20000001788,57379.516,57396.182,57561.30000001192,165.11800001192023,57567.70000001788,2021-10-24T15:10:02.660Z,57579.508,1635087074,incremental,ni_sequenzen,NI_Sequenzen,2,8,,,,,,,,,,,,
,Move,canvas.Screen,0_3_0_8_0_2,left,response,,57570.80000001192,57562.842,57579.508,57863.40000000596,283.89200000595883,57869.40000000596,2021-10-24T15:10:02.962Z,57879.496,1635087074,incremental,ni_sequenzen,NI_Sequenzen,3,8,,,,,,,,,,,,
,Move,canvas.Screen,0_3_0_8_0_3,left,response,,57872.90000000596,57862.83,57879.496,58055.30000001192,175.80400001192174,58061.60000002384,2021-10-24T15:10:03.154Z,58096.154,1635087074,incremental,ni_sequenzen,NI_Sequenzen,4,8,,,,,,,,,,,,
