meta,sender,sender_type,sender_id,response,ended_on,instrCount,time_run,time_render,time_show,time_end,duration,time_commit,timestamp,time_switch,openLabId,type,task,project,move,trialN,blockN_Train,blockN,moveCount,currPP,points,movesTrial,visitedFields,diff,reward,Strategie,Zweck,Probleme
[object Object],Screen_1,canvas.Screen,0_0_0_0,cont,response,1,543,543.38,555.76,4607,4051.24,4626,2021-10-25T14:34:07.780Z,4755.82,1635172392,incremental,ni_sequenzen,NI_Sequenzen,,,,,,,,,,,,,,
,Screen_2,canvas.Screen,0_0_0_1,cont,response,1,4755,4755.5,4755.82,22060,17304.18,22081,2021-10-25T14:34:25.235Z,22211.94,1635172392,incremental,ni_sequenzen,NI_Sequenzen,,,,,,,,,,,,,,
,Screen_3,canvas.Screen,0_0_0_2,cont,response,1,22205,22204.48,22211.94,37357,15145.060000000001,37371,2021-10-25T14:34:40.524Z,37377.7,1635172392,incremental,ni_sequenzen,NI_Sequenzen,,,,,,,,,,,,,,
,Screen_4,canvas.Screen,0_0_0_3,cont,response,1,37377,37377.32,37377.7,47076,9698.300000000003,47089,2021-10-25T14:34:50.243Z,47199.82,1635172392,incremental,ni_sequenzen,NI_Sequenzen,,,,,,,,,,,,,,
,Sequence,flow.Sequence,0_0_0,,completion,1,453,543.38,555.76,47076,46520.24,47092,2021-10-25T14:34:50.245Z,47199.82,1635172392,incremental,ni_sequenzen,NI_Sequenzen,,,,,,,,,,,,,,
,Screen_1,canvas.Screen,0_0_1_0,,skipped,2,47096,,,47096,,47096,2021-10-25T14:34:50.250Z,47199.82,1635172392,incremental,ni_sequenzen,NI_Sequenzen,,,,,,,,,,,,,,
,Screen_2,canvas.Screen,0_0_1_1,,skipped,2,47098,,,47096,,47099,2021-10-25T14:34:50.252Z,47199.82,1635172392,incremental,ni_sequenzen,NI_Sequenzen,,,,,,,,,,,,,,
,Screen_3,canvas.Screen,0_0_1_2,,skipped,2,47100,,,47096,,47100,2021-10-25T14:34:50.253Z,47199.82,1635172392,incremental,ni_sequenzen,NI_Sequenzen,,,,,,,,,,,,,,
,Screen_4,canvas.Screen,0_0_1_3,,skipped,2,47101,,,47096,,47101,2021-10-25T14:34:50.255Z,47199.82,1635172392,incremental,ni_sequenzen,NI_Sequenzen,,,,,,,,,,,,,,
,Sequence,flow.Sequence,0_0_1,,completion,2,47095,,,47096,,47101,2021-10-25T14:34:50.255Z,47199.82,1635172392,incremental,ni_sequenzen,NI_Sequenzen,,,,,,,,,,,,,,
,Screen_1,canvas.Screen,0_0_2_0,,skipped,3,47103,,,47103,,47103,2021-10-25T14:34:50.257Z,47199.82,1635172392,incremental,ni_sequenzen,NI_Sequenzen,,,,,,,,,,,,,,
,Screen_2,canvas.Screen,0_0_2_1,,skipped,3,47104,,,47103,,47104,2021-10-25T14:34:50.258Z,47199.82,1635172392,incremental,ni_sequenzen,NI_Sequenzen,,,,,,,,,,,,,,
,Screen_3,canvas.Screen,0_0_2_2,,skipped,3,47106,,,47103,,47106,2021-10-25T14:34:50.259Z,47199.82,1635172392,incremental,ni_sequenzen,NI_Sequenzen,,,,,,,,,,,,,,
,Screen_4,canvas.Screen,0_0_2_3,,skipped,3,47107,,,47103,,47107,2021-10-25T14:34:50.261Z,47199.82,1635172392,incremental,ni_sequenzen,NI_Sequenzen,,,,,,,,,,,,,,
,Sequence,flow.Sequence,0_0_2,,completion,3,47102,,,47103,,47107,2021-10-25T14:34:50.261Z,47199.82,1635172392,incremental,ni_sequenzen,NI_Sequenzen,,,,,,,,,,,,,,
,Screen_1,canvas.Screen,0_0_3_0,,skipped,4,47108,,,47108,,47109,2021-10-25T14:34:50.262Z,47199.82,1635172392,incremental,ni_sequenzen,NI_Sequenzen,,,,,,,,,,,,,,
,Screen_2,canvas.Screen,0_0_3_1,,skipped,4,47110,,,47108,,47110,2021-10-25T14:34:50.263Z,47199.82,1635172392,incremental,ni_sequenzen,NI_Sequenzen,,,,,,,,,,,,,,
,Screen_3,canvas.Screen,0_0_3_2,,skipped,4,47111,,,47108,,47111,2021-10-25T14:34:50.264Z,47199.82,1635172392,incremental,ni_sequenzen,NI_Sequenzen,,,,,,,,,,,,,,
,Screen_4,canvas.Screen,0_0_3_3,,skipped,4,47112,,,47108,,47112,2021-10-25T14:34:50.265Z,47199.82,1635172392,incremental,ni_sequenzen,NI_Sequenzen,,,,,,,,,,,,,,
,Sequence,flow.Sequence,0_0_3,,completion,4,47108,,,47108,,47112,2021-10-25T14:34:50.265Z,47199.82,1635172392,incremental,ni_sequenzen,NI_Sequenzen,,,,,,,,,,,,,,
,Screen_1,canvas.Screen,0_0_4_0,,skipped,5,47113,,,47113,,47113,2021-10-25T14:34:50.267Z,47199.82,1635172392,incremental,ni_sequenzen,NI_Sequenzen,,,,,,,,,,,,,,
,Screen_2,canvas.Screen,0_0_4_1,,skipped,5,47114,,,47113,,47115,2021-10-25T14:34:50.268Z,47199.82,1635172392,incremental,ni_sequenzen,NI_Sequenzen,,,,,,,,,,,,,,
,Screen_3,canvas.Screen,0_0_4_2,,skipped,5,47115,,,47113,,47115,2021-10-25T14:34:50.269Z,47199.82,1635172392,incremental,ni_sequenzen,NI_Sequenzen,,,,,,,,,,,,,,
,Screen_4,canvas.Screen,0_0_4_3,,skipped,5,47116,,,47113,,47116,2021-10-25T14:34:50.270Z,47199.82,1635172392,incremental,ni_sequenzen,NI_Sequenzen,,,,,,,,,,,,,,
,Sequence,flow.Sequence,0_0_4,,completion,5,47113,,,47113,,47117,2021-10-25T14:34:50.270Z,47199.82,1635172392,incremental,ni_sequenzen,NI_Sequenzen,,,,,,,,,,,,,,
,Screen_1,canvas.Screen,0_0_5_0,,skipped,6,47119,,,47119,,47119,2021-10-25T14:34:50.272Z,47199.82,1635172392,incremental,ni_sequenzen,NI_Sequenzen,,,,,,,,,,,,,,
,Screen_2,canvas.Screen,0_0_5_1,,skipped,6,47119,,,47119,,47119,2021-10-25T14:34:50.272Z,47199.82,1635172392,incremental,ni_sequenzen,NI_Sequenzen,,,,,,,,,,,,,,
,Screen_3,canvas.Screen,0_0_5_2,,skipped,6,47121,,,47119,,47121,2021-10-25T14:34:50.274Z,47199.82,1635172392,incremental,ni_sequenzen,NI_Sequenzen,,,,,,,,,,,,,,
,Screen_4,canvas.Screen,0_0_5_3,,skipped,6,47121,,,47119,,47121,2021-10-25T14:34:50.275Z,47199.82,1635172392,incremental,ni_sequenzen,NI_Sequenzen,,,,,,,,,,,,,,
,Sequence,flow.Sequence,0_0_5,,completion,6,47117,,,47119,,47121,2021-10-25T14:34:50.275Z,47199.82,1635172392,incremental,ni_sequenzen,NI_Sequenzen,,,,,,,,,,,,,,
,Screen_1,canvas.Screen,0_0_6_0,,skipped,7,47122,,,47122,,47122,2021-10-25T14:34:50.276Z,47199.82,1635172392,incremental,ni_sequenzen,NI_Sequenzen,,,,,,,,,,,,,,
,Screen_2,canvas.Screen,0_0_6_1,,skipped,7,47123,,,47122,,47123,2021-10-25T14:34:50.278Z,47199.82,1635172392,incremental,ni_sequenzen,NI_Sequenzen,,,,,,,,,,,,,,
,Screen_3,canvas.Screen,0_0_6_2,,skipped,7,47125,,,47122,,47125,2021-10-25T14:34:50.279Z,47199.82,1635172392,incremental,ni_sequenzen,NI_Sequenzen,,,,,,,,,,,,,,
,Screen_4,canvas.Screen,0_0_6_3,,skipped,7,47127,,,47122,,47127,2021-10-25T14:34:50.280Z,47199.82,1635172392,incremental,ni_sequenzen,NI_Sequenzen,,,,,,,,,,,,,,
,Sequence,flow.Sequence,0_0_6,,completion,7,47121,,,47122,,47127,2021-10-25T14:34:50.280Z,47199.82,1635172392,incremental,ni_sequenzen,NI_Sequenzen,,,,,,,,,,,,,,
,Screen_1,canvas.Screen,0_0_7_0,,skipped,8,47128,,,47128,,47128,2021-10-25T14:34:50.281Z,47199.82,1635172392,incremental,ni_sequenzen,NI_Sequenzen,,,,,,,,,,,,,,
,Screen_2,canvas.Screen,0_0_7_1,,skipped,8,47129,,,47128,,47129,2021-10-25T14:34:50.282Z,47199.82,1635172392,incremental,ni_sequenzen,NI_Sequenzen,,,,,,,,,,,,,,
,Screen_3,canvas.Screen,0_0_7_2,,skipped,8,47130,,,47128,,47130,2021-10-25T14:34:50.283Z,47199.82,1635172392,incremental,ni_sequenzen,NI_Sequenzen,,,,,,,,,,,,,,
,Screen_4,canvas.Screen,0_0_7_3,,skipped,8,47131,,,47128,,47131,2021-10-25T14:34:50.284Z,47199.82,1635172392,incremental,ni_sequenzen,NI_Sequenzen,,,,,,,,,,,,,,
,Sequence,flow.Sequence,0_0_7,,completion,8,47128,,,47128,,47131,2021-10-25T14:34:50.284Z,47199.82,1635172392,incremental,ni_sequenzen,NI_Sequenzen,,,,,,,,,,,,,,
,Screen_1,canvas.Screen,0_0_8_0,,skipped,9,47133,,,47133,,47133,2021-10-25T14:34:50.286Z,47199.82,1635172392,incremental,ni_sequenzen,NI_Sequenzen,,,,,,,,,,,,,,
,Screen_2,canvas.Screen,0_0_8_1,,skipped,9,47133,,,47133,,47134,2021-10-25T14:34:50.287Z,47199.82,1635172392,incremental,ni_sequenzen,NI_Sequenzen,,,,,,,,,,,,,,
,Screen_3,canvas.Screen,0_0_8_2,,skipped,9,47134,,,47133,,47134,2021-10-25T14:34:50.288Z,47199.82,1635172392,incremental,ni_sequenzen,NI_Sequenzen,,,,,,,,,,,,,,
,Screen_4,canvas.Screen,0_0_8_3,,skipped,9,47135,,,47133,,47135,2021-10-25T14:34:50.289Z,47199.82,1635172392,incremental,ni_sequenzen,NI_Sequenzen,,,,,,,,,,,,,,
,Sequence,flow.Sequence,0_0_8,,completion,9,47131,,,47133,,47135,2021-10-25T14:34:50.289Z,47199.82,1635172392,incremental,ni_sequenzen,NI_Sequenzen,,,,,,,,,,,,,,
,Screen_1,canvas.Screen,0_0_9_0,,skipped,10,47137,,,47137,,47137,2021-10-25T14:34:50.290Z,47199.82,1635172392,incremental,ni_sequenzen,NI_Sequenzen,,,,,,,,,,,,,,
,Screen_2,canvas.Screen,0_0_9_1,,skipped,10,47138,,,47137,,47138,2021-10-25T14:34:50.292Z,47199.82,1635172392,incremental,ni_sequenzen,NI_Sequenzen,,,,,,,,,,,,,,
,Screen_3,canvas.Screen,0_0_9_2,,skipped,10,47139,,,47137,,47139,2021-10-25T14:34:50.292Z,47199.82,1635172392,incremental,ni_sequenzen,NI_Sequenzen,,,,,,,,,,,,,,
,Screen_4,canvas.Screen,0_0_9_3,,skipped,10,47140,,,47137,,47140,2021-10-25T14:34:50.293Z,47199.82,1635172392,incremental,ni_sequenzen,NI_Sequenzen,,,,,,,,,,,,,,
,Sequence,flow.Sequence,0_0_9,,completion,10,47136,,,47137,,47140,2021-10-25T14:34:50.293Z,47199.82,1635172392,incremental,ni_sequenzen,NI_Sequenzen,,,,,,,,,,,,,,
,Screen_1,canvas.Screen,0_0_10_0,,skipped,11,47141,,,47141,,47141,2021-10-25T14:34:50.294Z,47199.82,1635172392,incremental,ni_sequenzen,NI_Sequenzen,,,,,,,,,,,,,,
,Screen_2,canvas.Screen,0_0_10_1,,skipped,11,47142,,,47141,,47142,2021-10-25T14:34:50.295Z,47199.82,1635172392,incremental,ni_sequenzen,NI_Sequenzen,,,,,,,,,,,,,,
,Screen_3,canvas.Screen,0_0_10_2,,skipped,11,47143,,,47141,,47143,2021-10-25T14:34:50.296Z,47199.82,1635172392,incremental,ni_sequenzen,NI_Sequenzen,,,,,,,,,,,,,,
,Screen_4,canvas.Screen,0_0_10_3,,skipped,11,47144,,,47141,,47144,2021-10-25T14:34:50.297Z,47199.82,1635172392,incremental,ni_sequenzen,NI_Sequenzen,,,,,,,,,,,,,,
,Sequence,flow.Sequence,0_0_10,,completion,11,47140,,,47141,,47144,2021-10-25T14:34:50.297Z,47199.82,1635172392,incremental,ni_sequenzen,NI_Sequenzen,,,,,,,,,,,,,,
,Screen_1,canvas.Screen,0_0_11_0,,skipped,12,47146,,,47146,,47146,2021-10-25T14:34:50.299Z,47199.82,1635172392,incremental,ni_sequenzen,NI_Sequenzen,,,,,,,,,,,,,,
,Screen_2,canvas.Screen,0_0_11_1,,skipped,12,47147,,,47146,,47147,2021-10-25T14:34:50.299Z,47199.82,1635172392,incremental,ni_sequenzen,NI_Sequenzen,,,,,,,,,,,,,,
,Screen_3,canvas.Screen,0_0_11_2,,skipped,12,47148,,,47146,,47148,2021-10-25T14:34:50.300Z,47199.82,1635172392,incremental,ni_sequenzen,NI_Sequenzen,,,,,,,,,,,,,,
,Screen_4,canvas.Screen,0_0_11_3,,skipped,12,47148,,,47146,,47149,2021-10-25T14:34:50.301Z,47199.82,1635172392,incremental,ni_sequenzen,NI_Sequenzen,,,,,,,,,,,,,,
,Sequence,flow.Sequence,0_0_11,,completion,12,47144,,,47146,,47149,2021-10-25T14:34:50.301Z,47199.82,1635172392,incremental,ni_sequenzen,NI_Sequenzen,,,,,,,,,,,,,,
,Screen_1,canvas.Screen,0_0_12_0,,skipped,13,47150,,,47150,,47150,2021-10-25T14:34:50.303Z,47199.82,1635172392,incremental,ni_sequenzen,NI_Sequenzen,,,,,,,,,,,,,,
,Screen_2,canvas.Screen,0_0_12_1,,skipped,13,47150,,,47150,,47150,2021-10-25T14:34:50.303Z,47199.82,1635172392,incremental,ni_sequenzen,NI_Sequenzen,,,,,,,,,,,,,,
,Screen_3,canvas.Screen,0_0_12_2,,skipped,13,47151,,,47150,,47151,2021-10-25T14:34:50.304Z,47199.82,1635172392,incremental,ni_sequenzen,NI_Sequenzen,,,,,,,,,,,,,,
,Screen_4,canvas.Screen,0_0_12_3,,skipped,13,47153,,,47150,,47153,2021-10-25T14:34:50.306Z,47199.82,1635172392,incremental,ni_sequenzen,NI_Sequenzen,,,,,,,,,,,,,,
,Sequence,flow.Sequence,0_0_12,,completion,13,47149,,,47150,,47153,2021-10-25T14:34:50.306Z,47199.82,1635172392,incremental,ni_sequenzen,NI_Sequenzen,,,,,,,,,,,,,,
,Screen_1,canvas.Screen,0_0_13_0,,skipped,14,47154,,,47154,,47154,2021-10-25T14:34:50.307Z,47199.82,1635172392,incremental,ni_sequenzen,NI_Sequenzen,,,,,,,,,,,,,,
,Screen_2,canvas.Screen,0_0_13_1,,skipped,14,47155,,,47154,,47155,2021-10-25T14:34:50.308Z,47199.82,1635172392,incremental,ni_sequenzen,NI_Sequenzen,,,,,,,,,,,,,,
,Screen_3,canvas.Screen,0_0_13_2,,skipped,14,47156,,,47154,,47156,2021-10-25T14:34:50.310Z,47199.82,1635172392,incremental,ni_sequenzen,NI_Sequenzen,,,,,,,,,,,,,,
,Screen_4,canvas.Screen,0_0_13_3,,skipped,14,47157,,,47154,,47157,2021-10-25T14:34:50.311Z,47199.82,1635172392,incremental,ni_sequenzen,NI_Sequenzen,,,,,,,,,,,,,,
,Sequence,flow.Sequence,0_0_13,,completion,14,47153,,,47154,,47157,2021-10-25T14:34:50.311Z,47199.82,1635172392,incremental,ni_sequenzen,NI_Sequenzen,,,,,,,,,,,,,,
,Screen_1,canvas.Screen,0_0_14_0,,skipped,15,47158,,,47158,,47159,2021-10-25T14:34:50.312Z,47199.82,1635172392,incremental,ni_sequenzen,NI_Sequenzen,,,,,,,,,,,,,,
,Screen_2,canvas.Screen,0_0_14_1,,skipped,15,47159,,,47158,,47159,2021-10-25T14:34:50.313Z,47199.82,1635172392,incremental,ni_sequenzen,NI_Sequenzen,,,,,,,,,,,,,,
,Screen_3,canvas.Screen,0_0_14_2,,skipped,15,47160,,,47158,,47160,2021-10-25T14:34:50.314Z,47199.82,1635172392,incremental,ni_sequenzen,NI_Sequenzen,,,,,,,,,,,,,,
,Screen_4,canvas.Screen,0_0_14_3,,skipped,15,47161,,,47158,,47161,2021-10-25T14:34:50.314Z,47199.82,1635172392,incremental,ni_sequenzen,NI_Sequenzen,,,,,,,,,,,,,,
,Sequence,flow.Sequence,0_0_14,,completion,15,47158,,,47158,,47161,2021-10-25T14:34:50.314Z,47199.82,1635172392,incremental,ni_sequenzen,NI_Sequenzen,,,,,,,,,,,,,,
,Screen_1,canvas.Screen,0_0_15_0,,skipped,16,47162,,,47162,,47162,2021-10-25T14:34:50.316Z,47199.82,1635172392,incremental,ni_sequenzen,NI_Sequenzen,,,,,,,,,,,,,,
,Screen_2,canvas.Screen,0_0_15_1,,skipped,16,47163,,,47162,,47163,2021-10-25T14:34:50.317Z,47199.82,1635172392,incremental,ni_sequenzen,NI_Sequenzen,,,,,,,,,,,,,,
,Screen_3,canvas.Screen,0_0_15_2,,skipped,16,47163,,,47162,,47164,2021-10-25T14:34:50.317Z,47199.82,1635172392,incremental,ni_sequenzen,NI_Sequenzen,,,,,,,,,,,,,,
,Screen_4,canvas.Screen,0_0_15_3,,skipped,16,47165,,,47162,,47165,2021-10-25T14:34:50.318Z,47199.82,1635172392,incremental,ni_sequenzen,NI_Sequenzen,,,,,,,,,,,,,,
,Sequence,flow.Sequence,0_0_15,,completion,16,47162,,,47162,,47166,2021-10-25T14:34:50.319Z,47199.82,1635172392,incremental,ni_sequenzen,NI_Sequenzen,,,,,,,,,,,,,,
,Screen_1,canvas.Screen,0_0_16_0,,skipped,17,47167,,,47167,,47167,2021-10-25T14:34:50.320Z,47199.82,1635172392,incremental,ni_sequenzen,NI_Sequenzen,,,,,,,,,,,,,,
,Screen_2,canvas.Screen,0_0_16_1,,skipped,17,47168,,,47167,,47168,2021-10-25T14:34:50.321Z,47199.82,1635172392,incremental,ni_sequenzen,NI_Sequenzen,,,,,,,,,,,,,,
,Screen_3,canvas.Screen,0_0_16_2,,skipped,17,47169,,,47167,,47169,2021-10-25T14:34:50.322Z,47199.82,1635172392,incremental,ni_sequenzen,NI_Sequenzen,,,,,,,,,,,,,,
,Screen_4,canvas.Screen,0_0_16_3,,skipped,17,47169,,,47167,,47170,2021-10-25T14:34:50.323Z,47199.82,1635172392,incremental,ni_sequenzen,NI_Sequenzen,,,,,,,,,,,,,,
,Sequence,flow.Sequence,0_0_16,,completion,17,47166,,,47167,,47170,2021-10-25T14:34:50.323Z,47199.82,1635172392,incremental,ni_sequenzen,NI_Sequenzen,,,,,,,,,,,,,,
,Screen_1,canvas.Screen,0_0_17_0,,skipped,18,47171,,,47171,,47171,2021-10-25T14:34:50.324Z,47199.82,1635172392,incremental,ni_sequenzen,NI_Sequenzen,,,,,,,,,,,,,,
,Screen_2,canvas.Screen,0_0_17_1,,skipped,18,47171,,,47171,,47172,2021-10-25T14:34:50.325Z,47199.82,1635172392,incremental,ni_sequenzen,NI_Sequenzen,,,,,,,,,,,,,,
,Screen_3,canvas.Screen,0_0_17_2,,skipped,18,47172,,,47171,,47172,2021-10-25T14:34:50.326Z,47199.82,1635172392,incremental,ni_sequenzen,NI_Sequenzen,,,,,,,,,,,,,,
,Screen_4,canvas.Screen,0_0_17_3,,skipped,18,47174,,,47171,,47174,2021-10-25T14:34:50.326Z,47199.82,1635172392,incremental,ni_sequenzen,NI_Sequenzen,,,,,,,,,,,,,,
,Sequence,flow.Sequence,0_0_17,,completion,18,47170,,,47171,,47174,2021-10-25T14:34:50.326Z,47199.82,1635172392,incremental,ni_sequenzen,NI_Sequenzen,,,,,,,,,,,,,,
,Screen_1,canvas.Screen,0_0_18_0,,skipped,19,47175,,,47175,,47175,2021-10-25T14:34:50.327Z,47199.82,1635172392,incremental,ni_sequenzen,NI_Sequenzen,,,,,,,,,,,,,,
,Screen_2,canvas.Screen,0_0_18_1,,skipped,19,47176,,,47175,,47176,2021-10-25T14:34:50.328Z,47199.82,1635172392,incremental,ni_sequenzen,NI_Sequenzen,,,,,,,,,,,,,,
,Screen_3,canvas.Screen,0_0_18_2,,skipped,19,47177,,,47175,,47177,2021-10-25T14:34:50.330Z,47199.82,1635172392,incremental,ni_sequenzen,NI_Sequenzen,,,,,,,,,,,,,,
,Screen_4,canvas.Screen,0_0_18_3,,skipped,19,47177,,,47175,,47177,2021-10-25T14:34:50.330Z,47199.82,1635172392,incremental,ni_sequenzen,NI_Sequenzen,,,,,,,,,,,,,,
,Sequence,flow.Sequence,0_0_18,,completion,19,47174,,,47175,,47178,2021-10-25T14:34:50.331Z,47199.82,1635172392,incremental,ni_sequenzen,NI_Sequenzen,,,,,,,,,,,,,,
,Screen_1,canvas.Screen,0_0_19_0,,skipped,20,47178,,,47178,,47178,2021-10-25T14:34:50.331Z,47199.82,1635172392,incremental,ni_sequenzen,NI_Sequenzen,,,,,,,,,,,,,,
,Screen_2,canvas.Screen,0_0_19_1,,skipped,20,47179,,,47178,,47179,2021-10-25T14:34:50.332Z,47199.82,1635172392,incremental,ni_sequenzen,NI_Sequenzen,,,,,,,,,,,,,,
,Screen_3,canvas.Screen,0_0_19_2,,skipped,20,47180,,,47178,,47180,2021-10-25T14:34:50.333Z,47199.82,1635172392,incremental,ni_sequenzen,NI_Sequenzen,,,,,,,,,,,,,,
,Screen_4,canvas.Screen,0_0_19_3,,skipped,20,47181,,,47178,,47181,2021-10-25T14:34:50.334Z,47199.82,1635172392,incremental,ni_sequenzen,NI_Sequenzen,,,,,,,,,,,,,,
,Sequence,flow.Sequence,0_0_19,,completion,20,47178,,,47178,,47181,2021-10-25T14:34:50.334Z,47199.82,1635172392,incremental,ni_sequenzen,NI_Sequenzen,,,,,,,,,,,,,,
,Instructions_I,flow.Loop,0_0,,completion,,452,543.38,555.76,47178,46622.24,47181,2021-10-25T14:34:50.334Z,47199.82,1635172392,incremental,ni_sequenzen,NI_Sequenzen,,,,,,,,,,,,,,
,Move,canvas.Screen,0_1_0_0,right,response,,47193,47193.58,47199.82,50076,2876.1800000000003,50092,2021-10-25T14:34:53.245Z,50100.62,1635172392,incremental,ni_sequenzen,NI_Sequenzen,1,,,,,,,,,,,,,
,Move,canvas.Screen,0_1_0_1,right,response,,50101,50100.3,50100.62,51060,959.3799999999974,51067,2021-10-25T14:34:54.221Z,51075.68,1635172392,incremental,ni_sequenzen,NI_Sequenzen,2,,,,,,,,,,,,,
,Move,canvas.Screen,0_1_0_2,down,response,,51075,51075.42,51075.68,51982,906.3199999999997,51996,2021-10-25T14:34:55.150Z,52002.78,1635172392,incremental,ni_sequenzen,NI_Sequenzen,3,,,,,,,,,,,,,
,Move,canvas.Screen,0_1_0_3,down,response,,52003,52002.44,52002.78,52389,386.22000000000116,52396,2021-10-25T14:34:55.549Z,52402.7,1635172392,incremental,ni_sequenzen,NI_Sequenzen,4,,,,,,,,,,,,,
,Move,canvas.Screen,0_1_0_4,left,response,,52402,52402.26,52402.7,52873,470.3000000000029,52882,2021-10-25T14:34:56.036Z,52891.26,1635172392,incremental,ni_sequenzen,NI_Sequenzen,5,,,,,,,,,,,,,
,Move,canvas.Screen,0_1_0_5,left,response,,52891,52890.96,52891.26,53326,434.73999999999796,53330,2021-10-25T14:34:56.483Z,53335.7,1635172392,incremental,ni_sequenzen,NI_Sequenzen,6,,,,,,,,,,,,,
,Move,canvas.Screen,0_1_0_6,down,response,,53336,53335.46,53335.7,54373,1037.300000000003,54381,2021-10-25T14:34:57.534Z,54390.78,1635172392,incremental,ni_sequenzen,NI_Sequenzen,7,,,,,,,,,,,,,
,Move,canvas.Screen,0_1_0_7,down,response,,54391,54390.7,54390.78,54748,357.22000000000116,54758,2021-10-25T14:34:57.911Z,54765.28,1635172392,incremental,ni_sequenzen,NI_Sequenzen,8,,,,,,,,,,,,,
,Move,canvas.Screen,0_1_0_8,down,response,,54764,54764.9,54765.28,55044,278.72000000000116,55061,2021-10-25T14:34:58.214Z,55065.24,1635172392,incremental,ni_sequenzen,NI_Sequenzen,9,,,,,,,,,,,,,
,Move,canvas.Screen,0_1_0_9,down,response,,55065,55065.06,55065.24,55388,322.76000000000204,55397,2021-10-25T14:34:58.550Z,55404.48,1635172392,incremental,ni_sequenzen,NI_Sequenzen,10,,,,,,,,,,,,,
,Move,canvas.Screen,0_1_0_10,right,response,,55405,55404.22,55404.48,55841,436.5199999999968,55857,2021-10-25T14:34:59.010Z,55862.32,1635172392,incremental,ni_sequenzen,NI_Sequenzen,11,,,,,,,,,,,,,
,Move,canvas.Screen,0_1_0_11,right,response,,55861,55860.84,55862.32,56232,369.6800000000003,56240,2021-10-25T14:34:59.393Z,56250.02,1635172392,incremental,ni_sequenzen,NI_Sequenzen,12,,,,,,,,,,,,,
,Move,canvas.Screen,0_1_0_12,right,response,,56249,56249.28,56250.02,56529,278.9800000000032,56545,2021-10-25T14:34:59.698Z,56552.42,1635172392,incremental,ni_sequenzen,NI_Sequenzen,13,,,,,,,,,,,,,
,Move,canvas.Screen,0_1_0_13,left,response,,56552,56552.12,56552.42,56827,274.58000000000175,56846,2021-10-25T14:34:59.999Z,56852.36,1635172392,incremental,ni_sequenzen,NI_Sequenzen,14,,,,,,,,,,,,,
,Move,canvas.Screen,0_1_0_14,left,response,,56852,56852.06,56852.36,57466,613.6399999999994,57470,2021-10-25T14:35:00.624Z,57477.7,1635172392,incremental,ni_sequenzen,NI_Sequenzen,15,,,,,,,,,,,,,
,Move,canvas.Screen,0_1_0_15,left,response,,57477,57477.38,57477.7,58279,801.3000000000029,58288,2021-10-25T14:35:01.442Z,58294.98,1635172392,incremental,ni_sequenzen,NI_Sequenzen,16,,,,,,,,,,,,,
,Move,canvas.Screen,0_1_0_16,down,response,,58295,58294.66,58294.98,58763,468.0199999999968,58770,2021-10-25T14:35:01.923Z,58776.14,1635172392,incremental,ni_sequenzen,NI_Sequenzen,17,,,,,,,,,,,,,
,Move,canvas.Screen,0_1_0_17,down,response,,58776,58775.74,58776.14,59326,549.8600000000006,59335,2021-10-25T14:35:02.489Z,59341,1635172392,incremental,ni_sequenzen,NI_Sequenzen,18,,,,,,,,,,,,,
,Move,canvas.Screen,0_1_0_18,down,response,,59341,59340.58,59341,59826,485,59832,2021-10-25T14:35:02.986Z,59839.56,1635172392,incremental,ni_sequenzen,NI_Sequenzen,19,,,,,,,,,,,,,
,Move,canvas.Screen,0_1_0_19,right,response,,59839,59839.28,59839.56,60279,439.4400000000023,60294,2021-10-25T14:35:03.447Z,60300.82,1635172392,incremental,ni_sequenzen,NI_Sequenzen,20,,,,,,,,,,,,,
,Move,canvas.Screen,0_1_0_20,left,response,,60300,60300.34,60300.82,61201,900.1800000000003,61219,2021-10-25T14:35:04.373Z,61226.3,1635172392,incremental,ni_sequenzen,NI_Sequenzen,21,,,,,,,,,,,,,
,Move,canvas.Screen,0_1_0_21,right,response,,61226,61225.96,61226.3,61873,646.6999999999971,61891,2021-10-25T14:35:05.045Z,61897.88,1635172392,incremental,ni_sequenzen,NI_Sequenzen,22,,,,,,,,,,,,,
,Move,canvas.Screen,0_1_0_22,left,response,,61898,61897.56,61897.88,63060,1162.1200000000026,63079,2021-10-25T14:35:06.232Z,63086.6,1635172392,incremental,ni_sequenzen,NI_Sequenzen,23,,,,,,,,,,,,,
,Move,canvas.Screen,0_1_0_23,down,response,,63086,63086.2,63086.6,63826,739.4000000000015,63830,2021-10-25T14:35:06.984Z,63837.14,1635172392,incremental,ni_sequenzen,NI_Sequenzen,24,,,,,,,,,,,,,
,Move,canvas.Screen,0_1_0_24,down,response,,63836,63836.76,63837.14,64294,456.8600000000006,64307,2021-10-25T14:35:07.460Z,64313.72,1635172392,incremental,ni_sequenzen,NI_Sequenzen,25,,,,,,,,,,,,,
,Move,canvas.Screen,0_1_0_25,down,response,,64313,64313.4,64313.72,64560,246.27999999999884,64573,2021-10-25T14:35:07.726Z,64583.68,1635172392,incremental,ni_sequenzen,NI_Sequenzen,26,,,,,,,,,,,,,
,Move,canvas.Screen,0_1_0_26,down,response,,64584,64583.26,64583.68,64810,226.3199999999997,64825,2021-10-25T14:35:07.979Z,64828.66,1635172392,incremental,ni_sequenzen,NI_Sequenzen,27,,,,,,,,,,,,,
,Move,canvas.Screen,0_1_0_27,right,response,,64828,64828.04,64828.66,65982,1153.3399999999965,66000,2021-10-25T14:35:09.153Z,66008.6,1635172392,incremental,ni_sequenzen,NI_Sequenzen,28,,,,,,,,,,,,,
,Move,canvas.Screen,0_1_0_28,right,response,,66008,66008.22,66008.6,66358,349.3999999999942,66373,2021-10-25T14:35:09.526Z,66378.08,1635172392,incremental,ni_sequenzen,NI_Sequenzen,29,,,,,,,,,,,,,
,Move,canvas.Screen,0_1_0_29,left,response,,66378,66377.72,66378.08,68435,2056.9199999999983,68440,2021-10-25T14:35:11.593Z,68475.48,1635172392,incremental,ni_sequenzen,NI_Sequenzen,30,,,,,,,,,,,,,
,Loop,flow.Loop,0_1_0,-999,completion,,47191,47193.58,47199.82,68435,21235.18,68441,2021-10-25T14:35:11.593Z,68475.48,1635172392,incremental,ni_sequenzen,NI_Sequenzen,,,,,,,,,,,,,,
,Training_I,flow.Sequence,0_1,,completion,,47181,47193.58,47199.82,68435,21235.18,68441,2021-10-25T14:35:11.595Z,68475.48,1635172392,incremental,ni_sequenzen,NI_Sequenzen,,,,,,,,,,,,,,
,Screen_1,canvas.Screen,0_2_0_0,cont,response,1,68475,68475.08,68475.48,82311,13835.520000000004,82319,2021-10-25T14:35:25.472Z,82482.66,1635172392,incremental,ni_sequenzen,NI_Sequenzen,,,,,,,,,,,,,,
,Screen_2,canvas.Screen,0_2_0_1,cont,response,1,82471,82471.3,82482.66,93185,10702.339999999997,93206,2021-10-25T14:35:36.360Z,93212.36,1635172392,incremental,ni_sequenzen,NI_Sequenzen,,,,,,,,,,,,,,
,Screen_3,canvas.Screen,0_2_0_2,cont,response,1,93212,93212.02,93212.36,105435,12222.64,105455,2021-10-25T14:35:48.608Z,105588.1,1635172392,incremental,ni_sequenzen,NI_Sequenzen,,,,,,,,,,,,,,
,Screen_4,canvas.Screen,0_2_0_3,cont,response,1,105582,105582.92,105588.1,120919,15330.899999999994,120938,2021-10-25T14:36:04.091Z,120943.42,1635172392,incremental,ni_sequenzen,NI_Sequenzen,,,,,,,,,,,,,,
,Screen_5,canvas.Screen,0_2_0_4,cont,response,1,120944,120943.14,120943.42,128764,7820.580000000002,128768,2021-10-25T14:36:11.921Z,128877.44,1635172392,incremental,ni_sequenzen,NI_Sequenzen,,,,,,,,,,,,,,
,Screen_6,canvas.Screen,0_2_0_5,cont,response,1,128877,128877.02,128877.44,136139,7261.559999999998,136150,2021-10-25T14:36:19.303Z,136356.38,1635172392,incremental,ni_sequenzen,NI_Sequenzen,,,,,,,,,,,,,,
,Sequence,flow.Sequence,0_2_0,,completion,1,68474,68475.08,68475.48,136139,67663.52,136152,2021-10-25T14:36:19.305Z,136356.38,1635172392,incremental,ni_sequenzen,NI_Sequenzen,,,,,,,,,,,,,,
,Screen_1,canvas.Screen,0_2_1_0,,skipped,2,136156,,,136156,,136156,2021-10-25T14:36:19.310Z,136356.38,1635172392,incremental,ni_sequenzen,NI_Sequenzen,,,,,,,,,,,,,,
,Screen_2,canvas.Screen,0_2_1_1,,skipped,2,136157,,,136156,,136157,2021-10-25T14:36:19.311Z,136356.38,1635172392,incremental,ni_sequenzen,NI_Sequenzen,,,,,,,,,,,,,,
,Screen_3,canvas.Screen,0_2_1_2,,skipped,2,136158,,,136156,,136158,2021-10-25T14:36:19.312Z,136356.38,1635172392,incremental,ni_sequenzen,NI_Sequenzen,,,,,,,,,,,,,,
,Screen_4,canvas.Screen,0_2_1_3,,skipped,2,136160,,,136156,,136160,2021-10-25T14:36:19.313Z,136356.38,1635172392,incremental,ni_sequenzen,NI_Sequenzen,,,,,,,,,,,,,,
,Screen_5,canvas.Screen,0_2_1_4,,skipped,2,136162,,,136156,,136162,2021-10-25T14:36:19.315Z,136356.38,1635172392,incremental,ni_sequenzen,NI_Sequenzen,,,,,,,,,,,,,,
,Screen_6,canvas.Screen,0_2_1_5,,skipped,2,136163,,,136156,,136164,2021-10-25T14:36:19.316Z,136356.38,1635172392,incremental,ni_sequenzen,NI_Sequenzen,,,,,,,,,,,,,,
,Sequence,flow.Sequence,0_2_1,,completion,2,136153,,,136156,,136164,2021-10-25T14:36:19.317Z,136356.38,1635172392,incremental,ni_sequenzen,NI_Sequenzen,,,,,,,,,,,,,,
,Screen_1,canvas.Screen,0_2_2_0,,skipped,3,136165,,,136165,,136165,2021-10-25T14:36:19.319Z,136356.38,1635172392,incremental,ni_sequenzen,NI_Sequenzen,,,,,,,,,,,,,,
,Screen_2,canvas.Screen,0_2_2_1,,skipped,3,136166,,,136165,,136166,2021-10-25T14:36:19.320Z,136356.38,1635172392,incremental,ni_sequenzen,NI_Sequenzen,,,,,,,,,,,,,,
,Screen_3,canvas.Screen,0_2_2_2,,skipped,3,136168,,,136165,,136168,2021-10-25T14:36:19.321Z,136356.38,1635172392,incremental,ni_sequenzen,NI_Sequenzen,,,,,,,,,,,,,,
,Screen_4,canvas.Screen,0_2_2_3,,skipped,3,136169,,,136165,,136169,2021-10-25T14:36:19.322Z,136356.38,1635172392,incremental,ni_sequenzen,NI_Sequenzen,,,,,,,,,,,,,,
,Screen_5,canvas.Screen,0_2_2_4,,skipped,3,136169,,,136165,,136169,2021-10-25T14:36:19.323Z,136356.38,1635172392,incremental,ni_sequenzen,NI_Sequenzen,,,,,,,,,,,,,,
,Screen_6,canvas.Screen,0_2_2_5,,skipped,3,136171,,,136165,,136171,2021-10-25T14:36:19.324Z,136356.38,1635172392,incremental,ni_sequenzen,NI_Sequenzen,,,,,,,,,,,,,,
,Sequence,flow.Sequence,0_2_2,,completion,3,136164,,,136165,,136171,2021-10-25T14:36:19.324Z,136356.38,1635172392,incremental,ni_sequenzen,NI_Sequenzen,,,,,,,,,,,,,,
,Screen_1,canvas.Screen,0_2_3_0,,skipped,4,136172,,,136172,,136172,2021-10-25T14:36:19.325Z,136356.38,1635172392,incremental,ni_sequenzen,NI_Sequenzen,,,,,,,,,,,,,,
,Screen_2,canvas.Screen,0_2_3_1,,skipped,4,136173,,,136172,,136173,2021-10-25T14:36:19.326Z,136356.38,1635172392,incremental,ni_sequenzen,NI_Sequenzen,,,,,,,,,,,,,,
,Screen_3,canvas.Screen,0_2_3_2,,skipped,4,136174,,,136172,,136174,2021-10-25T14:36:19.327Z,136356.38,1635172392,incremental,ni_sequenzen,NI_Sequenzen,,,,,,,,,,,,,,
,Screen_4,canvas.Screen,0_2_3_3,,skipped,4,136174,,,136172,,136174,2021-10-25T14:36:19.328Z,136356.38,1635172392,incremental,ni_sequenzen,NI_Sequenzen,,,,,,,,,,,,,,
,Screen_5,canvas.Screen,0_2_3_4,,skipped,4,136175,,,136172,,136176,2021-10-25T14:36:19.329Z,136356.38,1635172392,incremental,ni_sequenzen,NI_Sequenzen,,,,,,,,,,,,,,
,Screen_6,canvas.Screen,0_2_3_5,,skipped,4,136177,,,136172,,136177,2021-10-25T14:36:19.330Z,136356.38,1635172392,incremental,ni_sequenzen,NI_Sequenzen,,,,,,,,,,,,,,
,Sequence,flow.Sequence,0_2_3,,completion,4,136171,,,136172,,136177,2021-10-25T14:36:19.330Z,136356.38,1635172392,incremental,ni_sequenzen,NI_Sequenzen,,,,,,,,,,,,,,
,Screen_1,canvas.Screen,0_2_4_0,,skipped,5,136178,,,136178,,136178,2021-10-25T14:36:19.331Z,136356.38,1635172392,incremental,ni_sequenzen,NI_Sequenzen,,,,,,,,,,,,,,
,Screen_2,canvas.Screen,0_2_4_1,,skipped,5,136179,,,136178,,136179,2021-10-25T14:36:19.332Z,136356.38,1635172392,incremental,ni_sequenzen,NI_Sequenzen,,,,,,,,,,,,,,
,Screen_3,canvas.Screen,0_2_4_2,,skipped,5,136180,,,136178,,136180,2021-10-25T14:36:19.333Z,136356.38,1635172392,incremental,ni_sequenzen,NI_Sequenzen,,,,,,,,,,,,,,
,Screen_4,canvas.Screen,0_2_4_3,,skipped,5,136181,,,136178,,136181,2021-10-25T14:36:19.335Z,136356.38,1635172392,incremental,ni_sequenzen,NI_Sequenzen,,,,,,,,,,,,,,
,Screen_5,canvas.Screen,0_2_4_4,,skipped,5,136182,,,136178,,136182,2021-10-25T14:36:19.335Z,136356.38,1635172392,incremental,ni_sequenzen,NI_Sequenzen,,,,,,,,,,,,,,
,Screen_6,canvas.Screen,0_2_4_5,,skipped,5,136184,,,136178,,136184,2021-10-25T14:36:19.336Z,136356.38,1635172392,incremental,ni_sequenzen,NI_Sequenzen,,,,,,,,,,,,,,
,Sequence,flow.Sequence,0_2_4,,completion,5,136177,,,136178,,136184,2021-10-25T14:36:19.337Z,136356.38,1635172392,incremental,ni_sequenzen,NI_Sequenzen,,,,,,,,,,,,,,
,Screen_1,canvas.Screen,0_2_5_0,,skipped,6,136185,,,136185,,136185,2021-10-25T14:36:19.338Z,136356.38,1635172392,incremental,ni_sequenzen,NI_Sequenzen,,,,,,,,,,,,,,
,Screen_2,canvas.Screen,0_2_5_1,,skipped,6,136186,,,136185,,136186,2021-10-25T14:36:19.339Z,136356.38,1635172392,incremental,ni_sequenzen,NI_Sequenzen,,,,,,,,,,,,,,
,Screen_3,canvas.Screen,0_2_5_2,,skipped,6,136186,,,136185,,136186,2021-10-25T14:36:19.340Z,136356.38,1635172392,incremental,ni_sequenzen,NI_Sequenzen,,,,,,,,,,,,,,
,Screen_4,canvas.Screen,0_2_5_3,,skipped,6,136187,,,136185,,136187,2021-10-25T14:36:19.340Z,136356.38,1635172392,incremental,ni_sequenzen,NI_Sequenzen,,,,,,,,,,,,,,
,Screen_5,canvas.Screen,0_2_5_4,,skipped,6,136188,,,136185,,136188,2021-10-25T14:36:19.341Z,136356.38,1635172392,incremental,ni_sequenzen,NI_Sequenzen,,,,,,,,,,,,,,
,Screen_6,canvas.Screen,0_2_5_5,,skipped,6,136189,,,136185,,136189,2021-10-25T14:36:19.343Z,136356.38,1635172392,incremental,ni_sequenzen,NI_Sequenzen,,,,,,,,,,,,,,
,Sequence,flow.Sequence,0_2_5,,completion,6,136184,,,136185,,136189,2021-10-25T14:36:19.343Z,136356.38,1635172392,incremental,ni_sequenzen,NI_Sequenzen,,,,,,,,,,,,,,
,Screen_1,canvas.Screen,0_2_6_0,,skipped,7,136190,,,136190,,136190,2021-10-25T14:36:19.344Z,136356.38,1635172392,incremental,ni_sequenzen,NI_Sequenzen,,,,,,,,,,,,,,
,Screen_2,canvas.Screen,0_2_6_1,,skipped,7,136191,,,136190,,136191,2021-10-25T14:36:19.345Z,136356.38,1635172392,incremental,ni_sequenzen,NI_Sequenzen,,,,,,,,,,,,,,
,Screen_3,canvas.Screen,0_2_6_2,,skipped,7,136192,,,136190,,136192,2021-10-25T14:36:19.345Z,136356.38,1635172392,incremental,ni_sequenzen,NI_Sequenzen,,,,,,,,,,,,,,
,Screen_4,canvas.Screen,0_2_6_3,,skipped,7,136192,,,136190,,136192,2021-10-25T14:36:19.346Z,136356.38,1635172392,incremental,ni_sequenzen,NI_Sequenzen,,,,,,,,,,,,,,
,Screen_5,canvas.Screen,0_2_6_4,,skipped,7,136193,,,136190,,136193,2021-10-25T14:36:19.346Z,136356.38,1635172392,incremental,ni_sequenzen,NI_Sequenzen,,,,,,,,,,,,,,
,Screen_6,canvas.Screen,0_2_6_5,,skipped,7,136194,,,136190,,136194,2021-10-25T14:36:19.347Z,136356.38,1635172392,incremental,ni_sequenzen,NI_Sequenzen,,,,,,,,,,,,,,
,Sequence,flow.Sequence,0_2_6,,completion,7,136190,,,136190,,136194,2021-10-25T14:36:19.348Z,136356.38,1635172392,incremental,ni_sequenzen,NI_Sequenzen,,,,,,,,,,,,,,
,Screen_1,canvas.Screen,0_2_7_0,,skipped,8,136196,,,136196,,136196,2021-10-25T14:36:19.349Z,136356.38,1635172392,incremental,ni_sequenzen,NI_Sequenzen,,,,,,,,,,,,,,
,Screen_2,canvas.Screen,0_2_7_1,,skipped,8,136197,,,136196,,136197,2021-10-25T14:36:19.350Z,136356.38,1635172392,incremental,ni_sequenzen,NI_Sequenzen,,,,,,,,,,,,,,
,Screen_3,canvas.Screen,0_2_7_2,,skipped,8,136198,,,136196,,136198,2021-10-25T14:36:19.351Z,136356.38,1635172392,incremental,ni_sequenzen,NI_Sequenzen,,,,,,,,,,,,,,
,Screen_4,canvas.Screen,0_2_7_3,,skipped,8,136199,,,136196,,136199,2021-10-25T14:36:19.353Z,136356.38,1635172392,incremental,ni_sequenzen,NI_Sequenzen,,,,,,,,,,,,,,
,Screen_5,canvas.Screen,0_2_7_4,,skipped,8,136200,,,136196,,136200,2021-10-25T14:36:19.354Z,136356.38,1635172392,incremental,ni_sequenzen,NI_Sequenzen,,,,,,,,,,,,,,
,Screen_6,canvas.Screen,0_2_7_5,,skipped,8,136201,,,136196,,136201,2021-10-25T14:36:19.355Z,136356.38,1635172392,incremental,ni_sequenzen,NI_Sequenzen,,,,,,,,,,,,,,
,Sequence,flow.Sequence,0_2_7,,completion,8,136194,,,136196,,136202,2021-10-25T14:36:19.355Z,136356.38,1635172392,incremental,ni_sequenzen,NI_Sequenzen,,,,,,,,,,,,,,
,Screen_1,canvas.Screen,0_2_8_0,,skipped,9,136203,,,136203,,136203,2021-10-25T14:36:19.356Z,136356.38,1635172392,incremental,ni_sequenzen,NI_Sequenzen,,,,,,,,,,,,,,
,Screen_2,canvas.Screen,0_2_8_1,,skipped,9,136204,,,136203,,136204,2021-10-25T14:36:19.357Z,136356.38,1635172392,incremental,ni_sequenzen,NI_Sequenzen,,,,,,,,,,,,,,
,Screen_3,canvas.Screen,0_2_8_2,,skipped,9,136205,,,136203,,136205,2021-10-25T14:36:19.358Z,136356.38,1635172392,incremental,ni_sequenzen,NI_Sequenzen,,,,,,,,,,,,,,
,Screen_4,canvas.Screen,0_2_8_3,,skipped,9,136206,,,136203,,136206,2021-10-25T14:36:19.359Z,136356.38,1635172392,incremental,ni_sequenzen,NI_Sequenzen,,,,,,,,,,,,,,
,Screen_5,canvas.Screen,0_2_8_4,,skipped,9,136207,,,136203,,136207,2021-10-25T14:36:19.360Z,136356.38,1635172392,incremental,ni_sequenzen,NI_Sequenzen,,,,,,,,,,,,,,
,Screen_6,canvas.Screen,0_2_8_5,,skipped,9,136208,,,136203,,136208,2021-10-25T14:36:19.361Z,136356.38,1635172392,incremental,ni_sequenzen,NI_Sequenzen,,,,,,,,,,,,,,
,Sequence,flow.Sequence,0_2_8,,completion,9,136202,,,136203,,136208,2021-10-25T14:36:19.361Z,136356.38,1635172392,incremental,ni_sequenzen,NI_Sequenzen,,,,,,,,,,,,,,
,Screen_1,canvas.Screen,0_2_9_0,,skipped,10,136210,,,136210,,136210,2021-10-25T14:36:19.363Z,136356.38,1635172392,incremental,ni_sequenzen,NI_Sequenzen,,,,,,,,,,,,,,
,Screen_2,canvas.Screen,0_2_9_1,,skipped,10,136211,,,136210,,136211,2021-10-25T14:36:19.364Z,136356.38,1635172392,incremental,ni_sequenzen,NI_Sequenzen,,,,,,,,,,,,,,
,Screen_3,canvas.Screen,0_2_9_2,,skipped,10,136212,,,136210,,136212,2021-10-25T14:36:19.366Z,136356.38,1635172392,incremental,ni_sequenzen,NI_Sequenzen,,,,,,,,,,,,,,
,Screen_4,canvas.Screen,0_2_9_3,,skipped,10,136213,,,136210,,136213,2021-10-25T14:36:19.367Z,136356.38,1635172392,incremental,ni_sequenzen,NI_Sequenzen,,,,,,,,,,,,,,
,Screen_5,canvas.Screen,0_2_9_4,,skipped,10,136215,,,136210,,136215,2021-10-25T14:36:19.368Z,136356.38,1635172392,incremental,ni_sequenzen,NI_Sequenzen,,,,,,,,,,,,,,
,Screen_6,canvas.Screen,0_2_9_5,,skipped,10,136215,,,136210,,136216,2021-10-25T14:36:19.369Z,136356.38,1635172392,incremental,ni_sequenzen,NI_Sequenzen,,,,,,,,,,,,,,
,Sequence,flow.Sequence,0_2_9,,completion,10,136209,,,136210,,136217,2021-10-25T14:36:19.369Z,136356.38,1635172392,incremental,ni_sequenzen,NI_Sequenzen,,,,,,,,,,,,,,
,Screen_1,canvas.Screen,0_2_10_0,,skipped,11,136217,,,136217,,136217,2021-10-25T14:36:19.371Z,136356.38,1635172392,incremental,ni_sequenzen,NI_Sequenzen,,,,,,,,,,,,,,
,Screen_2,canvas.Screen,0_2_10_1,,skipped,11,136218,,,136217,,136218,2021-10-25T14:36:19.372Z,136356.38,1635172392,incremental,ni_sequenzen,NI_Sequenzen,,,,,,,,,,,,,,
,Screen_3,canvas.Screen,0_2_10_2,,skipped,11,136220,,,136217,,136220,2021-10-25T14:36:19.373Z,136356.38,1635172392,incremental,ni_sequenzen,NI_Sequenzen,,,,,,,,,,,,,,
,Screen_4,canvas.Screen,0_2_10_3,,skipped,11,136221,,,136217,,136221,2021-10-25T14:36:19.374Z,136356.38,1635172392,incremental,ni_sequenzen,NI_Sequenzen,,,,,,,,,,,,,,
,Screen_5,canvas.Screen,0_2_10_4,,skipped,11,136222,,,136217,,136222,2021-10-25T14:36:19.375Z,136356.38,1635172392,incremental,ni_sequenzen,NI_Sequenzen,,,,,,,,,,,,,,
,Screen_6,canvas.Screen,0_2_10_5,,skipped,11,136223,,,136217,,136223,2021-10-25T14:36:19.376Z,136356.38,1635172392,incremental,ni_sequenzen,NI_Sequenzen,,,,,,,,,,,,,,
,Sequence,flow.Sequence,0_2_10,,completion,11,136217,,,136217,,136223,2021-10-25T14:36:19.376Z,136356.38,1635172392,incremental,ni_sequenzen,NI_Sequenzen,,,,,,,,,,,,,,
,Screen_1,canvas.Screen,0_2_11_0,,skipped,12,136224,,,136224,,136224,2021-10-25T14:36:19.377Z,136356.38,1635172392,incremental,ni_sequenzen,NI_Sequenzen,,,,,,,,,,,,,,
,Screen_2,canvas.Screen,0_2_11_1,,skipped,12,136224,,,136224,,136224,2021-10-25T14:36:19.378Z,136356.38,1635172392,incremental,ni_sequenzen,NI_Sequenzen,,,,,,,,,,,,,,
,Screen_3,canvas.Screen,0_2_11_2,,skipped,12,136225,,,136224,,136225,2021-10-25T14:36:19.378Z,136356.38,1635172392,incremental,ni_sequenzen,NI_Sequenzen,,,,,,,,,,,,,,
,Screen_4,canvas.Screen,0_2_11_3,,skipped,12,136226,,,136224,,136226,2021-10-25T14:36:19.379Z,136356.38,1635172392,incremental,ni_sequenzen,NI_Sequenzen,,,,,,,,,,,,,,
,Screen_5,canvas.Screen,0_2_11_4,,skipped,12,136226,,,136224,,136227,2021-10-25T14:36:19.380Z,136356.38,1635172392,incremental,ni_sequenzen,NI_Sequenzen,,,,,,,,,,,,,,
,Screen_6,canvas.Screen,0_2_11_5,,skipped,12,136227,,,136224,,136227,2021-10-25T14:36:19.380Z,136356.38,1635172392,incremental,ni_sequenzen,NI_Sequenzen,,,,,,,,,,,,,,
,Sequence,flow.Sequence,0_2_11,,completion,12,136223,,,136224,,136227,2021-10-25T14:36:19.380Z,136356.38,1635172392,incremental,ni_sequenzen,NI_Sequenzen,,,,,,,,,,,,,,
,Screen_1,canvas.Screen,0_2_12_0,,skipped,13,136228,,,136228,,136228,2021-10-25T14:36:19.382Z,136356.38,1635172392,incremental,ni_sequenzen,NI_Sequenzen,,,,,,,,,,,,,,
,Screen_2,canvas.Screen,0_2_12_1,,skipped,13,136229,,,136228,,136229,2021-10-25T14:36:19.383Z,136356.38,1635172392,incremental,ni_sequenzen,NI_Sequenzen,,,,,,,,,,,,,,
,Screen_3,canvas.Screen,0_2_12_2,,skipped,13,136230,,,136228,,136230,2021-10-25T14:36:19.384Z,136356.38,1635172392,incremental,ni_sequenzen,NI_Sequenzen,,,,,,,,,,,,,,
,Screen_4,canvas.Screen,0_2_12_3,,skipped,13,136231,,,136228,,136231,2021-10-25T14:36:19.384Z,136356.38,1635172392,incremental,ni_sequenzen,NI_Sequenzen,,,,,,,,,,,,,,
,Screen_5,canvas.Screen,0_2_12_4,,skipped,13,136231,,,136228,,136231,2021-10-25T14:36:19.385Z,136356.38,1635172392,incremental,ni_sequenzen,NI_Sequenzen,,,,,,,,,,,,,,
,Screen_6,canvas.Screen,0_2_12_5,,skipped,13,136232,,,136228,,136232,2021-10-25T14:36:19.386Z,136356.38,1635172392,incremental,ni_sequenzen,NI_Sequenzen,,,,,,,,,,,,,,
,Sequence,flow.Sequence,0_2_12,,completion,13,136227,,,136228,,136232,2021-10-25T14:36:19.386Z,136356.38,1635172392,incremental,ni_sequenzen,NI_Sequenzen,,,,,,,,,,,,,,
,Screen_1,canvas.Screen,0_2_13_0,,skipped,14,136233,,,136233,,136233,2021-10-25T14:36:19.387Z,136356.38,1635172392,incremental,ni_sequenzen,NI_Sequenzen,,,,,,,,,,,,,,
,Screen_2,canvas.Screen,0_2_13_1,,skipped,14,136234,,,136233,,136234,2021-10-25T14:36:19.388Z,136356.38,1635172392,incremental,ni_sequenzen,NI_Sequenzen,,,,,,,,,,,,,,
,Screen_3,canvas.Screen,0_2_13_2,,skipped,14,136235,,,136233,,136235,2021-10-25T14:36:19.388Z,136356.38,1635172392,incremental,ni_sequenzen,NI_Sequenzen,,,,,,,,,,,,,,
,Screen_4,canvas.Screen,0_2_13_3,,skipped,14,136235,,,136233,,136235,2021-10-25T14:36:19.389Z,136356.38,1635172392,incremental,ni_sequenzen,NI_Sequenzen,,,,,,,,,,,,,,
,Screen_5,canvas.Screen,0_2_13_4,,skipped,14,136236,,,136233,,136236,2021-10-25T14:36:19.390Z,136356.38,1635172392,incremental,ni_sequenzen,NI_Sequenzen,,,,,,,,,,,,,,
,Screen_6,canvas.Screen,0_2_13_5,,skipped,14,136237,,,136233,,136237,2021-10-25T14:36:19.391Z,136356.38,1635172392,incremental,ni_sequenzen,NI_Sequenzen,,,,,,,,,,,,,,
,Sequence,flow.Sequence,0_2_13,,completion,14,136232,,,136233,,136237,2021-10-25T14:36:19.391Z,136356.38,1635172392,incremental,ni_sequenzen,NI_Sequenzen,,,,,,,,,,,,,,
,Screen_1,canvas.Screen,0_2_14_0,,skipped,15,136238,,,136238,,136238,2021-10-25T14:36:19.392Z,136356.38,1635172392,incremental,ni_sequenzen,NI_Sequenzen,,,,,,,,,,,,,,
,Screen_2,canvas.Screen,0_2_14_1,,skipped,15,136238,,,136238,,136239,2021-10-25T14:36:19.393Z,136356.38,1635172392,incremental,ni_sequenzen,NI_Sequenzen,,,,,,,,,,,,,,
,Screen_3,canvas.Screen,0_2_14_2,,skipped,15,136239,,,136238,,136239,2021-10-25T14:36:19.393Z,136356.38,1635172392,incremental,ni_sequenzen,NI_Sequenzen,,,,,,,,,,,,,,
,Screen_4,canvas.Screen,0_2_14_3,,skipped,15,136240,,,136238,,136240,2021-10-25T14:36:19.393Z,136356.38,1635172392,incremental,ni_sequenzen,NI_Sequenzen,,,,,,,,,,,,,,
,Screen_5,canvas.Screen,0_2_14_4,,skipped,15,136242,,,136238,,136242,2021-10-25T14:36:19.394Z,136356.38,1635172392,incremental,ni_sequenzen,NI_Sequenzen,,,,,,,,,,,,,,
,Screen_6,canvas.Screen,0_2_14_5,,skipped,15,136242,,,136238,,136242,2021-10-25T14:36:19.395Z,136356.38,1635172392,incremental,ni_sequenzen,NI_Sequenzen,,,,,,,,,,,,,,
,Sequence,flow.Sequence,0_2_14,,completion,15,136237,,,136238,,136242,2021-10-25T14:36:19.395Z,136356.38,1635172392,incremental,ni_sequenzen,NI_Sequenzen,,,,,,,,,,,,,,
,Screen_1,canvas.Screen,0_2_15_0,,skipped,16,136243,,,136243,,136243,2021-10-25T14:36:19.396Z,136356.38,1635172392,incremental,ni_sequenzen,NI_Sequenzen,,,,,,,,,,,,,,
,Screen_2,canvas.Screen,0_2_15_1,,skipped,16,136244,,,136243,,136244,2021-10-25T14:36:19.398Z,136356.38,1635172392,incremental,ni_sequenzen,NI_Sequenzen,,,,,,,,,,,,,,
,Screen_3,canvas.Screen,0_2_15_2,,skipped,16,136245,,,136243,,136245,2021-10-25T14:36:19.398Z,136356.38,1635172392,incremental,ni_sequenzen,NI_Sequenzen,,,,,,,,,,,,,,
,Screen_4,canvas.Screen,0_2_15_3,,skipped,16,136246,,,136243,,136246,2021-10-25T14:36:19.399Z,136356.38,1635172392,incremental,ni_sequenzen,NI_Sequenzen,,,,,,,,,,,,,,
,Screen_5,canvas.Screen,0_2_15_4,,skipped,16,136247,,,136243,,136247,2021-10-25T14:36:19.400Z,136356.38,1635172392,incremental,ni_sequenzen,NI_Sequenzen,,,,,,,,,,,,,,
,Screen_6,canvas.Screen,0_2_15_5,,skipped,16,136247,,,136243,,136247,2021-10-25T14:36:19.400Z,136356.38,1635172392,incremental,ni_sequenzen,NI_Sequenzen,,,,,,,,,,,,,,
,Sequence,flow.Sequence,0_2_15,,completion,16,136243,,,136243,,136248,2021-10-25T14:36:19.401Z,136356.38,1635172392,incremental,ni_sequenzen,NI_Sequenzen,,,,,,,,,,,,,,
,Screen_1,canvas.Screen,0_2_16_0,,skipped,17,136248,,,136248,,136248,2021-10-25T14:36:19.402Z,136356.38,1635172392,incremental,ni_sequenzen,NI_Sequenzen,,,,,,,,,,,,,,
,Screen_2,canvas.Screen,0_2_16_1,,skipped,17,136249,,,136248,,136249,2021-10-25T14:36:19.402Z,136356.38,1635172392,incremental,ni_sequenzen,NI_Sequenzen,,,,,,,,,,,,,,
,Screen_3,canvas.Screen,0_2_16_2,,skipped,17,136250,,,136248,,136250,2021-10-25T14:36:19.403Z,136356.38,1635172392,incremental,ni_sequenzen,NI_Sequenzen,,,,,,,,,,,,,,
,Screen_4,canvas.Screen,0_2_16_3,,skipped,17,136251,,,136248,,136251,2021-10-25T14:36:19.404Z,136356.38,1635172392,incremental,ni_sequenzen,NI_Sequenzen,,,,,,,,,,,,,,
,Screen_5,canvas.Screen,0_2_16_4,,skipped,17,136252,,,136248,,136252,2021-10-25T14:36:19.405Z,136356.38,1635172392,incremental,ni_sequenzen,NI_Sequenzen,,,,,,,,,,,,,,
,Screen_6,canvas.Screen,0_2_16_5,,skipped,17,136252,,,136248,,136252,2021-10-25T14:36:19.406Z,136356.38,1635172392,incremental,ni_sequenzen,NI_Sequenzen,,,,,,,,,,,,,,
,Sequence,flow.Sequence,0_2_16,,completion,17,136248,,,136248,,136252,2021-10-25T14:36:19.406Z,136356.38,1635172392,incremental,ni_sequenzen,NI_Sequenzen,,,,,,,,,,,,,,
,Screen_1,canvas.Screen,0_2_17_0,,skipped,18,136253,,,136253,,136253,2021-10-25T14:36:19.407Z,136356.38,1635172392,incremental,ni_sequenzen,NI_Sequenzen,,,,,,,,,,,,,,
,Screen_2,canvas.Screen,0_2_17_1,,skipped,18,136254,,,136253,,136254,2021-10-25T14:36:19.408Z,136356.38,1635172392,incremental,ni_sequenzen,NI_Sequenzen,,,,,,,,,,,,,,
,Screen_3,canvas.Screen,0_2_17_2,,skipped,18,136255,,,136253,,136255,2021-10-25T14:36:19.408Z,136356.38,1635172392,incremental,ni_sequenzen,NI_Sequenzen,,,,,,,,,,,,,,
,Screen_4,canvas.Screen,0_2_17_3,,skipped,18,136255,,,136253,,136256,2021-10-25T14:36:19.409Z,136356.38,1635172392,incremental,ni_sequenzen,NI_Sequenzen,,,,,,,,,,,,,,
,Screen_5,canvas.Screen,0_2_17_4,,skipped,18,136256,,,136253,,136256,2021-10-25T14:36:19.410Z,136356.38,1635172392,incremental,ni_sequenzen,NI_Sequenzen,,,,,,,,,,,,,,
,Screen_6,canvas.Screen,0_2_17_5,,skipped,18,136257,,,136253,,136257,2021-10-25T14:36:19.411Z,136356.38,1635172392,incremental,ni_sequenzen,NI_Sequenzen,,,,,,,,,,,,,,
,Sequence,flow.Sequence,0_2_17,,completion,18,136253,,,136253,,136257,2021-10-25T14:36:19.411Z,136356.38,1635172392,incremental,ni_sequenzen,NI_Sequenzen,,,,,,,,,,,,,,
,Screen_1,canvas.Screen,0_2_18_0,,skipped,19,136258,,,136258,,136258,2021-10-25T14:36:19.412Z,136356.38,1635172392,incremental,ni_sequenzen,NI_Sequenzen,,,,,,,,,,,,,,
,Screen_2,canvas.Screen,0_2_18_1,,skipped,19,136259,,,136258,,136259,2021-10-25T14:36:19.412Z,136356.38,1635172392,incremental,ni_sequenzen,NI_Sequenzen,,,,,,,,,,,,,,
,Screen_3,canvas.Screen,0_2_18_2,,skipped,19,136259,,,136258,,136259,2021-10-25T14:36:19.413Z,136356.38,1635172392,incremental,ni_sequenzen,NI_Sequenzen,,,,,,,,,,,,,,
,Screen_4,canvas.Screen,0_2_18_3,,skipped,19,136261,,,136258,,136261,2021-10-25T14:36:19.414Z,136356.38,1635172392,incremental,ni_sequenzen,NI_Sequenzen,,,,,,,,,,,,,,
,Screen_5,canvas.Screen,0_2_18_4,,skipped,19,136262,,,136258,,136262,2021-10-25T14:36:19.415Z,136356.38,1635172392,incremental,ni_sequenzen,NI_Sequenzen,,,,,,,,,,,,,,
,Screen_6,canvas.Screen,0_2_18_5,,skipped,19,136263,,,136258,,136263,2021-10-25T14:36:19.416Z,136356.38,1635172392,incremental,ni_sequenzen,NI_Sequenzen,,,,,,,,,,,,,,
,Sequence,flow.Sequence,0_2_18,,completion,19,136257,,,136258,,136263,2021-10-25T14:36:19.416Z,136356.38,1635172392,incremental,ni_sequenzen,NI_Sequenzen,,,,,,,,,,,,,,
,Screen_1,canvas.Screen,0_2_19_0,,skipped,20,136264,,,136264,,136264,2021-10-25T14:36:19.417Z,136356.38,1635172392,incremental,ni_sequenzen,NI_Sequenzen,,,,,,,,,,,,,,
,Screen_2,canvas.Screen,0_2_19_1,,skipped,20,136264,,,136264,,136265,2021-10-25T14:36:19.418Z,136356.38,1635172392,incremental,ni_sequenzen,NI_Sequenzen,,,,,,,,,,,,,,
,Screen_3,canvas.Screen,0_2_19_2,,skipped,20,136265,,,136264,,136265,2021-10-25T14:36:19.418Z,136356.38,1635172392,incremental,ni_sequenzen,NI_Sequenzen,,,,,,,,,,,,,,
,Screen_4,canvas.Screen,0_2_19_3,,skipped,20,136266,,,136264,,136266,2021-10-25T14:36:19.419Z,136356.38,1635172392,incremental,ni_sequenzen,NI_Sequenzen,,,,,,,,,,,,,,
,Screen_5,canvas.Screen,0_2_19_4,,skipped,20,136267,,,136264,,136267,2021-10-25T14:36:19.420Z,136356.38,1635172392,incremental,ni_sequenzen,NI_Sequenzen,,,,,,,,,,,,,,
,Screen_6,canvas.Screen,0_2_19_5,,skipped,20,136268,,,136264,,136268,2021-10-25T14:36:19.420Z,136356.38,1635172392,incremental,ni_sequenzen,NI_Sequenzen,,,,,,,,,,,,,,
,Sequence,flow.Sequence,0_2_19,,completion,20,136263,,,136264,,136268,2021-10-25T14:36:19.421Z,136356.38,1635172392,incremental,ni_sequenzen,NI_Sequenzen,,,,,,,,,,,,,,
,Screen_1,canvas.Screen,0_2_20_0,,skipped,21,136269,,,136269,,136269,2021-10-25T14:36:19.422Z,136356.38,1635172392,incremental,ni_sequenzen,NI_Sequenzen,,,,,,,,,,,,,,
,Screen_2,canvas.Screen,0_2_20_1,,skipped,21,136269,,,136269,,136269,2021-10-25T14:36:19.422Z,136356.38,1635172392,incremental,ni_sequenzen,NI_Sequenzen,,,,,,,,,,,,,,
,Screen_3,canvas.Screen,0_2_20_2,,skipped,21,136270,,,136269,,136270,2021-10-25T14:36:19.423Z,136356.38,1635172392,incremental,ni_sequenzen,NI_Sequenzen,,,,,,,,,,,,,,
,Screen_4,canvas.Screen,0_2_20_3,,skipped,21,136271,,,136269,,136271,2021-10-25T14:36:19.424Z,136356.38,1635172392,incremental,ni_sequenzen,NI_Sequenzen,,,,,,,,,,,,,,
,Screen_5,canvas.Screen,0_2_20_4,,skipped,21,136272,,,136269,,136272,2021-10-25T14:36:19.425Z,136356.38,1635172392,incremental,ni_sequenzen,NI_Sequenzen,,,,,,,,,,,,,,
,Screen_6,canvas.Screen,0_2_20_5,,skipped,21,136272,,,136269,,136273,2021-10-25T14:36:19.426Z,136356.38,1635172392,incremental,ni_sequenzen,NI_Sequenzen,,,,,,,,,,,,,,
,Sequence,flow.Sequence,0_2_20,,completion,21,136268,,,136269,,136273,2021-10-25T14:36:19.426Z,136356.38,1635172392,incremental,ni_sequenzen,NI_Sequenzen,,,,,,,,,,,,,,
,Screen_1,canvas.Screen,0_2_21_0,,skipped,22,136274,,,136274,,136274,2021-10-25T14:36:19.427Z,136356.38,1635172392,incremental,ni_sequenzen,NI_Sequenzen,,,,,,,,,,,,,,
,Screen_2,canvas.Screen,0_2_21_1,,skipped,22,136274,,,136274,,136274,2021-10-25T14:36:19.427Z,136356.38,1635172392,incremental,ni_sequenzen,NI_Sequenzen,,,,,,,,,,,,,,
,Screen_3,canvas.Screen,0_2_21_2,,skipped,22,136275,,,136274,,136275,2021-10-25T14:36:19.428Z,136356.38,1635172392,incremental,ni_sequenzen,NI_Sequenzen,,,,,,,,,,,,,,
,Screen_4,canvas.Screen,0_2_21_3,,skipped,22,136276,,,136274,,136276,2021-10-25T14:36:19.429Z,136356.38,1635172392,incremental,ni_sequenzen,NI_Sequenzen,,,,,,,,,,,,,,
,Screen_5,canvas.Screen,0_2_21_4,,skipped,22,136277,,,136274,,136277,2021-10-25T14:36:19.431Z,136356.38,1635172392,incremental,ni_sequenzen,NI_Sequenzen,,,,,,,,,,,,,,
,Screen_6,canvas.Screen,0_2_21_5,,skipped,22,136277,,,136274,,136278,2021-10-25T14:36:19.431Z,136356.38,1635172392,incremental,ni_sequenzen,NI_Sequenzen,,,,,,,,,,,,,,
,Sequence,flow.Sequence,0_2_21,,completion,22,136273,,,136274,,136278,2021-10-25T14:36:19.431Z,136356.38,1635172392,incremental,ni_sequenzen,NI_Sequenzen,,,,,,,,,,,,,,
,Screen_1,canvas.Screen,0_2_22_0,,skipped,23,136279,,,136279,,136279,2021-10-25T14:36:19.433Z,136356.38,1635172392,incremental,ni_sequenzen,NI_Sequenzen,,,,,,,,,,,,,,
,Screen_2,canvas.Screen,0_2_22_1,,skipped,23,136279,,,136279,,136280,2021-10-25T14:36:19.433Z,136356.38,1635172392,incremental,ni_sequenzen,NI_Sequenzen,,,,,,,,,,,,,,
,Screen_3,canvas.Screen,0_2_22_2,,skipped,23,136280,,,136279,,136280,2021-10-25T14:36:19.434Z,136356.38,1635172392,incremental,ni_sequenzen,NI_Sequenzen,,,,,,,,,,,,,,
,Screen_4,canvas.Screen,0_2_22_3,,skipped,23,136281,,,136279,,136281,2021-10-25T14:36:19.434Z,136356.38,1635172392,incremental,ni_sequenzen,NI_Sequenzen,,,,,,,,,,,,,,
,Screen_5,canvas.Screen,0_2_22_4,,skipped,23,136283,,,136279,,136283,2021-10-25T14:36:19.436Z,136356.38,1635172392,incremental,ni_sequenzen,NI_Sequenzen,,,,,,,,,,,,,,
,Screen_6,canvas.Screen,0_2_22_5,,skipped,23,136284,,,136279,,136284,2021-10-25T14:36:19.437Z,136356.38,1635172392,incremental,ni_sequenzen,NI_Sequenzen,,,,,,,,,,,,,,
,Sequence,flow.Sequence,0_2_22,,completion,23,136278,,,136279,,136284,2021-10-25T14:36:19.437Z,136356.38,1635172392,incremental,ni_sequenzen,NI_Sequenzen,,,,,,,,,,,,,,
,Screen_1,canvas.Screen,0_2_23_0,,skipped,24,136285,,,136285,,136285,2021-10-25T14:36:19.439Z,136356.38,1635172392,incremental,ni_sequenzen,NI_Sequenzen,,,,,,,,,,,,,,
,Screen_2,canvas.Screen,0_2_23_1,,skipped,24,136286,,,136285,,136286,2021-10-25T14:36:19.439Z,136356.38,1635172392,incremental,ni_sequenzen,NI_Sequenzen,,,,,,,,,,,,,,
,Screen_3,canvas.Screen,0_2_23_2,,skipped,24,136286,,,136285,,136286,2021-10-25T14:36:19.440Z,136356.38,1635172392,incremental,ni_sequenzen,NI_Sequenzen,,,,,,,,,,,,,,
,Screen_4,canvas.Screen,0_2_23_3,,skipped,24,136287,,,136285,,136287,2021-10-25T14:36:19.441Z,136356.38,1635172392,incremental,ni_sequenzen,NI_Sequenzen,,,,,,,,,,,,,,
,Screen_5,canvas.Screen,0_2_23_4,,skipped,24,136289,,,136285,,136289,2021-10-25T14:36:19.441Z,136356.38,1635172392,incremental,ni_sequenzen,NI_Sequenzen,,,,,,,,,,,,,,
,Screen_6,canvas.Screen,0_2_23_5,,skipped,24,136289,,,136285,,136289,2021-10-25T14:36:19.442Z,136356.38,1635172392,incremental,ni_sequenzen,NI_Sequenzen,,,,,,,,,,,,,,
,Sequence,flow.Sequence,0_2_23,,completion,24,136284,,,136285,,136289,2021-10-25T14:36:19.442Z,136356.38,1635172392,incremental,ni_sequenzen,NI_Sequenzen,,,,,,,,,,,,,,
,Screen_1,canvas.Screen,0_2_24_0,,skipped,25,136290,,,136290,,136291,2021-10-25T14:36:19.443Z,136356.38,1635172392,incremental,ni_sequenzen,NI_Sequenzen,,,,,,,,,,,,,,
,Screen_2,canvas.Screen,0_2_24_1,,skipped,25,136291,,,136290,,136291,2021-10-25T14:36:19.445Z,136356.38,1635172392,incremental,ni_sequenzen,NI_Sequenzen,,,,,,,,,,,,,,
,Screen_3,canvas.Screen,0_2_24_2,,skipped,25,136292,,,136290,,136292,2021-10-25T14:36:19.445Z,136356.38,1635172392,incremental,ni_sequenzen,NI_Sequenzen,,,,,,,,,,,,,,
,Screen_4,canvas.Screen,0_2_24_3,,skipped,25,136292,,,136290,,136292,2021-10-25T14:36:19.445Z,136356.38,1635172392,incremental,ni_sequenzen,NI_Sequenzen,,,,,,,,,,,,,,
,Screen_5,canvas.Screen,0_2_24_4,,skipped,25,136293,,,136290,,136293,2021-10-25T14:36:19.446Z,136356.38,1635172392,incremental,ni_sequenzen,NI_Sequenzen,,,,,,,,,,,,,,
,Screen_6,canvas.Screen,0_2_24_5,,skipped,25,136294,,,136290,,136294,2021-10-25T14:36:19.447Z,136356.38,1635172392,incremental,ni_sequenzen,NI_Sequenzen,,,,,,,,,,,,,,
,Sequence,flow.Sequence,0_2_24,,completion,25,136290,,,136290,,136294,2021-10-25T14:36:19.447Z,136356.38,1635172392,incremental,ni_sequenzen,NI_Sequenzen,,,,,,,,,,,,,,
,Screen_1,canvas.Screen,0_2_25_0,,skipped,26,136295,,,136295,,136295,2021-10-25T14:36:19.448Z,136356.38,1635172392,incremental,ni_sequenzen,NI_Sequenzen,,,,,,,,,,,,,,
,Screen_2,canvas.Screen,0_2_25_1,,skipped,26,136296,,,136295,,136296,2021-10-25T14:36:19.449Z,136356.38,1635172392,incremental,ni_sequenzen,NI_Sequenzen,,,,,,,,,,,,,,
,Screen_3,canvas.Screen,0_2_25_2,,skipped,26,136296,,,136295,,136296,2021-10-25T14:36:19.450Z,136356.38,1635172392,incremental,ni_sequenzen,NI_Sequenzen,,,,,,,,,,,,,,
,Screen_4,canvas.Screen,0_2_25_3,,skipped,26,136297,,,136295,,136297,2021-10-25T14:36:19.451Z,136356.38,1635172392,incremental,ni_sequenzen,NI_Sequenzen,,,,,,,,,,,,,,
,Screen_5,canvas.Screen,0_2_25_4,,skipped,26,136298,,,136295,,136298,2021-10-25T14:36:19.451Z,136356.38,1635172392,incremental,ni_sequenzen,NI_Sequenzen,,,,,,,,,,,,,,
,Screen_6,canvas.Screen,0_2_25_5,,skipped,26,136298,,,136295,,136298,2021-10-25T14:36:19.452Z,136356.38,1635172392,incremental,ni_sequenzen,NI_Sequenzen,,,,,,,,,,,,,,
,Sequence,flow.Sequence,0_2_25,,completion,26,136294,,,136295,,136298,2021-10-25T14:36:19.452Z,136356.38,1635172392,incremental,ni_sequenzen,NI_Sequenzen,,,,,,,,,,,,,,
,Screen_1,canvas.Screen,0_2_26_0,,skipped,27,136300,,,136300,,136300,2021-10-25T14:36:19.453Z,136356.38,1635172392,incremental,ni_sequenzen,NI_Sequenzen,,,,,,,,,,,,,,
,Screen_2,canvas.Screen,0_2_26_1,,skipped,27,136300,,,136300,,136301,2021-10-25T14:36:19.454Z,136356.38,1635172392,incremental,ni_sequenzen,NI_Sequenzen,,,,,,,,,,,,,,
,Screen_3,canvas.Screen,0_2_26_2,,skipped,27,136301,,,136300,,136301,2021-10-25T14:36:19.455Z,136356.38,1635172392,incremental,ni_sequenzen,NI_Sequenzen,,,,,,,,,,,,,,
,Screen_4,canvas.Screen,0_2_26_3,,skipped,27,136302,,,136300,,136302,2021-10-25T14:36:19.456Z,136356.38,1635172392,incremental,ni_sequenzen,NI_Sequenzen,,,,,,,,,,,,,,
,Screen_5,canvas.Screen,0_2_26_4,,skipped,27,136303,,,136300,,136303,2021-10-25T14:36:19.456Z,136356.38,1635172392,incremental,ni_sequenzen,NI_Sequenzen,,,,,,,,,,,,,,
,Screen_6,canvas.Screen,0_2_26_5,,skipped,27,136303,,,136300,,136303,2021-10-25T14:36:19.457Z,136356.38,1635172392,incremental,ni_sequenzen,NI_Sequenzen,,,,,,,,,,,,,,
,Sequence,flow.Sequence,0_2_26,,completion,27,136299,,,136300,,136304,2021-10-25T14:36:19.457Z,136356.38,1635172392,incremental,ni_sequenzen,NI_Sequenzen,,,,,,,,,,,,,,
,Screen_1,canvas.Screen,0_2_27_0,,skipped,28,136305,,,136305,,136305,2021-10-25T14:36:19.459Z,136356.38,1635172392,incremental,ni_sequenzen,NI_Sequenzen,,,,,,,,,,,,,,
,Screen_2,canvas.Screen,0_2_27_1,,skipped,28,136306,,,136305,,136306,2021-10-25T14:36:19.460Z,136356.38,1635172392,incremental,ni_sequenzen,NI_Sequenzen,,,,,,,,,,,,,,
,Screen_3,canvas.Screen,0_2_27_2,,skipped,28,136308,,,136305,,136308,2021-10-25T14:36:19.460Z,136356.38,1635172392,incremental,ni_sequenzen,NI_Sequenzen,,,,,,,,,,,,,,
,Screen_4,canvas.Screen,0_2_27_3,,skipped,28,136309,,,136305,,136309,2021-10-25T14:36:19.463Z,136356.38,1635172392,incremental,ni_sequenzen,NI_Sequenzen,,,,,,,,,,,,,,
,Screen_5,canvas.Screen,0_2_27_4,,skipped,28,136310,,,136305,,136310,2021-10-25T14:36:19.463Z,136356.38,1635172392,incremental,ni_sequenzen,NI_Sequenzen,,,,,,,,,,,,,,
,Screen_6,canvas.Screen,0_2_27_5,,skipped,28,136310,,,136305,,136310,2021-10-25T14:36:19.464Z,136356.38,1635172392,incremental,ni_sequenzen,NI_Sequenzen,,,,,,,,,,,,,,
,Sequence,flow.Sequence,0_2_27,,completion,28,136304,,,136305,,136311,2021-10-25T14:36:19.464Z,136356.38,1635172392,incremental,ni_sequenzen,NI_Sequenzen,,,,,,,,,,,,,,
,Screen_1,canvas.Screen,0_2_28_0,,skipped,29,136311,,,136311,,136311,2021-10-25T14:36:19.465Z,136356.38,1635172392,incremental,ni_sequenzen,NI_Sequenzen,,,,,,,,,,,,,,
,Screen_2,canvas.Screen,0_2_28_1,,skipped,29,136312,,,136311,,136312,2021-10-25T14:36:19.465Z,136356.38,1635172392,incremental,ni_sequenzen,NI_Sequenzen,,,,,,,,,,,,,,
,Screen_3,canvas.Screen,0_2_28_2,,skipped,29,136313,,,136311,,136313,2021-10-25T14:36:19.466Z,136356.38,1635172392,incremental,ni_sequenzen,NI_Sequenzen,,,,,,,,,,,,,,
,Screen_4,canvas.Screen,0_2_28_3,,skipped,29,136313,,,136311,,136313,2021-10-25T14:36:19.466Z,136356.38,1635172392,incremental,ni_sequenzen,NI_Sequenzen,,,,,,,,,,,,,,
,Screen_5,canvas.Screen,0_2_28_4,,skipped,29,136314,,,136311,,136314,2021-10-25T14:36:19.467Z,136356.38,1635172392,incremental,ni_sequenzen,NI_Sequenzen,,,,,,,,,,,,,,
,Screen_6,canvas.Screen,0_2_28_5,,skipped,29,136315,,,136311,,136315,2021-10-25T14:36:19.468Z,136356.38,1635172392,incremental,ni_sequenzen,NI_Sequenzen,,,,,,,,,,,,,,
,Sequence,flow.Sequence,0_2_28,,completion,29,136311,,,136311,,136315,2021-10-25T14:36:19.468Z,136356.38,1635172392,incremental,ni_sequenzen,NI_Sequenzen,,,,,,,,,,,,,,
,Screen_1,canvas.Screen,0_2_29_0,,skipped,30,136316,,,136316,,136316,2021-10-25T14:36:19.469Z,136356.38,1635172392,incremental,ni_sequenzen,NI_Sequenzen,,,,,,,,,,,,,,
,Screen_2,canvas.Screen,0_2_29_1,,skipped,30,136316,,,136316,,136316,2021-10-25T14:36:19.470Z,136356.38,1635172392,incremental,ni_sequenzen,NI_Sequenzen,,,,,,,,,,,,,,
,Screen_3,canvas.Screen,0_2_29_2,,skipped,30,136317,,,136316,,136317,2021-10-25T14:36:19.470Z,136356.38,1635172392,incremental,ni_sequenzen,NI_Sequenzen,,,,,,,,,,,,,,
,Screen_4,canvas.Screen,0_2_29_3,,skipped,30,136318,,,136316,,136318,2021-10-25T14:36:19.471Z,136356.38,1635172392,incremental,ni_sequenzen,NI_Sequenzen,,,,,,,,,,,,,,
,Screen_5,canvas.Screen,0_2_29_4,,skipped,30,136318,,,136316,,136318,2021-10-25T14:36:19.472Z,136356.38,1635172392,incremental,ni_sequenzen,NI_Sequenzen,,,,,,,,,,,,,,
,Screen_6,canvas.Screen,0_2_29_5,,skipped,30,136319,,,136316,,136319,2021-10-25T14:36:19.472Z,136356.38,1635172392,incremental,ni_sequenzen,NI_Sequenzen,,,,,,,,,,,,,,
,Sequence,flow.Sequence,0_2_29,,completion,30,136315,,,136316,,136319,2021-10-25T14:36:19.472Z,136356.38,1635172392,incremental,ni_sequenzen,NI_Sequenzen,,,,,,,,,,,,,,
,Instructions_II,flow.Loop,0_2,,completion,,68474,68475.08,68475.48,136316,67840.52,136319,2021-10-25T14:36:19.473Z,136356.38,1635172392,incremental,ni_sequenzen,NI_Sequenzen,,,,,,,,,,,,,,
,Move,canvas.Screen,0_3_0_0_0_0,right,response,,136346,136346.74,136356.38,140123,3766.6199999999953,140139,2021-10-25T14:36:23.293Z,140149.78,1635172392,incremental,ni_sequenzen,NI_Sequenzen,1,0,,,,,,,,,,,,
,Move,canvas.Screen,0_3_0_0_0_1,down,response,,140149,140149.54,140149.78,147685,7535.220000000001,147699,2021-10-25T14:36:30.853Z,147705.94,1635172392,incremental,ni_sequenzen,NI_Sequenzen,2,0,,,,,,,,,,,,
,Move,canvas.Screen,0_3_0_0_0_2,right,response,,147705,147705.62,147705.94,150482,2776.0599999999977,150499,2021-10-25T14:36:33.653Z,150508.92,1635172392,incremental,ni_sequenzen,NI_Sequenzen,3,0,,,,,,,,,,,,
,Move,canvas.Screen,0_3_0_0_0_3,down,response,,150508,150508.6,150508.92,152794,2285.079999999987,152799,2021-10-25T14:36:35.952Z,152844.94,1635172392,incremental,ni_sequenzen,NI_Sequenzen,4,0,,,,,,,,,,,,
,Move,canvas.Screen,0_3_0_0_0_4,-999,skipped,,152806,,,152794,,152807,2021-10-25T14:36:35.959Z,152844.94,1635172392,incremental,ni_sequenzen,NI_Sequenzen,5,0,,,,,,,,,,,,
,Move,canvas.Screen,0_3_0_0_0_5,-999,skipped,,152810,,,152794,,152810,2021-10-25T14:36:35.963Z,152844.94,1635172392,incremental,ni_sequenzen,NI_Sequenzen,6,0,,,,,,,,,,,,
,Move,canvas.Screen,0_3_0_0_0_6,-999,skipped,,152813,,,152794,,152813,2021-10-25T14:36:35.967Z,152844.94,1635172392,incremental,ni_sequenzen,NI_Sequenzen,7,0,,,,,,,,,,,,
,Move,canvas.Screen,0_3_0_0_0_7,-999,skipped,,152817,,,152794,,152817,2021-10-25T14:36:35.971Z,152844.94,1635172392,incremental,ni_sequenzen,NI_Sequenzen,8,0,,,,,,,,,,,,
,Move,canvas.Screen,0_3_0_0_0_8,-999,skipped,,152820,,,152794,,152820,2021-10-25T14:36:35.974Z,152844.94,1635172392,incremental,ni_sequenzen,NI_Sequenzen,9,0,,,,,,,,,,,,
,Move,canvas.Screen,0_3_0_0_0_9,-999,skipped,,152824,,,152794,,152824,2021-10-25T14:36:35.977Z,152844.94,1635172392,incremental,ni_sequenzen,NI_Sequenzen,10,0,,,,,,,,,,,,
,Move,canvas.Screen,0_3_0_0_0_10,-999,skipped,,152827,,,152794,,152827,2021-10-25T14:36:35.980Z,152844.94,1635172392,incremental,ni_sequenzen,NI_Sequenzen,11,0,,,,,,,,,,,,
,Move,canvas.Screen,0_3_0_0_0_11,-999,skipped,,152831,,,152794,,152832,2021-10-25T14:36:35.984Z,152844.94,1635172392,incremental,ni_sequenzen,NI_Sequenzen,12,0,,,,,,,,,,,,
,Move,canvas.Screen,0_3_0_0_0_12,-999,skipped,,152835,,,152794,,152835,2021-10-25T14:36:35.988Z,152844.94,1635172392,incremental,ni_sequenzen,NI_Sequenzen,13,0,,,,,,,,,,,,
,Move,canvas.Screen,0_3_0_0_0_13,-999,skipped,,152838,,,152794,,152838,2021-10-25T14:36:35.991Z,152844.94,1635172392,incremental,ni_sequenzen,NI_Sequenzen,14,0,,,,,,,,,,,,
,Move,canvas.Screen,0_3_0_0_0_14,-999,skipped,,152841,,,152794,,152841,2021-10-25T14:36:35.995Z,152844.94,1635172392,incremental,ni_sequenzen,NI_Sequenzen,15,0,,,,,,,,,,,,
,Loop,flow.Loop,0_3_0_0_0,-999,completion,,136341,136346.74,136356.38,152794,16437.619999999995,152841,2021-10-25T14:36:35.995Z,152844.94,1635172392,incremental,ni_sequenzen,NI_Sequenzen,,0,,,,,,,,,,,,
,Feedback,canvas.Screen,0_3_0_0_1,,timeout,,152845,152844.58,152844.94,156829.86,4001.540000000008,156831,2021-10-25T14:36:39.984Z,156846.48,1635172392,incremental,ni_sequenzen,NI_Sequenzen,,0,,,,,,,,,,,,
,Trial,flow.Sequence,0_3_0_0,,completion,,136334,136346.74,136356.38,156829.86,20473.47999999998,156832,2021-10-25T14:36:39.985Z,156863.14,1635172392,incremental,ni_sequenzen,NI_Sequenzen,,0,,,,,,,,,,,,
,Move,canvas.Screen,0_3_0_1_0_0,right,response,,156844,156846.48,156863.14,160107,3243.859999999986,160117,2021-10-25T14:36:43.270Z,160125.4,1635172392,incremental,ni_sequenzen,NI_Sequenzen,1,1,,,,,,,,,,,,
,Move,canvas.Screen,0_3_0_1_0_1,down,response,,160125,160125.08,160125.4,160544,418.6000000000058,160553,2021-10-25T14:36:43.706Z,160562.68,1635172392,incremental,ni_sequenzen,NI_Sequenzen,2,1,,,,,,,,,,,,
,Move,canvas.Screen,0_3_0_1_0_2,right,response,,160563,160562.36,160562.68,160935,372.320000000007,160940,2021-10-25T14:36:44.094Z,160950.3,1635172392,incremental,ni_sequenzen,NI_Sequenzen,3,1,,,,,,,,,,,,
,Move,canvas.Screen,0_3_0_1_0_3,down,response,,160950,160950,160950.3,161357,406.70000000001164,161362,2021-10-25T14:36:44.515Z,161407.78,1635172392,incremental,ni_sequenzen,NI_Sequenzen,4,1,,,,,,,,,,,,
,Move,canvas.Screen,0_3_0_1_0_4,-999,skipped,,161370,,,161357,,161370,2021-10-25T14:36:44.524Z,161407.78,1635172392,incremental,ni_sequenzen,NI_Sequenzen,5,1,,,,,,,,,,,,
,Move,canvas.Screen,0_3_0_1_0_5,-999,skipped,,161374,,,161357,,161374,2021-10-25T14:36:44.527Z,161407.78,1635172392,incremental,ni_sequenzen,NI_Sequenzen,6,1,,,,,,,,,,,,
,Move,canvas.Screen,0_3_0_1_0_6,-999,skipped,,161377,,,161357,,161377,2021-10-25T14:36:44.531Z,161407.78,1635172392,incremental,ni_sequenzen,NI_Sequenzen,7,1,,,,,,,,,,,,
,Move,canvas.Screen,0_3_0_1_0_7,-999,skipped,,161381,,,161357,,161381,2021-10-25T14:36:44.534Z,161407.78,1635172392,incremental,ni_sequenzen,NI_Sequenzen,8,1,,,,,,,,,,,,
,Move,canvas.Screen,0_3_0_1_0_8,-999,skipped,,161384,,,161357,,161384,2021-10-25T14:36:44.537Z,161407.78,1635172392,incremental,ni_sequenzen,NI_Sequenzen,9,1,,,,,,,,,,,,
,Move,canvas.Screen,0_3_0_1_0_9,-999,skipped,,161388,,,161357,,161388,2021-10-25T14:36:44.541Z,161407.78,1635172392,incremental,ni_sequenzen,NI_Sequenzen,10,1,,,,,,,,,,,,
,Move,canvas.Screen,0_3_0_1_0_10,-999,skipped,,161392,,,161357,,161392,2021-10-25T14:36:44.545Z,161407.78,1635172392,incremental,ni_sequenzen,NI_Sequenzen,11,1,,,,,,,,,,,,
,Move,canvas.Screen,0_3_0_1_0_11,-999,skipped,,161395,,,161357,,161395,2021-10-25T14:36:44.548Z,161407.78,1635172392,incremental,ni_sequenzen,NI_Sequenzen,12,1,,,,,,,,,,,,
,Move,canvas.Screen,0_3_0_1_0_12,-999,skipped,,161397,,,161357,,161397,2021-10-25T14:36:44.551Z,161407.78,1635172392,incremental,ni_sequenzen,NI_Sequenzen,13,1,,,,,,,,,,,,
,Move,canvas.Screen,0_3_0_1_0_13,-999,skipped,,161401,,,161357,,161401,2021-10-25T14:36:44.554Z,161407.78,1635172392,incremental,ni_sequenzen,NI_Sequenzen,14,1,,,,,,,,,,,,
,Move,canvas.Screen,0_3_0_1_0_14,-999,skipped,,161404,,,161357,,161404,2021-10-25T14:36:44.558Z,161407.78,1635172392,incremental,ni_sequenzen,NI_Sequenzen,15,1,,,,,,,,,,,,
,Loop,flow.Loop,0_3_0_1_0,-999,completion,,156840,156846.48,156863.14,161357,4493.859999999986,161404,2021-10-25T14:36:44.558Z,161407.78,1635172392,incremental,ni_sequenzen,NI_Sequenzen,,1,,,,,,,,,,,,
,Feedback,canvas.Screen,0_3_0_1_1,,timeout,,161408,161407.56,161407.78,165392.36,4001.220000000001,165393,2021-10-25T14:36:48.547Z,165409,1635172392,incremental,ni_sequenzen,NI_Sequenzen,,1,,,,,,,,,,,,
,Trial,flow.Sequence,0_3_0_1,,completion,,156833,156846.48,156863.14,165392.36,8529.219999999972,165394,2021-10-25T14:36:48.548Z,165425.66,1635172392,incremental,ni_sequenzen,NI_Sequenzen,,1,,,,,,,,,,,,
,Move,canvas.Screen,0_3_0_2_0_0,left,response,,165407,165409,165425.66,168779,3353.3399999999965,168798,2021-10-25T14:36:51.951Z,168805.42,1635172392,incremental,ni_sequenzen,NI_Sequenzen,1,2,,,,,,,,,,,,
,Move,canvas.Screen,0_3_0_2_0_1,down,response,,168805,168805.08,168805.42,169435,629.5799999999872,169445,2021-10-25T14:36:52.599Z,169450.58,1635172392,incremental,ni_sequenzen,NI_Sequenzen,2,2,,,,,,,,,,,,
,Move,canvas.Screen,0_3_0_2_0_2,right,response,,169450,169450.14,169450.58,170810,1359.4200000000128,170813,2021-10-25T14:36:53.967Z,170823.48,1635172392,incremental,ni_sequenzen,NI_Sequenzen,3,2,,,,,,,,,,,,
,Move,canvas.Screen,0_3_0_2_0_3,down,response,,170824,170823.18,170823.48,175794,4970.5199999999895,175814,2021-10-25T14:36:58.967Z,175825.76,1635172392,incremental,ni_sequenzen,NI_Sequenzen,4,2,,,,,,,,,,,,
,Move,canvas.Screen,0_3_0_2_0_4,right,response,,175826,175825.4,175825.76,176841,1015.2399999999907,176848,2021-10-25T14:37:00.002Z,176905.78,1635172392,incremental,ni_sequenzen,NI_Sequenzen,5,2,,,,,,,,,,,,
,Move,canvas.Screen,0_3_0_2_0_5,-999,skipped,,176859,,,176841,,176859,2021-10-25T14:37:00.013Z,176905.78,1635172392,incremental,ni_sequenzen,NI_Sequenzen,6,2,,,,,,,,,,,,
,Move,canvas.Screen,0_3_0_2_0_6,-999,skipped,,176866,,,176841,,176866,2021-10-25T14:37:00.020Z,176905.78,1635172392,incremental,ni_sequenzen,NI_Sequenzen,7,2,,,,,,,,,,,,
,Move,canvas.Screen,0_3_0_2_0_7,-999,skipped,,176874,,,176841,,176874,2021-10-25T14:37:00.027Z,176905.78,1635172392,incremental,ni_sequenzen,NI_Sequenzen,8,2,,,,,,,,,,,,
,Move,canvas.Screen,0_3_0_2_0_8,-999,skipped,,176878,,,176841,,176878,2021-10-25T14:37:00.031Z,176905.78,1635172392,incremental,ni_sequenzen,NI_Sequenzen,9,2,,,,,,,,,,,,
,Move,canvas.Screen,0_3_0_2_0_9,-999,skipped,,176882,,,176841,,176882,2021-10-25T14:37:00.036Z,176905.78,1635172392,incremental,ni_sequenzen,NI_Sequenzen,10,2,,,,,,,,,,,,
,Move,canvas.Screen,0_3_0_2_0_10,-999,skipped,,176887,,,176841,,176887,2021-10-25T14:37:00.040Z,176905.78,1635172392,incremental,ni_sequenzen,NI_Sequenzen,11,2,,,,,,,,,,,,
,Move,canvas.Screen,0_3_0_2_0_11,-999,skipped,,176891,,,176841,,176891,2021-10-25T14:37:00.045Z,176905.78,1635172392,incremental,ni_sequenzen,NI_Sequenzen,12,2,,,,,,,,,,,,
,Move,canvas.Screen,0_3_0_2_0_12,-999,skipped,,176895,,,176841,,176895,2021-10-25T14:37:00.048Z,176905.78,1635172392,incremental,ni_sequenzen,NI_Sequenzen,13,2,,,,,,,,,,,,
,Move,canvas.Screen,0_3_0_2_0_13,-999,skipped,,176899,,,176841,,176899,2021-10-25T14:37:00.052Z,176905.78,1635172392,incremental,ni_sequenzen,NI_Sequenzen,14,2,,,,,,,,,,,,
,Move,canvas.Screen,0_3_0_2_0_14,-999,skipped,,176903,,,176841,,176903,2021-10-25T14:37:00.055Z,176905.78,1635172392,incremental,ni_sequenzen,NI_Sequenzen,15,2,,,,,,,,,,,,
,Loop,flow.Loop,0_3_0_2_0,-999,completion,,165403,165409,165425.66,176841,11415.339999999997,176903,2021-10-25T14:37:00.056Z,176905.78,1635172392,incremental,ni_sequenzen,NI_Sequenzen,,2,,,,,,,,,,,,
,Feedback,canvas.Screen,0_3_0_2_1,,timeout,,176906,176905.48,176905.78,180884.82,3999.679999999993,180886,2021-10-25T14:37:04.040Z,180905.46,1635172392,incremental,ni_sequenzen,NI_Sequenzen,,2,,,,,,,,,,,,
,Trial,flow.Sequence,0_3_0_2,,completion,,165395,165409,165425.66,180884.82,15459.160000000003,180887,2021-10-25T14:37:04.040Z,180918.12,1635172392,incremental,ni_sequenzen,NI_Sequenzen,,2,,,,,,,,,,,,
,Move,canvas.Screen,0_3_0_3_0_0,down,response,,180905,180905.46,180918.12,181201,282.88000000000466,181218,2021-10-25T14:37:04.372Z,181226.92,1635172392,incremental,ni_sequenzen,NI_Sequenzen,1,3,,,,,,,,,,,,
,Move,canvas.Screen,0_3_0_3_0_1,right,response,,181226,181226.62,181226.92,183154,1927.0799999999872,183169,2021-10-25T14:37:06.323Z,183179.38,1635172392,incremental,ni_sequenzen,NI_Sequenzen,2,3,,,,,,,,,,,,
,Move,canvas.Screen,0_3_0_3_0_2,right,response,,183179,183179.06,183179.38,183623,443.61999999999534,183629,2021-10-25T14:37:06.782Z,183637.42,1635172392,incremental,ni_sequenzen,NI_Sequenzen,3,3,,,,,,,,,,,,
,Move,canvas.Screen,0_3_0_3_0_3,down,response,,183637,183637.1,183637.42,185169,1531.5799999999872,185178,2021-10-25T14:37:08.331Z,185223.88,1635172392,incremental,ni_sequenzen,NI_Sequenzen,4,3,,,,,,,,,,,,
,Move,canvas.Screen,0_3_0_3_0_4,-999,skipped,,185184,,,185169,,185184,2021-10-25T14:37:08.338Z,185223.88,1635172392,incremental,ni_sequenzen,NI_Sequenzen,5,3,,,,,,,,,,,,
,Move,canvas.Screen,0_3_0_3_0_5,-999,skipped,,185190,,,185169,,185190,2021-10-25T14:37:08.343Z,185223.88,1635172392,incremental,ni_sequenzen,NI_Sequenzen,6,3,,,,,,,,,,,,
,Move,canvas.Screen,0_3_0_3_0_6,-999,skipped,,185193,,,185169,,185193,2021-10-25T14:37:08.347Z,185223.88,1635172392,incremental,ni_sequenzen,NI_Sequenzen,7,3,,,,,,,,,,,,
,Move,canvas.Screen,0_3_0_3_0_7,-999,skipped,,185196,,,185169,,185196,2021-10-25T14:37:08.350Z,185223.88,1635172392,incremental,ni_sequenzen,NI_Sequenzen,8,3,,,,,,,,,,,,
,Move,canvas.Screen,0_3_0_3_0_8,-999,skipped,,185201,,,185169,,185201,2021-10-25T14:37:08.354Z,185223.88,1635172392,incremental,ni_sequenzen,NI_Sequenzen,9,3,,,,,,,,,,,,
,Move,canvas.Screen,0_3_0_3_0_9,-999,skipped,,185204,,,185169,,185204,2021-10-25T14:37:08.358Z,185223.88,1635172392,incremental,ni_sequenzen,NI_Sequenzen,10,3,,,,,,,,,,,,
,Move,canvas.Screen,0_3_0_3_0_10,-999,skipped,,185207,,,185169,,185207,2021-10-25T14:37:08.361Z,185223.88,1635172392,incremental,ni_sequenzen,NI_Sequenzen,11,3,,,,,,,,,,,,
,Move,canvas.Screen,0_3_0_3_0_11,-999,skipped,,185210,,,185169,,185210,2021-10-25T14:37:08.363Z,185223.88,1635172392,incremental,ni_sequenzen,NI_Sequenzen,12,3,,,,,,,,,,,,
,Move,canvas.Screen,0_3_0_3_0_12,-999,skipped,,185213,,,185169,,185213,2021-10-25T14:37:08.367Z,185223.88,1635172392,incremental,ni_sequenzen,NI_Sequenzen,13,3,,,,,,,,,,,,
,Move,canvas.Screen,0_3_0_3_0_13,-999,skipped,,185218,,,185169,,185218,2021-10-25T14:37:08.371Z,185223.88,1635172392,incremental,ni_sequenzen,NI_Sequenzen,14,3,,,,,,,,,,,,
,Move,canvas.Screen,0_3_0_3_0_14,-999,skipped,,185221,,,185169,,185221,2021-10-25T14:37:08.373Z,185223.88,1635172392,incremental,ni_sequenzen,NI_Sequenzen,15,3,,,,,,,,,,,,
,Loop,flow.Loop,0_3_0_3_0,-999,completion,,180902,180905.46,180918.12,185169,4250.880000000005,185221,2021-10-25T14:37:08.374Z,185223.88,1635172392,incremental,ni_sequenzen,NI_Sequenzen,,3,,,,,,,,,,,,
,Feedback,canvas.Screen,0_3_0_3_1,,timeout,,185224,185223.6,185223.88,189214.14,4006.8800000000047,189216,2021-10-25T14:37:12.369Z,189230.76,1635172392,incremental,ni_sequenzen,NI_Sequenzen,,3,,,,,,,,,,,,
,Trial,flow.Sequence,0_3_0_3,,completion,,180889,180905.46,180918.12,189214.14,8296.020000000019,189216,2021-10-25T14:37:12.369Z,189247.44,1635172392,incremental,ni_sequenzen,NI_Sequenzen,,3,,,,,,,,,,,,
,Move,canvas.Screen,0_3_0_4_0_0,right,response,,189231,189230.76,189247.44,202232,12984.559999999998,202248,2021-10-25T14:37:25.401Z,202255.82,1635172392,incremental,ni_sequenzen,NI_Sequenzen,1,4,,,,,,,,,,,,
,Move,canvas.Screen,0_3_0_4_0_1,down,response,,202256,202255.56,202255.82,202638,382.179999999993,202649,2021-10-25T14:37:25.802Z,202656.7,1635172392,incremental,ni_sequenzen,NI_Sequenzen,2,4,,,,,,,,,,,,
,Move,canvas.Screen,0_3_0_4_0_2,right,response,,202657,202656.44,202656.7,203076,419.29999999998836,203080,2021-10-25T14:37:26.233Z,203088.6,1635172392,incremental,ni_sequenzen,NI_Sequenzen,3,4,,,,,,,,,,,,
,Move,canvas.Screen,0_3_0_4_0_3,down,response,,203088,203088.2,203088.6,203419,330.3999999999942,203426,2021-10-25T14:37:26.579Z,203467.96,1635172392,incremental,ni_sequenzen,NI_Sequenzen,4,4,,,,,,,,,,,,
,Move,canvas.Screen,0_3_0_4_0_4,-999,skipped,,203432,,,203419,,203432,2021-10-25T14:37:26.586Z,203467.96,1635172392,incremental,ni_sequenzen,NI_Sequenzen,5,4,,,,,,,,,,,,
,Move,canvas.Screen,0_3_0_4_0_5,-999,skipped,,203437,,,203419,,203437,2021-10-25T14:37:26.589Z,203467.96,1635172392,incremental,ni_sequenzen,NI_Sequenzen,6,4,,,,,,,,,,,,
,Move,canvas.Screen,0_3_0_4_0_6,-999,skipped,,203440,,,203419,,203440,2021-10-25T14:37:26.593Z,203467.96,1635172392,incremental,ni_sequenzen,NI_Sequenzen,7,4,,,,,,,,,,,,
,Move,canvas.Screen,0_3_0_4_0_7,-999,skipped,,203443,,,203419,,203443,2021-10-25T14:37:26.596Z,203467.96,1635172392,incremental,ni_sequenzen,NI_Sequenzen,8,4,,,,,,,,,,,,
,Move,canvas.Screen,0_3_0_4_0_8,-999,skipped,,203446,,,203419,,203446,2021-10-25T14:37:26.599Z,203467.96,1635172392,incremental,ni_sequenzen,NI_Sequenzen,9,4,,,,,,,,,,,,
,Move,canvas.Screen,0_3_0_4_0_9,-999,skipped,,203450,,,203419,,203450,2021-10-25T14:37:26.604Z,203467.96,1635172392,incremental,ni_sequenzen,NI_Sequenzen,10,4,,,,,,,,,,,,
,Move,canvas.Screen,0_3_0_4_0_10,-999,skipped,,203453,,,203419,,203453,2021-10-25T14:37:26.606Z,203467.96,1635172392,incremental,ni_sequenzen,NI_Sequenzen,11,4,,,,,,,,,,,,
,Move,canvas.Screen,0_3_0_4_0_11,-999,skipped,,203455,,,203419,,203455,2021-10-25T14:37:26.609Z,203467.96,1635172392,incremental,ni_sequenzen,NI_Sequenzen,12,4,,,,,,,,,,,,
,Move,canvas.Screen,0_3_0_4_0_12,-999,skipped,,203458,,,203419,,203458,2021-10-25T14:37:26.612Z,203467.96,1635172392,incremental,ni_sequenzen,NI_Sequenzen,13,4,,,,,,,,,,,,
,Move,canvas.Screen,0_3_0_4_0_13,-999,skipped,,203462,,,203419,,203462,2021-10-25T14:37:26.615Z,203467.96,1635172392,incremental,ni_sequenzen,NI_Sequenzen,14,4,,,,,,,,,,,,
,Move,canvas.Screen,0_3_0_4_0_14,-999,skipped,,203465,,,203419,,203465,2021-10-25T14:37:26.618Z,203467.96,1635172392,incremental,ni_sequenzen,NI_Sequenzen,15,4,,,,,,,,,,,,
,Loop,flow.Loop,0_3_0_4_0,-999,completion,,189227,189230.76,189247.44,203419,14171.559999999998,203465,2021-10-25T14:37:26.618Z,203467.96,1635172392,incremental,ni_sequenzen,NI_Sequenzen,,4,,,,,,,,,,,,
,Feedback,canvas.Screen,0_3_0_4_1,,timeout,,203467,203467.62,203467.96,207455.2,4003.899999999994,207456,2021-10-25T14:37:30.609Z,207471.86,1635172392,incremental,ni_sequenzen,NI_Sequenzen,,4,,,,,,,,,,,,
,Trial,flow.Sequence,0_3_0_4,,completion,,189217,189230.76,189247.44,207455.2,18207.76000000001,207456,2021-10-25T14:37:30.609Z,207488.52,1635172392,incremental,ni_sequenzen,NI_Sequenzen,,4,,,,,,,,,,,,
,Move,canvas.Screen,0_3_0_5_0_0,left,response,,207466,207471.86,207488.52,214467,6978.4800000000105,214475,2021-10-25T14:37:37.628Z,214485.12,1635172392,incremental,ni_sequenzen,NI_Sequenzen,1,5,,,,,,,,,,,,
,Move,canvas.Screen,0_3_0_5_0_1,down,response,,214483,214483.66,214485.12,214935,449.88000000000466,214945,2021-10-25T14:37:38.099Z,214953.82,1635172392,incremental,ni_sequenzen,NI_Sequenzen,2,5,,,,,,,,,,,,
,Move,canvas.Screen,0_3_0_5_0_2,right,response,,214954,214953.56,214953.82,216060,1106.179999999993,216072,2021-10-25T14:37:39.225Z,216078.74,1635172392,incremental,ni_sequenzen,NI_Sequenzen,3,5,,,,,,,,,,,,
,Move,canvas.Screen,0_3_0_5_0_3,right,response,,216078,216078.48,216078.74,218919,2840.2600000000093,218923,2021-10-25T14:37:42.076Z,218962.5,1635172392,incremental,ni_sequenzen,NI_Sequenzen,4,5,,,,,,,,,,,,
,Move,canvas.Screen,0_3_0_5_0_4,-999,skipped,,218928,,,218919,,218928,2021-10-25T14:37:42.081Z,218962.5,1635172392,incremental,ni_sequenzen,NI_Sequenzen,5,5,,,,,,,,,,,,
,Move,canvas.Screen,0_3_0_5_0_5,-999,skipped,,218931,,,218919,,218931,2021-10-25T14:37:42.084Z,218962.5,1635172392,incremental,ni_sequenzen,NI_Sequenzen,6,5,,,,,,,,,,,,
,Move,canvas.Screen,0_3_0_5_0_6,-999,skipped,,218934,,,218919,,218934,2021-10-25T14:37:42.087Z,218962.5,1635172392,incremental,ni_sequenzen,NI_Sequenzen,7,5,,,,,,,,,,,,
,Move,canvas.Screen,0_3_0_5_0_7,-999,skipped,,218937,,,218919,,218937,2021-10-25T14:37:42.091Z,218962.5,1635172392,incremental,ni_sequenzen,NI_Sequenzen,8,5,,,,,,,,,,,,
,Move,canvas.Screen,0_3_0_5_0_8,-999,skipped,,218939,,,218919,,218939,2021-10-25T14:37:42.093Z,218962.5,1635172392,incremental,ni_sequenzen,NI_Sequenzen,9,5,,,,,,,,,,,,
,Move,canvas.Screen,0_3_0_5_0_9,-999,skipped,,218943,,,218919,,218943,2021-10-25T14:37:42.097Z,218962.5,1635172392,incremental,ni_sequenzen,NI_Sequenzen,10,5,,,,,,,,,,,,
,Move,canvas.Screen,0_3_0_5_0_10,-999,skipped,,218946,,,218919,,218946,2021-10-25T14:37:42.099Z,218962.5,1635172392,incremental,ni_sequenzen,NI_Sequenzen,11,5,,,,,,,,,,,,
,Move,canvas.Screen,0_3_0_5_0_11,-999,skipped,,218949,,,218919,,218949,2021-10-25T14:37:42.103Z,218962.5,1635172392,incremental,ni_sequenzen,NI_Sequenzen,12,5,,,,,,,,,,,,
,Move,canvas.Screen,0_3_0_5_0_12,-999,skipped,,218953,,,218919,,218953,2021-10-25T14:37:42.107Z,218962.5,1635172392,incremental,ni_sequenzen,NI_Sequenzen,13,5,,,,,,,,,,,,
,Move,canvas.Screen,0_3_0_5_0_13,-999,skipped,,218957,,,218919,,218957,2021-10-25T14:37:42.110Z,218962.5,1635172392,incremental,ni_sequenzen,NI_Sequenzen,14,5,,,,,,,,,,,,
,Move,canvas.Screen,0_3_0_5_0_14,-999,skipped,,218960,,,218919,,218960,2021-10-25T14:37:42.113Z,218962.5,1635172392,incremental,ni_sequenzen,NI_Sequenzen,15,5,,,,,,,,,,,,
,Loop,flow.Loop,0_3_0_5_0,-999,completion,,207463,207471.86,207488.52,218919,11430.48000000001,218960,2021-10-25T14:37:42.113Z,218962.5,1635172392,incremental,ni_sequenzen,NI_Sequenzen,,5,,,,,,,,,,,,
,Feedback,canvas.Screen,0_3_0_5_1,,timeout,,218962,218962.2,218962.5,222947.8,4001.920000000013,222949,2021-10-25T14:37:46.103Z,222964.42,1635172392,incremental,ni_sequenzen,NI_Sequenzen,,5,,,,,,,,,,,,
,Trial,flow.Sequence,0_3_0_5,,completion,,207456,207471.86,207488.52,222947.8,15459.279999999999,222950,2021-10-25T14:37:46.103Z,222981,1635172392,incremental,ni_sequenzen,NI_Sequenzen,,5,,,,,,,,,,,,
,Move,canvas.Screen,0_3_0_6_0_0,right,response,,222961,222964.42,222981,228044,5063,228060,2021-10-25T14:37:51.213Z,228065.42,1635172392,incremental,ni_sequenzen,NI_Sequenzen,1,6,,,,,,,,,,,,
,Move,canvas.Screen,0_3_0_6_0_1,down,response,,228065,228065.22,228065.42,228513,447.5799999999872,228528,2021-10-25T14:37:51.681Z,228536.86,1635172392,incremental,ni_sequenzen,NI_Sequenzen,2,6,,,,,,,,,,,,
,Move,canvas.Screen,0_3_0_6_0_2,right,response,,228537,228536.5,228536.86,230076,1539.140000000014,230088,2021-10-25T14:37:53.242Z,230099.2,1635172392,incremental,ni_sequenzen,NI_Sequenzen,3,6,,,,,,,,,,,,
,Move,canvas.Screen,0_3_0_6_0_3,down,response,,230099,230098.86,230099.2,230373,273.79999999998836,230384,2021-10-25T14:37:53.537Z,230447.76,1635172392,incremental,ni_sequenzen,NI_Sequenzen,4,6,,,,,,,,,,,,
,Move,canvas.Screen,0_3_0_6_0_4,-999,skipped,,230399,,,230373,,230399,2021-10-25T14:37:53.552Z,230447.76,1635172392,incremental,ni_sequenzen,NI_Sequenzen,5,6,,,,,,,,,,,,
,Move,canvas.Screen,0_3_0_6_0_5,-999,skipped,,230405,,,230373,,230405,2021-10-25T14:37:53.558Z,230447.76,1635172392,incremental,ni_sequenzen,NI_Sequenzen,6,6,,,,,,,,,,,,
,Move,canvas.Screen,0_3_0_6_0_6,-999,skipped,,230410,,,230373,,230411,2021-10-25T14:37:53.564Z,230447.76,1635172392,incremental,ni_sequenzen,NI_Sequenzen,7,6,,,,,,,,,,,,
,Move,canvas.Screen,0_3_0_6_0_7,-999,skipped,,230415,,,230373,,230415,2021-10-25T14:37:53.569Z,230447.76,1635172392,incremental,ni_sequenzen,NI_Sequenzen,8,6,,,,,,,,,,,,
,Move,canvas.Screen,0_3_0_6_0_8,-999,skipped,,230420,,,230373,,230420,2021-10-25T14:37:53.573Z,230447.76,1635172392,incremental,ni_sequenzen,NI_Sequenzen,9,6,,,,,,,,,,,,
,Move,canvas.Screen,0_3_0_6_0_9,-999,skipped,,230424,,,230373,,230424,2021-10-25T14:37:53.577Z,230447.76,1635172392,incremental,ni_sequenzen,NI_Sequenzen,10,6,,,,,,,,,,,,
,Move,canvas.Screen,0_3_0_6_0_10,-999,skipped,,230429,,,230373,,230429,2021-10-25T14:37:53.583Z,230447.76,1635172392,incremental,ni_sequenzen,NI_Sequenzen,11,6,,,,,,,,,,,,
,Move,canvas.Screen,0_3_0_6_0_11,-999,skipped,,230432,,,230373,,230433,2021-10-25T14:37:53.586Z,230447.76,1635172392,incremental,ni_sequenzen,NI_Sequenzen,12,6,,,,,,,,,,,,
,Move,canvas.Screen,0_3_0_6_0_12,-999,skipped,,230435,,,230373,,230436,2021-10-25T14:37:53.589Z,230447.76,1635172392,incremental,ni_sequenzen,NI_Sequenzen,13,6,,,,,,,,,,,,
,Move,canvas.Screen,0_3_0_6_0_13,-999,skipped,,230440,,,230373,,230441,2021-10-25T14:37:53.594Z,230447.76,1635172392,incremental,ni_sequenzen,NI_Sequenzen,14,6,,,,,,,,,,,,
,Move,canvas.Screen,0_3_0_6_0_14,-999,skipped,,230444,,,230373,,230444,2021-10-25T14:37:53.597Z,230447.76,1635172392,incremental,ni_sequenzen,NI_Sequenzen,15,6,,,,,,,,,,,,
,Loop,flow.Loop,0_3_0_6_0,-999,completion,,222958,222964.42,222981,230373,7392,230444,2021-10-25T14:37:53.598Z,230447.76,1635172392,incremental,ni_sequenzen,NI_Sequenzen,,6,,,,,,,,,,,,
,Feedback,canvas.Screen,0_3_0_6_1,,timeout,,230448,230447.46,230447.76,234425.44,3997.399999999994,234427,2021-10-25T14:37:57.580Z,234445.16,1635172392,incremental,ni_sequenzen,NI_Sequenzen,,6,,,,,,,,,,,,
,Trial,flow.Sequence,0_3_0_6,,completion,,222951,222964.42,222981,234425.44,11444.440000000002,234427,2021-10-25T14:37:57.580Z,234458.74,1635172392,incremental,ni_sequenzen,NI_Sequenzen,,6,,,,,,,,,,,,
,Move,canvas.Screen,0_3_0_7_0_0,left,response,,234445,234445.16,234458.74,242669,8210.26000000001,242686,2021-10-25T14:38:05.839Z,242693.92,1635172392,incremental,ni_sequenzen,NI_Sequenzen,1,7,,,,,,,,,,,,
,Move,canvas.Screen,0_3_0_7_0_1,down,response,,242693,242693.62,242693.92,245294,2600.079999999987,245304,2021-10-25T14:38:08.456Z,245311.76,1635172392,incremental,ni_sequenzen,NI_Sequenzen,2,7,,,,,,,,,,,,
,Move,canvas.Screen,0_3_0_7_0_2,down,response,,245311,245311.44,245311.76,248513,3201.2399999999907,248517,2021-10-25T14:38:11.670Z,248525.08,1635172392,incremental,ni_sequenzen,NI_Sequenzen,3,7,,,,,,,,,,,,
,Move,canvas.Screen,0_3_0_7_0_3,left,response,,248524,248524.86,248525.08,249249,723.9200000000128,249264,2021-10-25T14:38:12.417Z,249306.54,1635172392,incremental,ni_sequenzen,NI_Sequenzen,4,7,,,,,,,,,,,,
,Move,canvas.Screen,0_3_0_7_0_4,-999,skipped,,249269,,,249249,,249269,2021-10-25T14:38:12.423Z,249306.54,1635172392,incremental,ni_sequenzen,NI_Sequenzen,5,7,,,,,,,,,,,,
,Move,canvas.Screen,0_3_0_7_0_5,-999,skipped,,249273,,,249249,,249273,2021-10-25T14:38:12.427Z,249306.54,1635172392,incremental,ni_sequenzen,NI_Sequenzen,6,7,,,,,,,,,,,,
,Move,canvas.Screen,0_3_0_7_0_6,-999,skipped,,249277,,,249249,,249277,2021-10-25T14:38:12.430Z,249306.54,1635172392,incremental,ni_sequenzen,NI_Sequenzen,7,7,,,,,,,,,,,,
,Move,canvas.Screen,0_3_0_7_0_7,-999,skipped,,249280,,,249249,,249280,2021-10-25T14:38:12.434Z,249306.54,1635172392,incremental,ni_sequenzen,NI_Sequenzen,8,7,,,,,,,,,,,,
,Move,canvas.Screen,0_3_0_7_0_8,-999,skipped,,249284,,,249249,,249284,2021-10-25T14:38:12.438Z,249306.54,1635172392,incremental,ni_sequenzen,NI_Sequenzen,9,7,,,,,,,,,,,,
,Move,canvas.Screen,0_3_0_7_0_9,-999,skipped,,249287,,,249249,,249287,2021-10-25T14:38:12.440Z,249306.54,1635172392,incremental,ni_sequenzen,NI_Sequenzen,10,7,,,,,,,,,,,,
,Move,canvas.Screen,0_3_0_7_0_10,-999,skipped,,249290,,,249249,,249290,2021-10-25T14:38:12.443Z,249306.54,1635172392,incremental,ni_sequenzen,NI_Sequenzen,11,7,,,,,,,,,,,,
,Move,canvas.Screen,0_3_0_7_0_11,-999,skipped,,249294,,,249249,,249294,2021-10-25T14:38:12.447Z,249306.54,1635172392,incremental,ni_sequenzen,NI_Sequenzen,12,7,,,,,,,,,,,,
,Move,canvas.Screen,0_3_0_7_0_12,-999,skipped,,249297,,,249249,,249297,2021-10-25T14:38:12.450Z,249306.54,1635172392,incremental,ni_sequenzen,NI_Sequenzen,13,7,,,,,,,,,,,,
,Move,canvas.Screen,0_3_0_7_0_13,-999,skipped,,249300,,,249249,,249300,2021-10-25T14:38:12.453Z,249306.54,1635172392,incremental,ni_sequenzen,NI_Sequenzen,14,7,,,,,,,,,,,,
,Move,canvas.Screen,0_3_0_7_0_14,-999,skipped,,249303,,,249249,,249303,2021-10-25T14:38:12.456Z,249306.54,1635172392,incremental,ni_sequenzen,NI_Sequenzen,15,7,,,,,,,,,,,,
,Loop,flow.Loop,0_3_0_7_0,-999,completion,,234441,234445.16,234458.74,249249,14790.26000000001,249303,2021-10-25T14:38:12.457Z,249306.54,1635172392,incremental,ni_sequenzen,NI_Sequenzen,,7,,,,,,,,,,,,
,Feedback,canvas.Screen,0_3_0_7_1,,timeout,,249306,249305.56,249306.54,253283,3993,253284,2021-10-25T14:38:16.438Z,253299.54,1635172392,incremental,ni_sequenzen,NI_Sequenzen,,7,,,,,,,,,,,,
,Trial,flow.Sequence,0_3_0_7,,completion,,234429,234445.16,234458.74,253283,18824.26000000001,253285,2021-10-25T14:38:16.439Z,253316.22,1635172392,incremental,ni_sequenzen,NI_Sequenzen,,7,,,,,,,,,,,,
,Move,canvas.Screen,0_3_0_8_0_0,left,response,,253300,253299.54,253316.22,259263,5946.779999999999,259272,2021-10-25T14:38:22.426Z,259278.32,1635172392,incremental,ni_sequenzen,NI_Sequenzen,1,8,,,,,,,,,,,,
,Move,canvas.Screen,0_3_0_8_0_1,down,response,,259278,259278,259278.32,259888,609.679999999993,259899,2021-10-25T14:38:23.052Z,259906.72,1635172392,incremental,ni_sequenzen,NI_Sequenzen,2,8,,,,,,,,,,,,
,Move,canvas.Screen,0_3_0_8_0_2,down,response,,259906,259906.46,259906.72,263076,3169.279999999999,263093,2021-10-25T14:38:26.245Z,263098.66,1635172392,incremental,ni_sequenzen,NI_Sequenzen,3,8,,,,,,,,,,,,
,Move,canvas.Screen,0_3_0_8_0_3,left,response,,263099,263098.34,263098.66,263889,790.3400000000256,263894,2021-10-25T14:38:27.048Z,263936.92,1635172392,incremental,ni_sequenzen,NI_Sequenzen,4,8,,,,,,,,,,,,
,Move,canvas.Screen,0_3_0_8_0_4,-999,skipped,,263901,,,263889,,263901,2021-10-25T14:38:27.054Z,263936.92,1635172392,incremental,ni_sequenzen,NI_Sequenzen,5,8,,,,,,,,,,,,
,Move,canvas.Screen,0_3_0_8_0_5,-999,skipped,,263904,,,263889,,263904,2021-10-25T14:38:27.058Z,263936.92,1635172392,incremental,ni_sequenzen,NI_Sequenzen,6,8,,,,,,,,,,,,
,Move,canvas.Screen,0_3_0_8_0_6,-999,skipped,,263908,,,263889,,263908,2021-10-25T14:38:27.061Z,263936.92,1635172392,incremental,ni_sequenzen,NI_Sequenzen,7,8,,,,,,,,,,,,
,Move,canvas.Screen,0_3_0_8_0_7,-999,skipped,,263912,,,263889,,263912,2021-10-25T14:38:27.065Z,263936.92,1635172392,incremental,ni_sequenzen,NI_Sequenzen,8,8,,,,,,,,,,,,
,Move,canvas.Screen,0_3_0_8_0_8,-999,skipped,,263915,,,263889,,263915,2021-10-25T14:38:27.068Z,263936.92,1635172392,incremental,ni_sequenzen,NI_Sequenzen,9,8,,,,,,,,,,,,
,Move,canvas.Screen,0_3_0_8_0_9,-999,skipped,,263918,,,263889,,263918,2021-10-25T14:38:27.071Z,263936.92,1635172392,incremental,ni_sequenzen,NI_Sequenzen,10,8,,,,,,,,,,,,
,Move,canvas.Screen,0_3_0_8_0_10,-999,skipped,,263921,,,263889,,263921,2021-10-25T14:38:27.074Z,263936.92,1635172392,incremental,ni_sequenzen,NI_Sequenzen,11,8,,,,,,,,,,,,
,Move,canvas.Screen,0_3_0_8_0_11,-999,skipped,,263924,,,263889,,263924,2021-10-25T14:38:27.078Z,263936.92,1635172392,incremental,ni_sequenzen,NI_Sequenzen,12,8,,,,,,,,,,,,
,Move,canvas.Screen,0_3_0_8_0_12,-999,skipped,,263927,,,263889,,263927,2021-10-25T14:38:27.081Z,263936.92,1635172392,incremental,ni_sequenzen,NI_Sequenzen,13,8,,,,,,,,,,,,
,Move,canvas.Screen,0_3_0_8_0_13,-999,skipped,,263930,,,263889,,263930,2021-10-25T14:38:27.083Z,263936.92,1635172392,incremental,ni_sequenzen,NI_Sequenzen,14,8,,,,,,,,,,,,
,Move,canvas.Screen,0_3_0_8_0_14,-999,skipped,,263934,,,263889,,263934,2021-10-25T14:38:27.086Z,263936.92,1635172392,incremental,ni_sequenzen,NI_Sequenzen,15,8,,,,,,,,,,,,
,Loop,flow.Loop,0_3_0_8_0,-999,completion,,253296,253299.54,253316.22,263889,10572.779999999999,263934,2021-10-25T14:38:27.086Z,263936.92,1635172392,incremental,ni_sequenzen,NI_Sequenzen,,8,,,,,,,,,,,,
,Feedback,canvas.Screen,0_3_0_8_1,,timeout,,263936,263935.82,263936.92,267925.76,4005.5200000000186,267927,2021-10-25T14:38:31.080Z,267942.44,1635172392,incremental,ni_sequenzen,NI_Sequenzen,,8,,,,,,,,,,,,
,Trial,flow.Sequence,0_3_0_8,,completion,,253286,253299.54,253316.22,267925.76,14609.540000000008,267927,2021-10-25T14:38:31.080Z,267959.1,1635172392,incremental,ni_sequenzen,NI_Sequenzen,,8,,,,,,,,,,,,
,Move,canvas.Screen,0_3_0_9_0_0,right,response,,267941,267942.44,267959.1,271685,3725.9000000000233,271695,2021-10-25T14:38:34.848Z,271702.44,1635172392,incremental,ni_sequenzen,NI_Sequenzen,1,9,,,,,,,,,,,,
,Move,canvas.Screen,0_3_0_9_0_1,down,response,,271702,271702.1,271702.44,272201,498.5599999999977,272214,2021-10-25T14:38:35.368Z,272219.72,1635172392,incremental,ni_sequenzen,NI_Sequenzen,2,9,,,,,,,,,,,,
,Move,canvas.Screen,0_3_0_9_0_2,right,response,,272220,272219.44,272219.72,272763,543.2800000000279,272778,2021-10-25T14:38:35.931Z,272782.94,1635172392,incremental,ni_sequenzen,NI_Sequenzen,3,9,,,,,,,,,,,,
,Move,canvas.Screen,0_3_0_9_0_3,down,response,,272783,272782.64,272782.94,273123,340.0599999999977,273139,2021-10-25T14:38:36.292Z,273184.04,1635172392,incremental,ni_sequenzen,NI_Sequenzen,4,9,,,,,,,,,,,,
,Move,canvas.Screen,0_3_0_9_0_4,-999,skipped,,273147,,,273123,,273147,2021-10-25T14:38:36.300Z,273184.04,1635172392,incremental,ni_sequenzen,NI_Sequenzen,5,9,,,,,,,,,,,,
,Move,canvas.Screen,0_3_0_9_0_5,-999,skipped,,273151,,,273123,,273151,2021-10-25T14:38:36.304Z,273184.04,1635172392,incremental,ni_sequenzen,NI_Sequenzen,6,9,,,,,,,,,,,,
,Move,canvas.Screen,0_3_0_9_0_6,-999,skipped,,273154,,,273123,,273154,2021-10-25T14:38:36.307Z,273184.04,1635172392,incremental,ni_sequenzen,NI_Sequenzen,7,9,,,,,,,,,,,,
,Move,canvas.Screen,0_3_0_9_0_7,-999,skipped,,273156,,,273123,,273156,2021-10-25T14:38:36.310Z,273184.04,1635172392,incremental,ni_sequenzen,NI_Sequenzen,8,9,,,,,,,,,,,,
,Move,canvas.Screen,0_3_0_9_0_8,-999,skipped,,273160,,,273123,,273160,2021-10-25T14:38:36.313Z,273184.04,1635172392,incremental,ni_sequenzen,NI_Sequenzen,9,9,,,,,,,,,,,,
,Move,canvas.Screen,0_3_0_9_0_9,-999,skipped,,273163,,,273123,,273163,2021-10-25T14:38:36.316Z,273184.04,1635172392,incremental,ni_sequenzen,NI_Sequenzen,10,9,,,,,,,,,,,,
,Move,canvas.Screen,0_3_0_9_0_10,-999,skipped,,273166,,,273123,,273166,2021-10-25T14:38:36.319Z,273184.04,1635172392,incremental,ni_sequenzen,NI_Sequenzen,11,9,,,,,,,,,,,,
,Move,canvas.Screen,0_3_0_9_0_11,-999,skipped,,273169,,,273123,,273169,2021-10-25T14:38:36.323Z,273184.04,1635172392,incremental,ni_sequenzen,NI_Sequenzen,12,9,,,,,,,,,,,,
,Move,canvas.Screen,0_3_0_9_0_12,-999,skipped,,273173,,,273123,,273173,2021-10-25T14:38:36.326Z,273184.04,1635172392,incremental,ni_sequenzen,NI_Sequenzen,13,9,,,,,,,,,,,,
,Move,canvas.Screen,0_3_0_9_0_13,-999,skipped,,273176,,,273123,,273176,2021-10-25T14:38:36.330Z,273184.04,1635172392,incremental,ni_sequenzen,NI_Sequenzen,14,9,,,,,,,,,,,,
,Move,canvas.Screen,0_3_0_9_0_14,-999,skipped,,273180,,,273123,,273180,2021-10-25T14:38:36.333Z,273184.04,1635172392,incremental,ni_sequenzen,NI_Sequenzen,15,9,,,,,,,,,,,,
,Loop,flow.Loop,0_3_0_9_0,-999,completion,,267936,267942.44,267959.1,273123,5163.900000000023,273180,2021-10-25T14:38:36.333Z,273184.04,1635172392,incremental,ni_sequenzen,NI_Sequenzen,,9,,,,,,,,,,,,
,Feedback,canvas.Screen,0_3_0_9_1,,timeout,,273184,273183.72,273184.04,277171.34,4087.280000000028,277172,2021-10-25T14:38:40.326Z,277271.32,1635172392,incremental,ni_sequenzen,NI_Sequenzen,,9,,,,,,,,,,,,
,Trial,flow.Sequence,0_3_0_9,,completion,,267927,267942.44,267959.1,277171.34,9212.240000000049,277172,2021-10-25T14:38:40.326Z,277271.58,1635172392,incremental,ni_sequenzen,NI_Sequenzen,,9,,,,,,,,,,,,
,Block,flow.Loop,0_3_0,,completion,,136334,136346.74,136356.38,277171.34,140814.96000000002,277173,2021-10-25T14:38:40.326Z,277271.58,1635172392,incremental,ni_sequenzen,NI_Sequenzen,,,,,,,,,,,,,,
,Training_II,flow.Sequence,0_3,,completion,,136319,136346.74,136356.38,277171.34,140814.96000000002,277173,2021-10-25T14:38:40.327Z,277271.58,1635172392,incremental,ni_sequenzen,NI_Sequenzen,,,,,,,,,,,,,,
,Screen_1,canvas.Screen,0_4_0_0,cont,response,1,277271,277271.32,277271.58,284826,7554.419999999984,284833,2021-10-25T14:38:47.986Z,284838.82,1635172392,incremental,ni_sequenzen,NI_Sequenzen,,,,,,,,,,,,,,
,Screen_2,canvas.Screen,0_4_0_1,cont,response,1,284838,284838.64,284838.82,293076,8237.179999999993,293091,2021-10-25T14:38:56.245Z,293197.56,1635172392,incremental,ni_sequenzen,NI_Sequenzen,,,,,,,,,,,,,,
,Screen_3,canvas.Screen,0_4_0_2,cont,response,1,293198,293197.4,293197.56,303216,10018.440000000002,303228,2021-10-25T14:39:06.382Z,303331.54,1635172392,incremental,ni_sequenzen,NI_Sequenzen,,,,,,,,,,,,,,
,Sequence,flow.Sequence,0_4_0,,completion,1,277194,277271.32,277271.58,303216,25944.419999999984,303229,2021-10-25T14:39:06.383Z,303331.54,1635172392,incremental,ni_sequenzen,NI_Sequenzen,,,,,,,,,,,,,,
,Screen_1,canvas.Screen,0_4_1_0,,skipped,2,303233,,,303233,,303233,2021-10-25T14:39:06.386Z,303331.54,1635172392,incremental,ni_sequenzen,NI_Sequenzen,,,,,,,,,,,,,,
,Screen_2,canvas.Screen,0_4_1_1,,skipped,2,303234,,,303233,,303234,2021-10-25T14:39:06.388Z,303331.54,1635172392,incremental,ni_sequenzen,NI_Sequenzen,,,,,,,,,,,,,,
,Screen_3,canvas.Screen,0_4_1_2,,skipped,2,303236,,,303233,,303236,2021-10-25T14:39:06.389Z,303331.54,1635172392,incremental,ni_sequenzen,NI_Sequenzen,,,,,,,,,,,,,,
,Sequence,flow.Sequence,0_4_1,,completion,2,303231,,,303233,,303236,2021-10-25T14:39:06.389Z,303331.54,1635172392,incremental,ni_sequenzen,NI_Sequenzen,,,,,,,,,,,,,,
,Screen_1,canvas.Screen,0_4_2_0,,skipped,3,303237,,,303237,,303237,2021-10-25T14:39:06.391Z,303331.54,1635172392,incremental,ni_sequenzen,NI_Sequenzen,,,,,,,,,,,,,,
,Screen_2,canvas.Screen,0_4_2_1,,skipped,3,303238,,,303237,,303238,2021-10-25T14:39:06.392Z,303331.54,1635172392,incremental,ni_sequenzen,NI_Sequenzen,,,,,,,,,,,,,,
,Screen_3,canvas.Screen,0_4_2_2,,skipped,3,303239,,,303237,,303239,2021-10-25T14:39:06.393Z,303331.54,1635172392,incremental,ni_sequenzen,NI_Sequenzen,,,,,,,,,,,,,,
,Sequence,flow.Sequence,0_4_2,,completion,3,303236,,,303237,,303239,2021-10-25T14:39:06.393Z,303331.54,1635172392,incremental,ni_sequenzen,NI_Sequenzen,,,,,,,,,,,,,,
,Screen_1,canvas.Screen,0_4_3_0,,skipped,4,303240,,,303240,,303240,2021-10-25T14:39:06.394Z,303331.54,1635172392,incremental,ni_sequenzen,NI_Sequenzen,,,,,,,,,,,,,,
,Screen_2,canvas.Screen,0_4_3_1,,skipped,4,303240,,,303240,,303240,2021-10-25T14:39:06.394Z,303331.54,1635172392,incremental,ni_sequenzen,NI_Sequenzen,,,,,,,,,,,,,,
,Screen_3,canvas.Screen,0_4_3_2,,skipped,4,303241,,,303240,,303241,2021-10-25T14:39:06.395Z,303331.54,1635172392,incremental,ni_sequenzen,NI_Sequenzen,,,,,,,,,,,,,,
,Sequence,flow.Sequence,0_4_3,,completion,4,303239,,,303240,,303241,2021-10-25T14:39:06.395Z,303331.54,1635172392,incremental,ni_sequenzen,NI_Sequenzen,,,,,,,,,,,,,,
,Screen_1,canvas.Screen,0_4_4_0,,skipped,5,303242,,,303242,,303242,2021-10-25T14:39:06.396Z,303331.54,1635172392,incremental,ni_sequenzen,NI_Sequenzen,,,,,,,,,,,,,,
,Screen_2,canvas.Screen,0_4_4_1,,skipped,5,303244,,,303242,,303244,2021-10-25T14:39:06.397Z,303331.54,1635172392,incremental,ni_sequenzen,NI_Sequenzen,,,,,,,,,,,,,,
,Screen_3,canvas.Screen,0_4_4_2,,skipped,5,303245,,,303242,,303245,2021-10-25T14:39:06.398Z,303331.54,1635172392,incremental,ni_sequenzen,NI_Sequenzen,,,,,,,,,,,,,,
,Sequence,flow.Sequence,0_4_4,,completion,5,303242,,,303242,,303245,2021-10-25T14:39:06.398Z,303331.54,1635172392,incremental,ni_sequenzen,NI_Sequenzen,,,,,,,,,,,,,,
,Screen_1,canvas.Screen,0_4_5_0,,skipped,6,303246,,,303246,,303246,2021-10-25T14:39:06.399Z,303331.54,1635172392,incremental,ni_sequenzen,NI_Sequenzen,,,,,,,,,,,,,,
,Screen_2,canvas.Screen,0_4_5_1,,skipped,6,303246,,,303246,,303246,2021-10-25T14:39:06.399Z,303331.54,1635172392,incremental,ni_sequenzen,NI_Sequenzen,,,,,,,,,,,,,,
,Screen_3,canvas.Screen,0_4_5_2,,skipped,6,303247,,,303246,,303247,2021-10-25T14:39:06.400Z,303331.54,1635172392,incremental,ni_sequenzen,NI_Sequenzen,,,,,,,,,,,,,,
,Sequence,flow.Sequence,0_4_5,,completion,6,303245,,,303246,,303247,2021-10-25T14:39:06.401Z,303331.54,1635172392,incremental,ni_sequenzen,NI_Sequenzen,,,,,,,,,,,,,,
,Screen_1,canvas.Screen,0_4_6_0,,skipped,7,303248,,,303248,,303248,2021-10-25T14:39:06.402Z,303331.54,1635172392,incremental,ni_sequenzen,NI_Sequenzen,,,,,,,,,,,,,,
,Screen_2,canvas.Screen,0_4_6_1,,skipped,7,303249,,,303248,,303249,2021-10-25T14:39:06.403Z,303331.54,1635172392,incremental,ni_sequenzen,NI_Sequenzen,,,,,,,,,,,,,,
,Screen_3,canvas.Screen,0_4_6_2,,skipped,7,303250,,,303248,,303250,2021-10-25T14:39:06.404Z,303331.54,1635172392,incremental,ni_sequenzen,NI_Sequenzen,,,,,,,,,,,,,,
,Sequence,flow.Sequence,0_4_6,,completion,7,303248,,,303248,,303250,2021-10-25T14:39:06.404Z,303331.54,1635172392,incremental,ni_sequenzen,NI_Sequenzen,,,,,,,,,,,,,,
,Screen_1,canvas.Screen,0_4_7_0,,skipped,8,303251,,,303251,,303251,2021-10-25T14:39:06.405Z,303331.54,1635172392,incremental,ni_sequenzen,NI_Sequenzen,,,,,,,,,,,,,,
,Screen_2,canvas.Screen,0_4_7_1,,skipped,8,303252,,,303251,,303252,2021-10-25T14:39:06.406Z,303331.54,1635172392,incremental,ni_sequenzen,NI_Sequenzen,,,,,,,,,,,,,,
,Screen_3,canvas.Screen,0_4_7_2,,skipped,8,303253,,,303251,,303253,2021-10-25T14:39:06.407Z,303331.54,1635172392,incremental,ni_sequenzen,NI_Sequenzen,,,,,,,,,,,,,,
,Sequence,flow.Sequence,0_4_7,,completion,8,303251,,,303251,,303253,2021-10-25T14:39:06.407Z,303331.54,1635172392,incremental,ni_sequenzen,NI_Sequenzen,,,,,,,,,,,,,,
,Screen_1,canvas.Screen,0_4_8_0,,skipped,9,303254,,,303254,,303254,2021-10-25T14:39:06.408Z,303331.54,1635172392,incremental,ni_sequenzen,NI_Sequenzen,,,,,,,,,,,,,,
,Screen_2,canvas.Screen,0_4_8_1,,skipped,9,303255,,,303254,,303255,2021-10-25T14:39:06.409Z,303331.54,1635172392,incremental,ni_sequenzen,NI_Sequenzen,,,,,,,,,,,,,,
,Screen_3,canvas.Screen,0_4_8_2,,skipped,9,303256,,,303254,,303256,2021-10-25T14:39:06.409Z,303331.54,1635172392,incremental,ni_sequenzen,NI_Sequenzen,,,,,,,,,,,,,,
,Sequence,flow.Sequence,0_4_8,,completion,9,303254,,,303254,,303256,2021-10-25T14:39:06.410Z,303331.54,1635172392,incremental,ni_sequenzen,NI_Sequenzen,,,,,,,,,,,,,,
,Screen_1,canvas.Screen,0_4_9_0,,skipped,10,303257,,,303257,,303257,2021-10-25T14:39:06.411Z,303331.54,1635172392,incremental,ni_sequenzen,NI_Sequenzen,,,,,,,,,,,,,,
,Screen_2,canvas.Screen,0_4_9_1,,skipped,10,303257,,,303257,,303257,2021-10-25T14:39:06.411Z,303331.54,1635172392,incremental,ni_sequenzen,NI_Sequenzen,,,,,,,,,,,,,,
,Screen_3,canvas.Screen,0_4_9_2,,skipped,10,303258,,,303257,,303258,2021-10-25T14:39:06.411Z,303331.54,1635172392,incremental,ni_sequenzen,NI_Sequenzen,,,,,,,,,,,,,,
,Sequence,flow.Sequence,0_4_9,,completion,10,303256,,,303257,,303258,2021-10-25T14:39:06.411Z,303331.54,1635172392,incremental,ni_sequenzen,NI_Sequenzen,,,,,,,,,,,,,,
,Screen_1,canvas.Screen,0_4_10_0,,skipped,11,303259,,,303259,,303259,2021-10-25T14:39:06.412Z,303331.54,1635172392,incremental,ni_sequenzen,NI_Sequenzen,,,,,,,,,,,,,,
,Screen_2,canvas.Screen,0_4_10_1,,skipped,11,303261,,,303259,,303261,2021-10-25T14:39:06.413Z,303331.54,1635172392,incremental,ni_sequenzen,NI_Sequenzen,,,,,,,,,,,,,,
,Screen_3,canvas.Screen,0_4_10_2,,skipped,11,303261,,,303259,,303261,2021-10-25T14:39:06.414Z,303331.54,1635172392,incremental,ni_sequenzen,NI_Sequenzen,,,,,,,,,,,,,,
,Sequence,flow.Sequence,0_4_10,,completion,11,303258,,,303259,,303262,2021-10-25T14:39:06.414Z,303331.54,1635172392,incremental,ni_sequenzen,NI_Sequenzen,,,,,,,,,,,,,,
