meta,sender,sender_type,sender_id,response,ended_on,instrCount,time_run,time_render,time_show,time_end,duration,time_commit,timestamp,time_switch,openLabId,type,task,project,move,trialN,blockN_Train,blockN,moveCount,currPP,points,movesTrial,visitedFields,diff,reward,Strategie,Zweck,Probleme
[object Object],Screen_1,canvas.Screen,0_0_0_0,cont,response,1,1107.5999999940395,1096.289,1163.058,26892.70000000298,25729.64200000298,26901.5,2021-10-28T16:57:11.110Z,27137.537,1635440195,full,ni_sequenzen,NI_Sequenzen,,,,,,,,,,,,,,
,Screen_2,canvas.Screen,0_0_0_1,cont,response,1,27103.89999999106,27104.292,27137.537,41325.39999999106,14187.862999991059,41326.79999999702,2021-10-28T16:57:25.536Z,41440.275,1635440195,full,ni_sequenzen,NI_Sequenzen,,,,,,,,,,,,,,
,Screen_3,canvas.Screen,0_0_0_2,cont,response,1,41399.39999999106,41390.098,41440.275,81332.39999999106,39892.12499999106,81333.89999999106,2021-10-28T16:58:05.543Z,81351.138,1635440195,full,ni_sequenzen,NI_Sequenzen,,,,,,,,,,,,,,
,Screen_4,canvas.Screen,0_0_0_3,cont,response,1,81347,81333.928,81351.138,89189.5,7838.361999999994,89190.89999999106,2021-10-28T16:58:13.400Z,89559.691,1635440195,full,ni_sequenzen,NI_Sequenzen,,,,,,,,,,,,,,
,Sequence,flow.Sequence,0_0_0,,completion,1,1036.2999999970198,1096.289,1163.058,89189.5,88026.442,89200.5,2021-10-28T16:58:13.410Z,89559.691,1635440195,full,ni_sequenzen,NI_Sequenzen,,,,,,,,,,,,,,
,Screen_1,canvas.Screen,0_0_1_0,,skipped,2,89209.79999999702,,,89209.89999999106,,89210.5,2021-10-28T16:58:13.420Z,89559.691,1635440195,full,ni_sequenzen,NI_Sequenzen,,,,,,,,,,,,,,
,Screen_2,canvas.Screen,0_0_1_1,,skipped,2,89216.39999999106,,,89209.89999999106,,89217,2021-10-28T16:58:13.426Z,89559.691,1635440195,full,ni_sequenzen,NI_Sequenzen,,,,,,,,,,,,,,
,Screen_3,canvas.Screen,0_0_1_2,,skipped,2,89223.79999999702,,,89209.89999999106,,89224.39999999106,2021-10-28T16:58:13.433Z,89559.691,1635440195,full,ni_sequenzen,NI_Sequenzen,,,,,,,,,,,,,,
,Screen_4,canvas.Screen,0_0_1_3,,skipped,2,89231.5,,,89209.89999999106,,89232.5,2021-10-28T16:58:13.442Z,89559.691,1635440195,full,ni_sequenzen,NI_Sequenzen,,,,,,,,,,,,,,
,Sequence,flow.Sequence,0_0_1,,completion,2,89203.59999999404,,,89209.89999999106,,89233.5,2021-10-28T16:58:13.443Z,89559.691,1635440195,full,ni_sequenzen,NI_Sequenzen,,,,,,,,,,,,,,
,Screen_1,canvas.Screen,0_0_2_0,,skipped,3,89239.89999999106,,,89240,,89240.59999999404,2021-10-28T16:58:13.450Z,89559.691,1635440195,full,ni_sequenzen,NI_Sequenzen,,,,,,,,,,,,,,
,Screen_2,canvas.Screen,0_0_2_1,,skipped,3,89246.09999999404,,,89240,,89246.70000000298,2021-10-28T16:58:13.456Z,89559.691,1635440195,full,ni_sequenzen,NI_Sequenzen,,,,,,,,,,,,,,
,Screen_3,canvas.Screen,0_0_2_2,,skipped,3,89252.5,,,89240,,89253.09999999404,2021-10-28T16:58:13.462Z,89559.691,1635440195,full,ni_sequenzen,NI_Sequenzen,,,,,,,,,,,,,,
,Screen_4,canvas.Screen,0_0_2_3,,skipped,3,89258.5,,,89240,,89258.89999999106,2021-10-28T16:58:13.468Z,89559.691,1635440195,full,ni_sequenzen,NI_Sequenzen,,,,,,,,,,,,,,
,Sequence,flow.Sequence,0_0_2,,completion,3,89235.59999999404,,,89240,,89259.79999999702,2021-10-28T16:58:13.469Z,89559.691,1635440195,full,ni_sequenzen,NI_Sequenzen,,,,,,,,,,,,,,
,Screen_1,canvas.Screen,0_0_3_0,,skipped,4,89266.5,,,89266.5,,89266.89999999106,2021-10-28T16:58:13.476Z,89559.691,1635440195,full,ni_sequenzen,NI_Sequenzen,,,,,,,,,,,,,,
,Screen_2,canvas.Screen,0_0_3_1,,skipped,4,89274.70000000298,,,89266.5,,89275.59999999404,2021-10-28T16:58:13.485Z,89559.691,1635440195,full,ni_sequenzen,NI_Sequenzen,,,,,,,,,,,,,,
,Screen_3,canvas.Screen,0_0_3_2,,skipped,4,89281.09999999404,,,89266.5,,89281.59999999404,2021-10-28T16:58:13.491Z,89559.691,1635440195,full,ni_sequenzen,NI_Sequenzen,,,,,,,,,,,,,,
,Screen_4,canvas.Screen,0_0_3_3,,skipped,4,89286.79999999702,,,89266.5,,89287.20000000298,2021-10-28T16:58:13.496Z,89559.691,1635440195,full,ni_sequenzen,NI_Sequenzen,,,,,,,,,,,,,,
,Sequence,flow.Sequence,0_0_3,,completion,4,89262.20000000298,,,89266.5,,89288,2021-10-28T16:58:13.497Z,89559.691,1635440195,full,ni_sequenzen,NI_Sequenzen,,,,,,,,,,,,,,
,Screen_1,canvas.Screen,0_0_4_0,,skipped,5,89294.79999999702,,,89294.79999999702,,89295.20000000298,2021-10-28T16:58:13.504Z,89559.691,1635440195,full,ni_sequenzen,NI_Sequenzen,,,,,,,,,,,,,,
,Screen_2,canvas.Screen,0_0_4_1,,skipped,5,89300.5,,,89294.79999999702,,89300.89999999106,2021-10-28T16:58:13.510Z,89559.691,1635440195,full,ni_sequenzen,NI_Sequenzen,,,,,,,,,,,,,,
,Screen_3,canvas.Screen,0_0_4_2,,skipped,5,89306.09999999404,,,89294.79999999702,,89306.79999999702,2021-10-28T16:58:13.516Z,89559.691,1635440195,full,ni_sequenzen,NI_Sequenzen,,,,,,,,,,,,,,
,Screen_4,canvas.Screen,0_0_4_3,,skipped,5,89313.20000000298,,,89294.79999999702,,89313.59999999404,2021-10-28T16:58:13.523Z,89559.691,1635440195,full,ni_sequenzen,NI_Sequenzen,,,,,,,,,,,,,,
,Sequence,flow.Sequence,0_0_4,,completion,5,89290,,,89294.79999999702,,89314.39999999106,2021-10-28T16:58:13.523Z,89559.691,1635440195,full,ni_sequenzen,NI_Sequenzen,,,,,,,,,,,,,,
,Screen_1,canvas.Screen,0_0_5_0,,skipped,6,89320.79999999702,,,89320.79999999702,,89321.20000000298,2021-10-28T16:58:13.530Z,89559.691,1635440195,full,ni_sequenzen,NI_Sequenzen,,,,,,,,,,,,,,
,Screen_2,canvas.Screen,0_0_5_1,,skipped,6,89326.29999999702,,,89320.79999999702,,89327,2021-10-28T16:58:13.536Z,89559.691,1635440195,full,ni_sequenzen,NI_Sequenzen,,,,,,,,,,,,,,
,Screen_3,canvas.Screen,0_0_5_2,,skipped,6,89333.09999999404,,,89320.79999999702,,89333.59999999404,2021-10-28T16:58:13.543Z,89559.691,1635440195,full,ni_sequenzen,NI_Sequenzen,,,,,,,,,,,,,,
,Screen_4,canvas.Screen,0_0_5_3,,skipped,6,89339,,,89320.79999999702,,89339.39999999106,2021-10-28T16:58:13.548Z,89559.691,1635440195,full,ni_sequenzen,NI_Sequenzen,,,,,,,,,,,,,,
,Sequence,flow.Sequence,0_0_5,,completion,6,89316.39999999106,,,89320.79999999702,,89340.09999999404,2021-10-28T16:58:13.549Z,89559.691,1635440195,full,ni_sequenzen,NI_Sequenzen,,,,,,,,,,,,,,
,Screen_1,canvas.Screen,0_0_6_0,,skipped,7,89346.59999999404,,,89346.70000000298,,89347.09999999404,2021-10-28T16:58:13.556Z,89559.691,1635440195,full,ni_sequenzen,NI_Sequenzen,,,,,,,,,,,,,,
,Screen_2,canvas.Screen,0_0_6_1,,skipped,7,89351.89999999106,,,89346.70000000298,,89352.29999999702,2021-10-28T16:58:13.561Z,89559.691,1635440195,full,ni_sequenzen,NI_Sequenzen,,,,,,,,,,,,,,
,Screen_3,canvas.Screen,0_0_6_2,,skipped,7,89360.09999999404,,,89346.70000000298,,89360.39999999106,2021-10-28T16:58:13.569Z,89559.691,1635440195,full,ni_sequenzen,NI_Sequenzen,,,,,,,,,,,,,,
,Screen_4,canvas.Screen,0_0_6_3,,skipped,7,89362.5,,,89346.70000000298,,89362.70000000298,2021-10-28T16:58:13.572Z,89559.691,1635440195,full,ni_sequenzen,NI_Sequenzen,,,,,,,,,,,,,,
,Sequence,flow.Sequence,0_0_6,,completion,7,89342.20000000298,,,89346.70000000298,,89363.09999999404,2021-10-28T16:58:13.572Z,89559.691,1635440195,full,ni_sequenzen,NI_Sequenzen,,,,,,,,,,,,,,
,Screen_1,canvas.Screen,0_0_7_0,,skipped,8,89365.70000000298,,,89365.79999999702,,89366,2021-10-28T16:58:13.575Z,89559.691,1635440195,full,ni_sequenzen,NI_Sequenzen,,,,,,,,,,,,,,
,Screen_2,canvas.Screen,0_0_7_1,,skipped,8,89368,,,89365.79999999702,,89368.20000000298,2021-10-28T16:58:13.577Z,89559.691,1635440195,full,ni_sequenzen,NI_Sequenzen,,,,,,,,,,,,,,
,Screen_3,canvas.Screen,0_0_7_2,,skipped,8,89370.29999999702,,,89365.79999999702,,89370.5,2021-10-28T16:58:13.580Z,89559.691,1635440195,full,ni_sequenzen,NI_Sequenzen,,,,,,,,,,,,,,
,Screen_4,canvas.Screen,0_0_7_3,,skipped,8,89372.59999999404,,,89365.79999999702,,89372.79999999702,2021-10-28T16:58:13.582Z,89559.691,1635440195,full,ni_sequenzen,NI_Sequenzen,,,,,,,,,,,,,,
,Sequence,flow.Sequence,0_0_7,,completion,8,89363.89999999106,,,89365.79999999702,,89373.09999999404,2021-10-28T16:58:13.582Z,89559.691,1635440195,full,ni_sequenzen,NI_Sequenzen,,,,,,,,,,,,,,
,Screen_1,canvas.Screen,0_0_8_0,,skipped,9,89376,,,89376,,89376.20000000298,2021-10-28T16:58:13.585Z,89559.691,1635440195,full,ni_sequenzen,NI_Sequenzen,,,,,,,,,,,,,,
,Screen_2,canvas.Screen,0_0_8_1,,skipped,9,89378.29999999702,,,89376,,89378.39999999106,2021-10-28T16:58:13.588Z,89559.691,1635440195,full,ni_sequenzen,NI_Sequenzen,,,,,,,,,,,,,,
,Screen_3,canvas.Screen,0_0_8_2,,skipped,9,89380.59999999404,,,89376,,89380.79999999702,2021-10-28T16:58:13.590Z,89559.691,1635440195,full,ni_sequenzen,NI_Sequenzen,,,,,,,,,,,,,,
,Screen_4,canvas.Screen,0_0_8_3,,skipped,9,89382.89999999106,,,89376,,89383.09999999404,2021-10-28T16:58:13.592Z,89559.691,1635440195,full,ni_sequenzen,NI_Sequenzen,,,,,,,,,,,,,,
,Sequence,flow.Sequence,0_0_8,,completion,9,89374,,,89376,,89383.39999999106,2021-10-28T16:58:13.592Z,89559.691,1635440195,full,ni_sequenzen,NI_Sequenzen,,,,,,,,,,,,,,
,Screen_1,canvas.Screen,0_0_9_0,,skipped,10,89386.39999999106,,,89386.39999999106,,89386.59999999404,2021-10-28T16:58:13.596Z,89559.691,1635440195,full,ni_sequenzen,NI_Sequenzen,,,,,,,,,,,,,,
,Screen_2,canvas.Screen,0_0_9_1,,skipped,10,89389,,,89386.39999999106,,89389.20000000298,2021-10-28T16:58:13.598Z,89559.691,1635440195,full,ni_sequenzen,NI_Sequenzen,,,,,,,,,,,,,,
,Screen_3,canvas.Screen,0_0_9_2,,skipped,10,89391.29999999702,,,89386.39999999106,,89391.5,2021-10-28T16:58:13.601Z,89559.691,1635440195,full,ni_sequenzen,NI_Sequenzen,,,,,,,,,,,,,,
,Screen_4,canvas.Screen,0_0_9_3,,skipped,10,89395.39999999106,,,89386.39999999106,,89395.5,2021-10-28T16:58:13.605Z,89559.691,1635440195,full,ni_sequenzen,NI_Sequenzen,,,,,,,,,,,,,,
,Sequence,flow.Sequence,0_0_9,,completion,10,89384.29999999702,,,89386.39999999106,,89395.79999999702,2021-10-28T16:58:13.605Z,89559.691,1635440195,full,ni_sequenzen,NI_Sequenzen,,,,,,,,,,,,,,
,Screen_1,canvas.Screen,0_0_10_0,,skipped,11,89398.70000000298,,,89398.70000000298,,89398.79999999702,2021-10-28T16:58:13.608Z,89559.691,1635440195,full,ni_sequenzen,NI_Sequenzen,,,,,,,,,,,,,,
,Screen_2,canvas.Screen,0_0_10_1,,skipped,11,89400.79999999702,,,89398.70000000298,,89401,2021-10-28T16:58:13.610Z,89559.691,1635440195,full,ni_sequenzen,NI_Sequenzen,,,,,,,,,,,,,,
,Screen_3,canvas.Screen,0_0_10_2,,skipped,11,89403.20000000298,,,89398.70000000298,,89403.39999999106,2021-10-28T16:58:13.612Z,89559.691,1635440195,full,ni_sequenzen,NI_Sequenzen,,,,,,,,,,,,,,
,Screen_4,canvas.Screen,0_0_10_3,,skipped,11,89405.5,,,89398.70000000298,,89405.70000000298,2021-10-28T16:58:13.615Z,89559.691,1635440195,full,ni_sequenzen,NI_Sequenzen,,,,,,,,,,,,,,
,Sequence,flow.Sequence,0_0_10,,completion,11,89396.59999999404,,,89398.70000000298,,89406,2021-10-28T16:58:13.615Z,89559.691,1635440195,full,ni_sequenzen,NI_Sequenzen,,,,,,,,,,,,,,
,Screen_1,canvas.Screen,0_0_11_0,,skipped,12,89411.20000000298,,,89421,,89421.39999999106,2021-10-28T16:58:13.630Z,89559.691,1635440195,full,ni_sequenzen,NI_Sequenzen,,,,,,,,,,,,,,
,Screen_2,canvas.Screen,0_0_11_1,,skipped,12,89424.20000000298,,,89421,,89424.29999999702,2021-10-28T16:58:13.633Z,89559.691,1635440195,full,ni_sequenzen,NI_Sequenzen,,,,,,,,,,,,,,
,Screen_3,canvas.Screen,0_0_11_2,,skipped,12,89426.70000000298,,,89421,,89426.89999999106,2021-10-28T16:58:13.636Z,89559.691,1635440195,full,ni_sequenzen,NI_Sequenzen,,,,,,,,,,,,,,
,Screen_4,canvas.Screen,0_0_11_3,,skipped,12,89429.59999999404,,,89421,,89429.79999999702,2021-10-28T16:58:13.639Z,89559.691,1635440195,full,ni_sequenzen,NI_Sequenzen,,,,,,,,,,,,,,
,Sequence,flow.Sequence,0_0_11,,completion,12,89407.79999999702,,,89421,,89430.39999999106,2021-10-28T16:58:13.639Z,89559.691,1635440195,full,ni_sequenzen,NI_Sequenzen,,,,,,,,,,,,,,
,Screen_1,canvas.Screen,0_0_12_0,,skipped,13,89433.20000000298,,,89433.20000000298,,89433.29999999702,2021-10-28T16:58:13.642Z,89559.691,1635440195,full,ni_sequenzen,NI_Sequenzen,,,,,,,,,,,,,,
,Screen_2,canvas.Screen,0_0_12_1,,skipped,13,89435.29999999702,,,89433.20000000298,,89435.5,2021-10-28T16:58:13.645Z,89559.691,1635440195,full,ni_sequenzen,NI_Sequenzen,,,,,,,,,,,,,,
,Screen_3,canvas.Screen,0_0_12_2,,skipped,13,89437.59999999404,,,89433.20000000298,,89437.70000000298,2021-10-28T16:58:13.647Z,89559.691,1635440195,full,ni_sequenzen,NI_Sequenzen,,,,,,,,,,,,,,
,Screen_4,canvas.Screen,0_0_12_3,,skipped,13,89439.79999999702,,,89433.20000000298,,89440,2021-10-28T16:58:13.649Z,89559.691,1635440195,full,ni_sequenzen,NI_Sequenzen,,,,,,,,,,,,,,
,Sequence,flow.Sequence,0_0_12,,completion,13,89431.29999999702,,,89433.20000000298,,89440.29999999702,2021-10-28T16:58:13.649Z,89559.691,1635440195,full,ni_sequenzen,NI_Sequenzen,,,,,,,,,,,,,,
,Screen_1,canvas.Screen,0_0_13_0,,skipped,14,89442.79999999702,,,89442.79999999702,,89443,2021-10-28T16:58:13.652Z,89559.691,1635440195,full,ni_sequenzen,NI_Sequenzen,,,,,,,,,,,,,,
,Screen_2,canvas.Screen,0_0_13_1,,skipped,14,89445.20000000298,,,89442.79999999702,,89445.29999999702,2021-10-28T16:58:13.654Z,89559.691,1635440195,full,ni_sequenzen,NI_Sequenzen,,,,,,,,,,,,,,
,Screen_3,canvas.Screen,0_0_13_2,,skipped,14,89447.39999999106,,,89442.79999999702,,89447.59999999404,2021-10-28T16:58:13.657Z,89559.691,1635440195,full,ni_sequenzen,NI_Sequenzen,,,,,,,,,,,,,,
,Screen_4,canvas.Screen,0_0_13_3,,skipped,14,89449.70000000298,,,89442.79999999702,,89449.89999999106,2021-10-28T16:58:13.659Z,89559.691,1635440195,full,ni_sequenzen,NI_Sequenzen,,,,,,,,,,,,,,
,Sequence,flow.Sequence,0_0_13,,completion,14,89441.09999999404,,,89442.79999999702,,89450.20000000298,2021-10-28T16:58:13.659Z,89559.691,1635440195,full,ni_sequenzen,NI_Sequenzen,,,,,,,,,,,,,,
,Screen_1,canvas.Screen,0_0_14_0,,skipped,15,89452.79999999702,,,89452.79999999702,,89453,2021-10-28T16:58:13.662Z,89559.691,1635440195,full,ni_sequenzen,NI_Sequenzen,,,,,,,,,,,,,,
,Screen_2,canvas.Screen,0_0_14_1,,skipped,15,89454.89999999106,,,89452.79999999702,,89455.09999999404,2021-10-28T16:58:13.664Z,89559.691,1635440195,full,ni_sequenzen,NI_Sequenzen,,,,,,,,,,,,,,
,Screen_3,canvas.Screen,0_0_14_2,,skipped,15,89457.20000000298,,,89452.79999999702,,89457.39999999106,2021-10-28T16:58:13.666Z,89559.691,1635440195,full,ni_sequenzen,NI_Sequenzen,,,,,,,,,,,,,,
,Screen_4,canvas.Screen,0_0_14_3,,skipped,15,89460.59999999404,,,89452.79999999702,,89460.70000000298,2021-10-28T16:58:13.670Z,89559.691,1635440195,full,ni_sequenzen,NI_Sequenzen,,,,,,,,,,,,,,
,Sequence,flow.Sequence,0_0_14,,completion,15,89451.09999999404,,,89452.79999999702,,89461,2021-10-28T16:58:13.670Z,89559.691,1635440195,full,ni_sequenzen,NI_Sequenzen,,,,,,,,,,,,,,
,Screen_1,canvas.Screen,0_0_15_0,,skipped,16,89463.59999999404,,,89463.59999999404,,89463.79999999702,2021-10-28T16:58:13.673Z,89559.691,1635440195,full,ni_sequenzen,NI_Sequenzen,,,,,,,,,,,,,,
,Screen_2,canvas.Screen,0_0_15_1,,skipped,16,89466.5,,,89463.59999999404,,89466.70000000298,2021-10-28T16:58:13.676Z,89559.691,1635440195,full,ni_sequenzen,NI_Sequenzen,,,,,,,,,,,,,,
,Screen_3,canvas.Screen,0_0_15_2,,skipped,16,89470.70000000298,,,89463.59999999404,,89470.89999999106,2021-10-28T16:58:13.680Z,89559.691,1635440195,full,ni_sequenzen,NI_Sequenzen,,,,,,,,,,,,,,
,Screen_4,canvas.Screen,0_0_15_3,,skipped,16,89472.89999999106,,,89463.59999999404,,89473.09999999404,2021-10-28T16:58:13.682Z,89559.691,1635440195,full,ni_sequenzen,NI_Sequenzen,,,,,,,,,,,,,,
,Sequence,flow.Sequence,0_0_15,,completion,16,89461.79999999702,,,89463.59999999404,,89473.39999999106,2021-10-28T16:58:13.682Z,89559.691,1635440195,full,ni_sequenzen,NI_Sequenzen,,,,,,,,,,,,,,
,Screen_1,canvas.Screen,0_0_16_0,,skipped,17,89475.79999999702,,,89475.89999999106,,89476.09999999404,2021-10-28T16:58:13.685Z,89559.691,1635440195,full,ni_sequenzen,NI_Sequenzen,,,,,,,,,,,,,,
,Screen_2,canvas.Screen,0_0_16_1,,skipped,17,89478.39999999106,,,89475.89999999106,,89478.59999999404,2021-10-28T16:58:13.688Z,89559.691,1635440195,full,ni_sequenzen,NI_Sequenzen,,,,,,,,,,,,,,
,Screen_3,canvas.Screen,0_0_16_2,,skipped,17,89481.09999999404,,,89475.89999999106,,89481.39999999106,2021-10-28T16:58:13.690Z,89559.691,1635440195,full,ni_sequenzen,NI_Sequenzen,,,,,,,,,,,,,,
,Screen_4,canvas.Screen,0_0_16_3,,skipped,17,89483.70000000298,,,89475.89999999106,,89483.89999999106,2021-10-28T16:58:13.693Z,89559.691,1635440195,full,ni_sequenzen,NI_Sequenzen,,,,,,,,,,,,,,
,Sequence,flow.Sequence,0_0_16,,completion,17,89474.20000000298,,,89475.89999999106,,89484.29999999702,2021-10-28T16:58:13.693Z,89559.691,1635440195,full,ni_sequenzen,NI_Sequenzen,,,,,,,,,,,,,,
,Screen_1,canvas.Screen,0_0_17_0,,skipped,18,89487.20000000298,,,89487.20000000298,,89487.29999999702,2021-10-28T16:58:13.696Z,89559.691,1635440195,full,ni_sequenzen,NI_Sequenzen,,,,,,,,,,,,,,
,Screen_2,canvas.Screen,0_0_17_1,,skipped,18,89489.20000000298,,,89487.20000000298,,89489.39999999106,2021-10-28T16:58:13.698Z,89559.691,1635440195,full,ni_sequenzen,NI_Sequenzen,,,,,,,,,,,,,,
,Screen_3,canvas.Screen,0_0_17_2,,skipped,18,89491.29999999702,,,89487.20000000298,,89491.59999999404,2021-10-28T16:58:13.701Z,89559.691,1635440195,full,ni_sequenzen,NI_Sequenzen,,,,,,,,,,,,,,
,Screen_4,canvas.Screen,0_0_17_3,,skipped,18,89493.79999999702,,,89487.20000000298,,89494,2021-10-28T16:58:13.703Z,89559.691,1635440195,full,ni_sequenzen,NI_Sequenzen,,,,,,,,,,,,,,
,Sequence,flow.Sequence,0_0_17,,completion,18,89485.39999999106,,,89487.20000000298,,89494.29999999702,2021-10-28T16:58:13.703Z,89559.691,1635440195,full,ni_sequenzen,NI_Sequenzen,,,,,,,,,,,,,,
,Screen_1,canvas.Screen,0_0_18_0,,skipped,19,89496.79999999702,,,89496.79999999702,,89497,2021-10-28T16:58:13.706Z,89559.691,1635440195,full,ni_sequenzen,NI_Sequenzen,,,,,,,,,,,,,,
,Screen_2,canvas.Screen,0_0_18_1,,skipped,19,89500.29999999702,,,89496.79999999702,,89500.39999999106,2021-10-28T16:58:13.710Z,89559.691,1635440195,full,ni_sequenzen,NI_Sequenzen,,,,,,,,,,,,,,
,Screen_3,canvas.Screen,0_0_18_2,,skipped,19,89502.59999999404,,,89496.79999999702,,89502.79999999702,2021-10-28T16:58:13.712Z,89559.691,1635440195,full,ni_sequenzen,NI_Sequenzen,,,,,,,,,,,,,,
,Screen_4,canvas.Screen,0_0_18_3,,skipped,19,89504.79999999702,,,89496.79999999702,,89505,2021-10-28T16:58:13.714Z,89559.691,1635440195,full,ni_sequenzen,NI_Sequenzen,,,,,,,,,,,,,,
,Sequence,flow.Sequence,0_0_18,,completion,19,89495,,,89496.79999999702,,89505.5,2021-10-28T16:58:13.715Z,89559.691,1635440195,full,ni_sequenzen,NI_Sequenzen,,,,,,,,,,,,,,
,Screen_1,canvas.Screen,0_0_19_0,,skipped,20,89508,,,89508,,89508.20000000298,2021-10-28T16:58:13.717Z,89559.691,1635440195,full,ni_sequenzen,NI_Sequenzen,,,,,,,,,,,,,,
,Screen_2,canvas.Screen,0_0_19_1,,skipped,20,89510.39999999106,,,89508,,89510.5,2021-10-28T16:58:13.720Z,89559.691,1635440195,full,ni_sequenzen,NI_Sequenzen,,,,,,,,,,,,,,
,Screen_3,canvas.Screen,0_0_19_2,,skipped,20,89512.59999999404,,,89508,,89512.89999999106,2021-10-28T16:58:13.722Z,89559.691,1635440195,full,ni_sequenzen,NI_Sequenzen,,,,,,,,,,,,,,
,Screen_4,canvas.Screen,0_0_19_3,,skipped,20,89514.89999999106,,,89508,,89515.20000000298,2021-10-28T16:58:13.724Z,89559.691,1635440195,full,ni_sequenzen,NI_Sequenzen,,,,,,,,,,,,,,
,Sequence,flow.Sequence,0_0_19,,completion,20,89506.29999999702,,,89508,,89515.39999999106,2021-10-28T16:58:13.724Z,89559.691,1635440195,full,ni_sequenzen,NI_Sequenzen,,,,,,,,,,,,,,
,Instructions_I,flow.Loop,0_0,,completion,,1034.5,1096.289,1163.058,89508,88344.942,89515.70000000298,2021-10-28T16:58:13.725Z,89559.691,1635440195,full,ni_sequenzen,NI_Sequenzen,,,,,,,,,,,,,,
,Move,canvas.Screen,0_1_0_0,right,response,,89544.20000000298,89543.173,89559.691,91268.29999999702,1708.6089999970136,91270.29999999702,2021-10-28T16:58:15.479Z,91291.394,1635440195,full,ni_sequenzen,NI_Sequenzen,1,,,,,,,,,,,,,
,Move,canvas.Screen,0_1_0_1,left,response,,91283.70000000298,91275.133,91291.394,92007.29999999702,715.9059999970195,92009,2021-10-28T16:58:16.218Z,92024.01,1635440195,full,ni_sequenzen,NI_Sequenzen,2,,,,,,,,,,,,,
,Move,canvas.Screen,0_1_0_2,down,response,,92021.59999999404,92007.477,92024.01,92508.29999999702,484.289999997025,92509.89999999106,2021-10-28T16:58:16.719Z,92523.549,1635440195,full,ni_sequenzen,NI_Sequenzen,3,,,,,,,,,,,,,
,Move,canvas.Screen,0_1_0_3,down,response,,92518.20000000298,92507.06,92523.549,93001,477.45100000000093,93002.29999999702,2021-10-28T16:58:17.211Z,93023.087,1635440195,full,ni_sequenzen,NI_Sequenzen,4,,,,,,,,,,,,,
,Move,canvas.Screen,0_1_0_4,down,response,,93011.09999999404,93006.606,93023.087,93387.70000000298,364.6130000029807,93389.20000000298,2021-10-28T16:58:17.598Z,93422.77,1635440195,full,ni_sequenzen,NI_Sequenzen,5,,,,,,,,,,,,,
,Move,canvas.Screen,0_1_0_5,left,response,,93397.79999999702,93389.588,93422.77,93655.20000000298,232.43000000297616,93657,2021-10-28T16:58:17.866Z,93672.455,1635440195,full,ni_sequenzen,NI_Sequenzen,6,,,,,,,,,,,,,
,Move,canvas.Screen,0_1_0_6,right,response,,93666.29999999702,93656.132,93672.455,93804.59999999404,132.1449999940378,93806.20000000298,2021-10-28T16:58:18.015Z,93822.213,1635440195,full,ni_sequenzen,NI_Sequenzen,7,,,,,,,,,,,,,
,Move,canvas.Screen,0_1_0_7,right,response,,93814.39999999106,93805.988,93822.213,94427.20000000298,604.9870000029769,94428.70000000298,2021-10-28T16:58:18.638Z,94456.21,1635440195,full,ni_sequenzen,NI_Sequenzen,8,,,,,,,,,,,,,
,Move,canvas.Screen,0_1_0_8,down,response,,94437,94421.635,94456.21,94678.5,222.2899999999936,94680.29999999702,2021-10-28T16:58:18.889Z,94704.73,1635440195,full,ni_sequenzen,NI_Sequenzen,9,,,,,,,,,,,,,
,Move,canvas.Screen,0_1_0_9,left,response,,94689.29999999702,94687.997,94704.73,94885.39999999106,180.66999999106338,94886.79999999702,2021-10-28T16:58:19.096Z,94904.569,1635440195,full,ni_sequenzen,NI_Sequenzen,10,,,,,,,,,,,,,
,Move,canvas.Screen,0_1_0_10,right,response,,94895.5,94887.804,94904.569,95146.20000000298,241.6310000029771,95147.39999999106,2021-10-28T16:58:19.357Z,95187.689,1635440195,full,ni_sequenzen,NI_Sequenzen,11,,,,,,,,,,,,,
,Move,canvas.Screen,0_1_0_11,down,response,,95156.20000000298,95154.257,95187.689,95587.5,399.8110000000015,95589.09999999404,2021-10-28T16:58:19.798Z,95603.844,1635440195,full,ni_sequenzen,NI_Sequenzen,12,,,,,,,,,,,,,
,Move,canvas.Screen,0_1_0_12,down,response,,95598.5,95587.165,95603.844,95959.5,355.6560000000027,95960.70000000298,2021-10-28T16:58:20.170Z,96003.423,1635440195,full,ni_sequenzen,NI_Sequenzen,13,,,,,,,,,,,,,
,Move,canvas.Screen,0_1_0_13,down,response,,95969.20000000298,95987.299,96003.423,96893.09999999404,889.6769999940443,96894.5,2021-10-28T16:58:21.104Z,96919.182,1635440195,full,ni_sequenzen,NI_Sequenzen,14,,,,,,,,,,,,,
,Move,canvas.Screen,0_1_0_14,down,response,,96903.09999999404,96902.534,96919.182,97048.89999999106,129.7179999910586,97050.39999999106,2021-10-28T16:58:21.259Z,97069.064,1635440195,full,ni_sequenzen,NI_Sequenzen,15,,,,,,,,,,,,,
,Move,canvas.Screen,0_1_0_15,right,response,,97059,97052.35,97069.064,97404.59999999404,335.53599999404105,97406.39999999106,2021-10-28T16:58:21.615Z,97418.705,1635440195,full,ni_sequenzen,NI_Sequenzen,16,,,,,,,,,,,,,
,Move,canvas.Screen,0_1_0_16,right,response,,97415.09999999404,97402.01,97418.705,98309.20000000298,890.4950000029785,98310.5,2021-10-28T16:58:22.520Z,98334.513,1635440195,full,ni_sequenzen,NI_Sequenzen,17,,,,,,,,,,,,,
,Move,canvas.Screen,0_1_0_17,left,response,,98319.09999999404,98317.795,98334.513,98675.89999999106,341.386999991053,98677.39999999106,2021-10-28T16:58:22.886Z,98700.826,1635440195,full,ni_sequenzen,NI_Sequenzen,18,,,,,,,,,,,,,
,Move,canvas.Screen,0_1_0_18,left,response,,98687.20000000298,98684.132,98700.826,99199.29999999702,498.47399999701884,99200.70000000298,2021-10-28T16:58:23.410Z,99217.009,1635440195,full,ni_sequenzen,NI_Sequenzen,19,,,,,,,,,,,,,
,Move,canvas.Screen,0_1_0_19,left,response,,99209.20000000298,99200.316,99217.009,105551.70000000298,6334.691000002975,105553.29999999702,2021-10-28T16:58:29.762Z,105577.41,1635440195,full,ni_sequenzen,NI_Sequenzen,20,,,,,,,,,,,,,
,Move,canvas.Screen,0_1_0_20,down,response,,105562,105560.607,105577.41,106083.39999999106,505.9899999910558,106084.79999999702,2021-10-28T16:58:30.294Z,106110.207,1635440195,full,ni_sequenzen,NI_Sequenzen,21,,,,,,,,,,,,,
,Move,canvas.Screen,0_1_0_21,down,response,,106094.09999999404,106093.535,106110.207,106760.59999999404,650.3929999940447,106762,2021-10-28T16:58:30.971Z,106792.862,1635440195,full,ni_sequenzen,NI_Sequenzen,22,,,,,,,,,,,,,
,Move,canvas.Screen,0_1_0_22,right,response,,106772.20000000298,106759.509,106792.862,107464.59999999404,671.7379999940458,107466.09999999404,2021-10-28T16:58:31.675Z,107492.18,1635440195,full,ni_sequenzen,NI_Sequenzen,23,,,,,,,,,,,,,
,Move,canvas.Screen,0_1_0_23,left,response,,107475,107475.521,107492.18,107791,298.820000000007,107792.59999999404,2021-10-28T16:58:32.002Z,107808.538,1635440195,full,ni_sequenzen,NI_Sequenzen,24,,,,,,,,,,,,,
,Move,canvas.Screen,0_1_0_24,down,response,,107801,107791.861,107808.538,108383.5,574.9619999999995,108384.79999999702,2021-10-28T16:58:32.594Z,108408.004,1635440195,full,ni_sequenzen,NI_Sequenzen,25,,,,,,,,,,,,,
,Move,canvas.Screen,0_1_0_25,down,response,,108393.70000000298,108391.259,108408.004,108745,336.9959999999992,108746.39999999106,2021-10-28T16:58:32.955Z,108757.662,1635440195,full,ni_sequenzen,NI_Sequenzen,26,,,,,,,,,,,,,
,Move,canvas.Screen,0_1_0_26,down,response,,108754.70000000298,108740.906,108757.662,109222.79999999702,465.13799999702314,109224.39999999106,2021-10-28T16:58:33.433Z,109257.127,1635440195,full,ni_sequenzen,NI_Sequenzen,27,,,,,,,,,,,,,
,Move,canvas.Screen,0_1_0_27,left,response,,109249.89999999106,109240.469,109257.127,109674.29999999702,417.17299999702664,109675.79999999702,2021-10-28T16:58:33.885Z,109690.145,1635440195,full,ni_sequenzen,NI_Sequenzen,28,,,,,,,,,,,,,
,Move,canvas.Screen,0_1_0_28,right,response,,109684.5,109673.342,109690.145,110307,616.8549999999959,110308.5,2021-10-28T16:58:34.517Z,110322.785,1635440195,full,ni_sequenzen,NI_Sequenzen,29,,,,,,,,,,,,,
,Move,canvas.Screen,0_1_0_29,down,response,,110316.79999999702,110306.09,110322.785,110743.29999999702,420.5149999970163,110744.70000000298,2021-10-28T16:58:34.954Z,110888.813,1635440195,full,ni_sequenzen,NI_Sequenzen,30,,,,,,,,,,,,,
,Loop,flow.Loop,0_1_0,-999,completion,,89538.39999999106,89543.173,89559.691,110743.29999999702,21183.608999997014,110745.39999999106,2021-10-28T16:58:34.954Z,110888.813,1635440195,full,ni_sequenzen,NI_Sequenzen,,,,,,,,,,,,,,
,Training_I,flow.Sequence,0_1,,completion,,89516.89999999106,89543.173,89559.691,110743.29999999702,21183.608999997014,110746,2021-10-28T16:58:34.955Z,110888.813,1635440195,full,ni_sequenzen,NI_Sequenzen,,,,,,,,,,,,,,
,Screen_1,canvas.Screen,0_2_0_0,cont,response,1,110873.09999999404,110872.207,110888.813,112545,1656.1870000000054,112545.79999999702,2021-10-28T16:58:36.755Z,112653.764,1635440195,full,ni_sequenzen,NI_Sequenzen,,,,,,,,,,,,,,
,Screen_2,canvas.Screen,0_2_0_1,back,response,1,112636.70000000298,112637.071,112653.764,115052.59999999404,2398.835999994044,115054.09999999404,2021-10-28T16:58:39.263Z,115251.265,1635440195,full,ni_sequenzen,NI_Sequenzen,,,,,,,,,,,,,,
,Screen_3,canvas.Screen,0_2_0_2,,skipped,1,115064.09999999404,,,115052.59999999404,,115064.59999999404,2021-10-28T16:58:39.274Z,115251.265,1635440195,full,ni_sequenzen,NI_Sequenzen,,,,,,,,,,,,,,
,Screen_4,canvas.Screen,0_2_0_3,,skipped,1,115150.5,,,115052.59999999404,,115151.09999999404,2021-10-28T16:58:39.360Z,115251.265,1635440195,full,ni_sequenzen,NI_Sequenzen,,,,,,,,,,,,,,
,Screen_5,canvas.Screen,0_2_0_4,,skipped,1,115157.70000000298,,,115052.59999999404,,115158.29999999702,2021-10-28T16:58:39.367Z,115251.265,1635440195,full,ni_sequenzen,NI_Sequenzen,,,,,,,,,,,,,,
,Screen_6,canvas.Screen,0_2_0_5,,skipped,1,115203,,,115052.59999999404,,115203.39999999106,2021-10-28T16:58:39.412Z,115251.265,1635440195,full,ni_sequenzen,NI_Sequenzen,,,,,,,,,,,,,,
,Sequence,flow.Sequence,0_2_0,,completion,1,110870,110872.207,110888.813,115052.59999999404,4163.786999994045,115204.5,2021-10-28T16:58:39.414Z,115251.265,1635440195,full,ni_sequenzen,NI_Sequenzen,,,,,,,,,,,,,,
,Screen_1,canvas.Screen,0_2_1_0,cont,response,2,115217.09999999404,115235.123,115251.265,123962.70000000298,8711.43500000298,123964.09999999404,2021-10-28T16:58:48.173Z,123976.165,1635440195,full,ni_sequenzen,NI_Sequenzen,,,,,,,,,,,,,,
,Screen_2,canvas.Screen,0_2_1_1,cont,response,2,123969.39999999106,123959.165,123976.165,134839.5,10863.335000000006,134842.20000000298,2021-10-28T16:58:59.051Z,134866.106,1635440195,full,ni_sequenzen,NI_Sequenzen,,,,,,,,,,,,,,
,Screen_3,canvas.Screen,0_2_1_2,cont,response,2,134847.09999999404,134831.798,134866.106,163123.59999999404,28257.49399999404,163124.89999999106,2021-10-28T16:59:27.334Z,163137.849,1635440195,full,ni_sequenzen,NI_Sequenzen,,,,,,,,,,,,,,
,Screen_4,canvas.Screen,0_2_1_3,cont,response,2,163130,163120.402,163137.849,173970.39999999106,10832.550999991072,173971.89999999106,2021-10-28T16:59:38.181Z,173993.837,1635440195,full,ni_sequenzen,NI_Sequenzen,,,,,,,,,,,,,,
,Screen_5,canvas.Screen,0_2_1_4,cont,response,2,173977.79999999702,173976.84,173993.837,180734.5,6740.6630000000005,180735.70000000298,2021-10-28T16:59:44.945Z,180770.563,1635440195,full,ni_sequenzen,NI_Sequenzen,,,,,,,,,,,,,,
,Screen_6,canvas.Screen,0_2_1_5,cont,response,2,180741.70000000298,180736.984,180770.563,188328.39999999106,7557.836999991065,188329.79999999702,2021-10-28T16:59:52.539Z,188829.228,1635440195,full,ni_sequenzen,NI_Sequenzen,,,,,,,,,,,,,,
,Sequence,flow.Sequence,0_2_1,,completion,2,115211.39999999106,115235.123,115251.265,188328.39999999106,73077.13499999106,188330.89999999106,2021-10-28T16:59:52.540Z,188829.228,1635440195,full,ni_sequenzen,NI_Sequenzen,,,,,,,,,,,,,,
,Screen_1,canvas.Screen,0_2_2_0,,skipped,3,188342.29999999702,,,188342.29999999702,,188342.79999999702,2021-10-28T16:59:52.552Z,188829.228,1635440195,full,ni_sequenzen,NI_Sequenzen,,,,,,,,,,,,,,
,Screen_2,canvas.Screen,0_2_2_1,,skipped,3,188347.89999999106,,,188342.29999999702,,188348.39999999106,2021-10-28T16:59:52.558Z,188829.228,1635440195,full,ni_sequenzen,NI_Sequenzen,,,,,,,,,,,,,,
,Screen_3,canvas.Screen,0_2_2_2,,skipped,3,188352.79999999702,,,188342.29999999702,,188353.20000000298,2021-10-28T16:59:52.563Z,188829.228,1635440195,full,ni_sequenzen,NI_Sequenzen,,,,,,,,,,,,,,
,Screen_4,canvas.Screen,0_2_2_3,,skipped,3,188357.70000000298,,,188342.29999999702,,188358.20000000298,2021-10-28T16:59:52.567Z,188829.228,1635440195,full,ni_sequenzen,NI_Sequenzen,,,,,,,,,,,,,,
,Screen_5,canvas.Screen,0_2_2_4,,skipped,3,188360.59999999404,,,188342.29999999702,,188360.79999999702,2021-10-28T16:59:52.570Z,188829.228,1635440195,full,ni_sequenzen,NI_Sequenzen,,,,,,,,,,,,,,
,Screen_6,canvas.Screen,0_2_2_5,,skipped,3,188362.59999999404,,,188342.29999999702,,188363,2021-10-28T16:59:52.572Z,188829.228,1635440195,full,ni_sequenzen,NI_Sequenzen,,,,,,,,,,,,,,
,Sequence,flow.Sequence,0_2_2,,completion,3,188337.59999999404,,,188342.29999999702,,188363.29999999702,2021-10-28T16:59:52.573Z,188829.228,1635440195,full,ni_sequenzen,NI_Sequenzen,,,,,,,,,,,,,,
,Screen_1,canvas.Screen,0_2_3_0,,skipped,4,188365.79999999702,,,188365.89999999106,,188366,2021-10-28T16:59:52.575Z,188829.228,1635440195,full,ni_sequenzen,NI_Sequenzen,,,,,,,,,,,,,,
,Screen_2,canvas.Screen,0_2_3_1,,skipped,4,188368.20000000298,,,188365.89999999106,,188368.29999999702,2021-10-28T16:59:52.578Z,188829.228,1635440195,full,ni_sequenzen,NI_Sequenzen,,,,,,,,,,,,,,
,Screen_3,canvas.Screen,0_2_3_2,,skipped,4,188370.5,,,188365.89999999106,,188370.59999999404,2021-10-28T16:59:52.580Z,188829.228,1635440195,full,ni_sequenzen,NI_Sequenzen,,,,,,,,,,,,,,
,Screen_4,canvas.Screen,0_2_3_3,,skipped,4,188372.5,,,188365.89999999106,,188372.70000000298,2021-10-28T16:59:52.582Z,188829.228,1635440195,full,ni_sequenzen,NI_Sequenzen,,,,,,,,,,,,,,
,Screen_5,canvas.Screen,0_2_3_4,,skipped,4,188374.59999999404,,,188365.89999999106,,188374.79999999702,2021-10-28T16:59:52.584Z,188829.228,1635440195,full,ni_sequenzen,NI_Sequenzen,,,,,,,,,,,,,,
,Screen_6,canvas.Screen,0_2_3_5,,skipped,4,188377.70000000298,,,188365.89999999106,,188377.89999999106,2021-10-28T16:59:52.587Z,188829.228,1635440195,full,ni_sequenzen,NI_Sequenzen,,,,,,,,,,,,,,
,Sequence,flow.Sequence,0_2_3,,completion,4,188364.20000000298,,,188365.89999999106,,188378.20000000298,2021-10-28T16:59:52.587Z,188829.228,1635440195,full,ni_sequenzen,NI_Sequenzen,,,,,,,,,,,,,,
,Screen_1,canvas.Screen,0_2_4_0,,skipped,5,188380.89999999106,,,188380.89999999106,,188381.09999999404,2021-10-28T16:59:52.590Z,188829.228,1635440195,full,ni_sequenzen,NI_Sequenzen,,,,,,,,,,,,,,
,Screen_2,canvas.Screen,0_2_4_1,,skipped,5,188383.09999999404,,,188380.89999999106,,188383.29999999702,2021-10-28T16:59:52.593Z,188829.228,1635440195,full,ni_sequenzen,NI_Sequenzen,,,,,,,,,,,,,,
,Screen_3,canvas.Screen,0_2_4_2,,skipped,5,188385.09999999404,,,188380.89999999106,,188385.39999999106,2021-10-28T16:59:52.595Z,188829.228,1635440195,full,ni_sequenzen,NI_Sequenzen,,,,,,,,,,,,,,
,Screen_4,canvas.Screen,0_2_4_3,,skipped,5,188387.20000000298,,,188380.89999999106,,188387.39999999106,2021-10-28T16:59:52.597Z,188829.228,1635440195,full,ni_sequenzen,NI_Sequenzen,,,,,,,,,,,,,,
,Screen_5,canvas.Screen,0_2_4_4,,skipped,5,188389.39999999106,,,188380.89999999106,,188389.59999999404,2021-10-28T16:59:52.599Z,188829.228,1635440195,full,ni_sequenzen,NI_Sequenzen,,,,,,,,,,,,,,
,Screen_6,canvas.Screen,0_2_4_5,,skipped,5,188391.5,,,188380.89999999106,,188391.79999999702,2021-10-28T16:59:52.601Z,188829.228,1635440195,full,ni_sequenzen,NI_Sequenzen,,,,,,,,,,,,,,
,Sequence,flow.Sequence,0_2_4,,completion,5,188379.09999999404,,,188380.89999999106,,188392,2021-10-28T16:59:52.601Z,188829.228,1635440195,full,ni_sequenzen,NI_Sequenzen,,,,,,,,,,,,,,
,Screen_1,canvas.Screen,0_2_5_0,,skipped,6,188394.59999999404,,,188394.59999999404,,188394.79999999702,2021-10-28T16:59:52.604Z,188829.228,1635440195,full,ni_sequenzen,NI_Sequenzen,,,,,,,,,,,,,,
,Screen_2,canvas.Screen,0_2_5_1,,skipped,6,188396.79999999702,,,188394.59999999404,,188397,2021-10-28T16:59:52.606Z,188829.228,1635440195,full,ni_sequenzen,NI_Sequenzen,,,,,,,,,,,,,,
,Screen_3,canvas.Screen,0_2_5_2,,skipped,6,188399,,,188394.59999999404,,188399.20000000298,2021-10-28T16:59:52.608Z,188829.228,1635440195,full,ni_sequenzen,NI_Sequenzen,,,,,,,,,,,,,,
,Screen_4,canvas.Screen,0_2_5_3,,skipped,6,188401.20000000298,,,188394.59999999404,,188401.29999999702,2021-10-28T16:59:52.611Z,188829.228,1635440195,full,ni_sequenzen,NI_Sequenzen,,,,,,,,,,,,,,
,Screen_5,canvas.Screen,0_2_5_4,,skipped,6,188403.20000000298,,,188394.59999999404,,188403.39999999106,2021-10-28T16:59:52.613Z,188829.228,1635440195,full,ni_sequenzen,NI_Sequenzen,,,,,,,,,,,,,,
,Screen_6,canvas.Screen,0_2_5_5,,skipped,6,188405.20000000298,,,188394.59999999404,,188405.39999999106,2021-10-28T16:59:52.615Z,188829.228,1635440195,full,ni_sequenzen,NI_Sequenzen,,,,,,,,,,,,,,
,Sequence,flow.Sequence,0_2_5,,completion,6,188392.79999999702,,,188394.59999999404,,188405.70000000298,2021-10-28T16:59:52.615Z,188829.228,1635440195,full,ni_sequenzen,NI_Sequenzen,,,,,,,,,,,,,,
,Screen_1,canvas.Screen,0_2_6_0,,skipped,7,188409.5,,,188409.5,,188409.79999999702,2021-10-28T16:59:52.619Z,188829.228,1635440195,full,ni_sequenzen,NI_Sequenzen,,,,,,,,,,,,,,
,Screen_2,canvas.Screen,0_2_6_1,,skipped,7,188411.79999999702,,,188409.5,,188412,2021-10-28T16:59:52.621Z,188829.228,1635440195,full,ni_sequenzen,NI_Sequenzen,,,,,,,,,,,,,,
,Screen_3,canvas.Screen,0_2_6_2,,skipped,7,188414.20000000298,,,188409.5,,188414.39999999106,2021-10-28T16:59:52.624Z,188829.228,1635440195,full,ni_sequenzen,NI_Sequenzen,,,,,,,,,,,,,,
,Screen_4,canvas.Screen,0_2_6_3,,skipped,7,188416.79999999702,,,188409.5,,188417,2021-10-28T16:59:52.626Z,188829.228,1635440195,full,ni_sequenzen,NI_Sequenzen,,,,,,,,,,,,,,
,Screen_5,canvas.Screen,0_2_6_4,,skipped,7,188418.89999999106,,,188409.5,,188419.09999999404,2021-10-28T16:59:52.628Z,188829.228,1635440195,full,ni_sequenzen,NI_Sequenzen,,,,,,,,,,,,,,
,Screen_6,canvas.Screen,0_2_6_5,,skipped,7,188420.89999999106,,,188409.5,,188421.09999999404,2021-10-28T16:59:52.630Z,188829.228,1635440195,full,ni_sequenzen,NI_Sequenzen,,,,,,,,,,,,,,
,Sequence,flow.Sequence,0_2_6,,completion,7,188406.5,,,188409.5,,188421.39999999106,2021-10-28T16:59:52.631Z,188829.228,1635440195,full,ni_sequenzen,NI_Sequenzen,,,,,,,,,,,,,,
,Screen_1,canvas.Screen,0_2_7_0,,skipped,8,188423.89999999106,,,188423.89999999106,,188424.09999999404,2021-10-28T16:59:52.633Z,188829.228,1635440195,full,ni_sequenzen,NI_Sequenzen,,,,,,,,,,,,,,
,Screen_2,canvas.Screen,0_2_7_1,,skipped,8,188425.89999999106,,,188423.89999999106,,188426.20000000298,2021-10-28T16:59:52.635Z,188829.228,1635440195,full,ni_sequenzen,NI_Sequenzen,,,,,,,,,,,,,,
,Screen_3,canvas.Screen,0_2_7_2,,skipped,8,188428.09999999404,,,188423.89999999106,,188428.20000000298,2021-10-28T16:59:52.638Z,188829.228,1635440195,full,ni_sequenzen,NI_Sequenzen,,,,,,,,,,,,,,
,Screen_4,canvas.Screen,0_2_7_3,,skipped,8,188430.5,,,188423.89999999106,,188430.70000000298,2021-10-28T16:59:52.640Z,188829.228,1635440195,full,ni_sequenzen,NI_Sequenzen,,,,,,,,,,,,,,
,Screen_5,canvas.Screen,0_2_7_4,,skipped,8,188432.59999999404,,,188423.89999999106,,188432.89999999106,2021-10-28T16:59:52.642Z,188829.228,1635440195,full,ni_sequenzen,NI_Sequenzen,,,,,,,,,,,,,,
,Screen_6,canvas.Screen,0_2_7_5,,skipped,8,188434.70000000298,,,188423.89999999106,,188435,2021-10-28T16:59:52.644Z,188829.228,1635440195,full,ni_sequenzen,NI_Sequenzen,,,,,,,,,,,,,,
,Sequence,flow.Sequence,0_2_7,,completion,8,188422.20000000298,,,188423.89999999106,,188435.29999999702,2021-10-28T16:59:52.645Z,188829.228,1635440195,full,ni_sequenzen,NI_Sequenzen,,,,,,,,,,,,,,
,Screen_1,canvas.Screen,0_2_8_0,,skipped,9,188437.79999999702,,,188437.89999999106,,188438.09999999404,2021-10-28T16:59:52.647Z,188829.228,1635440195,full,ni_sequenzen,NI_Sequenzen,,,,,,,,,,,,,,
,Screen_2,canvas.Screen,0_2_8_1,,skipped,9,188439.89999999106,,,188437.89999999106,,188440.09999999404,2021-10-28T16:59:52.649Z,188829.228,1635440195,full,ni_sequenzen,NI_Sequenzen,,,,,,,,,,,,,,
,Screen_3,canvas.Screen,0_2_8_2,,skipped,9,188443.09999999404,,,188437.89999999106,,188443.29999999702,2021-10-28T16:59:52.653Z,188829.228,1635440195,full,ni_sequenzen,NI_Sequenzen,,,,,,,,,,,,,,
,Screen_4,canvas.Screen,0_2_8_3,,skipped,9,188445.20000000298,,,188437.89999999106,,188445.39999999106,2021-10-28T16:59:52.655Z,188829.228,1635440195,full,ni_sequenzen,NI_Sequenzen,,,,,,,,,,,,,,
,Screen_5,canvas.Screen,0_2_8_4,,skipped,9,188447.39999999106,,,188437.89999999106,,188447.70000000298,2021-10-28T16:59:52.657Z,188829.228,1635440195,full,ni_sequenzen,NI_Sequenzen,,,,,,,,,,,,,,
,Screen_6,canvas.Screen,0_2_8_5,,skipped,9,188449.59999999404,,,188437.89999999106,,188449.89999999106,2021-10-28T16:59:52.659Z,188829.228,1635440195,full,ni_sequenzen,NI_Sequenzen,,,,,,,,,,,,,,
,Sequence,flow.Sequence,0_2_8,,completion,9,188436.09999999404,,,188437.89999999106,,188450.09999999404,2021-10-28T16:59:52.659Z,188829.228,1635440195,full,ni_sequenzen,NI_Sequenzen,,,,,,,,,,,,,,
,Screen_1,canvas.Screen,0_2_9_0,,skipped,10,188452.70000000298,,,188452.70000000298,,188452.89999999106,2021-10-28T16:59:52.662Z,188829.228,1635440195,full,ni_sequenzen,NI_Sequenzen,,,,,,,,,,,,,,
,Screen_2,canvas.Screen,0_2_9_1,,skipped,10,188454.70000000298,,,188452.70000000298,,188454.89999999106,2021-10-28T16:59:52.664Z,188829.228,1635440195,full,ni_sequenzen,NI_Sequenzen,,,,,,,,,,,,,,
,Screen_3,canvas.Screen,0_2_9_2,,skipped,10,188456.89999999106,,,188452.70000000298,,188457,2021-10-28T16:59:52.666Z,188829.228,1635440195,full,ni_sequenzen,NI_Sequenzen,,,,,,,,,,,,,,
,Screen_4,canvas.Screen,0_2_9_3,,skipped,10,188459,,,188452.70000000298,,188459.09999999404,2021-10-28T16:59:52.668Z,188829.228,1635440195,full,ni_sequenzen,NI_Sequenzen,,,,,,,,,,,,,,
,Screen_5,canvas.Screen,0_2_9_4,,skipped,10,188461.59999999404,,,188452.70000000298,,188461.79999999702,2021-10-28T16:59:52.671Z,188829.228,1635440195,full,ni_sequenzen,NI_Sequenzen,,,,,,,,,,,,,,
,Screen_6,canvas.Screen,0_2_9_5,,skipped,10,188464.09999999404,,,188452.70000000298,,188464.29999999702,2021-10-28T16:59:52.674Z,188829.228,1635440195,full,ni_sequenzen,NI_Sequenzen,,,,,,,,,,,,,,
,Sequence,flow.Sequence,0_2_9,,completion,10,188450.89999999106,,,188452.70000000298,,188464.59999999404,2021-10-28T16:59:52.674Z,188829.228,1635440195,full,ni_sequenzen,NI_Sequenzen,,,,,,,,,,,,,,
,Screen_1,canvas.Screen,0_2_10_0,,skipped,11,188467.5,,,188467.5,,188467.59999999404,2021-10-28T16:59:52.677Z,188829.228,1635440195,full,ni_sequenzen,NI_Sequenzen,,,,,,,,,,,,,,
,Screen_2,canvas.Screen,0_2_10_1,,skipped,11,188469.79999999702,,,188467.5,,188470,2021-10-28T16:59:52.679Z,188829.228,1635440195,full,ni_sequenzen,NI_Sequenzen,,,,,,,,,,,,,,
,Screen_3,canvas.Screen,0_2_10_2,,skipped,11,188471.79999999702,,,188467.5,,188472,2021-10-28T16:59:52.681Z,188829.228,1635440195,full,ni_sequenzen,NI_Sequenzen,,,,,,,,,,,,,,
,Screen_4,canvas.Screen,0_2_10_3,,skipped,11,188474.20000000298,,,188467.5,,188474.5,2021-10-28T16:59:52.684Z,188829.228,1635440195,full,ni_sequenzen,NI_Sequenzen,,,,,,,,,,,,,,
,Screen_5,canvas.Screen,0_2_10_4,,skipped,11,188477.79999999702,,,188467.5,,188477.89999999106,2021-10-28T16:59:52.687Z,188829.228,1635440195,full,ni_sequenzen,NI_Sequenzen,,,,,,,,,,,,,,
,Screen_6,canvas.Screen,0_2_10_5,,skipped,11,188480.20000000298,,,188467.5,,188480.39999999106,2021-10-28T16:59:52.690Z,188829.228,1635440195,full,ni_sequenzen,NI_Sequenzen,,,,,,,,,,,,,,
,Sequence,flow.Sequence,0_2_10,,completion,11,188465.39999999106,,,188467.5,,188480.70000000298,2021-10-28T16:59:52.690Z,188829.228,1635440195,full,ni_sequenzen,NI_Sequenzen,,,,,,,,,,,,,,
,Screen_1,canvas.Screen,0_2_11_0,,skipped,12,188483.59999999404,,,188483.59999999404,,188483.70000000298,2021-10-28T16:59:52.693Z,188829.228,1635440195,full,ni_sequenzen,NI_Sequenzen,,,,,,,,,,,,,,
,Screen_2,canvas.Screen,0_2_11_1,,skipped,12,188485.59999999404,,,188483.59999999404,,188485.79999999702,2021-10-28T16:59:52.695Z,188829.228,1635440195,full,ni_sequenzen,NI_Sequenzen,,,,,,,,,,,,,,
,Screen_3,canvas.Screen,0_2_11_2,,skipped,12,188487.70000000298,,,188483.59999999404,,188487.79999999702,2021-10-28T16:59:52.697Z,188829.228,1635440195,full,ni_sequenzen,NI_Sequenzen,,,,,,,,,,,,,,
,Screen_4,canvas.Screen,0_2_11_3,,skipped,12,188489.70000000298,,,188483.59999999404,,188489.89999999106,2021-10-28T16:59:52.699Z,188829.228,1635440195,full,ni_sequenzen,NI_Sequenzen,,,,,,,,,,,,,,
,Screen_5,canvas.Screen,0_2_11_4,,skipped,12,188491.79999999702,,,188483.59999999404,,188492,2021-10-28T16:59:52.701Z,188829.228,1635440195,full,ni_sequenzen,NI_Sequenzen,,,,,,,,,,,,,,
,Screen_6,canvas.Screen,0_2_11_5,,skipped,12,188494,,,188483.59999999404,,188494.09999999404,2021-10-28T16:59:52.703Z,188829.228,1635440195,full,ni_sequenzen,NI_Sequenzen,,,,,,,,,,,,,,
,Sequence,flow.Sequence,0_2_11,,completion,12,188481.70000000298,,,188483.59999999404,,188494.39999999106,2021-10-28T16:59:52.704Z,188829.228,1635440195,full,ni_sequenzen,NI_Sequenzen,,,,,,,,,,,,,,
,Screen_1,canvas.Screen,0_2_12_0,,skipped,13,188497,,,188497,,188497.20000000298,2021-10-28T16:59:52.706Z,188829.228,1635440195,full,ni_sequenzen,NI_Sequenzen,,,,,,,,,,,,,,
,Screen_2,canvas.Screen,0_2_12_1,,skipped,13,188499.20000000298,,,188497,,188499.29999999702,2021-10-28T16:59:52.709Z,188829.228,1635440195,full,ni_sequenzen,NI_Sequenzen,,,,,,,,,,,,,,
,Screen_3,canvas.Screen,0_2_12_2,,skipped,13,188501.20000000298,,,188497,,188501.39999999106,2021-10-28T16:59:52.711Z,188829.228,1635440195,full,ni_sequenzen,NI_Sequenzen,,,,,,,,,,,,,,
,Screen_4,canvas.Screen,0_2_12_3,,skipped,13,188503.20000000298,,,188497,,188503.39999999106,2021-10-28T16:59:52.713Z,188829.228,1635440195,full,ni_sequenzen,NI_Sequenzen,,,,,,,,,,,,,,
,Screen_5,canvas.Screen,0_2_12_4,,skipped,13,188505.29999999702,,,188497,,188505.5,2021-10-28T16:59:52.715Z,188829.228,1635440195,full,ni_sequenzen,NI_Sequenzen,,,,,,,,,,,,,,
,Screen_6,canvas.Screen,0_2_12_5,,skipped,13,188508.5,,,188497,,188508.79999999702,2021-10-28T16:59:52.718Z,188829.228,1635440195,full,ni_sequenzen,NI_Sequenzen,,,,,,,,,,,,,,
,Sequence,flow.Sequence,0_2_12,,completion,13,188495.20000000298,,,188497,,188509.09999999404,2021-10-28T16:59:52.718Z,188829.228,1635440195,full,ni_sequenzen,NI_Sequenzen,,,,,,,,,,,,,,
,Screen_1,canvas.Screen,0_2_13_0,,skipped,14,188511.89999999106,,,188511.89999999106,,188512.09999999404,2021-10-28T16:59:52.721Z,188829.228,1635440195,full,ni_sequenzen,NI_Sequenzen,,,,,,,,,,,,,,
,Screen_2,canvas.Screen,0_2_13_1,,skipped,14,188514.39999999106,,,188511.89999999106,,188514.59999999404,2021-10-28T16:59:52.724Z,188829.228,1635440195,full,ni_sequenzen,NI_Sequenzen,,,,,,,,,,,,,,
,Screen_3,canvas.Screen,0_2_13_2,,skipped,14,188516.70000000298,,,188511.89999999106,,188516.89999999106,2021-10-28T16:59:52.726Z,188829.228,1635440195,full,ni_sequenzen,NI_Sequenzen,,,,,,,,,,,,,,
,Screen_4,canvas.Screen,0_2_13_3,,skipped,14,188518.79999999702,,,188511.89999999106,,188519,2021-10-28T16:59:52.728Z,188829.228,1635440195,full,ni_sequenzen,NI_Sequenzen,,,,,,,,,,,,,,
,Screen_5,canvas.Screen,0_2_13_4,,skipped,14,188520.89999999106,,,188511.89999999106,,188521.09999999404,2021-10-28T16:59:52.730Z,188829.228,1635440195,full,ni_sequenzen,NI_Sequenzen,,,,,,,,,,,,,,
,Screen_6,canvas.Screen,0_2_13_5,,skipped,14,188522.89999999106,,,188511.89999999106,,188523.09999999404,2021-10-28T16:59:52.732Z,188829.228,1635440195,full,ni_sequenzen,NI_Sequenzen,,,,,,,,,,,,,,
,Sequence,flow.Sequence,0_2_13,,completion,14,188509.79999999702,,,188511.89999999106,,188523.39999999106,2021-10-28T16:59:52.733Z,188829.228,1635440195,full,ni_sequenzen,NI_Sequenzen,,,,,,,,,,,,,,
,Screen_1,canvas.Screen,0_2_14_0,,skipped,15,188525.79999999702,,,188525.79999999702,,188526,2021-10-28T16:59:52.735Z,188829.228,1635440195,full,ni_sequenzen,NI_Sequenzen,,,,,,,,,,,,,,
,Screen_2,canvas.Screen,0_2_14_1,,skipped,15,188528,,,188525.79999999702,,188528.20000000298,2021-10-28T16:59:52.737Z,188829.228,1635440195,full,ni_sequenzen,NI_Sequenzen,,,,,,,,,,,,,,
,Screen_3,canvas.Screen,0_2_14_2,,skipped,15,188530.59999999404,,,188525.79999999702,,188530.79999999702,2021-10-28T16:59:52.740Z,188829.228,1635440195,full,ni_sequenzen,NI_Sequenzen,,,,,,,,,,,,,,
,Screen_4,canvas.Screen,0_2_14_3,,skipped,15,188533,,,188525.79999999702,,188533.20000000298,2021-10-28T16:59:52.742Z,188829.228,1635440195,full,ni_sequenzen,NI_Sequenzen,,,,,,,,,,,,,,
,Screen_5,canvas.Screen,0_2_14_4,,skipped,15,188535.09999999404,,,188525.79999999702,,188535.20000000298,2021-10-28T16:59:52.745Z,188829.228,1635440195,full,ni_sequenzen,NI_Sequenzen,,,,,,,,,,,,,,
,Screen_6,canvas.Screen,0_2_14_5,,skipped,15,188537.09999999404,,,188525.79999999702,,188537.29999999702,2021-10-28T16:59:52.747Z,188829.228,1635440195,full,ni_sequenzen,NI_Sequenzen,,,,,,,,,,,,,,
,Sequence,flow.Sequence,0_2_14,,completion,15,188524.20000000298,,,188525.79999999702,,188537.59999999404,2021-10-28T16:59:52.747Z,188829.228,1635440195,full,ni_sequenzen,NI_Sequenzen,,,,,,,,,,,,,,
,Screen_1,canvas.Screen,0_2_15_0,,skipped,16,188541.39999999106,,,188541.39999999106,,188541.59999999404,2021-10-28T16:59:52.751Z,188829.228,1635440195,full,ni_sequenzen,NI_Sequenzen,,,,,,,,,,,,,,
,Screen_2,canvas.Screen,0_2_15_1,,skipped,16,188543.39999999106,,,188541.39999999106,,188543.59999999404,2021-10-28T16:59:52.753Z,188829.228,1635440195,full,ni_sequenzen,NI_Sequenzen,,,,,,,,,,,,,,
,Screen_3,canvas.Screen,0_2_15_2,,skipped,16,188545.5,,,188541.39999999106,,188545.59999999404,2021-10-28T16:59:52.755Z,188829.228,1635440195,full,ni_sequenzen,NI_Sequenzen,,,,,,,,,,,,,,
,Screen_4,canvas.Screen,0_2_15_3,,skipped,16,188547.89999999106,,,188541.39999999106,,188548,2021-10-28T16:59:52.757Z,188829.228,1635440195,full,ni_sequenzen,NI_Sequenzen,,,,,,,,,,,,,,
,Screen_5,canvas.Screen,0_2_15_4,,skipped,16,188549.89999999106,,,188541.39999999106,,188550.09999999404,2021-10-28T16:59:52.759Z,188829.228,1635440195,full,ni_sequenzen,NI_Sequenzen,,,,,,,,,,,,,,
,Screen_6,canvas.Screen,0_2_15_5,,skipped,16,188552,,,188541.39999999106,,188552.20000000298,2021-10-28T16:59:52.761Z,188829.228,1635440195,full,ni_sequenzen,NI_Sequenzen,,,,,,,,,,,,,,
,Sequence,flow.Sequence,0_2_15,,completion,16,188538.29999999702,,,188541.39999999106,,188552.39999999106,2021-10-28T16:59:52.762Z,188829.228,1635440195,full,ni_sequenzen,NI_Sequenzen,,,,,,,,,,,,,,
,Screen_1,canvas.Screen,0_2_16_0,,skipped,17,188555,,,188555,,188555.20000000298,2021-10-28T16:59:52.764Z,188829.228,1635440195,full,ni_sequenzen,NI_Sequenzen,,,,,,,,,,,,,,
,Screen_2,canvas.Screen,0_2_16_1,,skipped,17,188557.09999999404,,,188555,,188557.20000000298,2021-10-28T16:59:52.767Z,188829.228,1635440195,full,ni_sequenzen,NI_Sequenzen,,,,,,,,,,,,,,
,Screen_3,canvas.Screen,0_2_16_2,,skipped,17,188559.20000000298,,,188555,,188559.39999999106,2021-10-28T16:59:52.769Z,188829.228,1635440195,full,ni_sequenzen,NI_Sequenzen,,,,,,,,,,,,,,
,Screen_4,canvas.Screen,0_2_16_3,,skipped,17,188561.29999999702,,,188555,,188561.39999999106,2021-10-28T16:59:52.771Z,188829.228,1635440195,full,ni_sequenzen,NI_Sequenzen,,,,,,,,,,,,,,
,Screen_5,canvas.Screen,0_2_16_4,,skipped,17,188563.39999999106,,,188555,,188563.70000000298,2021-10-28T16:59:52.773Z,188829.228,1635440195,full,ni_sequenzen,NI_Sequenzen,,,,,,,,,,,,,,
,Screen_6,canvas.Screen,0_2_16_5,,skipped,17,188565.5,,,188555,,188565.79999999702,2021-10-28T16:59:52.775Z,188829.228,1635440195,full,ni_sequenzen,NI_Sequenzen,,,,,,,,,,,,,,
,Sequence,flow.Sequence,0_2_16,,completion,17,188553.20000000298,,,188555,,188565.89999999106,2021-10-28T16:59:52.775Z,188829.228,1635440195,full,ni_sequenzen,NI_Sequenzen,,,,,,,,,,,,,,
,Screen_1,canvas.Screen,0_2_17_0,,skipped,18,188568.5,,,188568.5,,188568.70000000298,2021-10-28T16:59:52.778Z,188829.228,1635440195,full,ni_sequenzen,NI_Sequenzen,,,,,,,,,,,,,,
,Screen_2,canvas.Screen,0_2_17_1,,skipped,18,188570.59999999404,,,188568.5,,188570.79999999702,2021-10-28T16:59:52.780Z,188829.228,1635440195,full,ni_sequenzen,NI_Sequenzen,,,,,,,,,,,,,,
,Screen_3,canvas.Screen,0_2_17_2,,skipped,18,188573.89999999106,,,188568.5,,188574.09999999404,2021-10-28T16:59:52.783Z,188829.228,1635440195,full,ni_sequenzen,NI_Sequenzen,,,,,,,,,,,,,,
,Screen_4,canvas.Screen,0_2_17_3,,skipped,18,188576,,,188568.5,,188576.09999999404,2021-10-28T16:59:52.785Z,188829.228,1635440195,full,ni_sequenzen,NI_Sequenzen,,,,,,,,,,,,,,
,Screen_5,canvas.Screen,0_2_17_4,,skipped,18,188578.09999999404,,,188568.5,,188578.20000000298,2021-10-28T16:59:52.787Z,188829.228,1635440195,full,ni_sequenzen,NI_Sequenzen,,,,,,,,,,,,,,
,Screen_6,canvas.Screen,0_2_17_5,,skipped,18,188580.5,,,188568.5,,188580.70000000298,2021-10-28T16:59:52.790Z,188829.228,1635440195,full,ni_sequenzen,NI_Sequenzen,,,,,,,,,,,,,,
,Sequence,flow.Sequence,0_2_17,,completion,18,188566.79999999702,,,188568.5,,188580.89999999106,2021-10-28T16:59:52.790Z,188829.228,1635440195,full,ni_sequenzen,NI_Sequenzen,,,,,,,,,,,,,,
,Screen_1,canvas.Screen,0_2_18_0,,skipped,19,188583.5,,,188583.5,,188583.70000000298,2021-10-28T16:59:52.793Z,188829.228,1635440195,full,ni_sequenzen,NI_Sequenzen,,,,,,,,,,,,,,
,Screen_2,canvas.Screen,0_2_18_1,,skipped,19,188585.59999999404,,,188583.5,,188585.70000000298,2021-10-28T16:59:52.795Z,188829.228,1635440195,full,ni_sequenzen,NI_Sequenzen,,,,,,,,,,,,,,
,Screen_3,canvas.Screen,0_2_18_2,,skipped,19,188587.5,,,188583.5,,188587.70000000298,2021-10-28T16:59:52.797Z,188829.228,1635440195,full,ni_sequenzen,NI_Sequenzen,,,,,,,,,,,,,,
,Screen_4,canvas.Screen,0_2_18_3,,skipped,19,188589.5,,,188583.5,,188589.79999999702,2021-10-28T16:59:52.799Z,188829.228,1635440195,full,ni_sequenzen,NI_Sequenzen,,,,,,,,,,,,,,
,Screen_5,canvas.Screen,0_2_18_4,,skipped,19,188591.59999999404,,,188583.5,,188591.79999999702,2021-10-28T16:59:52.801Z,188829.228,1635440195,full,ni_sequenzen,NI_Sequenzen,,,,,,,,,,,,,,
,Screen_6,canvas.Screen,0_2_18_5,,skipped,19,188593.70000000298,,,188583.5,,188593.79999999702,2021-10-28T16:59:52.803Z,188829.228,1635440195,full,ni_sequenzen,NI_Sequenzen,,,,,,,,,,,,,,
,Sequence,flow.Sequence,0_2_18,,completion,19,188581.70000000298,,,188583.5,,188594.20000000298,2021-10-28T16:59:52.803Z,188829.228,1635440195,full,ni_sequenzen,NI_Sequenzen,,,,,,,,,,,,,,
,Screen_1,canvas.Screen,0_2_19_0,,skipped,20,188596.79999999702,,,188596.89999999106,,188597.09999999404,2021-10-28T16:59:52.806Z,188829.228,1635440195,full,ni_sequenzen,NI_Sequenzen,,,,,,,,,,,,,,
,Screen_2,canvas.Screen,0_2_19_1,,skipped,20,188598.89999999106,,,188596.89999999106,,188599.09999999404,2021-10-28T16:59:52.808Z,188829.228,1635440195,full,ni_sequenzen,NI_Sequenzen,,,,,,,,,,,,,,
,Screen_3,canvas.Screen,0_2_19_2,,skipped,20,188601,,,188596.89999999106,,188601.20000000298,2021-10-28T16:59:52.810Z,188829.228,1635440195,full,ni_sequenzen,NI_Sequenzen,,,,,,,,,,,,,,
,Screen_4,canvas.Screen,0_2_19_3,,skipped,20,188604.20000000298,,,188596.89999999106,,188604.5,2021-10-28T16:59:52.814Z,188829.228,1635440195,full,ni_sequenzen,NI_Sequenzen,,,,,,,,,,,,,,
,Screen_5,canvas.Screen,0_2_19_4,,skipped,20,188606.20000000298,,,188596.89999999106,,188606.39999999106,2021-10-28T16:59:52.816Z,188829.228,1635440195,full,ni_sequenzen,NI_Sequenzen,,,,,,,,,,,,,,
,Screen_6,canvas.Screen,0_2_19_5,,skipped,20,188608.39999999106,,,188596.89999999106,,188608.59999999404,2021-10-28T16:59:52.818Z,188829.228,1635440195,full,ni_sequenzen,NI_Sequenzen,,,,,,,,,,,,,,
,Sequence,flow.Sequence,0_2_19,,completion,20,188595,,,188596.89999999106,,188608.89999999106,2021-10-28T16:59:52.818Z,188829.228,1635440195,full,ni_sequenzen,NI_Sequenzen,,,,,,,,,,,,,,
,Screen_1,canvas.Screen,0_2_20_0,,skipped,21,188611.29999999702,,,188611.39999999106,,188611.5,2021-10-28T16:59:52.821Z,188829.228,1635440195,full,ni_sequenzen,NI_Sequenzen,,,,,,,,,,,,,,
,Screen_2,canvas.Screen,0_2_20_1,,skipped,21,188613.79999999702,,,188611.39999999106,,188614,2021-10-28T16:59:52.823Z,188829.228,1635440195,full,ni_sequenzen,NI_Sequenzen,,,,,,,,,,,,,,
,Screen_3,canvas.Screen,0_2_20_2,,skipped,21,188616.09999999404,,,188611.39999999106,,188616.20000000298,2021-10-28T16:59:52.825Z,188829.228,1635440195,full,ni_sequenzen,NI_Sequenzen,,,,,,,,,,,,,,
,Screen_4,canvas.Screen,0_2_20_3,,skipped,21,188618.09999999404,,,188611.39999999106,,188618.20000000298,2021-10-28T16:59:52.828Z,188829.228,1635440195,full,ni_sequenzen,NI_Sequenzen,,,,,,,,,,,,,,
,Screen_5,canvas.Screen,0_2_20_4,,skipped,21,188620.09999999404,,,188611.39999999106,,188620.29999999702,2021-10-28T16:59:52.830Z,188829.228,1635440195,full,ni_sequenzen,NI_Sequenzen,,,,,,,,,,,,,,
,Screen_6,canvas.Screen,0_2_20_5,,skipped,21,188622.29999999702,,,188611.39999999106,,188622.5,2021-10-28T16:59:52.832Z,188829.228,1635440195,full,ni_sequenzen,NI_Sequenzen,,,,,,,,,,,,,,
,Sequence,flow.Sequence,0_2_20,,completion,21,188609.70000000298,,,188611.39999999106,,188622.70000000298,2021-10-28T16:59:52.832Z,188829.228,1635440195,full,ni_sequenzen,NI_Sequenzen,,,,,,,,,,,,,,
,Screen_1,canvas.Screen,0_2_21_0,,skipped,22,188625.20000000298,,,188625.20000000298,,188625.5,2021-10-28T16:59:52.835Z,188829.228,1635440195,full,ni_sequenzen,NI_Sequenzen,,,,,,,,,,,,,,
,Screen_2,canvas.Screen,0_2_21_1,,skipped,22,188627.29999999702,,,188625.20000000298,,188627.39999999106,2021-10-28T16:59:52.837Z,188829.228,1635440195,full,ni_sequenzen,NI_Sequenzen,,,,,,,,,,,,,,
,Screen_3,canvas.Screen,0_2_21_2,,skipped,22,188629.39999999106,,,188625.20000000298,,188630.79999999702,2021-10-28T16:59:52.840Z,188829.228,1635440195,full,ni_sequenzen,NI_Sequenzen,,,,,,,,,,,,,,
,Screen_4,canvas.Screen,0_2_21_3,,skipped,22,188632.79999999702,,,188625.20000000298,,188632.89999999106,2021-10-28T16:59:52.842Z,188829.228,1635440195,full,ni_sequenzen,NI_Sequenzen,,,,,,,,,,,,,,
,Screen_5,canvas.Screen,0_2_21_4,,skipped,22,188634.89999999106,,,188625.20000000298,,188635.09999999404,2021-10-28T16:59:52.844Z,188829.228,1635440195,full,ni_sequenzen,NI_Sequenzen,,,,,,,,,,,,,,
,Screen_6,canvas.Screen,0_2_21_5,,skipped,22,188636.89999999106,,,188625.20000000298,,188637.20000000298,2021-10-28T16:59:52.846Z,188829.228,1635440195,full,ni_sequenzen,NI_Sequenzen,,,,,,,,,,,,,,
,Sequence,flow.Sequence,0_2_21,,completion,22,188623.5,,,188625.20000000298,,188637.5,2021-10-28T16:59:52.847Z,188829.228,1635440195,full,ni_sequenzen,NI_Sequenzen,,,,,,,,,,,,,,
,Screen_1,canvas.Screen,0_2_22_0,,skipped,23,188640.20000000298,,,188640.20000000298,,188640.39999999106,2021-10-28T16:59:52.850Z,188829.228,1635440195,full,ni_sequenzen,NI_Sequenzen,,,,,,,,,,,,,,
,Screen_2,canvas.Screen,0_2_22_1,,skipped,23,188643.5,,,188640.20000000298,,188643.70000000298,2021-10-28T16:59:52.853Z,188829.228,1635440195,full,ni_sequenzen,NI_Sequenzen,,,,,,,,,,,,,,
,Screen_3,canvas.Screen,0_2_22_2,,skipped,23,188646.29999999702,,,188640.20000000298,,188646.5,2021-10-28T16:59:52.856Z,188829.228,1635440195,full,ni_sequenzen,NI_Sequenzen,,,,,,,,,,,,,,
,Screen_4,canvas.Screen,0_2_22_3,,skipped,23,188648.29999999702,,,188640.20000000298,,188648.5,2021-10-28T16:59:52.858Z,188829.228,1635440195,full,ni_sequenzen,NI_Sequenzen,,,,,,,,,,,,,,
,Screen_5,canvas.Screen,0_2_22_4,,skipped,23,188650.39999999106,,,188640.20000000298,,188650.59999999404,2021-10-28T16:59:52.860Z,188829.228,1635440195,full,ni_sequenzen,NI_Sequenzen,,,,,,,,,,,,,,
,Screen_6,canvas.Screen,0_2_22_5,,skipped,23,188652.39999999106,,,188640.20000000298,,188652.59999999404,2021-10-28T16:59:52.862Z,188829.228,1635440195,full,ni_sequenzen,NI_Sequenzen,,,,,,,,,,,,,,
,Sequence,flow.Sequence,0_2_22,,completion,23,188638.5,,,188640.20000000298,,188652.89999999106,2021-10-28T16:59:52.862Z,188829.228,1635440195,full,ni_sequenzen,NI_Sequenzen,,,,,,,,,,,,,,
,Screen_1,canvas.Screen,0_2_23_0,,skipped,24,188655.39999999106,,,188655.39999999106,,188655.5,2021-10-28T16:59:52.865Z,188829.228,1635440195,full,ni_sequenzen,NI_Sequenzen,,,,,,,,,,,,,,
,Screen_2,canvas.Screen,0_2_23_1,,skipped,24,188657.29999999702,,,188655.39999999106,,188657.5,2021-10-28T16:59:52.867Z,188829.228,1635440195,full,ni_sequenzen,NI_Sequenzen,,,,,,,,,,,,,,
,Screen_3,canvas.Screen,0_2_23_2,,skipped,24,188659.5,,,188655.39999999106,,188659.70000000298,2021-10-28T16:59:52.869Z,188829.228,1635440195,full,ni_sequenzen,NI_Sequenzen,,,,,,,,,,,,,,
,Screen_4,canvas.Screen,0_2_23_3,,skipped,24,188661.5,,,188655.39999999106,,188661.70000000298,2021-10-28T16:59:52.871Z,188829.228,1635440195,full,ni_sequenzen,NI_Sequenzen,,,,,,,,,,,,,,
,Screen_5,canvas.Screen,0_2_23_4,,skipped,24,188663.59999999404,,,188655.39999999106,,188663.79999999702,2021-10-28T16:59:52.873Z,188829.228,1635440195,full,ni_sequenzen,NI_Sequenzen,,,,,,,,,,,,,,
,Screen_6,canvas.Screen,0_2_23_5,,skipped,24,188665.59999999404,,,188655.39999999106,,188665.79999999702,2021-10-28T16:59:52.875Z,188829.228,1635440195,full,ni_sequenzen,NI_Sequenzen,,,,,,,,,,,,,,
,Sequence,flow.Sequence,0_2_23,,completion,24,188653.59999999404,,,188655.39999999106,,188666.09999999404,2021-10-28T16:59:52.875Z,188829.228,1635440195,full,ni_sequenzen,NI_Sequenzen,,,,,,,,,,,,,,
,Screen_1,canvas.Screen,0_2_24_0,,skipped,25,188668.5,,,188668.5,,188668.70000000298,2021-10-28T16:59:52.878Z,188829.228,1635440195,full,ni_sequenzen,NI_Sequenzen,,,,,,,,,,,,,,
,Screen_2,canvas.Screen,0_2_24_1,,skipped,25,188670.59999999404,,,188668.5,,188670.79999999702,2021-10-28T16:59:52.880Z,188829.228,1635440195,full,ni_sequenzen,NI_Sequenzen,,,,,,,,,,,,,,
,Screen_3,canvas.Screen,0_2_24_2,,skipped,25,188672.5,,,188668.5,,188672.70000000298,2021-10-28T16:59:52.882Z,188829.228,1635440195,full,ni_sequenzen,NI_Sequenzen,,,,,,,,,,,,,,
,Screen_4,canvas.Screen,0_2_24_3,,skipped,25,188674.59999999404,,,188668.5,,188674.70000000298,2021-10-28T16:59:52.884Z,188829.228,1635440195,full,ni_sequenzen,NI_Sequenzen,,,,,,,,,,,,,,
,Screen_5,canvas.Screen,0_2_24_4,,skipped,25,188676.5,,,188668.5,,188676.70000000298,2021-10-28T16:59:52.886Z,188829.228,1635440195,full,ni_sequenzen,NI_Sequenzen,,,,,,,,,,,,,,
,Screen_6,canvas.Screen,0_2_24_5,,skipped,25,188680.09999999404,,,188668.5,,188680.20000000298,2021-10-28T16:59:52.890Z,188829.228,1635440195,full,ni_sequenzen,NI_Sequenzen,,,,,,,,,,,,,,
,Sequence,flow.Sequence,0_2_24,,completion,25,188666.79999999702,,,188668.5,,188680.5,2021-10-28T16:59:52.890Z,188829.228,1635440195,full,ni_sequenzen,NI_Sequenzen,,,,,,,,,,,,,,
,Screen_1,canvas.Screen,0_2_25_0,,skipped,26,188682.89999999106,,,188682.89999999106,,188683.09999999404,2021-10-28T16:59:52.892Z,188829.228,1635440195,full,ni_sequenzen,NI_Sequenzen,,,,,,,,,,,,,,
,Screen_2,canvas.Screen,0_2_25_1,,skipped,26,188684.79999999702,,,188682.89999999106,,188685,2021-10-28T16:59:52.894Z,188829.228,1635440195,full,ni_sequenzen,NI_Sequenzen,,,,,,,,,,,,,,
,Screen_3,canvas.Screen,0_2_25_2,,skipped,26,188686.70000000298,,,188682.89999999106,,188687,2021-10-28T16:59:52.896Z,188829.228,1635440195,full,ni_sequenzen,NI_Sequenzen,,,,,,,,,,,,,,
,Screen_4,canvas.Screen,0_2_25_3,,skipped,26,188688.59999999404,,,188682.89999999106,,188688.89999999106,2021-10-28T16:59:52.898Z,188829.228,1635440195,full,ni_sequenzen,NI_Sequenzen,,,,,,,,,,,,,,
,Screen_5,canvas.Screen,0_2_25_4,,skipped,26,188690.59999999404,,,188682.89999999106,,188690.79999999702,2021-10-28T16:59:52.900Z,188829.228,1635440195,full,ni_sequenzen,NI_Sequenzen,,,,,,,,,,,,,,
,Screen_6,canvas.Screen,0_2_25_5,,skipped,26,188692.59999999404,,,188682.89999999106,,188692.70000000298,2021-10-28T16:59:52.902Z,188829.228,1635440195,full,ni_sequenzen,NI_Sequenzen,,,,,,,,,,,,,,
,Sequence,flow.Sequence,0_2_25,,completion,26,188681.20000000298,,,188682.89999999106,,188693,2021-10-28T16:59:52.902Z,188829.228,1635440195,full,ni_sequenzen,NI_Sequenzen,,,,,,,,,,,,,,
,Screen_1,canvas.Screen,0_2_26_0,,skipped,27,188695.89999999106,,,188695.89999999106,,188696.09999999404,2021-10-28T16:59:52.905Z,188829.228,1635440195,full,ni_sequenzen,NI_Sequenzen,,,,,,,,,,,,,,
,Screen_2,canvas.Screen,0_2_26_1,,skipped,27,188698.20000000298,,,188695.89999999106,,188698.39999999106,2021-10-28T16:59:52.908Z,188829.228,1635440195,full,ni_sequenzen,NI_Sequenzen,,,,,,,,,,,,,,
,Screen_3,canvas.Screen,0_2_26_2,,skipped,27,188700.20000000298,,,188695.89999999106,,188700.29999999702,2021-10-28T16:59:52.910Z,188829.228,1635440195,full,ni_sequenzen,NI_Sequenzen,,,,,,,,,,,,,,
,Screen_4,canvas.Screen,0_2_26_3,,skipped,27,188702.29999999702,,,188695.89999999106,,188702.5,2021-10-28T16:59:52.912Z,188829.228,1635440195,full,ni_sequenzen,NI_Sequenzen,,,,,,,,,,,,,,
,Screen_5,canvas.Screen,0_2_26_4,,skipped,27,188704.29999999702,,,188695.89999999106,,188704.5,2021-10-28T16:59:52.914Z,188829.228,1635440195,full,ni_sequenzen,NI_Sequenzen,,,,,,,,,,,,,,
,Screen_6,canvas.Screen,0_2_26_5,,skipped,27,188706.29999999702,,,188695.89999999106,,188706.39999999106,2021-10-28T16:59:52.916Z,188829.228,1635440195,full,ni_sequenzen,NI_Sequenzen,,,,,,,,,,,,,,
,Sequence,flow.Sequence,0_2_26,,completion,27,188693.70000000298,,,188695.89999999106,,188706.59999999404,2021-10-28T16:59:52.916Z,188829.228,1635440195,full,ni_sequenzen,NI_Sequenzen,,,,,,,,,,,,,,
,Screen_1,canvas.Screen,0_2_27_0,,skipped,28,188708.89999999106,,,188709,,188709.09999999404,2021-10-28T16:59:52.918Z,188829.228,1635440195,full,ni_sequenzen,NI_Sequenzen,,,,,,,,,,,,,,
,Screen_2,canvas.Screen,0_2_27_1,,skipped,28,188710.89999999106,,,188709,,188711,2021-10-28T16:59:52.920Z,188829.228,1635440195,full,ni_sequenzen,NI_Sequenzen,,,,,,,,,,,,,,
,Screen_3,canvas.Screen,0_2_27_2,,skipped,28,188713.09999999404,,,188709,,188713.39999999106,2021-10-28T16:59:52.923Z,188829.228,1635440195,full,ni_sequenzen,NI_Sequenzen,,,,,,,,,,,,,,
,Screen_4,canvas.Screen,0_2_27_3,,skipped,28,188715.39999999106,,,188709,,188715.5,2021-10-28T16:59:52.925Z,188829.228,1635440195,full,ni_sequenzen,NI_Sequenzen,,,,,,,,,,,,,,
,Screen_5,canvas.Screen,0_2_27_4,,skipped,28,188717.39999999106,,,188709,,188717.59999999404,2021-10-28T16:59:52.927Z,188829.228,1635440195,full,ni_sequenzen,NI_Sequenzen,,,,,,,,,,,,,,
,Screen_6,canvas.Screen,0_2_27_5,,skipped,28,188719.39999999106,,,188709,,188719.59999999404,2021-10-28T16:59:52.929Z,188829.228,1635440195,full,ni_sequenzen,NI_Sequenzen,,,,,,,,,,,,,,
,Sequence,flow.Sequence,0_2_27,,completion,28,188707.39999999106,,,188709,,188719.89999999106,2021-10-28T16:59:52.929Z,188829.228,1635440195,full,ni_sequenzen,NI_Sequenzen,,,,,,,,,,,,,,
,Screen_1,canvas.Screen,0_2_28_0,,skipped,29,188722.70000000298,,,188722.70000000298,,188722.89999999106,2021-10-28T16:59:52.932Z,188829.228,1635440195,full,ni_sequenzen,NI_Sequenzen,,,,,,,,,,,,,,
,Screen_2,canvas.Screen,0_2_28_1,,skipped,29,188724.70000000298,,,188722.70000000298,,188724.79999999702,2021-10-28T16:59:52.934Z,188829.228,1635440195,full,ni_sequenzen,NI_Sequenzen,,,,,,,,,,,,,,
,Screen_3,canvas.Screen,0_2_28_2,,skipped,29,188726.59999999404,,,188722.70000000298,,188726.89999999106,2021-10-28T16:59:52.936Z,188829.228,1635440195,full,ni_sequenzen,NI_Sequenzen,,,,,,,,,,,,,,
,Screen_4,canvas.Screen,0_2_28_3,,skipped,29,188728.70000000298,,,188722.70000000298,,188728.79999999702,2021-10-28T16:59:52.938Z,188829.228,1635440195,full,ni_sequenzen,NI_Sequenzen,,,,,,,,,,,,,,
,Screen_5,canvas.Screen,0_2_28_4,,skipped,29,188731,,,188722.70000000298,,188731.09999999404,2021-10-28T16:59:52.940Z,188829.228,1635440195,full,ni_sequenzen,NI_Sequenzen,,,,,,,,,,,,,,
,Screen_6,canvas.Screen,0_2_28_5,,skipped,29,188732.89999999106,,,188722.70000000298,,188733.09999999404,2021-10-28T16:59:52.942Z,188829.228,1635440195,full,ni_sequenzen,NI_Sequenzen,,,,,,,,,,,,,,
,Sequence,flow.Sequence,0_2_28,,completion,29,188720.70000000298,,,188722.70000000298,,188733.39999999106,2021-10-28T16:59:52.943Z,188829.228,1635440195,full,ni_sequenzen,NI_Sequenzen,,,,,,,,,,,,,,
,Screen_1,canvas.Screen,0_2_29_0,,skipped,30,188735.89999999106,,,188735.89999999106,,188736.09999999404,2021-10-28T16:59:52.945Z,188829.228,1635440195,full,ni_sequenzen,NI_Sequenzen,,,,,,,,,,,,,,
,Screen_2,canvas.Screen,0_2_29_1,,skipped,30,188737.89999999106,,,188735.89999999106,,188738.09999999404,2021-10-28T16:59:52.947Z,188829.228,1635440195,full,ni_sequenzen,NI_Sequenzen,,,,,,,,,,,,,,
,Screen_3,canvas.Screen,0_2_29_2,,skipped,30,188739.89999999106,,,188735.89999999106,,188740.09999999404,2021-10-28T16:59:52.949Z,188829.228,1635440195,full,ni_sequenzen,NI_Sequenzen,,,,,,,,,,,,,,
,Screen_4,canvas.Screen,0_2_29_3,,skipped,30,188743.20000000298,,,188735.89999999106,,188743.29999999702,2021-10-28T16:59:52.953Z,188829.228,1635440195,full,ni_sequenzen,NI_Sequenzen,,,,,,,,,,,,,,
,Screen_5,canvas.Screen,0_2_29_4,,skipped,30,188745.09999999404,,,188735.89999999106,,188745.29999999702,2021-10-28T16:59:52.955Z,188829.228,1635440195,full,ni_sequenzen,NI_Sequenzen,,,,,,,,,,,,,,
,Screen_6,canvas.Screen,0_2_29_5,,skipped,30,188747.5,,,188735.89999999106,,188747.70000000298,2021-10-28T16:59:52.957Z,188829.228,1635440195,full,ni_sequenzen,NI_Sequenzen,,,,,,,,,,,,,,
,Sequence,flow.Sequence,0_2_29,,completion,30,188734.20000000298,,,188735.89999999106,,188747.89999999106,2021-10-28T16:59:52.957Z,188829.228,1635440195,full,ni_sequenzen,NI_Sequenzen,,,,,,,,,,,,,,
,Instructions_II,flow.Loop,0_2,,completion,,110868.89999999106,110872.207,110888.813,188735.89999999106,77847.08699999106,188748.09999999404,2021-10-28T16:59:52.957Z,188829.228,1635440195,full,ni_sequenzen,NI_Sequenzen,,,,,,,,,,,,,,
,Move,canvas.Screen,0_3_0_0_0_0,right,response,,188813,188812.392,188829.228,192892.29999999702,4063.071999997017,192893.89999999106,2021-10-28T16:59:57.103Z,192941.954,1635440195,full,ni_sequenzen,NI_Sequenzen,1,0,,,,,,,,,,,,
,Move,canvas.Screen,0_3_0_0_0_1,down,response,,192927.20000000298,192925.66,192941.954,196864.70000000298,3922.7460000029823,196865.89999999106,2021-10-28T17:00:01.075Z,196888.08,1635440195,full,ni_sequenzen,NI_Sequenzen,2,0,,,,,,,,,,,,
,Move,canvas.Screen,0_3_0_0_0_2,right,response,,196879.79999999702,196871.304,196888.08,198331.5,1443.4200000000128,198332.79999999702,2021-10-28T17:00:02.542Z,198353.383,1635440195,full,ni_sequenzen,NI_Sequenzen,3,0,,,,,,,,,,,,
,Move,canvas.Screen,0_3_0_0_0_3,down,response,,198346,198336.579,198353.383,198928.89999999106,575.5169999910577,198930.20000000298,2021-10-28T17:00:03.139Z,199119.127,1635440195,full,ni_sequenzen,NI_Sequenzen,4,0,,,,,,,,,,,,
,Move,canvas.Screen,0_3_0_0_0_4,-999,skipped,,198945.70000000298,,,198928.89999999106,,198946.20000000298,2021-10-28T17:00:03.156Z,199119.127,1635440195,full,ni_sequenzen,NI_Sequenzen,5,0,,,,,,,,,,,,
,Move,canvas.Screen,0_3_0_0_0_5,-999,skipped,,198960.29999999702,,,198928.89999999106,,198960.79999999702,2021-10-28T17:00:03.170Z,199119.127,1635440195,full,ni_sequenzen,NI_Sequenzen,6,0,,,,,,,,,,,,
,Move,canvas.Screen,0_3_0_0_0_6,-999,skipped,,198976.09999999404,,,198928.89999999106,,198976.5,2021-10-28T17:00:03.186Z,199119.127,1635440195,full,ni_sequenzen,NI_Sequenzen,7,0,,,,,,,,,,,,
,Move,canvas.Screen,0_3_0_0_0_7,-999,skipped,,198992,,,198928.89999999106,,198992.39999999106,2021-10-28T17:00:03.202Z,199119.127,1635440195,full,ni_sequenzen,NI_Sequenzen,8,0,,,,,,,,,,,,
,Move,canvas.Screen,0_3_0_0_0_8,-999,skipped,,199006.79999999702,,,198928.89999999106,,199007.29999999702,2021-10-28T17:00:03.217Z,199119.127,1635440195,full,ni_sequenzen,NI_Sequenzen,9,0,,,,,,,,,,,,
,Move,canvas.Screen,0_3_0_0_0_9,-999,skipped,,199025,,,198928.89999999106,,199025.59999999404,2021-10-28T17:00:03.235Z,199119.127,1635440195,full,ni_sequenzen,NI_Sequenzen,10,0,,,,,,,,,,,,
,Move,canvas.Screen,0_3_0_0_0_10,-999,skipped,,199043.89999999106,,,198928.89999999106,,199044.39999999106,2021-10-28T17:00:03.254Z,199119.127,1635440195,full,ni_sequenzen,NI_Sequenzen,11,0,,,,,,,,,,,,
,Move,canvas.Screen,0_3_0_0_0_11,-999,skipped,,199058.70000000298,,,198928.89999999106,,199059.09999999404,2021-10-28T17:00:03.268Z,199119.127,1635440195,full,ni_sequenzen,NI_Sequenzen,12,0,,,,,,,,,,,,
,Move,canvas.Screen,0_3_0_0_0_12,-999,skipped,,199072.79999999702,,,198928.89999999106,,199073.29999999702,2021-10-28T17:00:03.283Z,199119.127,1635440195,full,ni_sequenzen,NI_Sequenzen,13,0,,,,,,,,,,,,
,Move,canvas.Screen,0_3_0_0_0_13,-999,skipped,,199088.39999999106,,,198928.89999999106,,199088.79999999702,2021-10-28T17:00:03.298Z,199119.127,1635440195,full,ni_sequenzen,NI_Sequenzen,14,0,,,,,,,,,,,,
,Move,canvas.Screen,0_3_0_0_0_14,-999,skipped,,199101.39999999106,,,198928.89999999106,,199101.5,2021-10-28T17:00:03.311Z,199119.127,1635440195,full,ni_sequenzen,NI_Sequenzen,15,0,,,,,,,,,,,,
,Loop,flow.Loop,0_3_0_0_0,-999,completion,,188799.89999999106,188812.392,188829.228,198928.89999999106,10099.671999991057,199101.89999999106,2021-10-28T17:00:03.311Z,199119.127,1635440195,full,ni_sequenzen,NI_Sequenzen,,0,,,,,,,,,,,,
,Feedback,canvas.Screen,0_3_0_0_1,,timeout,,199107.89999999106,199102.519,199119.127,203098.761,4012.8859999999986,203100.5,2021-10-28T17:00:07.310Z,203132.013,1635440195,full,ni_sequenzen,NI_Sequenzen,,0,,,,,,,,,,,,
,Trial,flow.Sequence,0_3_0_0,,completion,,188777.70000000298,188812.392,188829.228,203098.761,14269.532999999996,203101.09999999404,2021-10-28T17:00:07.310Z,203165.291,1635440195,full,ni_sequenzen,NI_Sequenzen,,0,,,,,,,,,,,,
,Move,canvas.Screen,0_3_0_1_0_0,left,response,,203146.09999999404,203132.013,203165.291,203299,133.70900000000256,203300.5,2021-10-28T17:00:07.510Z,203331.85,1635440195,full,ni_sequenzen,NI_Sequenzen,1,1,,,,,,,,,,,,
,Move,canvas.Screen,0_3_0_1_0_1,down,response,,203315.89999999106,203315.04,203331.85,206496.39999999106,3164.5499999910535,206497.59999999404,2021-10-28T17:00:10.707Z,206528.673,1635440195,full,ni_sequenzen,NI_Sequenzen,2,1,,,,,,,,,,,,
,Move,canvas.Screen,0_3_0_1_0_2,right,response,,206513.39999999106,206511.832,206528.673,207144.70000000298,616.0270000029705,207146.29999999702,2021-10-28T17:00:11.356Z,207179.415,1635440195,full,ni_sequenzen,NI_Sequenzen,3,1,,,,,,,,,,,,
,Move,canvas.Screen,0_3_0_1_0_3,down,response,,207160,207144.661,207179.415,208214.20000000298,1034.785000002972,208215.5,2021-10-28T17:00:12.425Z,208243.576,1635440195,full,ni_sequenzen,NI_Sequenzen,4,1,,,,,,,,,,,,
,Move,canvas.Screen,0_3_0_1_0_4,left,response,,208229.39999999106,208226.915,208243.576,211680.29999999702,3436.723999997019,211681.89999999106,2021-10-28T17:00:15.891Z,211840.064,1635440195,full,ni_sequenzen,NI_Sequenzen,5,1,,,,,,,,,,,,
,Move,canvas.Screen,0_3_0_1_0_5,-999,skipped,,211696.89999999106,,,211680.29999999702,,211697.5,2021-10-28T17:00:15.907Z,211840.064,1635440195,full,ni_sequenzen,NI_Sequenzen,6,1,,,,,,,,,,,,
,Move,canvas.Screen,0_3_0_1_0_6,-999,skipped,,211712,,,211680.29999999702,,211712.39999999106,2021-10-28T17:00:15.922Z,211840.064,1635440195,full,ni_sequenzen,NI_Sequenzen,7,1,,,,,,,,,,,,
,Move,canvas.Screen,0_3_0_1_0_7,-999,skipped,,211726.29999999702,,,211680.29999999702,,211726.79999999702,2021-10-28T17:00:15.936Z,211840.064,1635440195,full,ni_sequenzen,NI_Sequenzen,8,1,,,,,,,,,,,,
,Move,canvas.Screen,0_3_0_1_0_8,-999,skipped,,211742.09999999404,,,211680.29999999702,,211742.5,2021-10-28T17:00:15.952Z,211840.064,1635440195,full,ni_sequenzen,NI_Sequenzen,9,1,,,,,,,,,,,,
,Move,canvas.Screen,0_3_0_1_0_9,-999,skipped,,211759.59999999404,,,211680.29999999702,,211760.09999999404,2021-10-28T17:00:15.969Z,211840.064,1635440195,full,ni_sequenzen,NI_Sequenzen,10,1,,,,,,,,,,,,
,Move,canvas.Screen,0_3_0_1_0_10,-999,skipped,,211773.89999999106,,,211680.29999999702,,211774.39999999106,2021-10-28T17:00:15.984Z,211840.064,1635440195,full,ni_sequenzen,NI_Sequenzen,11,1,,,,,,,,,,,,
,Move,canvas.Screen,0_3_0_1_0_11,-999,skipped,,211789,,,211680.29999999702,,211789.39999999106,2021-10-28T17:00:15.999Z,211840.064,1635440195,full,ni_sequenzen,NI_Sequenzen,12,1,,,,,,,,,,,,
,Move,canvas.Screen,0_3_0_1_0_12,-999,skipped,,211802.59999999404,,,211680.29999999702,,211803,2021-10-28T17:00:16.012Z,211840.064,1635440195,full,ni_sequenzen,NI_Sequenzen,13,1,,,,,,,,,,,,
,Move,canvas.Screen,0_3_0_1_0_13,-999,skipped,,211816,,,211680.29999999702,,211816.39999999106,2021-10-28T17:00:16.026Z,211840.064,1635440195,full,ni_sequenzen,NI_Sequenzen,14,1,,,,,,,,,,,,
,Move,canvas.Screen,0_3_0_1_0_14,-999,skipped,,211823.29999999702,,,211680.29999999702,,211823.59999999404,2021-10-28T17:00:16.033Z,211840.064,1635440195,full,ni_sequenzen,NI_Sequenzen,15,1,,,,,,,,,,,,
,Loop,flow.Loop,0_3_0_1_0,-999,completion,,203133,203132.013,203165.291,211680.29999999702,8515.008999997022,211824.09999999404,2021-10-28T17:00:16.033Z,211840.064,1635440195,full,ni_sequenzen,NI_Sequenzen,,1,,,,,,,,,,,,
,Feedback,canvas.Screen,0_3_0_1_1,,timeout,,211829.20000000298,211823.348,211840.064,215819.72,4046.0929999999935,215820.89999999106,2021-10-28T17:00:20.030Z,215886.157,1635440195,full,ni_sequenzen,NI_Sequenzen,,1,,,,,,,,,,,,
,Trial,flow.Sequence,0_3_0_1,,completion,,203102.29999999702,203132.013,203165.291,215819.72,12654.429000000004,215821.5,2021-10-28T17:00:20.031Z,215902.778,1635440195,full,ni_sequenzen,NI_Sequenzen,,1,,,,,,,,,,,,
,Move,canvas.Screen,0_3_0_2_0_0,down,response,,215891.89999999106,215886.157,,215897.89999999106,,215904.89999999106,2021-10-28T17:00:20.114Z,215936.015,1635440195,full,ni_sequenzen,NI_Sequenzen,1,2,,,,,,,,,,,,
,Move,canvas.Screen,0_3_0_2_0_1,right,response,,215913.5,215919.356,215936.015,220809.89999999106,4873.884999991045,220811.29999999702,2021-10-28T17:00:25.021Z,220831.312,1635440195,full,ni_sequenzen,NI_Sequenzen,2,2,,,,,,,,,,,,
,Move,canvas.Screen,0_3_0_2_0_2,left,response,,220827.59999999404,220814.49,220831.312,222362.29999999702,1530.9879999970144,222364.29999999702,2021-10-28T17:00:26.574Z,222379.872,1635440195,full,ni_sequenzen,NI_Sequenzen,3,2,,,,,,,,,,,,
,Move,canvas.Screen,0_3_0_2_0_3,down,response,,222376.5,222363.078,222379.872,229356.59999999404,6976.7279999940365,229358.20000000298,2021-10-28T17:00:33.567Z,229406.285,1635440195,full,ni_sequenzen,NI_Sequenzen,4,2,,,,,,,,,,,,
,Move,canvas.Screen,0_3_0_2_0_4,left,response,,229372.20000000298,229372.77,229406.285,232657.59999999404,3251.314999994036,232659,2021-10-28T17:00:36.868Z,232819.599,1635440195,full,ni_sequenzen,NI_Sequenzen,5,2,,,,,,,,,,,,
,Move,canvas.Screen,0_3_0_2_0_5,-999,skipped,,232674.29999999702,,,232657.59999999404,,232674.79999999702,2021-10-28T17:00:36.884Z,232819.599,1635440195,full,ni_sequenzen,NI_Sequenzen,6,2,,,,,,,,,,,,
,Move,canvas.Screen,0_3_0_2_0_6,-999,skipped,,232690.29999999702,,,232657.59999999404,,232690.79999999702,2021-10-28T17:00:36.900Z,232819.599,1635440195,full,ni_sequenzen,NI_Sequenzen,7,2,,,,,,,,,,,,
,Move,canvas.Screen,0_3_0_2_0_7,-999,skipped,,232703.79999999702,,,232657.59999999404,,232704.29999999702,2021-10-28T17:00:36.913Z,232819.599,1635440195,full,ni_sequenzen,NI_Sequenzen,8,2,,,,,,,,,,,,
,Move,canvas.Screen,0_3_0_2_0_8,-999,skipped,,232717,,,232657.59999999404,,232717.39999999106,2021-10-28T17:00:36.927Z,232819.599,1635440195,full,ni_sequenzen,NI_Sequenzen,9,2,,,,,,,,,,,,
,Move,canvas.Screen,0_3_0_2_0_9,-999,skipped,,232731.09999999404,,,232657.59999999404,,232731.59999999404,2021-10-28T17:00:36.941Z,232819.599,1635440195,full,ni_sequenzen,NI_Sequenzen,10,2,,,,,,,,,,,,
,Move,canvas.Screen,0_3_0_2_0_10,-999,skipped,,232746.20000000298,,,232657.59999999404,,232746.70000000298,2021-10-28T17:00:36.956Z,232819.599,1635440195,full,ni_sequenzen,NI_Sequenzen,11,2,,,,,,,,,,,,
,Move,canvas.Screen,0_3_0_2_0_11,-999,skipped,,232759.79999999702,,,232657.59999999404,,232760.29999999702,2021-10-28T17:00:36.969Z,232819.599,1635440195,full,ni_sequenzen,NI_Sequenzen,12,2,,,,,,,,,,,,
,Move,canvas.Screen,0_3_0_2_0_12,-999,skipped,,232775.20000000298,,,232657.59999999404,,232775.59999999404,2021-10-28T17:00:36.985Z,232819.599,1635440195,full,ni_sequenzen,NI_Sequenzen,13,2,,,,,,,,,,,,
,Move,canvas.Screen,0_3_0_2_0_13,-999,skipped,,232790.39999999106,,,232657.59999999404,,232790.89999999106,2021-10-28T17:00:37.000Z,232819.599,1635440195,full,ni_sequenzen,NI_Sequenzen,14,2,,,,,,,,,,,,
,Move,canvas.Screen,0_3_0_2_0_14,-999,skipped,,232804.09999999404,,,232657.59999999404,,232804.59999999404,2021-10-28T17:00:37.014Z,232819.599,1635440195,full,ni_sequenzen,NI_Sequenzen,15,2,,,,,,,,,,,,
,Loop,flow.Loop,0_3_0_2_0,-999,completion,,215878.39999999106,215886.157,215902.778,232657.59999999404,16754.82199999405,232805.39999999106,2021-10-28T17:00:37.014Z,232819.599,1635440195,full,ni_sequenzen,NI_Sequenzen,,2,,,,,,,,,,,,
,Feedback,canvas.Screen,0_3_0_2_1,,timeout,,232816.29999999702,232802.766,232819.599,236799.291,4046.070000000007,236800.59999999404,2021-10-28T17:00:41.010Z,236865.669,1635440195,full,ni_sequenzen,NI_Sequenzen,,2,,,,,,,,,,,,
,Trial,flow.Sequence,0_3_0_2,,completion,,215822.70000000298,215886.157,215902.778,236799.291,20896.513000000006,236801,2021-10-28T17:00:41.010Z,236882.236,1635440195,full,ni_sequenzen,NI_Sequenzen,,2,,,,,,,,,,,,
,Move,canvas.Screen,0_3_0_3_0_0,right,response,,236873.39999999106,236865.669,236882.236,237030.20000000298,147.9640000029758,237031.79999999702,2021-10-28T17:00:41.241Z,237048.777,1635440195,full,ni_sequenzen,NI_Sequenzen,1,3,,,,,,,,,,,,
,Move,canvas.Screen,0_3_0_3_0_1,down,response,,237045.5,237032.082,237048.777,239135,2086.222999999998,239136.29999999702,2021-10-28T17:00:43.345Z,239180.068,1635440195,full,ni_sequenzen,NI_Sequenzen,2,3,,,,,,,,,,,,
,Move,canvas.Screen,0_3_0_3_0_2,right,response,,239152.09999999404,239146.591,239180.068,239651.89999999106,471.83199999106,239653.59999999404,2021-10-28T17:00:43.863Z,239679.514,1635440195,full,ni_sequenzen,NI_Sequenzen,3,3,,,,,,,,,,,,
,Move,canvas.Screen,0_3_0_3_0_3,down,response,,239668.29999999702,239662.786,239679.514,240441.29999999702,761.7859999970242,240442.70000000298,2021-10-28T17:00:44.652Z,240628.604,1635440195,full,ni_sequenzen,NI_Sequenzen,4,3,,,,,,,,,,,,
,Move,canvas.Screen,0_3_0_3_0_4,-999,skipped,,240456.89999999106,,,240441.29999999702,,240457.39999999106,2021-10-28T17:00:44.667Z,240628.604,1635440195,full,ni_sequenzen,NI_Sequenzen,5,3,,,,,,,,,,,,
,Move,canvas.Screen,0_3_0_3_0_5,-999,skipped,,240472,,,240441.29999999702,,240472.39999999106,2021-10-28T17:00:44.681Z,240628.604,1635440195,full,ni_sequenzen,NI_Sequenzen,6,3,,,,,,,,,,,,
,Move,canvas.Screen,0_3_0_3_0_6,-999,skipped,,240485.5,,,240441.29999999702,,240486,2021-10-28T17:00:44.695Z,240628.604,1635440195,full,ni_sequenzen,NI_Sequenzen,7,3,,,,,,,,,,,,
,Move,canvas.Screen,0_3_0_3_0_7,-999,skipped,,240498.79999999702,,,240441.29999999702,,240499.20000000298,2021-10-28T17:00:44.708Z,240628.604,1635440195,full,ni_sequenzen,NI_Sequenzen,8,3,,,,,,,,,,,,
,Move,canvas.Screen,0_3_0_3_0_8,-999,skipped,,240514.70000000298,,,240441.29999999702,,240515.09999999404,2021-10-28T17:00:44.724Z,240628.604,1635440195,full,ni_sequenzen,NI_Sequenzen,9,3,,,,,,,,,,,,
,Move,canvas.Screen,0_3_0_3_0_9,-999,skipped,,240528.29999999702,,,240441.29999999702,,240529.09999999404,2021-10-28T17:00:44.738Z,240628.604,1635440195,full,ni_sequenzen,NI_Sequenzen,10,3,,,,,,,,,,,,
,Move,canvas.Screen,0_3_0_3_0_10,-999,skipped,,240542,,,240441.29999999702,,240542.39999999106,2021-10-28T17:00:44.752Z,240628.604,1635440195,full,ni_sequenzen,NI_Sequenzen,11,3,,,,,,,,,,,,
,Move,canvas.Screen,0_3_0_3_0_11,-999,skipped,,240555.59999999404,,,240441.29999999702,,240556,2021-10-28T17:00:44.765Z,240628.604,1635440195,full,ni_sequenzen,NI_Sequenzen,12,3,,,,,,,,,,,,
,Move,canvas.Screen,0_3_0_3_0_12,-999,skipped,,240570.70000000298,,,240441.29999999702,,240571.20000000298,2021-10-28T17:00:44.780Z,240628.604,1635440195,full,ni_sequenzen,NI_Sequenzen,13,3,,,,,,,,,,,,
,Move,canvas.Screen,0_3_0_3_0_13,-999,skipped,,240584.70000000298,,,240441.29999999702,,240585.09999999404,2021-10-28T17:00:44.794Z,240628.604,1635440195,full,ni_sequenzen,NI_Sequenzen,14,3,,,,,,,,,,,,
,Move,canvas.Screen,0_3_0_3_0_14,-999,skipped,,240598.89999999106,,,240441.29999999702,,240599.29999999702,2021-10-28T17:00:44.808Z,240628.604,1635440195,full,ni_sequenzen,NI_Sequenzen,15,3,,,,,,,,,,,,
,Loop,flow.Loop,0_3_0_3_0,-999,completion,,236859.20000000298,236865.669,236882.236,240441.29999999702,3559.0639999970153,240600,2021-10-28T17:00:44.809Z,240628.604,1635440195,full,ni_sequenzen,NI_Sequenzen,,3,,,,,,,,,,,,
,Feedback,canvas.Screen,0_3_0_3_1,,timeout,,240613,240611.899,240628.604,244608.243,4046.043000000005,244609.29999999702,2021-10-28T17:00:48.818Z,244674.647,1635440195,full,ni_sequenzen,NI_Sequenzen,,3,,,,,,,,,,,,
,Trial,flow.Sequence,0_3_0_3,,completion,,236802.20000000298,236865.669,236882.236,244608.243,7726.006999999983,244609.89999999106,2021-10-28T17:00:48.819Z,244691.341,1635440195,full,ni_sequenzen,NI_Sequenzen,,3,,,,,,,,,,,,
,Move,canvas.Screen,0_3_0_4_0_0,down,response,,244681.39999999106,244674.647,244691.341,256934.09999999404,12242.758999994054,256935.5,2021-10-28T17:01:01.145Z,256979.321,1635440195,full,ni_sequenzen,NI_Sequenzen,1,4,,,,,,,,,,,,
,Move,canvas.Screen,0_3_0_4_0_1,right,response,,256949,256945.602,256979.321,258077.89999999106,1098.578999991063,258079.89999999106,2021-10-28T17:01:02.289Z,258111.454,1635440195,full,ni_sequenzen,NI_Sequenzen,2,4,,,,,,,,,,,,
,Move,canvas.Screen,0_3_0_4_0_2,right,response,,258094.29999999702,258094.745,258111.454,261824.5,3713.046000000002,261826,2021-10-28T17:01:06.035Z,261857.789,1635440195,full,ni_sequenzen,NI_Sequenzen,3,4,,,,,,,,,,,,
,Move,canvas.Screen,0_3_0_4_0_3,down,response,,261841,261841.032,261857.789,262447.299999997,589.51099999703,262448.59999999404,2021-10-28T17:01:06.658Z,262557.514,1635440195,full,ni_sequenzen,NI_Sequenzen,4,4,,,,,,,,,,,,
,Move,canvas.Screen,0_3_0_4_0_4,-999,skipped,,262461.700000003,,,262447.299999997,,262462.200000003,2021-10-28T17:01:06.671Z,262557.514,1635440195,full,ni_sequenzen,NI_Sequenzen,5,4,,,,,,,,,,,,
,Move,canvas.Screen,0_3_0_4_0_5,-999,skipped,,262475.299999997,,,262447.299999997,,262475.799999997,2021-10-28T17:01:06.685Z,262557.514,1635440195,full,ni_sequenzen,NI_Sequenzen,6,4,,,,,,,,,,,,
,Move,canvas.Screen,0_3_0_4_0_6,-999,skipped,,262488.89999999106,,,262447.299999997,,262489.09999999404,2021-10-28T17:01:06.698Z,262557.514,1635440195,full,ni_sequenzen,NI_Sequenzen,7,4,,,,,,,,,,,,
,Move,canvas.Screen,0_3_0_4_0_7,-999,skipped,,262495.200000003,,,262447.299999997,,262495.299999997,2021-10-28T17:01:06.704Z,262557.514,1635440195,full,ni_sequenzen,NI_Sequenzen,8,4,,,,,,,,,,,,
,Move,canvas.Screen,0_3_0_4_0_8,-999,skipped,,262500.09999999404,,,262447.299999997,,262500.299999997,2021-10-28T17:01:06.709Z,262557.514,1635440195,full,ni_sequenzen,NI_Sequenzen,9,4,,,,,,,,,,,,
,Move,canvas.Screen,0_3_0_4_0_9,-999,skipped,,262505.09999999404,,,262447.299999997,,262505.200000003,2021-10-28T17:01:06.714Z,262557.514,1635440195,full,ni_sequenzen,NI_Sequenzen,10,4,,,,,,,,,,,,
,Move,canvas.Screen,0_3_0_4_0_10,-999,skipped,,262512.09999999404,,,262447.299999997,,262512.39999999106,2021-10-28T17:01:06.722Z,262557.514,1635440195,full,ni_sequenzen,NI_Sequenzen,11,4,,,,,,,,,,,,
,Move,canvas.Screen,0_3_0_4_0_11,-999,skipped,,262517.700000003,,,262447.299999997,,262517.89999999106,2021-10-28T17:01:06.727Z,262557.514,1635440195,full,ni_sequenzen,NI_Sequenzen,12,4,,,,,,,,,,,,
,Move,canvas.Screen,0_3_0_4_0_12,-999,skipped,,262522.89999999106,,,262447.299999997,,262523.09999999404,2021-10-28T17:01:06.732Z,262557.514,1635440195,full,ni_sequenzen,NI_Sequenzen,13,4,,,,,,,,,,,,
,Move,canvas.Screen,0_3_0_4_0_13,-999,skipped,,262528.799999997,,,262447.299999997,,262529,2021-10-28T17:01:06.738Z,262557.514,1635440195,full,ni_sequenzen,NI_Sequenzen,14,4,,,,,,,,,,,,
,Move,canvas.Screen,0_3_0_4_0_14,-999,skipped,,262534.799999997,,,262447.299999997,,262535,2021-10-28T17:01:06.744Z,262557.514,1635440195,full,ni_sequenzen,NI_Sequenzen,15,4,,,,,,,,,,,,
,Loop,flow.Loop,0_3_0_4_0,-999,completion,,244665.39999999106,244674.647,244691.341,262447.299999997,17755.958999997034,262535.299999997,2021-10-28T17:01:06.744Z,262557.514,1635440195,full,ni_sequenzen,NI_Sequenzen,,4,,,,,,,,,,,,
,Feedback,canvas.Screen,0_3_0_4_1,,timeout,,262539.5,262523.751,262557.514,266536.652,4045.717000000004,266537.799999997,2021-10-28T17:01:10.747Z,266603.231,1635440195,full,ni_sequenzen,NI_Sequenzen,,4,,,,,,,,,,,,
,Trial,flow.Sequence,0_3_0_4,,completion,,244611.09999999404,244674.647,244691.341,266536.652,21845.311000000016,266538.39999999106,2021-10-28T17:01:10.747Z,266619.873,1635440195,full,ni_sequenzen,NI_Sequenzen,,4,,,,,,,,,,,,
,Move,canvas.Screen,0_3_0_5_0_0,down,response,,266609.09999999404,266603.231,266619.873,267680.799999997,1060.9269999969983,267710.39999999106,2021-10-28T17:01:11.919Z,267718.735,1635440195,full,ni_sequenzen,NI_Sequenzen,1,5,,,,,,,,,,,,
,Move,canvas.Screen,0_3_0_5_0_1,left,response,,267716,267702.067,267718.735,268042.39999999106,323.6649999910733,268043.700000003,2021-10-28T17:01:12.253Z,268068.443,1635440195,full,ni_sequenzen,NI_Sequenzen,2,5,,,,,,,,,,,,
,Move,canvas.Screen,0_3_0_5_0_2,down,response,,268057.09999999404,268051.677,268068.443,269302.09999999404,1233.6569999940111,269303.39999999106,2021-10-28T17:01:13.513Z,269350.453,1635440195,full,ni_sequenzen,NI_Sequenzen,3,5,,,,,,,,,,,,
,Move,canvas.Screen,0_3_0_5_0_3,right,response,,269316.299999997,269334.137,269350.453,269749.5,399.0470000000205,269751.09999999404,2021-10-28T17:01:13.960Z,269783.37,1635440195,full,ni_sequenzen,NI_Sequenzen,4,5,,,,,,,,,,,,
,Move,canvas.Screen,0_3_0_5_0_4,left,response,,269771.5,269766.71,269783.37,270984.59999999404,1201.2299999940442,270985.89999999106,2021-10-28T17:01:15.195Z,271065.441,1635440195,full,ni_sequenzen,NI_Sequenzen,5,5,,,,,,,,,,,,
,Move,canvas.Screen,0_3_0_5_0_5,-999,skipped,,270999.5,,,270984.59999999404,,271000,2021-10-28T17:01:15.209Z,271065.441,1635440195,full,ni_sequenzen,NI_Sequenzen,6,5,,,,,,,,,,,,
,Move,canvas.Screen,0_3_0_5_0_6,-999,skipped,,271010.700000003,,,270984.59999999404,,271010.89999999106,2021-10-28T17:01:15.220Z,271065.441,1635440195,full,ni_sequenzen,NI_Sequenzen,7,5,,,,,,,,,,,,
,Move,canvas.Screen,0_3_0_5_0_7,-999,skipped,,271016.700000003,,,270984.59999999404,,271016.799999997,2021-10-28T17:01:15.226Z,271065.441,1635440195,full,ni_sequenzen,NI_Sequenzen,8,5,,,,,,,,,,,,
,Move,canvas.Screen,0_3_0_5_0_8,-999,skipped,,271021.39999999106,,,270984.59999999404,,271021.700000003,2021-10-28T17:01:15.231Z,271065.441,1635440195,full,ni_sequenzen,NI_Sequenzen,9,5,,,,,,,,,,,,
,Move,canvas.Screen,0_3_0_5_0_9,-999,skipped,,271026.39999999106,,,270984.59999999404,,271026.5,2021-10-28T17:01:15.236Z,271065.441,1635440195,full,ni_sequenzen,NI_Sequenzen,10,5,,,,,,,,,,,,
,Move,canvas.Screen,0_3_0_5_0_10,-999,skipped,,271031.09999999404,,,270984.59999999404,,271032.200000003,2021-10-28T17:01:15.241Z,271065.441,1635440195,full,ni_sequenzen,NI_Sequenzen,11,5,,,,,,,,,,,,
,Move,canvas.Screen,0_3_0_5_0_11,-999,skipped,,271037.09999999404,,,270984.59999999404,,271037.200000003,2021-10-28T17:01:15.246Z,271065.441,1635440195,full,ni_sequenzen,NI_Sequenzen,12,5,,,,,,,,,,,,
,Move,canvas.Screen,0_3_0_5_0_12,-999,skipped,,271042.299999997,,,270984.59999999404,,271042.5,2021-10-28T17:01:15.252Z,271065.441,1635440195,full,ni_sequenzen,NI_Sequenzen,13,5,,,,,,,,,,,,
,Move,canvas.Screen,0_3_0_5_0_13,-999,skipped,,271047.200000003,,,270984.59999999404,,271047.299999997,2021-10-28T17:01:15.256Z,271065.441,1635440195,full,ni_sequenzen,NI_Sequenzen,14,5,,,,,,,,,,,,
,Move,canvas.Screen,0_3_0_5_0_14,-999,skipped,,271053,,,270984.59999999404,,271053.200000003,2021-10-28T17:01:15.262Z,271065.441,1635440195,full,ni_sequenzen,NI_Sequenzen,15,5,,,,,,,,,,,,
,Loop,flow.Loop,0_3_0_5_0,-999,completion,,266595.700000003,266603.231,266619.873,270984.59999999404,4364.726999994018,271053.5,2021-10-28T17:01:15.263Z,271065.441,1635440195,full,ni_sequenzen,NI_Sequenzen,,5,,,,,,,,,,,,
,Feedback,canvas.Screen,0_3_0_5_1,,timeout,,271057.5,271048.734,271065.441,275044.974,4046.198000000033,275046.200000003,2021-10-28T17:01:19.255Z,275111.639,1635440195,full,ni_sequenzen,NI_Sequenzen,,5,,,,,,,,,,,,
,Trial,flow.Sequence,0_3_0_5,,completion,,266539.700000003,266603.231,266619.873,275044.974,8425.100999999966,275046.700000003,2021-10-28T17:01:19.256Z,275144.787,1635440195,full,ni_sequenzen,NI_Sequenzen,,5,,,,,,,,,,,,
,Move,canvas.Screen,0_3_0_6_0_0,down,response,,275114.299999997,275111.639,275144.787,276578.89999999106,1434.1129999910481,276580.39999999106,2021-10-28T17:01:20.789Z,276610.806,1635440195,full,ni_sequenzen,NI_Sequenzen,1,6,,,,,,,,,,,,
,Move,canvas.Screen,0_3_0_6_0_1,right,response,,276596.59999999404,276593.345,276610.806,277111.59999999404,500.79399999405723,277112.89999999106,2021-10-28T17:01:21.322Z,277142.871,1635440195,full,ni_sequenzen,NI_Sequenzen,2,6,,,,,,,,,,,,
,Move,canvas.Screen,0_3_0_6_0_2,left,response,,277126.5,277126.188,277142.871,278111.700000003,968.8290000029956,278113.09999999404,2021-10-28T17:01:22.322Z,278141.869,1635440195,full,ni_sequenzen,NI_Sequenzen,3,6,,,,,,,,,,,,
,Move,canvas.Screen,0_3_0_6_0_3,down,response,,278126.5,278125.233,278141.869,281731.39999999106,3589.5309999910532,281732.700000003,2021-10-28T17:01:25.942Z,281788.308,1635440195,full,ni_sequenzen,NI_Sequenzen,4,6,,,,,,,,,,,,
,Move,canvas.Screen,0_3_0_6_0_4,down,response,,281746,281738.259,281788.308,281896.39999999106,108.09199999104021,281897.200000003,2021-10-28T17:01:26.106Z,281922.276,1635440195,full,ni_sequenzen,NI_Sequenzen,5,6,,,,,,,,,,,,
,Move,canvas.Screen,0_3_0_6_0_5,down,response,,281908.59999999404,281904.791,281922.276,282093.39999999106,171.12399999104673,282094.799999997,2021-10-28T17:01:26.304Z,282121.315,1635440195,full,ni_sequenzen,NI_Sequenzen,6,6,,,,,,,,,,,,
,Move,canvas.Screen,0_3_0_6_0_6,down,response,,282108.200000003,282104.658,282121.315,282314.09999999404,192.7849999940372,282315.39999999106,2021-10-28T17:01:26.524Z,282337.785,1635440195,full,ni_sequenzen,NI_Sequenzen,7,6,,,,,,,,,,,,
,Move,canvas.Screen,0_3_0_6_0_7,right,response,,282328.89999999106,282321.112,282337.785,287883.799999997,5546.014999997045,287885.299999997,2021-10-28T17:01:32.094Z,288015.527,1635440195,full,ni_sequenzen,NI_Sequenzen,8,6,,,,,,,,,,,,
,Move,canvas.Screen,0_3_0_6_0_8,-999,skipped,,287898.299999997,,,287883.799999997,,287898.89999999106,2021-10-28T17:01:32.108Z,288015.527,1635440195,full,ni_sequenzen,NI_Sequenzen,9,6,,,,,,,,,,,,
,Move,canvas.Screen,0_3_0_6_0_9,-999,skipped,,287913.700000003,,,287883.799999997,,287914.09999999404,2021-10-28T17:01:32.123Z,288015.527,1635440195,full,ni_sequenzen,NI_Sequenzen,10,6,,,,,,,,,,,,
,Move,canvas.Screen,0_3_0_6_0_10,-999,skipped,,287927.59999999404,,,287883.799999997,,287928,2021-10-28T17:01:32.137Z,288015.527,1635440195,full,ni_sequenzen,NI_Sequenzen,11,6,,,,,,,,,,,,
,Move,canvas.Screen,0_3_0_6_0_11,-999,skipped,,287941.700000003,,,287883.799999997,,287942.09999999404,2021-10-28T17:01:32.151Z,288015.527,1635440195,full,ni_sequenzen,NI_Sequenzen,12,6,,,,,,,,,,,,
,Move,canvas.Screen,0_3_0_6_0_12,-999,skipped,,287957.200000003,,,287883.799999997,,287957.799999997,2021-10-28T17:01:32.167Z,288015.527,1635440195,full,ni_sequenzen,NI_Sequenzen,13,6,,,,,,,,,,,,
,Move,canvas.Screen,0_3_0_6_0_13,-999,skipped,,287972.89999999106,,,287883.799999997,,287973.39999999106,2021-10-28T17:01:32.182Z,288015.527,1635440195,full,ni_sequenzen,NI_Sequenzen,14,6,,,,,,,,,,,,
,Move,canvas.Screen,0_3_0_6_0_14,-999,skipped,,287986.200000003,,,287883.799999997,,287986.700000003,2021-10-28T17:01:32.196Z,288015.527,1635440195,full,ni_sequenzen,NI_Sequenzen,15,6,,,,,,,,,,,,
,Loop,flow.Loop,0_3_0_6_0,-999,completion,,275098.89999999106,275111.639,275144.787,287883.799999997,12739.012999997009,287987.39999999106,2021-10-28T17:01:32.196Z,288015.527,1635440195,full,ni_sequenzen,NI_Sequenzen,,6,,,,,,,,,,,,
,Feedback,canvas.Screen,0_3_0_6_1,,timeout,,287998.200000003,287998.698,288015.527,291995.099,4046.1269999999786,291996.200000003,2021-10-28T17:01:36.205Z,292061.654,1635440195,full,ni_sequenzen,NI_Sequenzen,,6,,,,,,,,,,,,
,Trial,flow.Sequence,0_3_0_6,,completion,,275048,275111.639,275144.787,291995.099,16850.311999999976,291996.700000003,2021-10-28T17:01:36.206Z,292078.184,1635440195,full,ni_sequenzen,NI_Sequenzen,,6,,,,,,,,,,,,
,Move,canvas.Screen,0_3_0_7_0_0,down,response,,292066,292061.654,292078.184,298285,6206.815999999992,298286.39999999106,2021-10-28T17:01:42.495Z,298305.503,1635440195,full,ni_sequenzen,NI_Sequenzen,1,7,,,,,,,,,,,,
,Move,canvas.Screen,0_3_0_7_0_1,right,response,,298301,298288.619,298305.503,298836.700000003,531.1970000029542,298838,2021-10-28T17:01:43.047Z,298854.98,1635440195,full,ni_sequenzen,NI_Sequenzen,2,7,,,,,,,,,,,,
,Move,canvas.Screen,0_3_0_7_0_2,right,response,,298852.89999999106,298838.299,298854.98,301056,2201.0200000000186,301057.299999997,2021-10-28T17:01:45.266Z,301086.089,1635440195,full,ni_sequenzen,NI_Sequenzen,3,7,,,,,,,,,,,,
,Move,canvas.Screen,0_3_0_7_0_3,down,response,,301070.799999997,301069.372,301086.089,301313.200000003,227.11100000300212,301314.5,2021-10-28T17:01:45.524Z,301518.974,1635440195,full,ni_sequenzen,NI_Sequenzen,4,7,,,,,,,,,,,,
,Move,canvas.Screen,0_3_0_7_0_4,-999,skipped,,301327.799999997,,,301313.200000003,,301328.299999997,2021-10-28T17:01:45.537Z,301518.974,1635440195,full,ni_sequenzen,NI_Sequenzen,5,7,,,,,,,,,,,,
,Move,canvas.Screen,0_3_0_7_0_5,-999,skipped,,301343.200000003,,,301313.200000003,,301343.700000003,2021-10-28T17:01:45.553Z,301518.974,1635440195,full,ni_sequenzen,NI_Sequenzen,6,7,,,,,,,,,,,,
,Move,canvas.Screen,0_3_0_7_0_6,-999,skipped,,301357.39999999106,,,301313.200000003,,301357.799999997,2021-10-28T17:01:45.567Z,301518.974,1635440195,full,ni_sequenzen,NI_Sequenzen,7,7,,,,,,,,,,,,
,Move,canvas.Screen,0_3_0_7_0_7,-999,skipped,,301371.200000003,,,301313.200000003,,301371.59999999404,2021-10-28T17:01:45.581Z,301518.974,1635440195,full,ni_sequenzen,NI_Sequenzen,8,7,,,,,,,,,,,,
,Move,canvas.Screen,0_3_0_7_0_8,-999,skipped,,301384.59999999404,,,301313.200000003,,301385,2021-10-28T17:01:45.594Z,301518.974,1635440195,full,ni_sequenzen,NI_Sequenzen,9,7,,,,,,,,,,,,
,Move,canvas.Screen,0_3_0_7_0_9,-999,skipped,,301399.799999997,,,301313.200000003,,301400.299999997,2021-10-28T17:01:45.609Z,301518.974,1635440195,full,ni_sequenzen,NI_Sequenzen,10,7,,,,,,,,,,,,
,Move,canvas.Screen,0_3_0_7_0_10,-999,skipped,,301415,,,301313.200000003,,301415.39999999106,2021-10-28T17:01:45.624Z,301518.974,1635440195,full,ni_sequenzen,NI_Sequenzen,11,7,,,,,,,,,,,,
,Move,canvas.Screen,0_3_0_7_0_11,-999,skipped,,301429.89999999106,,,301313.200000003,,301430.39999999106,2021-10-28T17:01:45.639Z,301518.974,1635440195,full,ni_sequenzen,NI_Sequenzen,12,7,,,,,,,,,,,,
,Move,canvas.Screen,0_3_0_7_0_12,-999,skipped,,301445.39999999106,,,301313.200000003,,301446,2021-10-28T17:01:45.655Z,301518.974,1635440195,full,ni_sequenzen,NI_Sequenzen,13,7,,,,,,,,,,,,
,Move,canvas.Screen,0_3_0_7_0_13,-999,skipped,,301458.799999997,,,301313.200000003,,301459.299999997,2021-10-28T17:01:45.668Z,301518.974,1635440195,full,ni_sequenzen,NI_Sequenzen,14,7,,,,,,,,,,,,
,Move,canvas.Screen,0_3_0_7_0_14,-999,skipped,,301472.200000003,,,301313.200000003,,301472.700000003,2021-10-28T17:01:45.682Z,301518.974,1635440195,full,ni_sequenzen,NI_Sequenzen,15,7,,,,,,,,,,,,
,Loop,flow.Loop,0_3_0_7_0,-999,completion,,292049.299999997,292061.654,292078.184,301313.200000003,9235.016000002972,301473.39999999106,2021-10-28T17:01:45.682Z,301518.974,1635440195,full,ni_sequenzen,NI_Sequenzen,,7,,,,,,,,,,,,
,Feedback,canvas.Screen,0_3_0_7_1,,timeout,,301484,301469.044,301518.974,305498.497,4046.167000000016,305499.799999997,2021-10-28T17:01:49.709Z,305565.141,1635440195,full,ni_sequenzen,NI_Sequenzen,,7,,,,,,,,,,,,
,Trial,flow.Sequence,0_3_0_7,,completion,,291997.799999997,292061.654,292078.184,305498.497,13420.312999999966,305500.39999999106,2021-10-28T17:01:49.709Z,305581.741,1635440195,full,ni_sequenzen,NI_Sequenzen,,7,,,,,,,,,,,,
,Move,canvas.Screen,0_3_0_8_0_0,down,response,,305571,305565.141,305581.741,307971.39999999106,2389.6589999910793,307972.799999997,2021-10-28T17:01:52.182Z,307996.022,1635440195,full,ni_sequenzen,NI_Sequenzen,1,8,,,,,,,,,,,,
,Move,canvas.Screen,0_3_0_8_0_1,right,response,,307989,307979.23,307996.022,308435,438.9780000000028,308436.299999997,2021-10-28T17:01:52.645Z,308462.238,1635440195,full,ni_sequenzen,NI_Sequenzen,2,8,,,,,,,,,,,,
,Move,canvas.Screen,0_3_0_8_0_2,right,response,,308449.799999997,308445.491,308462.238,310186.59999999404,1724.3619999940274,310188,2021-10-28T17:01:54.397Z,310243.77,1635440195,full,ni_sequenzen,NI_Sequenzen,3,8,,,,,,,,,,,,
,Move,canvas.Screen,0_3_0_8_0_3,down,response,,310201.39999999106,310193.788,310243.77,310525.59999999404,281.8299999940209,310527.59999999404,2021-10-28T17:01:54.737Z,310711.018,1635440195,full,ni_sequenzen,NI_Sequenzen,4,8,,,,,,,,,,,,
,Move,canvas.Screen,0_3_0_8_0_4,-999,skipped,,310542.299999997,,,310525.59999999404,,310542.89999999106,2021-10-28T17:01:54.752Z,310711.018,1635440195,full,ni_sequenzen,NI_Sequenzen,5,8,,,,,,,,,,,,
,Move,canvas.Screen,0_3_0_8_0_5,-999,skipped,,310556,,,310525.59999999404,,310556.299999997,2021-10-28T17:01:54.765Z,310711.018,1635440195,full,ni_sequenzen,NI_Sequenzen,6,8,,,,,,,,,,,,
,Move,canvas.Screen,0_3_0_8_0_6,-999,skipped,,310569.5,,,310525.59999999404,,310569.89999999106,2021-10-28T17:01:54.779Z,310711.018,1635440195,full,ni_sequenzen,NI_Sequenzen,7,8,,,,,,,,,,,,
,Move,canvas.Screen,0_3_0_8_0_7,-999,skipped,,310584.799999997,,,310525.59999999404,,310585.200000003,2021-10-28T17:01:54.794Z,310711.018,1635440195,full,ni_sequenzen,NI_Sequenzen,8,8,,,,,,,,,,,,
,Move,canvas.Screen,0_3_0_8_0_8,-999,skipped,,310599.200000003,,,310525.59999999404,,310599.59999999404,2021-10-28T17:01:54.809Z,310711.018,1635440195,full,ni_sequenzen,NI_Sequenzen,9,8,,,,,,,,,,,,
,Move,canvas.Screen,0_3_0_8_0_9,-999,skipped,,310613.39999999106,,,310525.59999999404,,310613.799999997,2021-10-28T17:01:54.823Z,310711.018,1635440195,full,ni_sequenzen,NI_Sequenzen,10,8,,,,,,,,,,,,
,Move,canvas.Screen,0_3_0_8_0_10,-999,skipped,,310629.59999999404,,,310525.59999999404,,310630,2021-10-28T17:01:54.839Z,310711.018,1635440195,full,ni_sequenzen,NI_Sequenzen,11,8,,,,,,,,,,,,
,Move,canvas.Screen,0_3_0_8_0_11,-999,skipped,,310642.59999999404,,,310525.59999999404,,310643.09999999404,2021-10-28T17:01:54.852Z,310711.018,1635440195,full,ni_sequenzen,NI_Sequenzen,12,8,,,,,,,,,,,,
,Move,canvas.Screen,0_3_0_8_0_12,-999,skipped,,310656.200000003,,,310525.59999999404,,310656.59999999404,2021-10-28T17:01:54.866Z,310711.018,1635440195,full,ni_sequenzen,NI_Sequenzen,13,8,,,,,,,,,,,,
