meta,sender,sender_type,sender_id,response,ended_on,instrCount,time_run,time_render,time_show,time_end,duration,time_commit,timestamp,time_switch,openLabId,type,task,project,move,trialN,blockN_Train,blockN,moveCount,currPP,points,movesTrial,visitedFields,diff,reward,Strategie,Zweck,Probleme
[object Object],Screen_1,canvas.Screen,0_0_0_0,cont,response,1,615,615.42,649.78,7095,6445.22,7129,2021-11-02T07:10:59.069Z,7262.2,1635749722,incremental,ni_sequenzen,NI_Sequenzen,,,,,,,,,,,,,,
,Screen_2,canvas.Screen,0_0_0_1,cont,response,1,7254,7254.02,7262.2,13064,5801.8,13085,2021-11-02T07:11:05.025Z,13191.88,1635749722,incremental,ni_sequenzen,NI_Sequenzen,,,,,,,,,,,,,,
,Screen_3,canvas.Screen,0_0_0_2,cont,response,1,13177,13176.48,13191.88,17876,4684.120000000001,17893,2021-11-02T07:11:09.833Z,17899.36,1635749722,incremental,ni_sequenzen,NI_Sequenzen,,,,,,,,,,,,,,
,Screen_4,canvas.Screen,0_0_0_3,cont,response,1,17899,17899.08,17899.36,18360,460.6399999999994,18390,2021-11-02T07:11:10.329Z,18605.02,1635749722,incremental,ni_sequenzen,NI_Sequenzen,,,,,,,,,,,,,,
,Sequence,flow.Sequence,0_0_0,,completion,1,494,615.42,649.78,18360,17710.22,18391,2021-11-02T07:11:10.331Z,18605.02,1635749722,incremental,ni_sequenzen,NI_Sequenzen,,,,,,,,,,,,,,
,Screen_1,canvas.Screen,0_0_1_0,,skipped,2,18395,,,18395,,18395,2021-11-02T07:11:10.335Z,18605.02,1635749722,incremental,ni_sequenzen,NI_Sequenzen,,,,,,,,,,,,,,
,Screen_2,canvas.Screen,0_0_1_1,,skipped,2,18397,,,18395,,18397,2021-11-02T07:11:10.337Z,18605.02,1635749722,incremental,ni_sequenzen,NI_Sequenzen,,,,,,,,,,,,,,
,Screen_3,canvas.Screen,0_0_1_2,,skipped,2,18399,,,18395,,18399,2021-11-02T07:11:10.339Z,18605.02,1635749722,incremental,ni_sequenzen,NI_Sequenzen,,,,,,,,,,,,,,
,Screen_4,canvas.Screen,0_0_1_3,,skipped,2,18400,,,18395,,18400,2021-11-02T07:11:10.340Z,18605.02,1635749722,incremental,ni_sequenzen,NI_Sequenzen,,,,,,,,,,,,,,
,Sequence,flow.Sequence,0_0_1,,completion,2,18393,,,18395,,18401,2021-11-02T07:11:10.341Z,18605.02,1635749722,incremental,ni_sequenzen,NI_Sequenzen,,,,,,,,,,,,,,
,Screen_1,canvas.Screen,0_0_2_0,,skipped,3,18402,,,18402,,18402,2021-11-02T07:11:10.342Z,18605.02,1635749722,incremental,ni_sequenzen,NI_Sequenzen,,,,,,,,,,,,,,
,Screen_2,canvas.Screen,0_0_2_1,,skipped,3,18404,,,18402,,18404,2021-11-02T07:11:10.344Z,18605.02,1635749722,incremental,ni_sequenzen,NI_Sequenzen,,,,,,,,,,,,,,
,Screen_3,canvas.Screen,0_0_2_2,,skipped,3,18405,,,18402,,18405,2021-11-02T07:11:10.345Z,18605.02,1635749722,incremental,ni_sequenzen,NI_Sequenzen,,,,,,,,,,,,,,
,Screen_4,canvas.Screen,0_0_2_3,,skipped,3,18406,,,18402,,18406,2021-11-02T07:11:10.347Z,18605.02,1635749722,incremental,ni_sequenzen,NI_Sequenzen,,,,,,,,,,,,,,
,Sequence,flow.Sequence,0_0_2,,completion,3,18401,,,18402,,18406,2021-11-02T07:11:10.347Z,18605.02,1635749722,incremental,ni_sequenzen,NI_Sequenzen,,,,,,,,,,,,,,
,Screen_1,canvas.Screen,0_0_3_0,,skipped,4,18408,,,18408,,18408,2021-11-02T07:11:10.349Z,18605.02,1635749722,incremental,ni_sequenzen,NI_Sequenzen,,,,,,,,,,,,,,
,Screen_2,canvas.Screen,0_0_3_1,,skipped,4,18409,,,18408,,18409,2021-11-02T07:11:10.350Z,18605.02,1635749722,incremental,ni_sequenzen,NI_Sequenzen,,,,,,,,,,,,,,
,Screen_3,canvas.Screen,0_0_3_2,,skipped,4,18411,,,18408,,18411,2021-11-02T07:11:10.351Z,18605.02,1635749722,incremental,ni_sequenzen,NI_Sequenzen,,,,,,,,,,,,,,
,Screen_4,canvas.Screen,0_0_3_3,,skipped,4,18412,,,18408,,18412,2021-11-02T07:11:10.352Z,18605.02,1635749722,incremental,ni_sequenzen,NI_Sequenzen,,,,,,,,,,,,,,
,Sequence,flow.Sequence,0_0_3,,completion,4,18407,,,18408,,18413,2021-11-02T07:11:10.352Z,18605.02,1635749722,incremental,ni_sequenzen,NI_Sequenzen,,,,,,,,,,,,,,
,Screen_1,canvas.Screen,0_0_4_0,,skipped,5,18414,,,18414,,18414,2021-11-02T07:11:10.354Z,18605.02,1635749722,incremental,ni_sequenzen,NI_Sequenzen,,,,,,,,,,,,,,
,Screen_2,canvas.Screen,0_0_4_1,,skipped,5,18415,,,18414,,18415,2021-11-02T07:11:10.355Z,18605.02,1635749722,incremental,ni_sequenzen,NI_Sequenzen,,,,,,,,,,,,,,
,Screen_3,canvas.Screen,0_0_4_2,,skipped,5,18416,,,18414,,18416,2021-11-02T07:11:10.357Z,18605.02,1635749722,incremental,ni_sequenzen,NI_Sequenzen,,,,,,,,,,,,,,
,Screen_4,canvas.Screen,0_0_4_3,,skipped,5,18417,,,18414,,18417,2021-11-02T07:11:10.358Z,18605.02,1635749722,incremental,ni_sequenzen,NI_Sequenzen,,,,,,,,,,,,,,
,Sequence,flow.Sequence,0_0_4,,completion,5,18413,,,18414,,18417,2021-11-02T07:11:10.358Z,18605.02,1635749722,incremental,ni_sequenzen,NI_Sequenzen,,,,,,,,,,,,,,
,Screen_1,canvas.Screen,0_0_5_0,,skipped,6,18419,,,18419,,18419,2021-11-02T07:11:10.360Z,18605.02,1635749722,incremental,ni_sequenzen,NI_Sequenzen,,,,,,,,,,,,,,
,Screen_2,canvas.Screen,0_0_5_1,,skipped,6,18420,,,18419,,18420,2021-11-02T07:11:10.361Z,18605.02,1635749722,incremental,ni_sequenzen,NI_Sequenzen,,,,,,,,,,,,,,
,Screen_3,canvas.Screen,0_0_5_2,,skipped,6,18421,,,18419,,18422,2021-11-02T07:11:10.361Z,18605.02,1635749722,incremental,ni_sequenzen,NI_Sequenzen,,,,,,,,,,,,,,
,Screen_4,canvas.Screen,0_0_5_3,,skipped,6,18423,,,18419,,18423,2021-11-02T07:11:10.363Z,18605.02,1635749722,incremental,ni_sequenzen,NI_Sequenzen,,,,,,,,,,,,,,
,Sequence,flow.Sequence,0_0_5,,completion,6,18418,,,18419,,18423,2021-11-02T07:11:10.364Z,18605.02,1635749722,incremental,ni_sequenzen,NI_Sequenzen,,,,,,,,,,,,,,
,Screen_1,canvas.Screen,0_0_6_0,,skipped,7,18425,,,18425,,18425,2021-11-02T07:11:10.365Z,18605.02,1635749722,incremental,ni_sequenzen,NI_Sequenzen,,,,,,,,,,,,,,
,Screen_2,canvas.Screen,0_0_6_1,,skipped,7,18426,,,18425,,18426,2021-11-02T07:11:10.367Z,18605.02,1635749722,incremental,ni_sequenzen,NI_Sequenzen,,,,,,,,,,,,,,
,Screen_3,canvas.Screen,0_0_6_2,,skipped,7,18427,,,18425,,18428,2021-11-02T07:11:10.367Z,18605.02,1635749722,incremental,ni_sequenzen,NI_Sequenzen,,,,,,,,,,,,,,
,Screen_4,canvas.Screen,0_0_6_3,,skipped,7,18428,,,18425,,18428,2021-11-02T07:11:10.368Z,18605.02,1635749722,incremental,ni_sequenzen,NI_Sequenzen,,,,,,,,,,,,,,
,Sequence,flow.Sequence,0_0_6,,completion,7,18424,,,18425,,18428,2021-11-02T07:11:10.368Z,18605.02,1635749722,incremental,ni_sequenzen,NI_Sequenzen,,,,,,,,,,,,,,
,Screen_1,canvas.Screen,0_0_7_0,,skipped,8,18431,,,18431,,18431,2021-11-02T07:11:10.370Z,18605.02,1635749722,incremental,ni_sequenzen,NI_Sequenzen,,,,,,,,,,,,,,
,Screen_2,canvas.Screen,0_0_7_1,,skipped,8,18431,,,18431,,18432,2021-11-02T07:11:10.371Z,18605.02,1635749722,incremental,ni_sequenzen,NI_Sequenzen,,,,,,,,,,,,,,
,Screen_3,canvas.Screen,0_0_7_2,,skipped,8,18432,,,18431,,18432,2021-11-02T07:11:10.372Z,18605.02,1635749722,incremental,ni_sequenzen,NI_Sequenzen,,,,,,,,,,,,,,
,Screen_4,canvas.Screen,0_0_7_3,,skipped,8,18433,,,18431,,18433,2021-11-02T07:11:10.373Z,18605.02,1635749722,incremental,ni_sequenzen,NI_Sequenzen,,,,,,,,,,,,,,
,Sequence,flow.Sequence,0_0_7,,completion,8,18430,,,18431,,18433,2021-11-02T07:11:10.373Z,18605.02,1635749722,incremental,ni_sequenzen,NI_Sequenzen,,,,,,,,,,,,,,
,Screen_1,canvas.Screen,0_0_8_0,,skipped,9,18435,,,18435,,18435,2021-11-02T07:11:10.375Z,18605.02,1635749722,incremental,ni_sequenzen,NI_Sequenzen,,,,,,,,,,,,,,
,Screen_2,canvas.Screen,0_0_8_1,,skipped,9,18436,,,18435,,18436,2021-11-02T07:11:10.376Z,18605.02,1635749722,incremental,ni_sequenzen,NI_Sequenzen,,,,,,,,,,,,,,
,Screen_3,canvas.Screen,0_0_8_2,,skipped,9,18437,,,18435,,18437,2021-11-02T07:11:10.377Z,18605.02,1635749722,incremental,ni_sequenzen,NI_Sequenzen,,,,,,,,,,,,,,
,Screen_4,canvas.Screen,0_0_8_3,,skipped,9,18439,,,18435,,18439,2021-11-02T07:11:10.378Z,18605.02,1635749722,incremental,ni_sequenzen,NI_Sequenzen,,,,,,,,,,,,,,
,Sequence,flow.Sequence,0_0_8,,completion,9,18434,,,18435,,18439,2021-11-02T07:11:10.378Z,18605.02,1635749722,incremental,ni_sequenzen,NI_Sequenzen,,,,,,,,,,,,,,
,Screen_1,canvas.Screen,0_0_9_0,,skipped,10,18440,,,18440,,18440,2021-11-02T07:11:10.380Z,18605.02,1635749722,incremental,ni_sequenzen,NI_Sequenzen,,,,,,,,,,,,,,
,Screen_2,canvas.Screen,0_0_9_1,,skipped,10,18441,,,18440,,18441,2021-11-02T07:11:10.381Z,18605.02,1635749722,incremental,ni_sequenzen,NI_Sequenzen,,,,,,,,,,,,,,
,Screen_3,canvas.Screen,0_0_9_2,,skipped,10,18443,,,18440,,18443,2021-11-02T07:11:10.382Z,18605.02,1635749722,incremental,ni_sequenzen,NI_Sequenzen,,,,,,,,,,,,,,
,Screen_4,canvas.Screen,0_0_9_3,,skipped,10,18443,,,18440,,18443,2021-11-02T07:11:10.383Z,18605.02,1635749722,incremental,ni_sequenzen,NI_Sequenzen,,,,,,,,,,,,,,
,Sequence,flow.Sequence,0_0_9,,completion,10,18439,,,18440,,18443,2021-11-02T07:11:10.383Z,18605.02,1635749722,incremental,ni_sequenzen,NI_Sequenzen,,,,,,,,,,,,,,
,Screen_1,canvas.Screen,0_0_10_0,,skipped,11,18445,,,18445,,18445,2021-11-02T07:11:10.385Z,18605.02,1635749722,incremental,ni_sequenzen,NI_Sequenzen,,,,,,,,,,,,,,
,Screen_2,canvas.Screen,0_0_10_1,,skipped,11,18445,,,18445,,18445,2021-11-02T07:11:10.385Z,18605.02,1635749722,incremental,ni_sequenzen,NI_Sequenzen,,,,,,,,,,,,,,
,Screen_3,canvas.Screen,0_0_10_2,,skipped,11,18446,,,18445,,18446,2021-11-02T07:11:10.386Z,18605.02,1635749722,incremental,ni_sequenzen,NI_Sequenzen,,,,,,,,,,,,,,
,Screen_4,canvas.Screen,0_0_10_3,,skipped,11,18448,,,18445,,18448,2021-11-02T07:11:10.388Z,18605.02,1635749722,incremental,ni_sequenzen,NI_Sequenzen,,,,,,,,,,,,,,
,Sequence,flow.Sequence,0_0_10,,completion,11,18443,,,18445,,18448,2021-11-02T07:11:10.388Z,18605.02,1635749722,incremental,ni_sequenzen,NI_Sequenzen,,,,,,,,,,,,,,
,Screen_1,canvas.Screen,0_0_11_0,,skipped,12,18450,,,18450,,18450,2021-11-02T07:11:10.389Z,18605.02,1635749722,incremental,ni_sequenzen,NI_Sequenzen,,,,,,,,,,,,,,
,Screen_2,canvas.Screen,0_0_11_1,,skipped,12,18451,,,18450,,18451,2021-11-02T07:11:10.390Z,18605.02,1635749722,incremental,ni_sequenzen,NI_Sequenzen,,,,,,,,,,,,,,
,Screen_3,canvas.Screen,0_0_11_2,,skipped,12,18452,,,18450,,18452,2021-11-02T07:11:10.392Z,18605.02,1635749722,incremental,ni_sequenzen,NI_Sequenzen,,,,,,,,,,,,,,
,Screen_4,canvas.Screen,0_0_11_3,,skipped,12,18453,,,18450,,18453,2021-11-02T07:11:10.393Z,18605.02,1635749722,incremental,ni_sequenzen,NI_Sequenzen,,,,,,,,,,,,,,
,Sequence,flow.Sequence,0_0_11,,completion,12,18448,,,18450,,18453,2021-11-02T07:11:10.393Z,18605.02,1635749722,incremental,ni_sequenzen,NI_Sequenzen,,,,,,,,,,,,,,
,Screen_1,canvas.Screen,0_0_12_0,,skipped,13,18455,,,18455,,18455,2021-11-02T07:11:10.395Z,18605.02,1635749722,incremental,ni_sequenzen,NI_Sequenzen,,,,,,,,,,,,,,
,Screen_2,canvas.Screen,0_0_12_1,,skipped,13,18456,,,18455,,18456,2021-11-02T07:11:10.395Z,18605.02,1635749722,incremental,ni_sequenzen,NI_Sequenzen,,,,,,,,,,,,,,
,Screen_3,canvas.Screen,0_0_12_2,,skipped,13,18457,,,18455,,18457,2021-11-02T07:11:10.396Z,18605.02,1635749722,incremental,ni_sequenzen,NI_Sequenzen,,,,,,,,,,,,,,
,Screen_4,canvas.Screen,0_0_12_3,,skipped,13,18457,,,18455,,18457,2021-11-02T07:11:10.397Z,18605.02,1635749722,incremental,ni_sequenzen,NI_Sequenzen,,,,,,,,,,,,,,
,Sequence,flow.Sequence,0_0_12,,completion,13,18454,,,18455,,18458,2021-11-02T07:11:10.398Z,18605.02,1635749722,incremental,ni_sequenzen,NI_Sequenzen,,,,,,,,,,,,,,
,Screen_1,canvas.Screen,0_0_13_0,,skipped,14,18459,,,18459,,18460,2021-11-02T07:11:10.400Z,18605.02,1635749722,incremental,ni_sequenzen,NI_Sequenzen,,,,,,,,,,,,,,
,Screen_2,canvas.Screen,0_0_13_1,,skipped,14,18461,,,18459,,18461,2021-11-02T07:11:10.401Z,18605.02,1635749722,incremental,ni_sequenzen,NI_Sequenzen,,,,,,,,,,,,,,
,Screen_3,canvas.Screen,0_0_13_2,,skipped,14,18462,,,18459,,18462,2021-11-02T07:11:10.402Z,18605.02,1635749722,incremental,ni_sequenzen,NI_Sequenzen,,,,,,,,,,,,,,
,Screen_4,canvas.Screen,0_0_13_3,,skipped,14,18463,,,18459,,18463,2021-11-02T07:11:10.403Z,18605.02,1635749722,incremental,ni_sequenzen,NI_Sequenzen,,,,,,,,,,,,,,
,Sequence,flow.Sequence,0_0_13,,completion,14,18458,,,18459,,18463,2021-11-02T07:11:10.403Z,18605.02,1635749722,incremental,ni_sequenzen,NI_Sequenzen,,,,,,,,,,,,,,
,Screen_1,canvas.Screen,0_0_14_0,,skipped,15,18464,,,18464,,18465,2021-11-02T07:11:10.405Z,18605.02,1635749722,incremental,ni_sequenzen,NI_Sequenzen,,,,,,,,,,,,,,
,Screen_2,canvas.Screen,0_0_14_1,,skipped,15,18466,,,18464,,18466,2021-11-02T07:11:10.406Z,18605.02,1635749722,incremental,ni_sequenzen,NI_Sequenzen,,,,,,,,,,,,,,
,Screen_3,canvas.Screen,0_0_14_2,,skipped,15,18468,,,18464,,18468,2021-11-02T07:11:10.407Z,18605.02,1635749722,incremental,ni_sequenzen,NI_Sequenzen,,,,,,,,,,,,,,
,Screen_4,canvas.Screen,0_0_14_3,,skipped,15,18469,,,18464,,18469,2021-11-02T07:11:10.408Z,18605.02,1635749722,incremental,ni_sequenzen,NI_Sequenzen,,,,,,,,,,,,,,
,Sequence,flow.Sequence,0_0_14,,completion,15,18464,,,18464,,18469,2021-11-02T07:11:10.408Z,18605.02,1635749722,incremental,ni_sequenzen,NI_Sequenzen,,,,,,,,,,,,,,
,Screen_1,canvas.Screen,0_0_15_0,,skipped,16,18469,,,18469,,18469,2021-11-02T07:11:10.410Z,18605.02,1635749722,incremental,ni_sequenzen,NI_Sequenzen,,,,,,,,,,,,,,
,Screen_2,canvas.Screen,0_0_15_1,,skipped,16,18470,,,18469,,18470,2021-11-02T07:11:10.411Z,18605.02,1635749722,incremental,ni_sequenzen,NI_Sequenzen,,,,,,,,,,,,,,
,Screen_3,canvas.Screen,0_0_15_2,,skipped,16,18471,,,18469,,18471,2021-11-02T07:11:10.412Z,18605.02,1635749722,incremental,ni_sequenzen,NI_Sequenzen,,,,,,,,,,,,,,
,Screen_4,canvas.Screen,0_0_15_3,,skipped,16,18472,,,18469,,18472,2021-11-02T07:11:10.412Z,18605.02,1635749722,incremental,ni_sequenzen,NI_Sequenzen,,,,,,,,,,,,,,
,Sequence,flow.Sequence,0_0_15,,completion,16,18469,,,18469,,18472,2021-11-02T07:11:10.412Z,18605.02,1635749722,incremental,ni_sequenzen,NI_Sequenzen,,,,,,,,,,,,,,
,Screen_1,canvas.Screen,0_0_16_0,,skipped,17,18474,,,18474,,18474,2021-11-02T07:11:10.414Z,18605.02,1635749722,incremental,ni_sequenzen,NI_Sequenzen,,,,,,,,,,,,,,
,Screen_2,canvas.Screen,0_0_16_1,,skipped,17,18475,,,18474,,18475,2021-11-02T07:11:10.415Z,18605.02,1635749722,incremental,ni_sequenzen,NI_Sequenzen,,,,,,,,,,,,,,
,Screen_3,canvas.Screen,0_0_16_2,,skipped,17,18476,,,18474,,18476,2021-11-02T07:11:10.416Z,18605.02,1635749722,incremental,ni_sequenzen,NI_Sequenzen,,,,,,,,,,,,,,
,Screen_4,canvas.Screen,0_0_16_3,,skipped,17,18477,,,18474,,18477,2021-11-02T07:11:10.418Z,18605.02,1635749722,incremental,ni_sequenzen,NI_Sequenzen,,,,,,,,,,,,,,
,Sequence,flow.Sequence,0_0_16,,completion,17,18473,,,18474,,18477,2021-11-02T07:11:10.418Z,18605.02,1635749722,incremental,ni_sequenzen,NI_Sequenzen,,,,,,,,,,,,,,
,Screen_1,canvas.Screen,0_0_17_0,,skipped,18,18479,,,18479,,18479,2021-11-02T07:11:10.419Z,18605.02,1635749722,incremental,ni_sequenzen,NI_Sequenzen,,,,,,,,,,,,,,
,Screen_2,canvas.Screen,0_0_17_1,,skipped,18,18480,,,18479,,18480,2021-11-02T07:11:10.420Z,18605.02,1635749722,incremental,ni_sequenzen,NI_Sequenzen,,,,,,,,,,,,,,
,Screen_3,canvas.Screen,0_0_17_2,,skipped,18,18481,,,18479,,18481,2021-11-02T07:11:10.421Z,18605.02,1635749722,incremental,ni_sequenzen,NI_Sequenzen,,,,,,,,,,,,,,
,Screen_4,canvas.Screen,0_0_17_3,,skipped,18,18482,,,18479,,18482,2021-11-02T07:11:10.422Z,18605.02,1635749722,incremental,ni_sequenzen,NI_Sequenzen,,,,,,,,,,,,,,
,Sequence,flow.Sequence,0_0_17,,completion,18,18478,,,18479,,18482,2021-11-02T07:11:10.422Z,18605.02,1635749722,incremental,ni_sequenzen,NI_Sequenzen,,,,,,,,,,,,,,
,Screen_1,canvas.Screen,0_0_18_0,,skipped,19,18482,,,18482,,18482,2021-11-02T07:11:10.423Z,18605.02,1635749722,incremental,ni_sequenzen,NI_Sequenzen,,,,,,,,,,,,,,
,Screen_2,canvas.Screen,0_0_18_1,,skipped,19,18484,,,18482,,18484,2021-11-02T07:11:10.424Z,18605.02,1635749722,incremental,ni_sequenzen,NI_Sequenzen,,,,,,,,,,,,,,
,Screen_3,canvas.Screen,0_0_18_2,,skipped,19,18484,,,18482,,18484,2021-11-02T07:11:10.425Z,18605.02,1635749722,incremental,ni_sequenzen,NI_Sequenzen,,,,,,,,,,,,,,
,Screen_4,canvas.Screen,0_0_18_3,,skipped,19,18485,,,18482,,18485,2021-11-02T07:11:10.426Z,18605.02,1635749722,incremental,ni_sequenzen,NI_Sequenzen,,,,,,,,,,,,,,
,Sequence,flow.Sequence,0_0_18,,completion,19,18482,,,18482,,18486,2021-11-02T07:11:10.426Z,18605.02,1635749722,incremental,ni_sequenzen,NI_Sequenzen,,,,,,,,,,,,,,
,Screen_1,canvas.Screen,0_0_19_0,,skipped,20,18487,,,18487,,18487,2021-11-02T07:11:10.428Z,18605.02,1635749722,incremental,ni_sequenzen,NI_Sequenzen,,,,,,,,,,,,,,
,Screen_2,canvas.Screen,0_0_19_1,,skipped,20,18488,,,18487,,18488,2021-11-02T07:11:10.429Z,18605.02,1635749722,incremental,ni_sequenzen,NI_Sequenzen,,,,,,,,,,,,,,
,Screen_3,canvas.Screen,0_0_19_2,,skipped,20,18489,,,18487,,18489,2021-11-02T07:11:10.430Z,18605.02,1635749722,incremental,ni_sequenzen,NI_Sequenzen,,,,,,,,,,,,,,
,Screen_4,canvas.Screen,0_0_19_3,,skipped,20,18490,,,18487,,18490,2021-11-02T07:11:10.430Z,18605.02,1635749722,incremental,ni_sequenzen,NI_Sequenzen,,,,,,,,,,,,,,
,Sequence,flow.Sequence,0_0_19,,completion,20,18486,,,18487,,18491,2021-11-02T07:11:10.430Z,18605.02,1635749722,incremental,ni_sequenzen,NI_Sequenzen,,,,,,,,,,,,,,
,Instructions_I,flow.Loop,0_0,,completion,,493,615.42,649.78,18487,17837.22,18491,2021-11-02T07:11:10.430Z,18605.02,1635749722,incremental,ni_sequenzen,NI_Sequenzen,,,,,,,,,,,,,,
,Move,canvas.Screen,0_1_0_0,right,response,,18589,18589.94,18605.02,18782,176.97999999999956,18804,2021-11-02T07:11:10.744Z,18821.56,1635749722,incremental,ni_sequenzen,NI_Sequenzen,1,,,,,,,,,,,,,
,Move,canvas.Screen,0_1_0_1,right,response,,18819,18818.76,18821.56,19438,616.4399999999987,19452,2021-11-02T07:11:11.392Z,19459.94,1635749722,incremental,ni_sequenzen,NI_Sequenzen,2,,,,,,,,,,,,,
,Move,canvas.Screen,0_1_0_2,right,response,,19460,19459.64,19459.94,19609,149.0600000000013,19618,2021-11-02T07:11:11.557Z,19621,1635749722,incremental,ni_sequenzen,NI_Sequenzen,3,,,,,,,,,,,,,
,Move,canvas.Screen,0_1_0_3,right,response,,19620,19620.72,19621,19766,145,19780,2021-11-02T07:11:11.720Z,19787.88,1635749722,incremental,ni_sequenzen,NI_Sequenzen,4,,,,,,,,,,,,,
,Move,canvas.Screen,0_1_0_4,right,response,,19788,19787.6,19787.88,19939,151.11999999999898,19956,2021-11-02T07:11:11.897Z,19987.48,1635749722,incremental,ni_sequenzen,NI_Sequenzen,5,,,,,,,,,,,,,
,Move,canvas.Screen,0_1_0_5,down,response,,19970,19970.62,19987.48,20626,638.5200000000004,20644,2021-11-02T07:11:12.584Z,20651.54,1635749722,incremental,ni_sequenzen,NI_Sequenzen,6,,,,,,,,,,,,,
,Move,canvas.Screen,0_1_0_6,down,response,,20651,20651.4,20651.54,20985,333.4599999999991,21001,2021-11-02T07:11:12.942Z,21004.8,1635749722,incremental,ni_sequenzen,NI_Sequenzen,7,,,,,,,,,,,,,
,Move,canvas.Screen,0_1_0_7,left,response,,21004,21004.64,21004.8,21017,12.200000000000728,21025,2021-11-02T07:11:12.965Z,21036.96,1635749722,incremental,ni_sequenzen,NI_Sequenzen,8,,,,,,,,,,,,,
,Move,canvas.Screen,0_1_0_8,down,response,,21028,21028.8,21036.96,21251,214.04000000000087,21261,2021-11-02T07:11:13.200Z,21273.1,1635749722,incremental,ni_sequenzen,NI_Sequenzen,9,,,,,,,,,,,,,
,Move,canvas.Screen,0_1_0_9,right,response,,21273,21272.74,21273.1,21470,196.90000000000146,21478,2021-11-02T07:11:13.417Z,21486.48,1635749722,incremental,ni_sequenzen,NI_Sequenzen,10,,,,,,,,,,,,,
,Move,canvas.Screen,0_1_0_10,down,response,,21485,21484.36,21486.48,21579,92.52000000000044,21601,2021-11-02T07:11:13.541Z,21619.74,1635749722,incremental,ni_sequenzen,NI_Sequenzen,11,,,,,,,,,,,,,
,Move,canvas.Screen,0_1_0_11,left,response,,21605,21604.84,,21595,,21610,2021-11-02T07:11:13.549Z,21636.4,1635749722,incremental,ni_sequenzen,NI_Sequenzen,12,,,,,,,,,,,,,
,Move,canvas.Screen,0_1_0_12,right,response,,21613,21619.74,21636.4,21814,177.59999999999854,21826,2021-11-02T07:11:13.765Z,21836.3,1635749722,incremental,ni_sequenzen,NI_Sequenzen,13,,,,,,,,,,,,,
,Move,canvas.Screen,0_1_0_13,left,response,,21829,21828.62,21836.3,21907,70.70000000000073,21932,2021-11-02T07:11:13.873Z,21952.84,1635749722,incremental,ni_sequenzen,NI_Sequenzen,14,,,,,,,,,,,,,
,Move,canvas.Screen,0_1_0_14,down,response,,21944,21943.96,,21923,,21948,2021-11-02T07:11:13.888Z,21969.5,1635749722,incremental,ni_sequenzen,NI_Sequenzen,15,,,,,,,,,,,,,
,Move,canvas.Screen,0_1_0_15,right,response,,21952,21952.84,21969.5,22110,140.5,22132,2021-11-02T07:11:14.072Z,22152.72,1635749722,incremental,ni_sequenzen,NI_Sequenzen,16,,,,,,,,,,,,,
,Move,canvas.Screen,0_1_0_16,left,response,,22143,22143.58,22152.72,22267,114.27999999999884,22284,2021-11-02T07:11:14.225Z,22302.66,1635749722,incremental,ni_sequenzen,NI_Sequenzen,17,,,,,,,,,,,,,
,Move,canvas.Screen,0_1_0_17,down,response,,22292,22292.12,22302.66,22657,354.34000000000015,22669,2021-11-02T07:11:14.609Z,22676.12,1635749722,incremental,ni_sequenzen,NI_Sequenzen,18,,,,,,,,,,,,,
,Move,canvas.Screen,0_1_0_18,down,response,,22675,22675.92,22676.12,22876,199.88000000000102,22893,2021-11-02T07:11:14.833Z,22907.48,1635749722,incremental,ni_sequenzen,NI_Sequenzen,19,,,,,,,,,,,,,
,Move,canvas.Screen,0_1_0_19,down,response,,22907,22906.94,22907.48,23078,170.52000000000044,23093,2021-11-02T07:11:15.033Z,23102.22,1635749722,incremental,ni_sequenzen,NI_Sequenzen,20,,,,,,,,,,,,,
,Move,canvas.Screen,0_1_0_20,down,response,,23099,23098.7,23102.22,23251,148.77999999999884,23277,2021-11-02T07:11:15.217Z,23285.4,1635749722,incremental,ni_sequenzen,NI_Sequenzen,21,,,,,,,,,,,,,
,Move,canvas.Screen,0_1_0_21,left,response,,23283,23283.4,23285.4,23360,74.59999999999854,23372,2021-11-02T07:11:15.313Z,23385.34,1635749722,incremental,ni_sequenzen,NI_Sequenzen,22,,,,,,,,,,,,,
,Move,canvas.Screen,0_1_0_22,left,response,,23385,23385.02,23385.34,23642,256.65999999999985,23652,2021-11-02T07:11:15.592Z,23665.42,1635749722,incremental,ni_sequenzen,NI_Sequenzen,23,,,,,,,,,,,,,
,Move,canvas.Screen,0_1_0_23,down,response,,23664,23664.88,23665.42,23751,85.58000000000175,23764,2021-11-02T07:11:15.704Z,23785.06,1635749722,incremental,ni_sequenzen,NI_Sequenzen,24,,,,,,,,,,,,,
,Move,canvas.Screen,0_1_0_24,right,response,,23776,23775.84,23785.06,23907,121.93999999999869,23924,2021-11-02T07:11:15.864Z,23951.64,1635749722,incremental,ni_sequenzen,NI_Sequenzen,25,,,,,,,,,,,,,
,Move,canvas.Screen,0_1_0_25,right,response,,23937,23936.66,23951.64,24376,424.3600000000006,24388,2021-11-02T07:11:16.329Z,24395.3,1635749722,incremental,ni_sequenzen,NI_Sequenzen,26,,,,,,,,,,,,,
,Move,canvas.Screen,0_1_0_26,left,response,,24395,24395.08,24395.3,24579,183.70000000000073,24589,2021-11-02T07:11:16.528Z,24602.4,1635749722,incremental,ni_sequenzen,NI_Sequenzen,27,,,,,,,,,,,,,
,Move,canvas.Screen,0_1_0_27,down,response,,24602,24601.9,24602.4,24735,132.59999999999854,24756,2021-11-02T07:11:16.696Z,24767.88,1635749722,incremental,ni_sequenzen,NI_Sequenzen,28,,,,,,,,,,,,,
,Move,canvas.Screen,0_1_0_28,right,response,,24763,24762.34,24767.88,24907,139.11999999999898,24933,2021-11-02T07:11:16.873Z,24950.98,1635749722,incremental,ni_sequenzen,NI_Sequenzen,29,,,,,,,,,,,,,
,Move,canvas.Screen,0_1_0_29,down,response,,24944,24943.9,24950.98,25110,159.02000000000044,25132,2021-11-02T07:11:17.072Z,25167.44,1635749722,incremental,ni_sequenzen,NI_Sequenzen,30,,,,,,,,,,,,,
,Loop,flow.Loop,0_1_0,-999,completion,,18501,18589.94,18605.02,25110,6504.98,25133,2021-11-02T07:11:17.073Z,25167.44,1635749722,incremental,ni_sequenzen,NI_Sequenzen,,,,,,,,,,,,,,
,Training_I,flow.Sequence,0_1,,completion,,18491,18589.94,18605.02,25110,6504.98,25134,2021-11-02T07:11:17.074Z,25167.44,1635749722,incremental,ni_sequenzen,NI_Sequenzen,,,,,,,,,,,,,,
,Screen_1,canvas.Screen,0_2_0_0,cont,response,1,25167,25166.74,25167.44,25298,130.5600000000013,25308,2021-11-02T07:11:17.248Z,25450.72,1635749722,incremental,ni_sequenzen,NI_Sequenzen,,,,,,,,,,,,,,
,Screen_2,canvas.Screen,0_2_0_1,back,response,1,25445,25445.22,25450.72,27532,2081.279999999999,27540,2021-11-02T07:11:19.481Z,27689.58,1635749722,incremental,ni_sequenzen,NI_Sequenzen,,,,,,,,,,,,,,
,Screen_3,canvas.Screen,0_2_0_2,,skipped,1,27545,,,27532,,27545,2021-11-02T07:11:19.485Z,27689.58,1635749722,incremental,ni_sequenzen,NI_Sequenzen,,,,,,,,,,,,,,
,Screen_4,canvas.Screen,0_2_0_3,,skipped,1,27634,,,27532,,27634,2021-11-02T07:11:19.574Z,27689.58,1635749722,incremental,ni_sequenzen,NI_Sequenzen,,,,,,,,,,,,,,
,Screen_5,canvas.Screen,0_2_0_4,,skipped,1,27635,,,27532,,27635,2021-11-02T07:11:19.575Z,27689.58,1635749722,incremental,ni_sequenzen,NI_Sequenzen,,,,,,,,,,,,,,
,Screen_6,canvas.Screen,0_2_0_5,,skipped,1,27686,,,27532,,27687,2021-11-02T07:11:19.627Z,27689.58,1635749722,incremental,ni_sequenzen,NI_Sequenzen,,,,,,,,,,,,,,
,Sequence,flow.Sequence,0_2_0,,completion,1,25165,25166.74,25167.44,27532,2364.5600000000013,27687,2021-11-02T07:11:19.628Z,27689.58,1635749722,incremental,ni_sequenzen,NI_Sequenzen,,,,,,,,,,,,,,
,Screen_1,canvas.Screen,0_2_1_0,cont,response,2,27689,27689.28,27689.58,30360,2670.4199999999983,30378,2021-11-02T07:11:22.318Z,30382.48,1635749722,incremental,ni_sequenzen,NI_Sequenzen,,,,,,,,,,,,,,
,Screen_2,canvas.Screen,0_2_1_1,back,response,2,30382,30382.2,30382.48,31064,681.5200000000004,31085,2021-11-02T07:11:23.025Z,31097.66,1635749722,incremental,ni_sequenzen,NI_Sequenzen,,,,,,,,,,,,,,
,Screen_3,canvas.Screen,0_2_1_2,,skipped,2,31090,,,31064,,31090,2021-11-02T07:11:23.031Z,31097.66,1635749722,incremental,ni_sequenzen,NI_Sequenzen,,,,,,,,,,,,,,
,Screen_4,canvas.Screen,0_2_1_3,,skipped,2,31092,,,31064,,31092,2021-11-02T07:11:23.033Z,31097.66,1635749722,incremental,ni_sequenzen,NI_Sequenzen,,,,,,,,,,,,,,
,Screen_5,canvas.Screen,0_2_1_4,,skipped,2,31094,,,31064,,31094,2021-11-02T07:11:23.033Z,31097.66,1635749722,incremental,ni_sequenzen,NI_Sequenzen,,,,,,,,,,,,,,
,Screen_6,canvas.Screen,0_2_1_5,,skipped,2,31095,,,31064,,31095,2021-11-02T07:11:23.035Z,31097.66,1635749722,incremental,ni_sequenzen,NI_Sequenzen,,,,,,,,,,,,,,
,Sequence,flow.Sequence,0_2_1,,completion,2,27688,27689.28,27689.58,31064,3374.4199999999983,31096,2021-11-02T07:11:23.036Z,31097.66,1635749722,incremental,ni_sequenzen,NI_Sequenzen,,,,,,,,,,,,,,
,Screen_1,canvas.Screen,0_2_2_0,cont,response,3,31097,31097.34,31097.66,32845,1747.3400000000001,32860,2021-11-02T07:11:24.801Z,32866.08,1635749722,incremental,ni_sequenzen,NI_Sequenzen,,,,,,,,,,,,,,
,Screen_2,canvas.Screen,0_2_2_1,cont,response,3,32866,32865.76,32866.08,44782,11915.919999999998,44800,2021-11-02T07:11:36.740Z,44805.4,1635749722,incremental,ni_sequenzen,NI_Sequenzen,,,,,,,,,,,,,,
,Screen_3,canvas.Screen,0_2_2_2,cont,response,3,44805,44805.08,44805.4,52798,7992.5999999999985,52811,2021-11-02T07:11:44.750Z,52817.28,1635749722,incremental,ni_sequenzen,NI_Sequenzen,,,,,,,,,,,,,,
,Screen_4,canvas.Screen,0_2_2_3,cont,response,3,52817,52817,52817.28,54204,1386.7200000000012,54225,2021-11-02T07:11:46.166Z,54231.64,1635749722,incremental,ni_sequenzen,NI_Sequenzen,,,,,,,,,,,,,,
,Screen_5,canvas.Screen,0_2_2_4,cont,response,3,54231,54231.36,54231.64,54610,378.3600000000006,54633,2021-11-02T07:11:46.573Z,54648.7,1635749722,incremental,ni_sequenzen,NI_Sequenzen,,,,,,,,,,,,,,
,Screen_6,canvas.Screen,0_2_2_5,cont,response,3,54641,54641.06,54648.7,57000,2351.300000000003,57017,2021-11-02T07:11:48.957Z,,1635749722,incremental,ni_sequenzen,NI_Sequenzen,,,,,,,,,,,,,,
,Sequence,flow.Sequence,0_2_2,,completion,3,31096,31097.34,31097.66,57000,25902.34,57019,2021-11-02T07:11:48.959Z,,1635749722,incremental,ni_sequenzen,NI_Sequenzen,,,,,,,,,,,,,,
,Screen_1,canvas.Screen,0_2_3_0,,skipped,4,57024,,,57024,,57024,2021-11-02T07:11:48.963Z,,1635749722,incremental,ni_sequenzen,NI_Sequenzen,,,,,,,,,,,,,,
,Screen_2,canvas.Screen,0_2_3_1,,skipped,4,57026,,,57024,,57026,2021-11-02T07:11:48.965Z,,1635749722,incremental,ni_sequenzen,NI_Sequenzen,,,,,,,,,,,,,,
,Screen_3,canvas.Screen,0_2_3_2,,skipped,4,57027,,,57024,,57027,2021-11-02T07:11:48.967Z,,1635749722,incremental,ni_sequenzen,NI_Sequenzen,,,,,,,,,,,,,,
,Screen_4,canvas.Screen,0_2_3_3,,skipped,4,57028,,,57024,,57028,2021-11-02T07:11:48.968Z,,1635749722,incremental,ni_sequenzen,NI_Sequenzen,,,,,,,,,,,,,,
,Screen_5,canvas.Screen,0_2_3_4,,skipped,4,57030,,,57024,,57030,2021-11-02T07:11:48.970Z,,1635749722,incremental,ni_sequenzen,NI_Sequenzen,,,,,,,,,,,,,,
,Screen_6,canvas.Screen,0_2_3_5,,skipped,4,57031,,,57024,,57031,2021-11-02T07:11:48.971Z,,1635749722,incremental,ni_sequenzen,NI_Sequenzen,,,,,,,,,,,,,,
,Sequence,flow.Sequence,0_2_3,,completion,4,57022,,,57024,,57031,2021-11-02T07:11:48.971Z,,1635749722,incremental,ni_sequenzen,NI_Sequenzen,,,,,,,,,,,,,,
,Screen_1,canvas.Screen,0_2_4_0,,skipped,5,57033,,,57033,,57033,2021-11-02T07:11:48.972Z,,1635749722,incremental,ni_sequenzen,NI_Sequenzen,,,,,,,,,,,,,,
,Screen_2,canvas.Screen,0_2_4_1,,skipped,5,57034,,,57033,,57034,2021-11-02T07:11:48.974Z,,1635749722,incremental,ni_sequenzen,NI_Sequenzen,,,,,,,,,,,,,,
,Screen_3,canvas.Screen,0_2_4_2,,skipped,5,57035,,,57033,,57035,2021-11-02T07:11:48.975Z,,1635749722,incremental,ni_sequenzen,NI_Sequenzen,,,,,,,,,,,,,,
,Screen_4,canvas.Screen,0_2_4_3,,skipped,5,57037,,,57033,,57037,2021-11-02T07:11:48.976Z,,1635749722,incremental,ni_sequenzen,NI_Sequenzen,,,,,,,,,,,,,,
,Screen_5,canvas.Screen,0_2_4_4,,skipped,5,57038,,,57033,,57038,2021-11-02T07:11:48.978Z,,1635749722,incremental,ni_sequenzen,NI_Sequenzen,,,,,,,,,,,,,,
,Screen_6,canvas.Screen,0_2_4_5,,skipped,5,57039,,,57033,,57039,2021-11-02T07:11:48.979Z,,1635749722,incremental,ni_sequenzen,NI_Sequenzen,,,,,,,,,,,,,,
,Sequence,flow.Sequence,0_2_4,,completion,5,57032,,,57033,,57039,2021-11-02T07:11:48.979Z,,1635749722,incremental,ni_sequenzen,NI_Sequenzen,,,,,,,,,,,,,,
,Screen_1,canvas.Screen,0_2_5_0,,skipped,6,57041,,,57041,,57041,2021-11-02T07:11:48.981Z,,1635749722,incremental,ni_sequenzen,NI_Sequenzen,,,,,,,,,,,,,,
,Screen_2,canvas.Screen,0_2_5_1,,skipped,6,57042,,,57041,,57043,2021-11-02T07:11:48.982Z,,1635749722,incremental,ni_sequenzen,NI_Sequenzen,,,,,,,,,,,,,,
,Screen_3,canvas.Screen,0_2_5_2,,skipped,6,57043,,,57041,,57043,2021-11-02T07:11:48.983Z,,1635749722,incremental,ni_sequenzen,NI_Sequenzen,,,,,,,,,,,,,,
,Screen_4,canvas.Screen,0_2_5_3,,skipped,6,57045,,,57041,,57045,2021-11-02T07:11:48.984Z,,1635749722,incremental,ni_sequenzen,NI_Sequenzen,,,,,,,,,,,,,,
,Screen_5,canvas.Screen,0_2_5_4,,skipped,6,57045,,,57041,,57045,2021-11-02T07:11:48.986Z,,1635749722,incremental,ni_sequenzen,NI_Sequenzen,,,,,,,,,,,,,,
,Screen_6,canvas.Screen,0_2_5_5,,skipped,6,57046,,,57041,,57046,2021-11-02T07:11:48.986Z,,1635749722,incremental,ni_sequenzen,NI_Sequenzen,,,,,,,,,,,,,,
,Sequence,flow.Sequence,0_2_5,,completion,6,57040,,,57041,,57047,2021-11-02T07:11:48.987Z,,1635749722,incremental,ni_sequenzen,NI_Sequenzen,,,,,,,,,,,,,,
,Screen_1,canvas.Screen,0_2_6_0,,skipped,7,57048,,,57048,,57048,2021-11-02T07:11:48.988Z,,1635749722,incremental,ni_sequenzen,NI_Sequenzen,,,,,,,,,,,,,,
,Screen_2,canvas.Screen,0_2_6_1,,skipped,7,57049,,,57048,,57049,2021-11-02T07:11:48.989Z,,1635749722,incremental,ni_sequenzen,NI_Sequenzen,,,,,,,,,,,,,,
,Screen_3,canvas.Screen,0_2_6_2,,skipped,7,57051,,,57048,,57051,2021-11-02T07:11:48.990Z,,1635749722,incremental,ni_sequenzen,NI_Sequenzen,,,,,,,,,,,,,,
,Screen_4,canvas.Screen,0_2_6_3,,skipped,7,57052,,,57048,,57052,2021-11-02T07:11:48.991Z,,1635749722,incremental,ni_sequenzen,NI_Sequenzen,,,,,,,,,,,,,,
,Screen_5,canvas.Screen,0_2_6_4,,skipped,7,57053,,,57048,,57053,2021-11-02T07:11:48.993Z,,1635749722,incremental,ni_sequenzen,NI_Sequenzen,,,,,,,,,,,,,,
,Screen_6,canvas.Screen,0_2_6_5,,skipped,7,57055,,,57048,,57055,2021-11-02T07:11:48.994Z,,1635749722,incremental,ni_sequenzen,NI_Sequenzen,,,,,,,,,,,,,,
,Sequence,flow.Sequence,0_2_6,,completion,7,57047,,,57048,,57055,2021-11-02T07:11:48.994Z,,1635749722,incremental,ni_sequenzen,NI_Sequenzen,,,,,,,,,,,,,,
,Screen_1,canvas.Screen,0_2_7_0,,skipped,8,57056,,,57056,,57056,2021-11-02T07:11:48.996Z,,1635749722,incremental,ni_sequenzen,NI_Sequenzen,,,,,,,,,,,,,,
,Screen_2,canvas.Screen,0_2_7_1,,skipped,8,57057,,,57056,,57057,2021-11-02T07:11:48.997Z,,1635749722,incremental,ni_sequenzen,NI_Sequenzen,,,,,,,,,,,,,,
,Screen_3,canvas.Screen,0_2_7_2,,skipped,8,57058,,,57056,,57058,2021-11-02T07:11:48.998Z,,1635749722,incremental,ni_sequenzen,NI_Sequenzen,,,,,,,,,,,,,,
,Screen_4,canvas.Screen,0_2_7_3,,skipped,8,57059,,,57056,,57059,2021-11-02T07:11:48.999Z,,1635749722,incremental,ni_sequenzen,NI_Sequenzen,,,,,,,,,,,,,,
,Screen_5,canvas.Screen,0_2_7_4,,skipped,8,57060,,,57056,,57060,2021-11-02T07:11:49.000Z,,1635749722,incremental,ni_sequenzen,NI_Sequenzen,,,,,,,,,,,,,,
,Screen_6,canvas.Screen,0_2_7_5,,skipped,8,57061,,,57056,,57061,2021-11-02T07:11:49.001Z,,1635749722,incremental,ni_sequenzen,NI_Sequenzen,,,,,,,,,,,,,,
,Sequence,flow.Sequence,0_2_7,,completion,8,57055,,,57056,,57061,2021-11-02T07:11:49.001Z,,1635749722,incremental,ni_sequenzen,NI_Sequenzen,,,,,,,,,,,,,,
,Screen_1,canvas.Screen,0_2_8_0,,skipped,9,57063,,,57063,,57063,2021-11-02T07:11:49.003Z,,1635749722,incremental,ni_sequenzen,NI_Sequenzen,,,,,,,,,,,,,,
,Screen_2,canvas.Screen,0_2_8_1,,skipped,9,57064,,,57063,,57064,2021-11-02T07:11:49.004Z,,1635749722,incremental,ni_sequenzen,NI_Sequenzen,,,,,,,,,,,,,,
,Screen_3,canvas.Screen,0_2_8_2,,skipped,9,57065,,,57063,,57065,2021-11-02T07:11:49.005Z,,1635749722,incremental,ni_sequenzen,NI_Sequenzen,,,,,,,,,,,,,,
,Screen_4,canvas.Screen,0_2_8_3,,skipped,9,57066,,,57063,,57066,2021-11-02T07:11:49.006Z,,1635749722,incremental,ni_sequenzen,NI_Sequenzen,,,,,,,,,,,,,,
,Screen_5,canvas.Screen,0_2_8_4,,skipped,9,57067,,,57063,,57067,2021-11-02T07:11:49.007Z,,1635749722,incremental,ni_sequenzen,NI_Sequenzen,,,,,,,,,,,,,,
,Screen_6,canvas.Screen,0_2_8_5,,skipped,9,57068,,,57063,,57068,2021-11-02T07:11:49.008Z,,1635749722,incremental,ni_sequenzen,NI_Sequenzen,,,,,,,,,,,,,,
,Sequence,flow.Sequence,0_2_8,,completion,9,57062,,,57063,,57068,2021-11-02T07:11:49.008Z,,1635749722,incremental,ni_sequenzen,NI_Sequenzen,,,,,,,,,,,,,,
,Screen_1,canvas.Screen,0_2_9_0,,skipped,10,57070,,,57070,,57070,2021-11-02T07:11:49.009Z,,1635749722,incremental,ni_sequenzen,NI_Sequenzen,,,,,,,,,,,,,,
,Screen_2,canvas.Screen,0_2_9_1,,skipped,10,57070,,,57070,,57070,2021-11-02T07:11:49.011Z,,1635749722,incremental,ni_sequenzen,NI_Sequenzen,,,,,,,,,,,,,,
,Screen_3,canvas.Screen,0_2_9_2,,skipped,10,57072,,,57070,,57072,2021-11-02T07:11:49.012Z,,1635749722,incremental,ni_sequenzen,NI_Sequenzen,,,,,,,,,,,,,,
,Screen_4,canvas.Screen,0_2_9_3,,skipped,10,57072,,,57070,,57072,2021-11-02T07:11:49.013Z,,1635749722,incremental,ni_sequenzen,NI_Sequenzen,,,,,,,,,,,,,,
,Screen_5,canvas.Screen,0_2_9_4,,skipped,10,57073,,,57070,,57073,2021-11-02T07:11:49.014Z,,1635749722,incremental,ni_sequenzen,NI_Sequenzen,,,,,,,,,,,,,,
,Screen_6,canvas.Screen,0_2_9_5,,skipped,10,57074,,,57070,,57075,2021-11-02T07:11:49.015Z,,1635749722,incremental,ni_sequenzen,NI_Sequenzen,,,,,,,,,,,,,,
,Sequence,flow.Sequence,0_2_9,,completion,10,57069,,,57070,,57075,2021-11-02T07:11:49.015Z,,1635749722,incremental,ni_sequenzen,NI_Sequenzen,,,,,,,,,,,,,,
,Screen_1,canvas.Screen,0_2_10_0,,skipped,11,57076,,,57076,,57076,2021-11-02T07:11:49.016Z,,1635749722,incremental,ni_sequenzen,NI_Sequenzen,,,,,,,,,,,,,,
,Screen_2,canvas.Screen,0_2_10_1,,skipped,11,57077,,,57076,,57077,2021-11-02T07:11:49.018Z,,1635749722,incremental,ni_sequenzen,NI_Sequenzen,,,,,,,,,,,,,,
,Screen_3,canvas.Screen,0_2_10_2,,skipped,11,57078,,,57076,,57079,2021-11-02T07:11:49.019Z,,1635749722,incremental,ni_sequenzen,NI_Sequenzen,,,,,,,,,,,,,,
,Screen_4,canvas.Screen,0_2_10_3,,skipped,11,57079,,,57076,,57080,2021-11-02T07:11:49.020Z,,1635749722,incremental,ni_sequenzen,NI_Sequenzen,,,,,,,,,,,,,,
,Screen_5,canvas.Screen,0_2_10_4,,skipped,11,57081,,,57076,,57081,2021-11-02T07:11:49.021Z,,1635749722,incremental,ni_sequenzen,NI_Sequenzen,,,,,,,,,,,,,,
,Screen_6,canvas.Screen,0_2_10_5,,skipped,11,57082,,,57076,,57082,2021-11-02T07:11:49.022Z,,1635749722,incremental,ni_sequenzen,NI_Sequenzen,,,,,,,,,,,,,,
,Sequence,flow.Sequence,0_2_10,,completion,11,57075,,,57076,,57082,2021-11-02T07:11:49.022Z,,1635749722,incremental,ni_sequenzen,NI_Sequenzen,,,,,,,,,,,,,,
,Screen_1,canvas.Screen,0_2_11_0,,skipped,12,57083,,,57083,,57083,2021-11-02T07:11:49.023Z,,1635749722,incremental,ni_sequenzen,NI_Sequenzen,,,,,,,,,,,,,,
,Screen_2,canvas.Screen,0_2_11_1,,skipped,12,57084,,,57083,,57084,2021-11-02T07:11:49.024Z,,1635749722,incremental,ni_sequenzen,NI_Sequenzen,,,,,,,,,,,,,,
,Screen_3,canvas.Screen,0_2_11_2,,skipped,12,57085,,,57083,,57085,2021-11-02T07:11:49.025Z,,1635749722,incremental,ni_sequenzen,NI_Sequenzen,,,,,,,,,,,,,,
,Screen_4,canvas.Screen,0_2_11_3,,skipped,12,57086,,,57083,,57087,2021-11-02T07:11:49.027Z,,1635749722,incremental,ni_sequenzen,NI_Sequenzen,,,,,,,,,,,,,,
,Screen_5,canvas.Screen,0_2_11_4,,skipped,12,57088,,,57083,,57088,2021-11-02T07:11:49.027Z,,1635749722,incremental,ni_sequenzen,NI_Sequenzen,,,,,,,,,,,,,,
,Screen_6,canvas.Screen,0_2_11_5,,skipped,12,57089,,,57083,,57089,2021-11-02T07:11:49.028Z,,1635749722,incremental,ni_sequenzen,NI_Sequenzen,,,,,,,,,,,,,,
,Sequence,flow.Sequence,0_2_11,,completion,12,57082,,,57083,,57089,2021-11-02T07:11:49.029Z,,1635749722,incremental,ni_sequenzen,NI_Sequenzen,,,,,,,,,,,,,,
,Screen_1,canvas.Screen,0_2_12_0,,skipped,13,57090,,,57090,,57090,2021-11-02T07:11:49.031Z,,1635749722,incremental,ni_sequenzen,NI_Sequenzen,,,,,,,,,,,,,,
,Screen_2,canvas.Screen,0_2_12_1,,skipped,13,57092,,,57090,,57092,2021-11-02T07:11:49.032Z,,1635749722,incremental,ni_sequenzen,NI_Sequenzen,,,,,,,,,,,,,,
,Screen_3,canvas.Screen,0_2_12_2,,skipped,13,57093,,,57090,,57093,2021-11-02T07:11:49.033Z,,1635749722,incremental,ni_sequenzen,NI_Sequenzen,,,,,,,,,,,,,,
,Screen_4,canvas.Screen,0_2_12_3,,skipped,13,57093,,,57090,,57094,2021-11-02T07:11:49.034Z,,1635749722,incremental,ni_sequenzen,NI_Sequenzen,,,,,,,,,,,,,,
,Screen_5,canvas.Screen,0_2_12_4,,skipped,13,57094,,,57090,,57094,2021-11-02T07:11:49.035Z,,1635749722,incremental,ni_sequenzen,NI_Sequenzen,,,,,,,,,,,,,,
,Screen_6,canvas.Screen,0_2_12_5,,skipped,13,57096,,,57090,,57096,2021-11-02T07:11:49.035Z,,1635749722,incremental,ni_sequenzen,NI_Sequenzen,,,,,,,,,,,,,,
,Sequence,flow.Sequence,0_2_12,,completion,13,57089,,,57090,,57096,2021-11-02T07:11:49.035Z,,1635749722,incremental,ni_sequenzen,NI_Sequenzen,,,,,,,,,,,,,,
,Screen_1,canvas.Screen,0_2_13_0,,skipped,14,57098,,,57098,,57098,2021-11-02T07:11:49.038Z,,1635749722,incremental,ni_sequenzen,NI_Sequenzen,,,,,,,,,,,,,,
,Screen_2,canvas.Screen,0_2_13_1,,skipped,14,57098,,,57098,,57099,2021-11-02T07:11:49.038Z,,1635749722,incremental,ni_sequenzen,NI_Sequenzen,,,,,,,,,,,,,,
,Screen_3,canvas.Screen,0_2_13_2,,skipped,14,57099,,,57098,,57099,2021-11-02T07:11:49.039Z,,1635749722,incremental,ni_sequenzen,NI_Sequenzen,,,,,,,,,,,,,,
,Screen_4,canvas.Screen,0_2_13_3,,skipped,14,57100,,,57098,,57100,2021-11-02T07:11:49.041Z,,1635749722,incremental,ni_sequenzen,NI_Sequenzen,,,,,,,,,,,,,,
,Screen_5,canvas.Screen,0_2_13_4,,skipped,14,57101,,,57098,,57101,2021-11-02T07:11:49.042Z,,1635749722,incremental,ni_sequenzen,NI_Sequenzen,,,,,,,,,,,,,,
,Screen_6,canvas.Screen,0_2_13_5,,skipped,14,57102,,,57098,,57102,2021-11-02T07:11:49.043Z,,1635749722,incremental,ni_sequenzen,NI_Sequenzen,,,,,,,,,,,,,,
,Sequence,flow.Sequence,0_2_13,,completion,14,57096,,,57098,,57102,2021-11-02T07:11:49.043Z,,1635749722,incremental,ni_sequenzen,NI_Sequenzen,,,,,,,,,,,,,,
,Screen_1,canvas.Screen,0_2_14_0,,skipped,15,57104,,,57104,,57104,2021-11-02T07:11:49.044Z,,1635749722,incremental,ni_sequenzen,NI_Sequenzen,,,,,,,,,,,,,,
,Screen_2,canvas.Screen,0_2_14_1,,skipped,15,57105,,,57104,,57105,2021-11-02T07:11:49.044Z,,1635749722,incremental,ni_sequenzen,NI_Sequenzen,,,,,,,,,,,,,,
,Screen_3,canvas.Screen,0_2_14_2,,skipped,15,57105,,,57104,,57105,2021-11-02T07:11:49.046Z,,1635749722,incremental,ni_sequenzen,NI_Sequenzen,,,,,,,,,,,,,,
,Screen_4,canvas.Screen,0_2_14_3,,skipped,15,57106,,,57104,,57106,2021-11-02T07:11:49.046Z,,1635749722,incremental,ni_sequenzen,NI_Sequenzen,,,,,,,,,,,,,,
,Screen_5,canvas.Screen,0_2_14_4,,skipped,15,57107,,,57104,,57107,2021-11-02T07:11:49.047Z,,1635749722,incremental,ni_sequenzen,NI_Sequenzen,,,,,,,,,,,,,,
,Screen_6,canvas.Screen,0_2_14_5,,skipped,15,57108,,,57104,,57109,2021-11-02T07:11:49.048Z,,1635749722,incremental,ni_sequenzen,NI_Sequenzen,,,,,,,,,,,,,,
,Sequence,flow.Sequence,0_2_14,,completion,15,57103,,,57104,,57109,2021-11-02T07:11:49.048Z,,1635749722,incremental,ni_sequenzen,NI_Sequenzen,,,,,,,,,,,,,,
,Screen_1,canvas.Screen,0_2_15_0,,skipped,16,57109,,,57109,,57109,2021-11-02T07:11:49.049Z,,1635749722,incremental,ni_sequenzen,NI_Sequenzen,,,,,,,,,,,,,,
,Screen_2,canvas.Screen,0_2_15_1,,skipped,16,57111,,,57109,,57111,2021-11-02T07:11:49.050Z,,1635749722,incremental,ni_sequenzen,NI_Sequenzen,,,,,,,,,,,,,,
,Screen_3,canvas.Screen,0_2_15_2,,skipped,16,57111,,,57109,,57111,2021-11-02T07:11:49.051Z,,1635749722,incremental,ni_sequenzen,NI_Sequenzen,,,,,,,,,,,,,,
,Screen_4,canvas.Screen,0_2_15_3,,skipped,16,57112,,,57109,,57112,2021-11-02T07:11:49.052Z,,1635749722,incremental,ni_sequenzen,NI_Sequenzen,,,,,,,,,,,,,,
,Screen_5,canvas.Screen,0_2_15_4,,skipped,16,57113,,,57109,,57113,2021-11-02T07:11:49.054Z,,1635749722,incremental,ni_sequenzen,NI_Sequenzen,,,,,,,,,,,,,,
,Screen_6,canvas.Screen,0_2_15_5,,skipped,16,57114,,,57109,,57114,2021-11-02T07:11:49.054Z,,1635749722,incremental,ni_sequenzen,NI_Sequenzen,,,,,,,,,,,,,,
,Sequence,flow.Sequence,0_2_15,,completion,16,57109,,,57109,,57114,2021-11-02T07:11:49.054Z,,1635749722,incremental,ni_sequenzen,NI_Sequenzen,,,,,,,,,,,,,,
,Screen_1,canvas.Screen,0_2_16_0,,skipped,17,57115,,,57115,,57115,2021-11-02T07:11:49.055Z,,1635749722,incremental,ni_sequenzen,NI_Sequenzen,,,,,,,,,,,,,,
,Screen_2,canvas.Screen,0_2_16_1,,skipped,17,57116,,,57115,,57116,2021-11-02T07:11:49.057Z,,1635749722,incremental,ni_sequenzen,NI_Sequenzen,,,,,,,,,,,,,,
,Screen_3,canvas.Screen,0_2_16_2,,skipped,17,57117,,,57115,,57117,2021-11-02T07:11:49.057Z,,1635749722,incremental,ni_sequenzen,NI_Sequenzen,,,,,,,,,,,,,,
,Screen_4,canvas.Screen,0_2_16_3,,skipped,17,57118,,,57115,,57118,2021-11-02T07:11:49.058Z,,1635749722,incremental,ni_sequenzen,NI_Sequenzen,,,,,,,,,,,,,,
,Screen_5,canvas.Screen,0_2_16_4,,skipped,17,57119,,,57115,,57119,2021-11-02T07:11:49.059Z,,1635749722,incremental,ni_sequenzen,NI_Sequenzen,,,,,,,,,,,,,,
,Screen_6,canvas.Screen,0_2_16_5,,skipped,17,57120,,,57115,,57120,2021-11-02T07:11:49.060Z,,1635749722,incremental,ni_sequenzen,NI_Sequenzen,,,,,,,,,,,,,,
,Sequence,flow.Sequence,0_2_16,,completion,17,57114,,,57115,,57120,2021-11-02T07:11:49.060Z,,1635749722,incremental,ni_sequenzen,NI_Sequenzen,,,,,,,,,,,,,,
,Screen_1,canvas.Screen,0_2_17_0,,skipped,18,57121,,,57121,,57121,2021-11-02T07:11:49.061Z,,1635749722,incremental,ni_sequenzen,NI_Sequenzen,,,,,,,,,,,,,,
,Screen_2,canvas.Screen,0_2_17_1,,skipped,18,57122,,,57121,,57122,2021-11-02T07:11:49.062Z,,1635749722,incremental,ni_sequenzen,NI_Sequenzen,,,,,,,,,,,,,,
,Screen_3,canvas.Screen,0_2_17_2,,skipped,18,57123,,,57121,,57123,2021-11-02T07:11:49.063Z,,1635749722,incremental,ni_sequenzen,NI_Sequenzen,,,,,,,,,,,,,,
,Screen_4,canvas.Screen,0_2_17_3,,skipped,18,57123,,,57121,,57123,2021-11-02T07:11:49.063Z,,1635749722,incremental,ni_sequenzen,NI_Sequenzen,,,,,,,,,,,,,,
,Screen_5,canvas.Screen,0_2_17_4,,skipped,18,57124,,,57121,,57124,2021-11-02T07:11:49.064Z,,1635749722,incremental,ni_sequenzen,NI_Sequenzen,,,,,,,,,,,,,,
,Screen_6,canvas.Screen,0_2_17_5,,skipped,18,57125,,,57121,,57125,2021-11-02T07:11:49.065Z,,1635749722,incremental,ni_sequenzen,NI_Sequenzen,,,,,,,,,,,,,,
,Sequence,flow.Sequence,0_2_17,,completion,18,57120,,,57121,,57125,2021-11-02T07:11:49.065Z,,1635749722,incremental,ni_sequenzen,NI_Sequenzen,,,,,,,,,,,,,,
,Screen_1,canvas.Screen,0_2_18_0,,skipped,19,57126,,,57126,,57126,2021-11-02T07:11:49.067Z,,1635749722,incremental,ni_sequenzen,NI_Sequenzen,,,,,,,,,,,,,,
,Screen_2,canvas.Screen,0_2_18_1,,skipped,19,57128,,,57126,,57128,2021-11-02T07:11:49.068Z,,1635749722,incremental,ni_sequenzen,NI_Sequenzen,,,,,,,,,,,,,,
,Screen_3,canvas.Screen,0_2_18_2,,skipped,19,57128,,,57126,,57128,2021-11-02T07:11:49.068Z,,1635749722,incremental,ni_sequenzen,NI_Sequenzen,,,,,,,,,,,,,,
,Screen_4,canvas.Screen,0_2_18_3,,skipped,19,57129,,,57126,,57129,2021-11-02T07:11:49.069Z,,1635749722,incremental,ni_sequenzen,NI_Sequenzen,,,,,,,,,,,,,,
,Screen_5,canvas.Screen,0_2_18_4,,skipped,19,57130,,,57126,,57130,2021-11-02T07:11:49.070Z,,1635749722,incremental,ni_sequenzen,NI_Sequenzen,,,,,,,,,,,,,,
,Screen_6,canvas.Screen,0_2_18_5,,skipped,19,57131,,,57126,,57131,2021-11-02T07:11:49.071Z,,1635749722,incremental,ni_sequenzen,NI_Sequenzen,,,,,,,,,,,,,,
,Sequence,flow.Sequence,0_2_18,,completion,19,57126,,,57126,,57131,2021-11-02T07:11:49.071Z,,1635749722,incremental,ni_sequenzen,NI_Sequenzen,,,,,,,,,,,,,,
,Screen_1,canvas.Screen,0_2_19_0,,skipped,20,57133,,,57133,,57133,2021-11-02T07:11:49.072Z,,1635749722,incremental,ni_sequenzen,NI_Sequenzen,,,,,,,,,,,,,,
,Screen_2,canvas.Screen,0_2_19_1,,skipped,20,57133,,,57133,,57134,2021-11-02T07:11:49.073Z,,1635749722,incremental,ni_sequenzen,NI_Sequenzen,,,,,,,,,,,,,,
,Screen_3,canvas.Screen,0_2_19_2,,skipped,20,57134,,,57133,,57134,2021-11-02T07:11:49.074Z,,1635749722,incremental,ni_sequenzen,NI_Sequenzen,,,,,,,,,,,,,,
,Screen_4,canvas.Screen,0_2_19_3,,skipped,20,57135,,,57133,,57135,2021-11-02T07:11:49.075Z,,1635749722,incremental,ni_sequenzen,NI_Sequenzen,,,,,,,,,,,,,,
,Screen_5,canvas.Screen,0_2_19_4,,skipped,20,57136,,,57133,,57136,2021-11-02T07:11:49.076Z,,1635749722,incremental,ni_sequenzen,NI_Sequenzen,,,,,,,,,,,,,,
,Screen_6,canvas.Screen,0_2_19_5,,skipped,20,57136,,,57133,,57136,2021-11-02T07:11:49.077Z,,1635749722,incremental,ni_sequenzen,NI_Sequenzen,,,,,,,,,,,,,,
,Sequence,flow.Sequence,0_2_19,,completion,20,57131,,,57133,,57137,2021-11-02T07:11:49.077Z,,1635749722,incremental,ni_sequenzen,NI_Sequenzen,,,,,,,,,,,,,,
,Screen_1,canvas.Screen,0_2_20_0,,skipped,21,57138,,,57138,,57138,2021-11-02T07:11:49.079Z,,1635749722,incremental,ni_sequenzen,NI_Sequenzen,,,,,,,,,,,,,,
,Screen_2,canvas.Screen,0_2_20_1,,skipped,21,57140,,,57138,,57140,2021-11-02T07:11:49.080Z,,1635749722,incremental,ni_sequenzen,NI_Sequenzen,,,,,,,,,,,,,,
,Screen_3,canvas.Screen,0_2_20_2,,skipped,21,57140,,,57138,,57140,2021-11-02T07:11:49.081Z,,1635749722,incremental,ni_sequenzen,NI_Sequenzen,,,,,,,,,,,,,,
,Screen_4,canvas.Screen,0_2_20_3,,skipped,21,57141,,,57138,,57141,2021-11-02T07:11:49.082Z,,1635749722,incremental,ni_sequenzen,NI_Sequenzen,,,,,,,,,,,,,,
,Screen_5,canvas.Screen,0_2_20_4,,skipped,21,57142,,,57138,,57142,2021-11-02T07:11:49.082Z,,1635749722,incremental,ni_sequenzen,NI_Sequenzen,,,,,,,,,,,,,,
,Screen_6,canvas.Screen,0_2_20_5,,skipped,21,57143,,,57138,,57143,2021-11-02T07:11:49.083Z,,1635749722,incremental,ni_sequenzen,NI_Sequenzen,,,,,,,,,,,,,,
,Sequence,flow.Sequence,0_2_20,,completion,21,57137,,,57138,,57143,2021-11-02T07:11:49.083Z,,1635749722,incremental,ni_sequenzen,NI_Sequenzen,,,,,,,,,,,,,,
,Screen_1,canvas.Screen,0_2_21_0,,skipped,22,57144,,,57144,,57145,2021-11-02T07:11:49.085Z,,1635749722,incremental,ni_sequenzen,NI_Sequenzen,,,,,,,,,,,,,,
,Screen_2,canvas.Screen,0_2_21_1,,skipped,22,57145,,,57144,,57145,2021-11-02T07:11:49.085Z,,1635749722,incremental,ni_sequenzen,NI_Sequenzen,,,,,,,,,,,,,,
,Screen_3,canvas.Screen,0_2_21_2,,skipped,22,57146,,,57144,,57146,2021-11-02T07:11:49.086Z,,1635749722,incremental,ni_sequenzen,NI_Sequenzen,,,,,,,,,,,,,,
,Screen_4,canvas.Screen,0_2_21_3,,skipped,22,57147,,,57144,,57147,2021-11-02T07:11:49.087Z,,1635749722,incremental,ni_sequenzen,NI_Sequenzen,,,,,,,,,,,,,,
,Screen_5,canvas.Screen,0_2_21_4,,skipped,22,57148,,,57144,,57148,2021-11-02T07:11:49.088Z,,1635749722,incremental,ni_sequenzen,NI_Sequenzen,,,,,,,,,,,,,,
,Screen_6,canvas.Screen,0_2_21_5,,skipped,22,57149,,,57144,,57149,2021-11-02T07:11:49.089Z,,1635749722,incremental,ni_sequenzen,NI_Sequenzen,,,,,,,,,,,,,,
,Sequence,flow.Sequence,0_2_21,,completion,22,57143,,,57144,,57149,2021-11-02T07:11:49.089Z,,1635749722,incremental,ni_sequenzen,NI_Sequenzen,,,,,,,,,,,,,,
,Screen_1,canvas.Screen,0_2_22_0,,skipped,23,57150,,,57150,,57150,2021-11-02T07:11:49.091Z,,1635749722,incremental,ni_sequenzen,NI_Sequenzen,,,,,,,,,,,,,,
,Screen_2,canvas.Screen,0_2_22_1,,skipped,23,57151,,,57150,,57151,2021-11-02T07:11:49.092Z,,1635749722,incremental,ni_sequenzen,NI_Sequenzen,,,,,,,,,,,,,,
,Screen_3,canvas.Screen,0_2_22_2,,skipped,23,57152,,,57150,,57153,2021-11-02T07:11:49.093Z,,1635749722,incremental,ni_sequenzen,NI_Sequenzen,,,,,,,,,,,,,,
,Screen_4,canvas.Screen,0_2_22_3,,skipped,23,57153,,,57150,,57153,2021-11-02T07:11:49.093Z,,1635749722,incremental,ni_sequenzen,NI_Sequenzen,,,,,,,,,,,,,,
,Screen_5,canvas.Screen,0_2_22_4,,skipped,23,57154,,,57150,,57154,2021-11-02T07:11:49.093Z,,1635749722,incremental,ni_sequenzen,NI_Sequenzen,,,,,,,,,,,,,,
,Screen_6,canvas.Screen,0_2_22_5,,skipped,23,57155,,,57150,,57155,2021-11-02T07:11:49.095Z,,1635749722,incremental,ni_sequenzen,NI_Sequenzen,,,,,,,,,,,,,,
,Sequence,flow.Sequence,0_2_22,,completion,23,57150,,,57150,,57155,2021-11-02T07:11:49.096Z,,1635749722,incremental,ni_sequenzen,NI_Sequenzen,,,,,,,,,,,,,,
,Screen_1,canvas.Screen,0_2_23_0,,skipped,24,57156,,,57156,,57156,2021-11-02T07:11:49.097Z,,1635749722,incremental,ni_sequenzen,NI_Sequenzen,,,,,,,,,,,,,,
,Screen_2,canvas.Screen,0_2_23_1,,skipped,24,57157,,,57156,,57157,2021-11-02T07:11:49.098Z,,1635749722,incremental,ni_sequenzen,NI_Sequenzen,,,,,,,,,,,,,,
,Screen_3,canvas.Screen,0_2_23_2,,skipped,24,57158,,,57156,,57158,2021-11-02T07:11:49.098Z,,1635749722,incremental,ni_sequenzen,NI_Sequenzen,,,,,,,,,,,,,,
,Screen_4,canvas.Screen,0_2_23_3,,skipped,24,57159,,,57156,,57159,2021-11-02T07:11:49.099Z,,1635749722,incremental,ni_sequenzen,NI_Sequenzen,,,,,,,,,,,,,,
,Screen_5,canvas.Screen,0_2_23_4,,skipped,24,57160,,,57156,,57160,2021-11-02T07:11:49.100Z,,1635749722,incremental,ni_sequenzen,NI_Sequenzen,,,,,,,,,,,,,,
,Screen_6,canvas.Screen,0_2_23_5,,skipped,24,57161,,,57156,,57161,2021-11-02T07:11:49.101Z,,1635749722,incremental,ni_sequenzen,NI_Sequenzen,,,,,,,,,,,,,,
,Sequence,flow.Sequence,0_2_23,,completion,24,57156,,,57156,,57161,2021-11-02T07:11:49.101Z,,1635749722,incremental,ni_sequenzen,NI_Sequenzen,,,,,,,,,,,,,,
,Screen_1,canvas.Screen,0_2_24_0,,skipped,25,57162,,,57162,,57162,2021-11-02T07:11:49.102Z,,1635749722,incremental,ni_sequenzen,NI_Sequenzen,,,,,,,,,,,,,,
,Screen_2,canvas.Screen,0_2_24_1,,skipped,25,57163,,,57162,,57163,2021-11-02T07:11:49.103Z,,1635749722,incremental,ni_sequenzen,NI_Sequenzen,,,,,,,,,,,,,,
,Screen_3,canvas.Screen,0_2_24_2,,skipped,25,57165,,,57162,,57165,2021-11-02T07:11:49.104Z,,1635749722,incremental,ni_sequenzen,NI_Sequenzen,,,,,,,,,,,,,,
,Screen_4,canvas.Screen,0_2_24_3,,skipped,25,57166,,,57162,,57166,2021-11-02T07:11:49.106Z,,1635749722,incremental,ni_sequenzen,NI_Sequenzen,,,,,,,,,,,,,,
,Screen_5,canvas.Screen,0_2_24_4,,skipped,25,57167,,,57162,,57167,2021-11-02T07:11:49.107Z,,1635749722,incremental,ni_sequenzen,NI_Sequenzen,,,,,,,,,,,,,,
,Screen_6,canvas.Screen,0_2_24_5,,skipped,25,57168,,,57162,,57168,2021-11-02T07:11:49.108Z,,1635749722,incremental,ni_sequenzen,NI_Sequenzen,,,,,,,,,,,,,,
,Sequence,flow.Sequence,0_2_24,,completion,25,57161,,,57162,,57168,2021-11-02T07:11:49.108Z,,1635749722,incremental,ni_sequenzen,NI_Sequenzen,,,,,,,,,,,,,,
,Screen_1,canvas.Screen,0_2_25_0,,skipped,26,57168,,,57168,,57168,2021-11-02T07:11:49.109Z,,1635749722,incremental,ni_sequenzen,NI_Sequenzen,,,,,,,,,,,,,,
,Screen_2,canvas.Screen,0_2_25_1,,skipped,26,57175,,,57168,,57175,2021-11-02T07:11:49.114Z,57230.78,1635749722,incremental,ni_sequenzen,NI_Sequenzen,,,,,,,,,,,,,,
,Screen_3,canvas.Screen,0_2_25_2,,skipped,26,57176,,,57168,,57176,2021-11-02T07:11:49.115Z,57230.78,1635749722,incremental,ni_sequenzen,NI_Sequenzen,,,,,,,,,,,,,,
,Screen_4,canvas.Screen,0_2_25_3,,skipped,26,57177,,,57168,,57177,2021-11-02T07:11:49.116Z,57230.78,1635749722,incremental,ni_sequenzen,NI_Sequenzen,,,,,,,,,,,,,,
,Screen_5,canvas.Screen,0_2_25_4,,skipped,26,57178,,,57168,,57178,2021-11-02T07:11:49.117Z,57230.78,1635749722,incremental,ni_sequenzen,NI_Sequenzen,,,,,,,,,,,,,,
,Screen_6,canvas.Screen,0_2_25_5,,skipped,26,57180,,,57168,,57180,2021-11-02T07:11:49.119Z,57230.78,1635749722,incremental,ni_sequenzen,NI_Sequenzen,,,,,,,,,,,,,,
,Sequence,flow.Sequence,0_2_25,,completion,26,57168,,,57168,,57180,2021-11-02T07:11:49.119Z,57230.78,1635749722,incremental,ni_sequenzen,NI_Sequenzen,,,,,,,,,,,,,,
,Screen_1,canvas.Screen,0_2_26_0,,skipped,27,57181,,,57181,,57181,2021-11-02T07:11:49.121Z,57230.78,1635749722,incremental,ni_sequenzen,NI_Sequenzen,,,,,,,,,,,,,,
,Screen_2,canvas.Screen,0_2_26_1,,skipped,27,57182,,,57181,,57182,2021-11-02T07:11:49.122Z,57230.78,1635749722,incremental,ni_sequenzen,NI_Sequenzen,,,,,,,,,,,,,,
,Screen_3,canvas.Screen,0_2_26_2,,skipped,27,57183,,,57181,,57183,2021-11-02T07:11:49.123Z,57230.78,1635749722,incremental,ni_sequenzen,NI_Sequenzen,,,,,,,,,,,,,,
,Screen_4,canvas.Screen,0_2_26_3,,skipped,27,57184,,,57181,,57184,2021-11-02T07:11:49.124Z,57230.78,1635749722,incremental,ni_sequenzen,NI_Sequenzen,,,,,,,,,,,,,,
,Screen_5,canvas.Screen,0_2_26_4,,skipped,27,57185,,,57181,,57185,2021-11-02T07:11:49.125Z,57230.78,1635749722,incremental,ni_sequenzen,NI_Sequenzen,,,,,,,,,,,,,,
,Screen_6,canvas.Screen,0_2_26_5,,skipped,27,57186,,,57181,,57186,2021-11-02T07:11:49.126Z,57230.78,1635749722,incremental,ni_sequenzen,NI_Sequenzen,,,,,,,,,,,,,,
,Sequence,flow.Sequence,0_2_26,,completion,27,57181,,,57181,,57186,2021-11-02T07:11:49.126Z,57230.78,1635749722,incremental,ni_sequenzen,NI_Sequenzen,,,,,,,,,,,,,,
,Screen_1,canvas.Screen,0_2_27_0,,skipped,28,57187,,,57187,,57187,2021-11-02T07:11:49.127Z,57230.78,1635749722,incremental,ni_sequenzen,NI_Sequenzen,,,,,,,,,,,,,,
,Screen_2,canvas.Screen,0_2_27_1,,skipped,28,57188,,,57187,,57188,2021-11-02T07:11:49.128Z,57230.78,1635749722,incremental,ni_sequenzen,NI_Sequenzen,,,,,,,,,,,,,,
,Screen_3,canvas.Screen,0_2_27_2,,skipped,28,57189,,,57187,,57189,2021-11-02T07:11:49.129Z,57230.78,1635749722,incremental,ni_sequenzen,NI_Sequenzen,,,,,,,,,,,,,,
,Screen_4,canvas.Screen,0_2_27_3,,skipped,28,57190,,,57187,,57190,2021-11-02T07:11:49.130Z,57230.78,1635749722,incremental,ni_sequenzen,NI_Sequenzen,,,,,,,,,,,,,,
,Screen_5,canvas.Screen,0_2_27_4,,skipped,28,57191,,,57187,,57191,2021-11-02T07:11:49.130Z,57230.78,1635749722,incremental,ni_sequenzen,NI_Sequenzen,,,,,,,,,,,,,,
,Screen_6,canvas.Screen,0_2_27_5,,skipped,28,57192,,,57187,,57192,2021-11-02T07:11:49.131Z,57230.78,1635749722,incremental,ni_sequenzen,NI_Sequenzen,,,,,,,,,,,,,,
,Sequence,flow.Sequence,0_2_27,,completion,28,57186,,,57187,,57192,2021-11-02T07:11:49.132Z,57230.78,1635749722,incremental,ni_sequenzen,NI_Sequenzen,,,,,,,,,,,,,,
,Screen_1,canvas.Screen,0_2_28_0,,skipped,29,57193,,,57193,,57193,2021-11-02T07:11:49.133Z,57230.78,1635749722,incremental,ni_sequenzen,NI_Sequenzen,,,,,,,,,,,,,,
,Screen_2,canvas.Screen,0_2_28_1,,skipped,29,57193,,,57193,,57193,2021-11-02T07:11:49.134Z,57230.78,1635749722,incremental,ni_sequenzen,NI_Sequenzen,,,,,,,,,,,,,,
,Screen_3,canvas.Screen,0_2_28_2,,skipped,29,57195,,,57193,,57195,2021-11-02T07:11:49.134Z,57230.78,1635749722,incremental,ni_sequenzen,NI_Sequenzen,,,,,,,,,,,,,,
,Screen_4,canvas.Screen,0_2_28_3,,skipped,29,57196,,,57193,,57196,2021-11-02T07:11:49.135Z,57230.78,1635749722,incremental,ni_sequenzen,NI_Sequenzen,,,,,,,,,,,,,,
,Screen_5,canvas.Screen,0_2_28_4,,skipped,29,57197,,,57193,,57197,2021-11-02T07:11:49.136Z,57230.78,1635749722,incremental,ni_sequenzen,NI_Sequenzen,,,,,,,,,,,,,,
,Screen_6,canvas.Screen,0_2_28_5,,skipped,29,57197,,,57193,,57197,2021-11-02T07:11:49.137Z,57230.78,1635749722,incremental,ni_sequenzen,NI_Sequenzen,,,,,,,,,,,,,,
,Sequence,flow.Sequence,0_2_28,,completion,29,57192,,,57193,,57197,2021-11-02T07:11:49.137Z,57230.78,1635749722,incremental,ni_sequenzen,NI_Sequenzen,,,,,,,,,,,,,,
,Screen_1,canvas.Screen,0_2_29_0,,skipped,30,57198,,,57198,,57198,2021-11-02T07:11:49.138Z,57230.78,1635749722,incremental,ni_sequenzen,NI_Sequenzen,,,,,,,,,,,,,,
,Screen_2,canvas.Screen,0_2_29_1,,skipped,30,57199,,,57198,,57199,2021-11-02T07:11:49.139Z,57230.78,1635749722,incremental,ni_sequenzen,NI_Sequenzen,,,,,,,,,,,,,,
,Screen_3,canvas.Screen,0_2_29_2,,skipped,30,57200,,,57198,,57200,2021-11-02T07:11:49.140Z,57230.78,1635749722,incremental,ni_sequenzen,NI_Sequenzen,,,,,,,,,,,,,,
,Screen_4,canvas.Screen,0_2_29_3,,skipped,30,57201,,,57198,,57201,2021-11-02T07:11:49.141Z,57230.78,1635749722,incremental,ni_sequenzen,NI_Sequenzen,,,,,,,,,,,,,,
,Screen_5,canvas.Screen,0_2_29_4,,skipped,30,57203,,,57198,,57203,2021-11-02T07:11:49.143Z,57230.78,1635749722,incremental,ni_sequenzen,NI_Sequenzen,,,,,,,,,,,,,,
,Screen_6,canvas.Screen,0_2_29_5,,skipped,30,57204,,,57198,,57204,2021-11-02T07:11:49.144Z,57230.78,1635749722,incremental,ni_sequenzen,NI_Sequenzen,,,,,,,,,,,,,,
,Sequence,flow.Sequence,0_2_29,,completion,30,57198,,,57198,,57204,2021-11-02T07:11:49.145Z,57230.78,1635749722,incremental,ni_sequenzen,NI_Sequenzen,,,,,,,,,,,,,,
,Instructions_II,flow.Loop,0_2,,completion,,25165,25166.74,25167.44,57198,32030.56,57205,2021-11-02T07:11:49.145Z,57230.78,1635749722,incremental,ni_sequenzen,NI_Sequenzen,,,,,,,,,,,,,,
,Move,canvas.Screen,0_3_0_0_0_0,right,response,,57231,57230.46,57230.78,57313,82.22000000000116,57334,2021-11-02T07:11:49.274Z,57346.94,1635749722,incremental,ni_sequenzen,NI_Sequenzen,1,0,,,,,,,,,,,,
,Move,canvas.Screen,0_3_0_0_0_1,left,response,,57340,57340.72,57346.94,59954,2607.0599999999977,59971,2021-11-02T07:11:51.910Z,59985.04,1635749722,incremental,ni_sequenzen,NI_Sequenzen,2,0,,,,,,,,,,,,
,Move,canvas.Screen,0_3_0_0_0_2,down,response,,59985,59984.84,59985.04,60142,156.95999999999913,60152,2021-11-02T07:11:52.092Z,60178.46,1635749722,incremental,ni_sequenzen,NI_Sequenzen,3,0,,,,,,,,,,,,
,Move,canvas.Screen,0_3_0_0_0_3,left,response,,60171,60171.38,60178.46,60267,88.54000000000087,60296,2021-11-02T07:11:52.237Z,60361.68,1635749722,incremental,ni_sequenzen,NI_Sequenzen,4,0,,,,,,,,,,,,
,Move,canvas.Screen,0_3_0_0_0_4,-999,skipped,,60305,,,60267,,60305,2021-11-02T07:11:52.245Z,60361.68,1635749722,incremental,ni_sequenzen,NI_Sequenzen,5,0,,,,,,,,,,,,
,Move,canvas.Screen,0_3_0_0_0_5,-999,skipped,,60308,,,60267,,60308,2021-11-02T07:11:52.248Z,60361.68,1635749722,incremental,ni_sequenzen,NI_Sequenzen,6,0,,,,,,,,,,,,
,Move,canvas.Screen,0_3_0_0_0_6,-999,skipped,,60312,,,60267,,60312,2021-11-02T07:11:52.253Z,60361.68,1635749722,incremental,ni_sequenzen,NI_Sequenzen,7,0,,,,,,,,,,,,
,Move,canvas.Screen,0_3_0_0_0_7,-999,skipped,,60316,,,60267,,60316,2021-11-02T07:11:52.256Z,60361.68,1635749722,incremental,ni_sequenzen,NI_Sequenzen,8,0,,,,,,,,,,,,
,Move,canvas.Screen,0_3_0_0_0_8,-999,skipped,,60320,,,60267,,60320,2021-11-02T07:11:52.260Z,60361.68,1635749722,incremental,ni_sequenzen,NI_Sequenzen,9,0,,,,,,,,,,,,
,Move,canvas.Screen,0_3_0_0_0_9,-999,skipped,,60324,,,60267,,60324,2021-11-02T07:11:52.263Z,60361.68,1635749722,incremental,ni_sequenzen,NI_Sequenzen,10,0,,,,,,,,,,,,
,Move,canvas.Screen,0_3_0_0_0_10,-999,skipped,,60328,,,60267,,60328,2021-11-02T07:11:52.268Z,60361.68,1635749722,incremental,ni_sequenzen,NI_Sequenzen,11,0,,,,,,,,,,,,
,Move,canvas.Screen,0_3_0_0_0_11,-999,skipped,,60332,,,60267,,60332,2021-11-02T07:11:52.272Z,60361.68,1635749722,incremental,ni_sequenzen,NI_Sequenzen,12,0,,,,,,,,,,,,
,Move,canvas.Screen,0_3_0_0_0_12,-999,skipped,,60336,,,60267,,60336,2021-11-02T07:11:52.276Z,60361.68,1635749722,incremental,ni_sequenzen,NI_Sequenzen,13,0,,,,,,,,,,,,
,Move,canvas.Screen,0_3_0_0_0_13,-999,skipped,,60340,,,60267,,60340,2021-11-02T07:11:52.280Z,60361.68,1635749722,incremental,ni_sequenzen,NI_Sequenzen,14,0,,,,,,,,,,,,
,Move,canvas.Screen,0_3_0_0_0_14,-999,skipped,,60344,,,60267,,60344,2021-11-02T07:11:52.283Z,60361.68,1635749722,incremental,ni_sequenzen,NI_Sequenzen,15,0,,,,,,,,,,,,
,Loop,flow.Loop,0_3_0_0_0,-999,completion,,57225,57230.46,57230.78,60267,3036.220000000001,60344,2021-11-02T07:11:52.283Z,60361.68,1635749722,incremental,ni_sequenzen,NI_Sequenzen,,0,,,,,,,,,,,,
,Feedback,canvas.Screen,0_3_0_0_1,,timeout,,60347,60346.72,60361.68,64342.62,3997.5,64345,2021-11-02T07:11:56.285Z,64359.18,1635749722,incremental,ni_sequenzen,NI_Sequenzen,,0,,,,,,,,,,,,
,Trial,flow.Sequence,0_3_0_0,,completion,,57220,57230.46,57230.78,64342.62,7111.840000000004,64345,2021-11-02T07:11:56.285Z,64375.84,1635749722,incremental,ni_sequenzen,NI_Sequenzen,,0,,,,,,,,,,,,
,Move,canvas.Screen,0_3_0_1_0_0,left,response,,64357,64359.18,64375.84,65548,1172.1600000000035,65568,2021-11-02T07:11:57.508Z,65576.48,1635749722,incremental,ni_sequenzen,NI_Sequenzen,1,1,,,,,,,,,,,,
,Move,canvas.Screen,0_3_0_1_0_1,down,response,,65576,65576.24,65576.48,65642,65.52000000000407,65656,2021-11-02T07:11:57.595Z,65675.04,1635749722,incremental,ni_sequenzen,NI_Sequenzen,2,1,,,,,,,,,,,,
,Move,canvas.Screen,0_3_0_1_0_2,right,response,,65664,65663.72,65675.04,65750,74.9600000000064,65768,2021-11-02T07:11:57.708Z,65791.52,1635749722,incremental,ni_sequenzen,NI_Sequenzen,3,1,,,,,,,,,,,,
,Move,canvas.Screen,0_3_0_1_0_3,down,response,,65777,65776.68,65791.52,65923,131.47999999999593,65934,2021-11-02T07:11:57.873Z,65937.92,1635749722,incremental,ni_sequenzen,NI_Sequenzen,4,1,,,,,,,,,,,,
,Move,canvas.Screen,0_3_0_1_0_4,left,response,,65938,65937.7,65937.92,65954,16.080000000001746,65965,2021-11-02T07:11:57.905Z,66024.68,1635749722,incremental,ni_sequenzen,NI_Sequenzen,5,1,,,,,,,,,,,,
,Move,canvas.Screen,0_3_0_1_0_5,-999,skipped,,65970,,,65954,,65970,2021-11-02T07:11:57.910Z,66024.68,1635749722,incremental,ni_sequenzen,NI_Sequenzen,6,1,,,,,,,,,,,,
,Move,canvas.Screen,0_3_0_1_0_6,-999,skipped,,65975,,,65954,,65975,2021-11-02T07:11:57.915Z,66024.68,1635749722,incremental,ni_sequenzen,NI_Sequenzen,7,1,,,,,,,,,,,,
,Move,canvas.Screen,0_3_0_1_0_7,-999,skipped,,65980,,,65954,,65980,2021-11-02T07:11:57.920Z,66024.68,1635749722,incremental,ni_sequenzen,NI_Sequenzen,8,1,,,,,,,,,,,,
,Move,canvas.Screen,0_3_0_1_0_8,-999,skipped,,65984,,,65954,,65984,2021-11-02T07:11:57.924Z,66024.68,1635749722,incremental,ni_sequenzen,NI_Sequenzen,9,1,,,,,,,,,,,,
,Move,canvas.Screen,0_3_0_1_0_9,-999,skipped,,65988,,,65954,,65988,2021-11-02T07:11:57.928Z,66024.68,1635749722,incremental,ni_sequenzen,NI_Sequenzen,10,1,,,,,,,,,,,,
,Move,canvas.Screen,0_3_0_1_0_10,-999,skipped,,65991,,,65954,,65991,2021-11-02T07:11:57.932Z,66024.68,1635749722,incremental,ni_sequenzen,NI_Sequenzen,11,1,,,,,,,,,,,,
,Move,canvas.Screen,0_3_0_1_0_11,-999,skipped,,65996,,,65954,,65996,2021-11-02T07:11:57.935Z,66024.68,1635749722,incremental,ni_sequenzen,NI_Sequenzen,12,1,,,,,,,,,,,,
,Move,canvas.Screen,0_3_0_1_0_12,-999,skipped,,65999,,,65954,,66000,2021-11-02T07:11:57.939Z,66024.68,1635749722,incremental,ni_sequenzen,NI_Sequenzen,13,1,,,,,,,,,,,,
,Move,canvas.Screen,0_3_0_1_0_13,-999,skipped,,66003,,,65954,,66003,2021-11-02T07:11:57.943Z,66024.68,1635749722,incremental,ni_sequenzen,NI_Sequenzen,14,1,,,,,,,,,,,,
,Move,canvas.Screen,0_3_0_1_0_14,-999,skipped,,66006,,,65954,,66006,2021-11-02T07:11:57.946Z,66024.68,1635749722,incremental,ni_sequenzen,NI_Sequenzen,15,1,,,,,,,,,,,,
,Loop,flow.Loop,0_3_0_1_0,-999,completion,,64353,64359.18,64375.84,65954,1578.1600000000035,66006,2021-11-02T07:11:57.946Z,66024.68,1635749722,incremental,ni_sequenzen,NI_Sequenzen,,1,,,,,,,,,,,,
,Feedback,canvas.Screen,0_3_0_1_1,,timeout,,66009,66009.24,66024.68,70005.62,3997.4800000000105,70007,2021-11-02T07:12:01.946Z,70022.16,1635749722,incremental,ni_sequenzen,NI_Sequenzen,,1,,,,,,,,,,,,
,Trial,flow.Sequence,0_3_0_1,,completion,,64346,64359.18,64375.84,70005.62,5629.779999999999,70007,2021-11-02T07:12:01.946Z,70038.82,1635749722,incremental,ni_sequenzen,NI_Sequenzen,,1,,,,,,,,,,,,
,Move,canvas.Screen,0_3_0_2_0_0,right,response,,70021,70022.16,70038.82,71203,1164.179999999993,71220,2021-11-02T07:12:03.160Z,71228.94,1635749722,incremental,ni_sequenzen,NI_Sequenzen,1,2,,,,,,,,,,,,
,Move,canvas.Screen,0_3_0_2_0_1,down,response,,71229,71228.64,71228.94,71454,225.05999999999767,71460,2021-11-02T07:12:03.400Z,71480.58,1635749722,incremental,ni_sequenzen,NI_Sequenzen,2,2,,,,,,,,,,,,
,Move,canvas.Screen,0_3_0_2_0_2,right,response,,71480,71480.08,71480.58,71595,114.41999999999825,71612,2021-11-02T07:12:03.552Z,71637.9,1635749722,incremental,ni_sequenzen,NI_Sequenzen,3,2,,,,,,,,,,,,
,Move,canvas.Screen,0_3_0_2_0_3,down,response,,71630,71629.66,71637.9,71751,113.10000000000582,71772,2021-11-02T07:12:03.712Z,71821.02,1635749722,incremental,ni_sequenzen,NI_Sequenzen,4,2,,,,,,,,,,,,
,Move,canvas.Screen,0_3_0_2_0_4,-999,skipped,,71781,,,71751,,71781,2021-11-02T07:12:03.720Z,71821.02,1635749722,incremental,ni_sequenzen,NI_Sequenzen,5,2,,,,,,,,,,,,
,Move,canvas.Screen,0_3_0_2_0_5,-999,skipped,,71784,,,71751,,71784,2021-11-02T07:12:03.725Z,71821.02,1635749722,incremental,ni_sequenzen,NI_Sequenzen,6,2,,,,,,,,,,,,
,Move,canvas.Screen,0_3_0_2_0_6,-999,skipped,,71788,,,71751,,71788,2021-11-02T07:12:03.728Z,71821.02,1635749722,incremental,ni_sequenzen,NI_Sequenzen,7,2,,,,,,,,,,,,
,Move,canvas.Screen,0_3_0_2_0_7,-999,skipped,,71792,,,71751,,71792,2021-11-02T07:12:03.732Z,71821.02,1635749722,incremental,ni_sequenzen,NI_Sequenzen,8,2,,,,,,,,,,,,
,Move,canvas.Screen,0_3_0_2_0_8,-999,skipped,,71795,,,71751,,71795,2021-11-02T07:12:03.735Z,71821.02,1635749722,incremental,ni_sequenzen,NI_Sequenzen,9,2,,,,,,,,,,,,
,Move,canvas.Screen,0_3_0_2_0_9,-999,skipped,,71799,,,71751,,71799,2021-11-02T07:12:03.739Z,71821.02,1635749722,incremental,ni_sequenzen,NI_Sequenzen,10,2,,,,,,,,,,,,
,Move,canvas.Screen,0_3_0_2_0_10,-999,skipped,,71803,,,71751,,71803,2021-11-02T07:12:03.743Z,71821.02,1635749722,incremental,ni_sequenzen,NI_Sequenzen,11,2,,,,,,,,,,,,
,Move,canvas.Screen,0_3_0_2_0_11,-999,skipped,,71807,,,71751,,71807,2021-11-02T07:12:03.747Z,71821.02,1635749722,incremental,ni_sequenzen,NI_Sequenzen,12,2,,,,,,,,,,,,
,Move,canvas.Screen,0_3_0_2_0_12,-999,skipped,,71811,,,71751,,71811,2021-11-02T07:12:03.751Z,71821.02,1635749722,incremental,ni_sequenzen,NI_Sequenzen,13,2,,,,,,,,,,,,
,Move,canvas.Screen,0_3_0_2_0_13,-999,skipped,,71814,,,71751,,71814,2021-11-02T07:12:03.754Z,71821.02,1635749722,incremental,ni_sequenzen,NI_Sequenzen,14,2,,,,,,,,,,,,
,Move,canvas.Screen,0_3_0_2_0_14,-999,skipped,,71818,,,71751,,71818,2021-11-02T07:12:03.757Z,71821.02,1635749722,incremental,ni_sequenzen,NI_Sequenzen,15,2,,,,,,,,,,,,
,Loop,flow.Loop,0_3_0_2_0,-999,completion,,70015,70022.16,70038.82,71751,1712.179999999993,71818,2021-11-02T07:12:03.757Z,71821.02,1635749722,incremental,ni_sequenzen,NI_Sequenzen,,2,,,,,,,,,,,,
,Feedback,canvas.Screen,0_3_0_2_1,,timeout,,71820,71820.52,71821.02,75802,3997.5599999999977,75803,2021-11-02T07:12:07.743Z,75818.58,1635749722,incremental,ni_sequenzen,NI_Sequenzen,,2,,,,,,,,,,,,
,Trial,flow.Sequence,0_3_0_2,,completion,,70007,70022.16,70038.82,75802,5763.179999999993,75804,2021-11-02T07:12:07.743Z,75835.24,1635749722,incremental,ni_sequenzen,NI_Sequenzen,,2,,,,,,,,,,,,
,Move,canvas.Screen,0_3_0_3_0_0,right,response,,75813,75818.58,75835.24,76204,368.75999999999476,76221,2021-11-02T07:12:08.160Z,76228.8,1635749722,incremental,ni_sequenzen,NI_Sequenzen,1,3,,,,,,,,,,,,
,Move,canvas.Screen,0_3_0_3_0_1,left,response,,76229,76228.56,76228.8,76298,69.19999999999709,76325,2021-11-02T07:12:08.265Z,76334.78,1635749722,incremental,ni_sequenzen,NI_Sequenzen,2,3,,,,,,,,,,,,
,Move,canvas.Screen,0_3_0_3_0_2,right,response,,76334,76334.18,76334.78,76439,104.22000000000116,76460,2021-11-02T07:12:08.400Z,76467.92,1635749722,incremental,ni_sequenzen,NI_Sequenzen,3,3,,,,,,,,,,,,
,Move,canvas.Screen,0_3_0_3_0_3,left,response,,76468,76467.62,76467.92,76595,127.08000000000175,76604,2021-11-02T07:12:08.544Z,76617.98,1635749722,incremental,ni_sequenzen,NI_Sequenzen,4,3,,,,,,,,,,,,
,Move,canvas.Screen,0_3_0_3_0_4,down,response,,76613,76612.44,,76610,,76618,2021-11-02T07:12:08.557Z,76651.3,1635749722,incremental,ni_sequenzen,NI_Sequenzen,5,3,,,,,,,,,,,,
,Move,canvas.Screen,0_3_0_3_0_5,right,response,,76622,76634.64,76651.3,82984,6332.699999999997,83007,2021-11-02T07:12:14.947Z,83064.66,1635749722,incremental,ni_sequenzen,NI_Sequenzen,6,3,,,,,,,,,,,,
,Move,canvas.Screen,0_3_0_3_0_6,-999,skipped,,83019,,,82984,,83019,2021-11-02T07:12:14.958Z,83064.66,1635749722,incremental,ni_sequenzen,NI_Sequenzen,7,3,,,,,,,,,,,,
,Move,canvas.Screen,0_3_0_3_0_7,-999,skipped,,83025,,,82984,,83025,2021-11-02T07:12:14.965Z,83064.66,1635749722,incremental,ni_sequenzen,NI_Sequenzen,8,3,,,,,,,,,,,,
,Move,canvas.Screen,0_3_0_3_0_8,-999,skipped,,83031,,,82984,,83031,2021-11-02T07:12:14.972Z,83064.66,1635749722,incremental,ni_sequenzen,NI_Sequenzen,9,3,,,,,,,,,,,,
,Move,canvas.Screen,0_3_0_3_0_9,-999,skipped,,83037,,,82984,,83037,2021-11-02T07:12:14.977Z,83064.66,1635749722,incremental,ni_sequenzen,NI_Sequenzen,10,3,,,,,,,,,,,,
,Move,canvas.Screen,0_3_0_3_0_10,-999,skipped,,83042,,,82984,,83042,2021-11-02T07:12:14.982Z,83064.66,1635749722,incremental,ni_sequenzen,NI_Sequenzen,11,3,,,,,,,,,,,,
,Move,canvas.Screen,0_3_0_3_0_11,-999,skipped,,83047,,,82984,,83047,2021-11-02T07:12:14.987Z,83064.66,1635749722,incremental,ni_sequenzen,NI_Sequenzen,12,3,,,,,,,,,,,,
,Move,canvas.Screen,0_3_0_3_0_12,-999,skipped,,83051,,,82984,,83052,2021-11-02T07:12:14.992Z,83064.66,1635749722,incremental,ni_sequenzen,NI_Sequenzen,13,3,,,,,,,,,,,,
,Move,canvas.Screen,0_3_0_3_0_13,-999,skipped,,83056,,,82984,,83057,2021-11-02T07:12:14.996Z,83064.66,1635749722,incremental,ni_sequenzen,NI_Sequenzen,14,3,,,,,,,,,,,,
,Move,canvas.Screen,0_3_0_3_0_14,-999,skipped,,83060,,,82984,,83060,2021-11-02T07:12:15.001Z,83064.66,1635749722,incremental,ni_sequenzen,NI_Sequenzen,15,3,,,,,,,,,,,,
,Loop,flow.Loop,0_3_0_3_0,-999,completion,,75809,75818.58,75835.24,82984,7148.759999999995,83060,2021-11-02T07:12:15.001Z,83064.66,1635749722,incremental,ni_sequenzen,NI_Sequenzen,,3,,,,,,,,,,,,
,Feedback,canvas.Screen,0_3_0_3_1,,timeout,,83064,83064.36,83064.66,87044.76,4001.300000000003,87047,2021-11-02T07:12:18.987Z,87065.96,1635749722,incremental,ni_sequenzen,NI_Sequenzen,,3,,,,,,,,,,,,
,Trial,flow.Sequence,0_3_0_3,,completion,,75804,75818.58,75835.24,87044.76,11209.51999999999,87048,2021-11-02T07:12:18.987Z,87077.98,1635749722,incremental,ni_sequenzen,NI_Sequenzen,,3,,,,,,,,,,,,
,Move,canvas.Screen,0_3_0_4_0_0,right,response,,87066,87065.96,87077.98,87501,423.0200000000041,87533,2021-11-02T07:12:19.473Z,87540.8,1635749722,incremental,ni_sequenzen,NI_Sequenzen,1,4,,,,,,,,,,,,
,Move,canvas.Screen,0_3_0_4_0_1,down,response,,87540,87540.54,87540.8,87657,116.19999999999709,87668,2021-11-02T07:12:19.609Z,87694.28,1635749722,incremental,ni_sequenzen,NI_Sequenzen,2,4,,,,,,,,,,,,
,Move,canvas.Screen,0_3_0_4_0_2,down,response,,87688,87687.8,87694.28,88204,509.72000000000116,88229,2021-11-02T07:12:20.169Z,88237.44,1635749722,incremental,ni_sequenzen,NI_Sequenzen,3,4,,,,,,,,,,,,
,Move,canvas.Screen,0_3_0_4_0_3,down,response,,88237,88237.18,88237.44,88595,357.5599999999977,88604,2021-11-02T07:12:20.544Z,88661.14,1635749722,incremental,ni_sequenzen,NI_Sequenzen,4,4,,,,,,,,,,,,
,Move,canvas.Screen,0_3_0_4_0_4,-999,skipped,,88614,,,88595,,88614,2021-11-02T07:12:20.553Z,88661.14,1635749722,incremental,ni_sequenzen,NI_Sequenzen,5,4,,,,,,,,,,,,
,Move,canvas.Screen,0_3_0_4_0_5,-999,skipped,,88617,,,88595,,88617,2021-11-02T07:12:20.558Z,88661.14,1635749722,incremental,ni_sequenzen,NI_Sequenzen,6,4,,,,,,,,,,,,
,Move,canvas.Screen,0_3_0_4_0_6,-999,skipped,,88621,,,88595,,88621,2021-11-02T07:12:20.562Z,88661.14,1635749722,incremental,ni_sequenzen,NI_Sequenzen,7,4,,,,,,,,,,,,
,Move,canvas.Screen,0_3_0_4_0_7,-999,skipped,,88626,,,88595,,88626,2021-11-02T07:12:20.566Z,88661.14,1635749722,incremental,ni_sequenzen,NI_Sequenzen,8,4,,,,,,,,,,,,
,Move,canvas.Screen,0_3_0_4_0_8,-999,skipped,,88630,,,88595,,88630,2021-11-02T07:12:20.571Z,88661.14,1635749722,incremental,ni_sequenzen,NI_Sequenzen,9,4,,,,,,,,,,,,
,Move,canvas.Screen,0_3_0_4_0_9,-999,skipped,,88635,,,88595,,88635,2021-11-02T07:12:20.575Z,88661.14,1635749722,incremental,ni_sequenzen,NI_Sequenzen,10,4,,,,,,,,,,,,
,Move,canvas.Screen,0_3_0_4_0_10,-999,skipped,,88640,,,88595,,88640,2021-11-02T07:12:20.580Z,88661.14,1635749722,incremental,ni_sequenzen,NI_Sequenzen,11,4,,,,,,,,,,,,
,Move,canvas.Screen,0_3_0_4_0_11,-999,skipped,,88645,,,88595,,88645,2021-11-02T07:12:20.584Z,88661.14,1635749722,incremental,ni_sequenzen,NI_Sequenzen,12,4,,,,,,,,,,,,
,Move,canvas.Screen,0_3_0_4_0_12,-999,skipped,,88648,,,88595,,88648,2021-11-02T07:12:20.588Z,88661.14,1635749722,incremental,ni_sequenzen,NI_Sequenzen,13,4,,,,,,,,,,,,
,Move,canvas.Screen,0_3_0_4_0_13,-999,skipped,,88652,,,88595,,88652,2021-11-02T07:12:20.593Z,88661.14,1635749722,incremental,ni_sequenzen,NI_Sequenzen,14,4,,,,,,,,,,,,
,Move,canvas.Screen,0_3_0_4_0_14,-999,skipped,,88656,,,88595,,88656,2021-11-02T07:12:20.597Z,88661.14,1635749722,incremental,ni_sequenzen,NI_Sequenzen,15,4,,,,,,,,,,,,
,Loop,flow.Loop,0_3_0_4_0,-999,completion,,87061,87065.96,87077.98,88595,1517.020000000004,88656,2021-11-02T07:12:20.597Z,88661.14,1635749722,incremental,ni_sequenzen,NI_Sequenzen,,4,,,,,,,,,,,,
,Feedback,canvas.Screen,0_3_0_4_1,,timeout,,88661,88660.86,88661.14,92641.38,3996.600000000006,92642,2021-11-02T07:12:24.582Z,92657.74,1635749722,incremental,ni_sequenzen,NI_Sequenzen,,4,,,,,,,,,,,,
,Trial,flow.Sequence,0_3_0_4,,completion,,87051,87065.96,87077.98,92641.38,5563.400000000009,92643,2021-11-02T07:12:24.583Z,92674.4,1635749722,incremental,ni_sequenzen,NI_Sequenzen,,4,,,,,,,,,,,,
,Move,canvas.Screen,0_3_0_5_0_0,left,response,,92658,92657.74,92674.4,93329,654.6000000000058,93341,2021-11-02T07:12:25.280Z,93348.72,1635749722,incremental,ni_sequenzen,NI_Sequenzen,1,5,,,,,,,,,,,,
,Move,canvas.Screen,0_3_0_5_0_1,down,response,,93349,93348.5,93348.72,93360,11.279999999998836,93370,2021-11-02T07:12:25.310Z,93373.96,1635749722,incremental,ni_sequenzen,NI_Sequenzen,2,5,,,,,,,,,,,,
,Move,canvas.Screen,0_3_0_5_0_2,right,response,,93374,93373.82,93373.96,93548,174.0399999999936,93554,2021-11-02T07:12:25.494Z,93565.12,1635749722,incremental,ni_sequenzen,NI_Sequenzen,3,5,,,,,,,,,,,,
,Move,canvas.Screen,0_3_0_5_0_3,down,response,,93565,93564.66,93565.12,93657,91.88000000000466,93677,2021-11-02T07:12:25.616Z,93707.1,1635749722,incremental,ni_sequenzen,NI_Sequenzen,4,5,,,,,,,,,,,,
,Move,canvas.Screen,0_3_0_5_0_4,down,response,,93695,93695.12,93707.1,94126,418.8999999999942,94146,2021-11-02T07:12:26.086Z,94154,1635749722,incremental,ni_sequenzen,NI_Sequenzen,5,5,,,,,,,,,,,,
,Move,canvas.Screen,0_3_0_5_0_5,right,response,,94153,94153.74,94154,104734,10580,104760,2021-11-02T07:12:36.700Z,104803.34,1635749722,incremental,ni_sequenzen,NI_Sequenzen,6,5,,,,,,,,,,,,
,Move,canvas.Screen,0_3_0_5_0_6,-999,skipped,,104768,,,104734,,104768,2021-11-02T07:12:36.709Z,104803.34,1635749722,incremental,ni_sequenzen,NI_Sequenzen,7,5,,,,,,,,,,,,
,Move,canvas.Screen,0_3_0_5_0_7,-999,skipped,,104772,,,104734,,104772,2021-11-02T07:12:36.712Z,104803.34,1635749722,incremental,ni_sequenzen,NI_Sequenzen,8,5,,,,,,,,,,,,
,Move,canvas.Screen,0_3_0_5_0_8,-999,skipped,,104777,,,104734,,104777,2021-11-02T07:12:36.717Z,104803.34,1635749722,incremental,ni_sequenzen,NI_Sequenzen,9,5,,,,,,,,,,,,
,Move,canvas.Screen,0_3_0_5_0_9,-999,skipped,,104781,,,104734,,104781,2021-11-02T07:12:36.720Z,104803.34,1635749722,incremental,ni_sequenzen,NI_Sequenzen,10,5,,,,,,,,,,,,
,Move,canvas.Screen,0_3_0_5_0_10,-999,skipped,,104784,,,104734,,104784,2021-11-02T07:12:36.724Z,104803.34,1635749722,incremental,ni_sequenzen,NI_Sequenzen,11,5,,,,,,,,,,,,
,Move,canvas.Screen,0_3_0_5_0_11,-999,skipped,,104788,,,104734,,104788,2021-11-02T07:12:36.729Z,104803.34,1635749722,incremental,ni_sequenzen,NI_Sequenzen,12,5,,,,,,,,,,,,
,Move,canvas.Screen,0_3_0_5_0_12,-999,skipped,,104792,,,104734,,104792,2021-11-02T07:12:36.732Z,104803.34,1635749722,incremental,ni_sequenzen,NI_Sequenzen,13,5,,,,,,,,,,,,
,Move,canvas.Screen,0_3_0_5_0_13,-999,skipped,,104796,,,104734,,104796,2021-11-02T07:12:36.736Z,104803.34,1635749722,incremental,ni_sequenzen,NI_Sequenzen,14,5,,,,,,,,,,,,
,Move,canvas.Screen,0_3_0_5_0_14,-999,skipped,,104799,,,104734,,104799,2021-11-02T07:12:36.740Z,104803.34,1635749722,incremental,ni_sequenzen,NI_Sequenzen,15,5,,,,,,,,,,,,
,Loop,flow.Loop,0_3_0_5_0,-999,completion,,92654,92657.74,92674.4,104734,12059.600000000006,104799,2021-11-02T07:12:36.740Z,104803.34,1635749722,incremental,ni_sequenzen,NI_Sequenzen,,5,,,,,,,,,,,,
,Feedback,canvas.Screen,0_3_0_5_1,,timeout,,104803,104803.08,104803.34,108780.9,3994.1399999999994,108783,2021-11-02T07:12:40.723Z,108797.48,1635749722,incremental,ni_sequenzen,NI_Sequenzen,,5,,,,,,,,,,,,
,Trial,flow.Sequence,0_3_0_5,,completion,,92645,92657.74,92674.4,108780.9,16106.5,108783,2021-11-02T07:12:40.724Z,108814.12,1635749722,incremental,ni_sequenzen,NI_Sequenzen,,5,,,,,,,,,,,,
,Move,canvas.Screen,0_3_0_6_0_0,down,response,,108797,108797.48,108814.12,113438,4623.880000000005,113456,2021-11-02T07:12:45.396Z,113474.32,1635749722,incremental,ni_sequenzen,NI_Sequenzen,1,6,,,,,,,,,,,,
,Move,canvas.Screen,0_3_0_6_0_1,right,response,,113474,113473.94,113474.32,113485,10.679999999993015,113510,2021-11-02T07:12:45.449Z,113527.76,1635749722,incremental,ni_sequenzen,NI_Sequenzen,2,6,,,,,,,,,,,,
,Move,canvas.Screen,0_3_0_6_0_2,left,response,,113514,113513.88,113527.76,113610,82.24000000000524,113633,2021-11-02T07:12:45.573Z,113644.36,1635749722,incremental,ni_sequenzen,NI_Sequenzen,3,6,,,,,,,,,,,,
,Move,canvas.Screen,0_3_0_6_0_3,right,response,,113641,113640.34,113644.36,113766,121.63999999999942,113793,2021-11-02T07:12:45.732Z,113860.88,1635749722,incremental,ni_sequenzen,NI_Sequenzen,4,6,,,,,,,,,,,,
,Move,canvas.Screen,0_3_0_6_0_4,-999,skipped,,113810,,,113766,,113810,2021-11-02T07:12:45.751Z,113860.88,1635749722,incremental,ni_sequenzen,NI_Sequenzen,5,6,,,,,,,,,,,,
,Move,canvas.Screen,0_3_0_6_0_5,-999,skipped,,113819,,,113766,,113819,2021-11-02T07:12:45.760Z,113860.88,1635749722,incremental,ni_sequenzen,NI_Sequenzen,6,6,,,,,,,,,,,,
,Move,canvas.Screen,0_3_0_6_0_6,-999,skipped,,113825,,,113766,,113825,2021-11-02T07:12:45.765Z,113860.88,1635749722,incremental,ni_sequenzen,NI_Sequenzen,7,6,,,,,,,,,,,,
,Move,canvas.Screen,0_3_0_6_0_7,-999,skipped,,113831,,,113766,,113831,2021-11-02T07:12:45.771Z,113860.88,1635749722,incremental,ni_sequenzen,NI_Sequenzen,8,6,,,,,,,,,,,,
,Move,canvas.Screen,0_3_0_6_0_8,-999,skipped,,113835,,,113766,,113836,2021-11-02T07:12:45.775Z,113860.88,1635749722,incremental,ni_sequenzen,NI_Sequenzen,9,6,,,,,,,,,,,,
,Move,canvas.Screen,0_3_0_6_0_9,-999,skipped,,113839,,,113766,,113839,2021-11-02T07:12:45.779Z,113860.88,1635749722,incremental,ni_sequenzen,NI_Sequenzen,10,6,,,,,,,,,,,,
,Move,canvas.Screen,0_3_0_6_0_10,-999,skipped,,113842,,,113766,,113842,2021-11-02T07:12:45.782Z,113860.88,1635749722,incremental,ni_sequenzen,NI_Sequenzen,11,6,,,,,,,,,,,,
,Move,canvas.Screen,0_3_0_6_0_11,-999,skipped,,113846,,,113766,,113847,2021-11-02T07:12:45.786Z,113860.88,1635749722,incremental,ni_sequenzen,NI_Sequenzen,12,6,,,,,,,,,,,,
,Move,canvas.Screen,0_3_0_6_0_12,-999,skipped,,113850,,,113766,,113850,2021-11-02T07:12:45.790Z,113860.88,1635749722,incremental,ni_sequenzen,NI_Sequenzen,13,6,,,,,,,,,,,,
,Move,canvas.Screen,0_3_0_6_0_13,-999,skipped,,113854,,,113766,,113854,2021-11-02T07:12:45.794Z,113860.88,1635749722,incremental,ni_sequenzen,NI_Sequenzen,14,6,,,,,,,,,,,,
,Move,canvas.Screen,0_3_0_6_0_14,-999,skipped,,113858,,,113766,,113858,2021-11-02T07:12:45.797Z,113860.88,1635749722,incremental,ni_sequenzen,NI_Sequenzen,15,6,,,,,,,,,,,,
,Loop,flow.Loop,0_3_0_6_0,-999,completion,,108793,108797.48,108814.12,113766,4951.880000000005,113858,2021-11-02T07:12:45.797Z,113860.88,1635749722,incremental,ni_sequenzen,NI_Sequenzen,,6,,,,,,,,,,,,
,Feedback,canvas.Screen,0_3_0_6_1,,timeout,,113861,113860.52,113860.88,117841.94,3997.4199999999983,117844,2021-11-02T07:12:49.784Z,117858.3,1635749722,incremental,ni_sequenzen,NI_Sequenzen,,6,,,,,,,,,,,,
,Trial,flow.Sequence,0_3_0_6,,completion,,108785,108797.48,108814.12,117841.94,9027.820000000007,117844,2021-11-02T07:12:49.784Z,117874.96,1635749722,incremental,ni_sequenzen,NI_Sequenzen,,6,,,,,,,,,,,,
,Move,canvas.Screen,0_3_0_7_0_0,right,response,,117857,117858.3,117874.96,118689,814.0399999999936,118712,2021-11-02T07:12:50.652Z,118721.48,1635749722,incremental,ni_sequenzen,NI_Sequenzen,1,7,,,,,,,,,,,,
,Move,canvas.Screen,0_3_0_7_0_1,down,response,,118721,118721.3,118721.48,118814,92.52000000000407,118832,2021-11-02T07:12:50.772Z,118857.8,1635749722,incremental,ni_sequenzen,NI_Sequenzen,2,7,,,,,,,,,,,,
,Move,canvas.Screen,0_3_0_7_0_2,left,response,,118849,118849.6,118857.8,118845,-12.80000000000291,118862,2021-11-02T07:12:50.802Z,118891.1,1635749722,incremental,ni_sequenzen,NI_Sequenzen,3,7,,,,,,,,,,,,
,Move,canvas.Screen,0_3_0_7_0_3,right,response,,118868,118874.44,118891.1,119017,125.89999999999418,119024,2021-11-02T07:12:50.965Z,119107.52,1635749722,incremental,ni_sequenzen,NI_Sequenzen,4,7,,,,,,,,,,,,
,Move,canvas.Screen,0_3_0_7_0_4,-999,skipped,,119044,,,119017,,119044,2021-11-02T07:12:50.984Z,119107.52,1635749722,incremental,ni_sequenzen,NI_Sequenzen,5,7,,,,,,,,,,,,
,Move,canvas.Screen,0_3_0_7_0_5,-999,skipped,,119053,,,119017,,119053,2021-11-02T07:12:50.993Z,119107.52,1635749722,incremental,ni_sequenzen,NI_Sequenzen,6,7,,,,,,,,,,,,
,Move,canvas.Screen,0_3_0_7_0_6,-999,skipped,,119059,,,119017,,119059,2021-11-02T07:12:50.999Z,119107.52,1635749722,incremental,ni_sequenzen,NI_Sequenzen,7,7,,,,,,,,,,,,
,Move,canvas.Screen,0_3_0_7_0_7,-999,skipped,,119064,,,119017,,119064,2021-11-02T07:12:51.003Z,119107.52,1635749722,incremental,ni_sequenzen,NI_Sequenzen,8,7,,,,,,,,,,,,
,Move,canvas.Screen,0_3_0_7_0_8,-999,skipped,,119068,,,119017,,119068,2021-11-02T07:12:51.008Z,119107.52,1635749722,incremental,ni_sequenzen,NI_Sequenzen,9,7,,,,,,,,,,,,
,Move,canvas.Screen,0_3_0_7_0_9,-999,skipped,,119073,,,119017,,119073,2021-11-02T07:12:51.013Z,119107.52,1635749722,incremental,ni_sequenzen,NI_Sequenzen,10,7,,,,,,,,,,,,
,Move,canvas.Screen,0_3_0_7_0_10,-999,skipped,,119076,,,119017,,119076,2021-11-02T07:12:51.016Z,119107.52,1635749722,incremental,ni_sequenzen,NI_Sequenzen,11,7,,,,,,,,,,,,
,Move,canvas.Screen,0_3_0_7_0_11,-999,skipped,,119080,,,119017,,119080,2021-11-02T07:12:51.020Z,119107.52,1635749722,incremental,ni_sequenzen,NI_Sequenzen,12,7,,,,,,,,,,,,
,Move,canvas.Screen,0_3_0_7_0_12,-999,skipped,,119084,,,119017,,119084,2021-11-02T07:12:51.024Z,119107.52,1635749722,incremental,ni_sequenzen,NI_Sequenzen,13,7,,,,,,,,,,,,
,Move,canvas.Screen,0_3_0_7_0_13,-999,skipped,,119088,,,119017,,119088,2021-11-02T07:12:51.028Z,119107.52,1635749722,incremental,ni_sequenzen,NI_Sequenzen,14,7,,,,,,,,,,,,
,Move,canvas.Screen,0_3_0_7_0_14,-999,skipped,,119091,,,119017,,119091,2021-11-02T07:12:51.032Z,119107.52,1635749722,incremental,ni_sequenzen,NI_Sequenzen,15,7,,,,,,,,,,,,
,Loop,flow.Loop,0_3_0_7_0,-999,completion,,117853,117858.3,117874.96,119017,1142.0399999999936,119091,2021-11-02T07:12:51.032Z,119107.52,1635749722,incremental,ni_sequenzen,NI_Sequenzen,,7,,,,,,,,,,,,
,Feedback,canvas.Screen,0_3_0_7_1,,timeout,,119095,119094.52,119107.52,123088.4,3997.5399999999936,123090,2021-11-02T07:12:55.030Z,123105.06,1635749722,incremental,ni_sequenzen,NI_Sequenzen,,7,,,,,,,,,,,,
,Trial,flow.Sequence,0_3_0_7,,completion,,117845,117858.3,117874.96,123088.4,5213.439999999988,123090,2021-11-02T07:12:55.030Z,123121.72,1635749722,incremental,ni_sequenzen,NI_Sequenzen,,7,,,,,,,,,,,,
,Move,canvas.Screen,0_3_0_8_0_0,down,response,,123102,123105.06,123121.72,123423,301.27999999999884,123448,2021-11-02T07:12:55.388Z,123456.88,1635749722,incremental,ni_sequenzen,NI_Sequenzen,1,8,,,,,,,,,,,,
,Move,canvas.Screen,0_3_0_8_0_1,left,response,,123457,123456.66,123456.88,123626,169.11999999999534,123648,2021-11-02T07:12:55.589Z,123671.28,1635749722,incremental,ni_sequenzen,NI_Sequenzen,2,8,,,,,,,,,,,,
,Move,canvas.Screen,0_3_0_8_0_2,right,response,,123657,123656.62,123671.28,123704,32.720000000001164,123726,2021-11-02T07:12:55.666Z,123736.06,1635749722,incremental,ni_sequenzen,NI_Sequenzen,3,8,,,,,,,,,,,,
,Move,canvas.Screen,0_3_0_8_0_3,right,response,,123735,123735.68,123736.06,124345,608.9400000000023,124369,2021-11-02T07:12:56.309Z,124416.92,1635749722,incremental,ni_sequenzen,NI_Sequenzen,4,8,,,,,,,,,,,,
,Move,canvas.Screen,0_3_0_8_0_4,-999,skipped,,124376,,,124345,,124376,2021-11-02T07:12:56.316Z,124416.92,1635749722,incremental,ni_sequenzen,NI_Sequenzen,5,8,,,,,,,,,,,,
,Move,canvas.Screen,0_3_0_8_0_5,-999,skipped,,124380,,,124345,,124380,2021-11-02T07:12:56.320Z,124416.92,1635749722,incremental,ni_sequenzen,NI_Sequenzen,6,8,,,,,,,,,,,,
,Move,canvas.Screen,0_3_0_8_0_6,-999,skipped,,124384,,,124345,,124384,2021-11-02T07:12:56.324Z,124416.92,1635749722,incremental,ni_sequenzen,NI_Sequenzen,7,8,,,,,,,,,,,,
,Move,canvas.Screen,0_3_0_8_0_7,-999,skipped,,124388,,,124345,,124388,2021-11-02T07:12:56.328Z,124416.92,1635749722,incremental,ni_sequenzen,NI_Sequenzen,8,8,,,,,,,,,,,,
,Move,canvas.Screen,0_3_0_8_0_8,-999,skipped,,124391,,,124345,,124391,2021-11-02T07:12:56.331Z,124416.92,1635749722,incremental,ni_sequenzen,NI_Sequenzen,9,8,,,,,,,,,,,,
,Move,canvas.Screen,0_3_0_8_0_9,-999,skipped,,124395,,,124345,,124395,2021-11-02T07:12:56.335Z,124416.92,1635749722,incremental,ni_sequenzen,NI_Sequenzen,10,8,,,,,,,,,,,,
,Move,canvas.Screen,0_3_0_8_0_10,-999,skipped,,124399,,,124345,,124399,2021-11-02T07:12:56.339Z,124416.92,1635749722,incremental,ni_sequenzen,NI_Sequenzen,11,8,,,,,,,,,,,,
,Move,canvas.Screen,0_3_0_8_0_11,-999,skipped,,124402,,,124345,,124402,2021-11-02T07:12:56.343Z,124416.92,1635749722,incremental,ni_sequenzen,NI_Sequenzen,12,8,,,,,,,,,,,,
,Move,canvas.Screen,0_3_0_8_0_12,-999,skipped,,124406,,,124345,,124406,2021-11-02T07:12:56.346Z,124416.92,1635749722,incremental,ni_sequenzen,NI_Sequenzen,13,8,,,,,,,,,,,,
,Move,canvas.Screen,0_3_0_8_0_13,-999,skipped,,124410,,,124345,,124410,2021-11-02T07:12:56.350Z,124416.92,1635749722,incremental,ni_sequenzen,NI_Sequenzen,14,8,,,,,,,,,,,,
,Move,canvas.Screen,0_3_0_8_0_14,-999,skipped,,124413,,,124345,,124413,2021-11-02T07:12:56.353Z,124416.92,1635749722,incremental,ni_sequenzen,NI_Sequenzen,15,8,,,,,,,,,,,,
,Loop,flow.Loop,0_3_0_8_0,-999,completion,,123098,123105.06,123121.72,124345,1223.2799999999988,124413,2021-11-02T07:12:56.353Z,124416.92,1635749722,incremental,ni_sequenzen,NI_Sequenzen,,8,,,,,,,,,,,,
,Feedback,canvas.Screen,0_3_0_8_1,,timeout,,124417,124416.66,124416.92,128401.54,4001.279999999999,128402,2021-11-02T07:13:00.341Z,128418.2,1635749722,incremental,ni_sequenzen,NI_Sequenzen,,8,,,,,,,,,,,,
,Trial,flow.Sequence,0_3_0_8,,completion,,123091,123105.06,123121.72,128401.54,5279.819999999992,128402,2021-11-02T07:13:00.341Z,128434.86,1635749722,incremental,ni_sequenzen,NI_Sequenzen,,8,,,,,,,,,,,,
,Move,canvas.Screen,0_3_0_9_0_0,down,response,,128413,128418.2,128434.86,136359,7924.139999999999,136380,2021-11-02T07:13:08.320Z,136387.74,1635749722,incremental,ni_sequenzen,NI_Sequenzen,1,9,,,,,,,,,,,,
,Move,canvas.Screen,0_3_0_9_0_1,left,response,,136387,136387.54,136387.74,136439,51.26000000000931,136458,2021-11-02T07:13:08.399Z,136479.82,1635749722,incremental,ni_sequenzen,NI_Sequenzen,2,9,,,,,,,,,,,,
,Move,canvas.Screen,0_3_0_9_0_2,right,response,,136466,136466.86,136479.82,136485,5.179999999993015,136491,2021-11-02T07:13:08.430Z,136513.14,1635749722,incremental,ni_sequenzen,NI_Sequenzen,3,9,,,,,,,,,,,,
,Move,canvas.Screen,0_3_0_9_0_3,left,response,,136500,136499.94,136513.14,136642,128.85999999998603,136659,2021-11-02T07:13:08.599Z,136729.62,1635749722,incremental,ni_sequenzen,NI_Sequenzen,4,9,,,,,,,,,,,,
,Move,canvas.Screen,0_3_0_9_0_4,-999,skipped,,136670,,,136642,,136670,2021-11-02T07:13:08.609Z,136729.62,1635749722,incremental,ni_sequenzen,NI_Sequenzen,5,9,,,,,,,,,,,,
,Move,canvas.Screen,0_3_0_9_0_5,-999,skipped,,136675,,,136642,,136675,2021-11-02T07:13:08.616Z,136729.62,1635749722,incremental,ni_sequenzen,NI_Sequenzen,6,9,,,,,,,,,,,,
,Move,canvas.Screen,0_3_0_9_0_6,-999,skipped,,136682,,,136642,,136682,2021-11-02T07:13:08.622Z,136729.62,1635749722,incremental,ni_sequenzen,NI_Sequenzen,7,9,,,,,,,,,,,,
,Move,canvas.Screen,0_3_0_9_0_7,-999,skipped,,136687,,,136642,,136687,2021-11-02T07:13:08.628Z,136729.62,1635749722,incremental,ni_sequenzen,NI_Sequenzen,8,9,,,,,,,,,,,,
,Move,canvas.Screen,0_3_0_9_0_8,-999,skipped,,136693,,,136642,,136693,2021-11-02T07:13:08.633Z,136729.62,1635749722,incremental,ni_sequenzen,NI_Sequenzen,9,9,,,,,,,,,,,,
,Move,canvas.Screen,0_3_0_9_0_9,-999,skipped,,136698,,,136642,,136698,2021-11-02T07:13:08.638Z,136729.62,1635749722,incremental,ni_sequenzen,NI_Sequenzen,10,9,,,,,,,,,,,,
,Move,canvas.Screen,0_3_0_9_0_10,-999,skipped,,136702,,,136642,,136702,2021-11-02T07:13:08.642Z,136729.62,1635749722,incremental,ni_sequenzen,NI_Sequenzen,11,9,,,,,,,,,,,,
,Move,canvas.Screen,0_3_0_9_0_11,-999,skipped,,136706,,,136642,,136707,2021-11-02T07:13:08.647Z,136729.62,1635749722,incremental,ni_sequenzen,NI_Sequenzen,12,9,,,,,,,,,,,,
,Move,canvas.Screen,0_3_0_9_0_12,-999,skipped,,136711,,,136642,,136711,2021-11-02T07:13:08.651Z,136729.62,1635749722,incremental,ni_sequenzen,NI_Sequenzen,13,9,,,,,,,,,,,,
,Move,canvas.Screen,0_3_0_9_0_13,-999,skipped,,136714,,,136642,,136715,2021-11-02T07:13:08.655Z,136729.62,1635749722,incremental,ni_sequenzen,NI_Sequenzen,14,9,,,,,,,,,,,,
,Move,canvas.Screen,0_3_0_9_0_14,-999,skipped,,136720,,,136642,,136720,2021-11-02T07:13:08.659Z,136729.62,1635749722,incremental,ni_sequenzen,NI_Sequenzen,15,9,,,,,,,,,,,,
,Loop,flow.Loop,0_3_0_9_0,-999,completion,,128407,128418.2,128434.86,136642,8207.14,136720,2021-11-02T07:13:08.660Z,136729.62,1635749722,incremental,ni_sequenzen,NI_Sequenzen,,9,,,,,,,,,,,,
,Feedback,canvas.Screen,0_3_0_9_1,,timeout,,136724,136723.72,136729.62,140710.72,4203.580000000016,140712,2021-11-02T07:13:12.652Z,140933.2,1635749722,incremental,ni_sequenzen,NI_Sequenzen,,9,,,,,,,,,,,,
,Trial,flow.Sequence,0_3_0_9,,completion,,128403,128418.2,128434.86,140710.72,12275.86,140713,2021-11-02T07:13:12.652Z,140933.34,1635749722,incremental,ni_sequenzen,NI_Sequenzen,,9,,,,,,,,,,,,
,Block,flow.Loop,0_3_0,,completion,,57220,57230.46,57230.78,140710.72,83479.94,140713,2021-11-02T07:13:12.653Z,140933.34,1635749722,incremental,ni_sequenzen,NI_Sequenzen,,,,,,,,,,,,,,
,Training_II,flow.Sequence,0_3,,completion,,57205,57230.46,57230.78,140710.72,83479.94,140714,2021-11-02T07:13:12.653Z,140933.34,1635749722,incremental,ni_sequenzen,NI_Sequenzen,,,,,,,,,,,,,,
,Screen_1,canvas.Screen,0_4_0_0,cont,response,1,140933,140933.2,140933.34,144267,3333.6600000000035,144292,2021-11-02T07:13:16.233Z,144297.82,1635749722,incremental,ni_sequenzen,NI_Sequenzen,,,,,,,,,,,,,,
,Screen_2,canvas.Screen,0_4_0_1,back,response,1,144297,144297.52,144297.82,144939,641.179999999993,144956,2021-11-02T07:13:16.897Z,145056.5,1635749722,incremental,ni_sequenzen,NI_Sequenzen,,,,,,,,,,,,,,
,Screen_3,canvas.Screen,0_4_0_2,,skipped,1,145052,,,144939,,145053,2021-11-02T07:13:16.992Z,145056.5,1635749722,incremental,ni_sequenzen,NI_Sequenzen,,,,,,,,,,,,,,
,Sequence,flow.Sequence,0_4_0,,completion,1,140738,140933.2,140933.34,144939,4005.6600000000035,145053,2021-11-02T07:13:16.992Z,145056.5,1635749722,incremental,ni_sequenzen,NI_Sequenzen,,,,,,,,,,,,,,
,Screen_1,canvas.Screen,0_4_1_0,cont,response,2,145056,145056.32,145056.5,149079,4022.5,149100,2021-11-02T07:13:21.040Z,149105.86,1635749722,incremental,ni_sequenzen,NI_Sequenzen,,,,,,,,,,,,,,
,Screen_2,canvas.Screen,0_4_1_1,cont,response,2,149105,149105.6,149105.86,149798,692.140000000014,149812,2021-11-02T07:13:21.752Z,149821.26,1635749722,incremental,ni_sequenzen,NI_Sequenzen,,,,,,,,,,,,,,
,Screen_3,canvas.Screen,0_4_1_2,cont,response,2,149817,149816.54,149821.26,150673,851.7399999999907,150693,2021-11-02T07:13:22.632Z,150803.98,1635749722,incremental,ni_sequenzen,NI_Sequenzen,,,,,,,,,,,,,,
,Sequence,flow.Sequence,0_4_1,,completion,2,145054,145056.32,145056.5,150673,5616.5,150693,2021-11-02T07:13:22.633Z,150803.98,1635749722,incremental,ni_sequenzen,NI_Sequenzen,,,,,,,,,,,,,,
,Screen_1,canvas.Screen,0_4_2_0,,skipped,3,150699,,,150699,,150699,2021-11-02T07:13:22.639Z,150803.98,1635749722,incremental,ni_sequenzen,NI_Sequenzen,,,,,,,,,,,,,,
,Screen_2,canvas.Screen,0_4_2_1,,skipped,3,150700,,,150699,,150700,2021-11-02T07:13:22.640Z,150803.98,1635749722,incremental,ni_sequenzen,NI_Sequenzen,,,,,,,,,,,,,,
,Screen_3,canvas.Screen,0_4_2_2,,skipped,3,150701,,,150699,,150701,2021-11-02T07:13:22.641Z,150803.98,1635749722,incremental,ni_sequenzen,NI_Sequenzen,,,,,,,,,,,,,,
,Sequence,flow.Sequence,0_4_2,,completion,3,150696,,,150699,,150701,2021-11-02T07:13:22.641Z,150803.98,1635749722,incremental,ni_sequenzen,NI_Sequenzen,,,,,,,,,,,,,,
,Screen_1,canvas.Screen,0_4_3_0,,skipped,4,150702,,,150702,,150702,2021-11-02T07:13:22.642Z,150803.98,1635749722,incremental,ni_sequenzen,NI_Sequenzen,,,,,,,,,,,,,,
,Screen_2,canvas.Screen,0_4_3_1,,skipped,4,150703,,,150702,,150703,2021-11-02T07:13:22.643Z,150803.98,1635749722,incremental,ni_sequenzen,NI_Sequenzen,,,,,,,,,,,,,,
,Screen_3,canvas.Screen,0_4_3_2,,skipped,4,150704,,,150702,,150704,2021-11-02T07:13:22.644Z,150803.98,1635749722,incremental,ni_sequenzen,NI_Sequenzen,,,,,,,,,,,,,,
,Sequence,flow.Sequence,0_4_3,,completion,4,150701,,,150702,,150704,2021-11-02T07:13:22.644Z,150803.98,1635749722,incremental,ni_sequenzen,NI_Sequenzen,,,,,,,,,,,,,,
,Screen_1,canvas.Screen,0_4_4_0,,skipped,5,150705,,,150705,,150705,2021-11-02T07:13:22.646Z,150803.98,1635749722,incremental,ni_sequenzen,NI_Sequenzen,,,,,,,,,,,,,,
,Screen_2,canvas.Screen,0_4_4_1,,skipped,5,150706,,,150705,,150706,2021-11-02T07:13:22.646Z,150803.98,1635749722,incremental,ni_sequenzen,NI_Sequenzen,,,,,,,,,,,,,,
,Screen_3,canvas.Screen,0_4_4_2,,skipped,5,150707,,,150705,,150707,2021-11-02T07:13:22.647Z,150803.98,1635749722,incremental,ni_sequenzen,NI_Sequenzen,,,,,,,,,,,,,,
,Sequence,flow.Sequence,0_4_4,,completion,5,150704,,,150705,,150707,2021-11-02T07:13:22.647Z,150803.98,1635749722,incremental,ni_sequenzen,NI_Sequenzen,,,,,,,,,,,,,,
,Screen_1,canvas.Screen,0_4_5_0,,skipped,6,150709,,,150709,,150709,2021-11-02T07:13:22.648Z,150803.98,1635749722,incremental,ni_sequenzen,NI_Sequenzen,,,,,,,,,,,,,,
,Screen_2,canvas.Screen,0_4_5_1,,skipped,6,150709,,,150709,,150709,2021-11-02T07:13:22.649Z,150803.98,1635749722,incremental,ni_sequenzen,NI_Sequenzen,,,,,,,,,,,,,,
,Screen_3,canvas.Screen,0_4_5_2,,skipped,6,150711,,,150709,,150711,2021-11-02T07:13:22.650Z,150803.98,1635749722,incremental,ni_sequenzen,NI_Sequenzen,,,,,,,,,,,,,,
,Sequence,flow.Sequence,0_4_5,,completion,6,150708,,,150709,,150711,2021-11-02T07:13:22.650Z,150803.98,1635749722,incremental,ni_sequenzen,NI_Sequenzen,,,,,,,,,,,,,,
,Screen_1,canvas.Screen,0_4_6_0,,skipped,7,150713,,,150713,,150713,2021-11-02T07:13:22.653Z,150803.98,1635749722,incremental,ni_sequenzen,NI_Sequenzen,,,,,,,,,,,,,,
,Screen_2,canvas.Screen,0_4_6_1,,skipped,7,150713,,,150713,,150713,2021-11-02T07:13:22.653Z,150803.98,1635749722,incremental,ni_sequenzen,NI_Sequenzen,,,,,,,,,,,,,,
,Screen_3,canvas.Screen,0_4_6_2,,skipped,7,150714,,,150713,,150714,2021-11-02T07:13:22.654Z,150803.98,1635749722,incremental,ni_sequenzen,NI_Sequenzen,,,,,,,,,,,,,,
,Sequence,flow.Sequence,0_4_6,,completion,7,150711,,,150713,,150714,2021-11-02T07:13:22.654Z,150803.98,1635749722,incremental,ni_sequenzen,NI_Sequenzen,,,,,,,,,,,,,,
,Screen_1,canvas.Screen,0_4_7_0,,skipped,8,150715,,,150715,,150715,2021-11-02T07:13:22.656Z,150803.98,1635749722,incremental,ni_sequenzen,NI_Sequenzen,,,,,,,,,,,,,,
,Screen_2,canvas.Screen,0_4_7_1,,skipped,8,150716,,,150715,,150716,2021-11-02T07:13:22.657Z,150803.98,1635749722,incremental,ni_sequenzen,NI_Sequenzen,,,,,,,,,,,,,,
,Screen_3,canvas.Screen,0_4_7_2,,skipped,8,150717,,,150715,,150717,2021-11-02T07:13:22.657Z,150803.98,1635749722,incremental,ni_sequenzen,NI_Sequenzen,,,,,,,,,,,,,,
,Sequence,flow.Sequence,0_4_7,,completion,8,150714,,,150715,,150718,2021-11-02T07:13:22.657Z,150803.98,1635749722,incremental,ni_sequenzen,NI_Sequenzen,,,,,,,,,,,,,,
,Screen_1,canvas.Screen,0_4_8_0,,skipped,9,150719,,,150719,,150719,2021-11-02T07:13:22.658Z,150803.98,1635749722,incremental,ni_sequenzen,NI_Sequenzen,,,,,,,,,,,,,,
,Screen_2,canvas.Screen,0_4_8_1,,skipped,9,150720,,,150719,,150720,2021-11-02T07:13:22.659Z,150803.98,1635749722,incremental,ni_sequenzen,NI_Sequenzen,,,,,,,,,,,,,,
,Screen_3,canvas.Screen,0_4_8_2,,skipped,9,150721,,,150719,,150721,2021-11-02T07:13:22.660Z,150803.98,1635749722,incremental,ni_sequenzen,NI_Sequenzen,,,,,,,,,,,,,,
,Sequence,flow.Sequence,0_4_8,,completion,9,150718,,,150719,,150721,2021-11-02T07:13:22.660Z,150803.98,1635749722,incremental,ni_sequenzen,NI_Sequenzen,,,,,,,,,,,,,,
,Screen_1,canvas.Screen,0_4_9_0,,skipped,10,150722,,,150722,,150722,2021-11-02T07:13:22.662Z,150803.98,1635749722,incremental,ni_sequenzen,NI_Sequenzen,,,,,,,,,,,,,,
,Screen_2,canvas.Screen,0_4_9_1,,skipped,10,150723,,,150722,,150723,2021-11-02T07:13:22.663Z,150803.98,1635749722,incremental,ni_sequenzen,NI_Sequenzen,,,,,,,,,,,,,,
,Screen_3,canvas.Screen,0_4_9_2,,skipped,10,150724,,,150722,,150724,2021-11-02T07:13:22.664Z,150803.98,1635749722,incremental,ni_sequenzen,NI_Sequenzen,,,,,,,,,,,,,,
,Sequence,flow.Sequence,0_4_9,,completion,10,150721,,,150722,,150724,2021-11-02T07:13:22.664Z,150803.98,1635749722,incremental,ni_sequenzen,NI_Sequenzen,,,,,,,,,,,,,,
,Screen_1,canvas.Screen,0_4_10_0,,skipped,11,150725,,,150725,,150725,2021-11-02T07:13:22.666Z,150803.98,1635749722,incremental,ni_sequenzen,NI_Sequenzen,,,,,,,,,,,,,,
,Screen_2,canvas.Screen,0_4_10_1,,skipped,11,150726,,,150725,,150726,2021-11-02T07:13:22.667Z,150803.98,1635749722,incremental,ni_sequenzen,NI_Sequenzen,,,,,,,,,,,,,,
,Screen_3,canvas.Screen,0_4_10_2,,skipped,11,150727,,,150725,,150727,2021-11-02T07:13:22.667Z,150803.98,1635749722,incremental,ni_sequenzen,NI_Sequenzen,,,,,,,,,,,,,,
,Sequence,flow.Sequence,0_4_10,,completion,11,150725,,,150725,,150728,2021-11-02T07:13:22.667Z,150803.98,1635749722,incremental,ni_sequenzen,NI_Sequenzen,,,,,,,,,,,,,,
,Screen_1,canvas.Screen,0_4_11_0,,skipped,12,150729,,,150729,,150729,2021-11-02T07:13:22.669Z,150803.98,1635749722,incremental,ni_sequenzen,NI_Sequenzen,,,,,,,,,,,,,,
,Screen_2,canvas.Screen,0_4_11_1,,skipped,12,150730,,,150729,,150730,2021-11-02T07:13:22.670Z,150803.98,1635749722,incremental,ni_sequenzen,NI_Sequenzen,,,,,,,,,,,,,,
,Screen_3,canvas.Screen,0_4_11_2,,skipped,12,150731,,,150729,,150731,2021-11-02T07:13:22.672Z,150803.98,1635749722,incremental,ni_sequenzen,NI_Sequenzen,,,,,,,,,,,,,,
,Sequence,flow.Sequence,0_4_11,,completion,12,150728,,,150729,,150732,2021-11-02T07:13:22.672Z,150803.98,1635749722,incremental,ni_sequenzen,NI_Sequenzen,,,,,,,,,,,,,,
,Screen_1,canvas.Screen,0_4_12_0,,skipped,13,150733,,,150733,,150733,2021-11-02T07:13:22.673Z,150803.98,1635749722,incremental,ni_sequenzen,NI_Sequenzen,,,,,,,,,,,,,,
,Screen_2,canvas.Screen,0_4_12_1,,skipped,13,150734,,,150733,,150734,2021-11-02T07:13:22.674Z,150803.98,1635749722,incremental,ni_sequenzen,NI_Sequenzen,,,,,,,,,,,,,,
,Screen_3,canvas.Screen,0_4_12_2,,skipped,13,150734,,,150733,,150734,2021-11-02T07:13:22.675Z,150803.98,1635749722,incremental,ni_sequenzen,NI_Sequenzen,,,,,,,,,,,,,,
,Sequence,flow.Sequence,0_4_12,,completion,13,150732,,,150733,,150735,2021-11-02T07:13:22.675Z,150803.98,1635749722,incremental,ni_sequenzen,NI_Sequenzen,,,,,,,,,,,,,,
,Screen_1,canvas.Screen,0_4_13_0,,skipped,14,150736,,,150736,,150736,2021-11-02T07:13:22.677Z,150803.98,1635749722,incremental,ni_sequenzen,NI_Sequenzen,,,,,,,,,,,,,,
,Screen_2,canvas.Screen,0_4_13_1,,skipped,14,150737,,,150736,,150737,2021-11-02T07:13:22.678Z,150803.98,1635749722,incremental,ni_sequenzen,NI_Sequenzen,,,,,,,,,,,,,,
,Screen_3,canvas.Screen,0_4_13_2,,skipped,14,150738,,,150736,,150738,2021-11-02T07:13:22.678Z,150803.98,1635749722,incremental,ni_sequenzen,NI_Sequenzen,,,,,,,,,,,,,,
,Sequence,flow.Sequence,0_4_13,,completion,14,150735,,,150736,,150738,2021-11-02T07:13:22.678Z,150803.98,1635749722,incremental,ni_sequenzen,NI_Sequenzen,,,,,,,,,,,,,,
,Screen_1,canvas.Screen,0_4_14_0,,skipped,15,150739,,,150739,,150739,2021-11-02T07:13:22.679Z,150803.98,1635749722,incremental,ni_sequenzen,NI_Sequenzen,,,,,,,,,,,,,,
