meta,sender,sender_type,sender_id,response,ended_on,instrCount,time_run,time_render,time_show,time_end,duration,time_commit,timestamp,time_switch,openLabId,type,task,project,move,trialN,blockN_Train,blockN,moveCount,currPP,points,movesTrial,visitedFields,diff,reward
[object Object],Screen_1,canvas.Screen,0_0_0_0,cont,response,1,788.2999999523163,787.053,836.956,3338.2000000476837,2501.2440000476836,3339.7000000476837,2021-10-27T16:22:10.560Z,3454.296,1635351725,incremental,ni_sequenzen,NI_Sequenzen,,,,,,,,,,,
,Screen_2,canvas.Screen,0_0_0_1,cont,response,1,3444.2000000476837,3437.612,3454.296,5668.900000095367,2214.6040000953676,5670.299999952316,2021-10-27T16:22:12.891Z,5771.598,1635351725,incremental,ni_sequenzen,NI_Sequenzen,,,,,,,,,,,
,Screen_3,canvas.Screen,0_0_0_2,cont,response,1,5757.400000095367,5755.527,5771.598,16316.299999952316,10544.701999952316,16316.900000095367,2021-10-27T16:22:23.537Z,16324.134,1635351725,incremental,ni_sequenzen,NI_Sequenzen,,,,,,,,,,,
,Screen_4,canvas.Screen,0_0_0_3,cont,response,1,16320.799999952316,16307.004,16324.134,17994.200000047684,1670.0660000476837,17995.5,2021-10-27T16:22:25.216Z,18125.141,1635351725,incremental,ni_sequenzen,NI_Sequenzen,,,,,,,,,,,
,Sequence,flow.Sequence,0_0_0,,completion,1,732.7999999523163,787.053,836.956,17994.200000047684,17157.244000047685,18000.700000047684,2021-10-27T16:22:25.221Z,18125.141,1635351725,incremental,ni_sequenzen,NI_Sequenzen,,,,,,,,,,,
,Screen_1,canvas.Screen,0_0_1_0,,skipped,2,18007,,,18007,,18007.299999952316,2021-10-27T16:22:25.228Z,18125.141,1635351725,incremental,ni_sequenzen,NI_Sequenzen,,,,,,,,,,,
,Screen_2,canvas.Screen,0_0_1_1,,skipped,2,18011.900000095367,,,18007,,18012.299999952316,2021-10-27T16:22:25.233Z,18125.141,1635351725,incremental,ni_sequenzen,NI_Sequenzen,,,,,,,,,,,
,Screen_3,canvas.Screen,0_0_1_2,,skipped,2,18016.799999952316,,,18007,,18017.099999904633,2021-10-27T16:22:25.238Z,18125.141,1635351725,incremental,ni_sequenzen,NI_Sequenzen,,,,,,,,,,,
,Screen_4,canvas.Screen,0_0_1_3,,skipped,2,18019.5,,,18007,,18020,2021-10-27T16:22:25.241Z,18125.141,1635351725,incremental,ni_sequenzen,NI_Sequenzen,,,,,,,,,,,
,Sequence,flow.Sequence,0_0_1,,completion,2,18002.900000095367,,,18007,,18020.400000095367,2021-10-27T16:22:25.241Z,18125.141,1635351725,incremental,ni_sequenzen,NI_Sequenzen,,,,,,,,,,,
,Screen_1,canvas.Screen,0_0_2_0,,skipped,3,18022.900000095367,,,18022.900000095367,,18023.200000047684,2021-10-27T16:22:25.244Z,18125.141,1635351725,incremental,ni_sequenzen,NI_Sequenzen,,,,,,,,,,,
,Screen_2,canvas.Screen,0_0_2_1,,skipped,3,18024.599999904633,,,18022.900000095367,,18024.799999952316,2021-10-27T16:22:25.245Z,18125.141,1635351725,incremental,ni_sequenzen,NI_Sequenzen,,,,,,,,,,,
,Screen_3,canvas.Screen,0_0_2_2,,skipped,3,18026.400000095367,,,18022.900000095367,,18026.599999904633,2021-10-27T16:22:25.247Z,18125.141,1635351725,incremental,ni_sequenzen,NI_Sequenzen,,,,,,,,,,,
,Screen_4,canvas.Screen,0_0_2_3,,skipped,3,18027.799999952316,,,18022.900000095367,,18027.900000095367,2021-10-27T16:22:25.248Z,18125.141,1635351725,incremental,ni_sequenzen,NI_Sequenzen,,,,,,,,,,,
,Sequence,flow.Sequence,0_0_2,,completion,3,18021.299999952316,,,18022.900000095367,,18028.099999904633,2021-10-27T16:22:25.249Z,18125.141,1635351725,incremental,ni_sequenzen,NI_Sequenzen,,,,,,,,,,,
,Screen_1,canvas.Screen,0_0_3_0,,skipped,4,18029.5,,,18029.5,,18029.599999904633,2021-10-27T16:22:25.250Z,18125.141,1635351725,incremental,ni_sequenzen,NI_Sequenzen,,,,,,,,,,,
,Screen_2,canvas.Screen,0_0_3_1,,skipped,4,18030.599999904633,,,18029.5,,18030.700000047684,2021-10-27T16:22:25.251Z,18125.141,1635351725,incremental,ni_sequenzen,NI_Sequenzen,,,,,,,,,,,
,Screen_3,canvas.Screen,0_0_3_2,,skipped,4,18031.799999952316,,,18029.5,,18031.900000095367,2021-10-27T16:22:25.252Z,18125.141,1635351725,incremental,ni_sequenzen,NI_Sequenzen,,,,,,,,,,,
,Screen_4,canvas.Screen,0_0_3_3,,skipped,4,18032.900000095367,,,18029.5,,18033,2021-10-27T16:22:25.254Z,18125.141,1635351725,incremental,ni_sequenzen,NI_Sequenzen,,,,,,,,,,,
,Sequence,flow.Sequence,0_0_3,,completion,4,18028.5,,,18029.5,,18033.099999904633,2021-10-27T16:22:25.254Z,18125.141,1635351725,incremental,ni_sequenzen,NI_Sequenzen,,,,,,,,,,,
,Screen_1,canvas.Screen,0_0_4_0,,skipped,5,18035.200000047684,,,18035.200000047684,,18035.400000095367,2021-10-27T16:22:25.256Z,18125.141,1635351725,incremental,ni_sequenzen,NI_Sequenzen,,,,,,,,,,,
,Screen_2,canvas.Screen,0_0_4_1,,skipped,5,18036.200000047684,,,18035.200000047684,,18036.299999952316,2021-10-27T16:22:25.257Z,18125.141,1635351725,incremental,ni_sequenzen,NI_Sequenzen,,,,,,,,,,,
,Screen_3,canvas.Screen,0_0_4_2,,skipped,5,18037.099999904633,,,18035.200000047684,,18037.200000047684,2021-10-27T16:22:25.258Z,18125.141,1635351725,incremental,ni_sequenzen,NI_Sequenzen,,,,,,,,,,,
,Screen_4,canvas.Screen,0_0_4_3,,skipped,5,18038,,,18035.200000047684,,18038,2021-10-27T16:22:25.259Z,18125.141,1635351725,incremental,ni_sequenzen,NI_Sequenzen,,,,,,,,,,,
,Sequence,flow.Sequence,0_0_4,,completion,5,18033.5,,,18035.200000047684,,18038.099999904633,2021-10-27T16:22:25.259Z,18125.141,1635351725,incremental,ni_sequenzen,NI_Sequenzen,,,,,,,,,,,
,Screen_1,canvas.Screen,0_0_5_0,,skipped,6,18039.200000047684,,,18039.200000047684,,18039.299999952316,2021-10-27T16:22:25.260Z,18125.141,1635351725,incremental,ni_sequenzen,NI_Sequenzen,,,,,,,,,,,
,Screen_2,canvas.Screen,0_0_5_1,,skipped,6,18040.200000047684,,,18039.200000047684,,18040.200000047684,2021-10-27T16:22:25.261Z,18125.141,1635351725,incremental,ni_sequenzen,NI_Sequenzen,,,,,,,,,,,
,Screen_3,canvas.Screen,0_0_5_2,,skipped,6,18040.900000095367,,,18039.200000047684,,18040.900000095367,2021-10-27T16:22:25.262Z,18125.141,1635351725,incremental,ni_sequenzen,NI_Sequenzen,,,,,,,,,,,
,Screen_4,canvas.Screen,0_0_5_3,,skipped,6,18041.700000047684,,,18039.200000047684,,18041.700000047684,2021-10-27T16:22:25.262Z,18125.141,1635351725,incremental,ni_sequenzen,NI_Sequenzen,,,,,,,,,,,
,Sequence,flow.Sequence,0_0_5,,completion,6,18038.5,,,18039.200000047684,,18041.799999952316,2021-10-27T16:22:25.262Z,18125.141,1635351725,incremental,ni_sequenzen,NI_Sequenzen,,,,,,,,,,,
,Screen_1,canvas.Screen,0_0_6_0,,skipped,7,18042.700000047684,,,18042.700000047684,,18042.700000047684,2021-10-27T16:22:25.263Z,18125.141,1635351725,incremental,ni_sequenzen,NI_Sequenzen,,,,,,,,,,,
,Screen_2,canvas.Screen,0_0_6_1,,skipped,7,18043.299999952316,,,18042.700000047684,,18043.299999952316,2021-10-27T16:22:25.264Z,18125.141,1635351725,incremental,ni_sequenzen,NI_Sequenzen,,,,,,,,,,,
,Screen_3,canvas.Screen,0_0_6_2,,skipped,7,18043.900000095367,,,18042.700000047684,,18043.900000095367,2021-10-27T16:22:25.264Z,18125.141,1635351725,incremental,ni_sequenzen,NI_Sequenzen,,,,,,,,,,,
,Screen_4,canvas.Screen,0_0_6_3,,skipped,7,18044.5,,,18042.700000047684,,18044.599999904633,2021-10-27T16:22:25.265Z,18125.141,1635351725,incremental,ni_sequenzen,NI_Sequenzen,,,,,,,,,,,
,Sequence,flow.Sequence,0_0_6,,completion,7,18042.099999904633,,,18042.700000047684,,18044.700000047684,2021-10-27T16:22:25.265Z,18125.141,1635351725,incremental,ni_sequenzen,NI_Sequenzen,,,,,,,,,,,
,Screen_1,canvas.Screen,0_0_7_0,,skipped,8,18045.400000095367,,,18045.400000095367,,18045.5,2021-10-27T16:22:25.266Z,18125.141,1635351725,incremental,ni_sequenzen,NI_Sequenzen,,,,,,,,,,,
,Screen_2,canvas.Screen,0_0_7_1,,skipped,8,18046.900000095367,,,18045.400000095367,,18047,2021-10-27T16:22:25.268Z,18125.141,1635351725,incremental,ni_sequenzen,NI_Sequenzen,,,,,,,,,,,
,Screen_3,canvas.Screen,0_0_7_2,,skipped,8,18047.599999904633,,,18045.400000095367,,18047.700000047684,2021-10-27T16:22:25.268Z,18125.141,1635351725,incremental,ni_sequenzen,NI_Sequenzen,,,,,,,,,,,
,Screen_4,canvas.Screen,0_0_7_3,,skipped,8,18048.400000095367,,,18045.400000095367,,18048.400000095367,2021-10-27T16:22:25.269Z,18125.141,1635351725,incremental,ni_sequenzen,NI_Sequenzen,,,,,,,,,,,
,Sequence,flow.Sequence,0_0_7,,completion,8,18044.900000095367,,,18045.400000095367,,18048.5,2021-10-27T16:22:25.269Z,18125.141,1635351725,incremental,ni_sequenzen,NI_Sequenzen,,,,,,,,,,,
,Screen_1,canvas.Screen,0_0_8_0,,skipped,9,18049.299999952316,,,18049.400000095367,,18049.400000095367,2021-10-27T16:22:25.270Z,18125.141,1635351725,incremental,ni_sequenzen,NI_Sequenzen,,,,,,,,,,,
,Screen_2,canvas.Screen,0_0_8_1,,skipped,9,18050,,,18049.400000095367,,18050,2021-10-27T16:22:25.271Z,18125.141,1635351725,incremental,ni_sequenzen,NI_Sequenzen,,,,,,,,,,,
,Screen_3,canvas.Screen,0_0_8_2,,skipped,9,18050.599999904633,,,18049.400000095367,,18050.599999904633,2021-10-27T16:22:25.271Z,18125.141,1635351725,incremental,ni_sequenzen,NI_Sequenzen,,,,,,,,,,,
,Screen_4,canvas.Screen,0_0_8_3,,skipped,9,18051.299999952316,,,18049.400000095367,,18051.299999952316,2021-10-27T16:22:25.272Z,18125.141,1635351725,incremental,ni_sequenzen,NI_Sequenzen,,,,,,,,,,,
,Sequence,flow.Sequence,0_0_8,,completion,9,18048.700000047684,,,18049.400000095367,,18051.400000095367,2021-10-27T16:22:25.272Z,18125.141,1635351725,incremental,ni_sequenzen,NI_Sequenzen,,,,,,,,,,,
,Screen_1,canvas.Screen,0_0_9_0,,skipped,10,18052.400000095367,,,18052.400000095367,,18052.400000095367,2021-10-27T16:22:25.273Z,18125.141,1635351725,incremental,ni_sequenzen,NI_Sequenzen,,,,,,,,,,,
,Screen_2,canvas.Screen,0_0_9_1,,skipped,10,18053,,,18052.400000095367,,18053.099999904633,2021-10-27T16:22:25.274Z,18125.141,1635351725,incremental,ni_sequenzen,NI_Sequenzen,,,,,,,,,,,
,Screen_3,canvas.Screen,0_0_9_2,,skipped,10,18053.700000047684,,,18052.400000095367,,18053.799999952316,2021-10-27T16:22:25.274Z,18125.141,1635351725,incremental,ni_sequenzen,NI_Sequenzen,,,,,,,,,,,
,Screen_4,canvas.Screen,0_0_9_3,,skipped,10,18054.400000095367,,,18052.400000095367,,18054.400000095367,2021-10-27T16:22:25.275Z,18125.141,1635351725,incremental,ni_sequenzen,NI_Sequenzen,,,,,,,,,,,
,Sequence,flow.Sequence,0_0_9,,completion,10,18051.700000047684,,,18052.400000095367,,18054.5,2021-10-27T16:22:25.275Z,18125.141,1635351725,incremental,ni_sequenzen,NI_Sequenzen,,,,,,,,,,,
,Screen_1,canvas.Screen,0_0_10_0,,skipped,11,18055.5,,,18055.5,,18055.5,2021-10-27T16:22:25.276Z,18125.141,1635351725,incremental,ni_sequenzen,NI_Sequenzen,,,,,,,,,,,
,Screen_2,canvas.Screen,0_0_10_1,,skipped,11,18056.099999904633,,,18055.5,,18056.099999904633,2021-10-27T16:22:25.277Z,18125.141,1635351725,incremental,ni_sequenzen,NI_Sequenzen,,,,,,,,,,,
,Screen_3,canvas.Screen,0_0_10_2,,skipped,11,18057.400000095367,,,18055.5,,18057.5,2021-10-27T16:22:25.278Z,18125.141,1635351725,incremental,ni_sequenzen,NI_Sequenzen,,,,,,,,,,,
,Screen_4,canvas.Screen,0_0_10_3,,skipped,11,18058.099999904633,,,18055.5,,18058.200000047684,2021-10-27T16:22:25.279Z,18125.141,1635351725,incremental,ni_sequenzen,NI_Sequenzen,,,,,,,,,,,
,Sequence,flow.Sequence,0_0_10,,completion,11,18054.799999952316,,,18055.5,,18058.299999952316,2021-10-27T16:22:25.279Z,18125.141,1635351725,incremental,ni_sequenzen,NI_Sequenzen,,,,,,,,,,,
,Screen_1,canvas.Screen,0_0_11_0,,skipped,12,18059.700000047684,,,18059.700000047684,,18060.5,2021-10-27T16:22:25.281Z,18125.141,1635351725,incremental,ni_sequenzen,NI_Sequenzen,,,,,,,,,,,
,Screen_2,canvas.Screen,0_0_11_1,,skipped,12,18061.299999952316,,,18059.700000047684,,18061.400000095367,2021-10-27T16:22:25.282Z,18125.141,1635351725,incremental,ni_sequenzen,NI_Sequenzen,,,,,,,,,,,
,Screen_3,canvas.Screen,0_0_11_2,,skipped,12,18062.200000047684,,,18059.700000047684,,18062.200000047684,2021-10-27T16:22:25.283Z,18125.141,1635351725,incremental,ni_sequenzen,NI_Sequenzen,,,,,,,,,,,
,Screen_4,canvas.Screen,0_0_11_3,,skipped,12,18062.900000095367,,,18059.700000047684,,18063,2021-10-27T16:22:25.283Z,18125.141,1635351725,incremental,ni_sequenzen,NI_Sequenzen,,,,,,,,,,,
,Sequence,flow.Sequence,0_0_11,,completion,12,18059,,,18059.700000047684,,18063,2021-10-27T16:22:25.284Z,18125.141,1635351725,incremental,ni_sequenzen,NI_Sequenzen,,,,,,,,,,,
,Screen_1,canvas.Screen,0_0_12_0,,skipped,13,18064,,,18064,,18064,2021-10-27T16:22:25.285Z,18125.141,1635351725,incremental,ni_sequenzen,NI_Sequenzen,,,,,,,,,,,
,Screen_2,canvas.Screen,0_0_12_1,,skipped,13,18064.700000047684,,,18064,,18064.700000047684,2021-10-27T16:22:25.285Z,18125.141,1635351725,incremental,ni_sequenzen,NI_Sequenzen,,,,,,,,,,,
,Screen_3,canvas.Screen,0_0_12_2,,skipped,13,18065.400000095367,,,18064,,18065.5,2021-10-27T16:22:25.286Z,18125.141,1635351725,incremental,ni_sequenzen,NI_Sequenzen,,,,,,,,,,,
,Screen_4,canvas.Screen,0_0_12_3,,skipped,13,18066.200000047684,,,18064,,18066.299999952316,2021-10-27T16:22:25.287Z,18125.141,1635351725,incremental,ni_sequenzen,NI_Sequenzen,,,,,,,,,,,
,Sequence,flow.Sequence,0_0_12,,completion,13,18063.400000095367,,,18064,,18066.400000095367,2021-10-27T16:22:25.287Z,18125.141,1635351725,incremental,ni_sequenzen,NI_Sequenzen,,,,,,,,,,,
,Screen_1,canvas.Screen,0_0_13_0,,skipped,14,18067.099999904633,,,18067.099999904633,,18067.200000047684,2021-10-27T16:22:25.288Z,18125.141,1635351725,incremental,ni_sequenzen,NI_Sequenzen,,,,,,,,,,,
,Screen_2,canvas.Screen,0_0_13_1,,skipped,14,18067.799999952316,,,18067.099999904633,,18067.799999952316,2021-10-27T16:22:25.288Z,18125.141,1635351725,incremental,ni_sequenzen,NI_Sequenzen,,,,,,,,,,,
,Screen_3,canvas.Screen,0_0_13_2,,skipped,14,18068.400000095367,,,18067.099999904633,,18068.400000095367,2021-10-27T16:22:25.289Z,18125.141,1635351725,incremental,ni_sequenzen,NI_Sequenzen,,,,,,,,,,,
,Screen_4,canvas.Screen,0_0_13_3,,skipped,14,18068.900000095367,,,18067.099999904633,,18069,2021-10-27T16:22:25.290Z,18125.141,1635351725,incremental,ni_sequenzen,NI_Sequenzen,,,,,,,,,,,
,Sequence,flow.Sequence,0_0_13,,completion,14,18066.5,,,18067.099999904633,,18069.099999904633,2021-10-27T16:22:25.290Z,18125.141,1635351725,incremental,ni_sequenzen,NI_Sequenzen,,,,,,,,,,,
,Screen_1,canvas.Screen,0_0_14_0,,skipped,15,18070.599999904633,,,18070.599999904633,,18070.700000047684,2021-10-27T16:22:25.291Z,18125.141,1635351725,incremental,ni_sequenzen,NI_Sequenzen,,,,,,,,,,,
,Screen_2,canvas.Screen,0_0_14_1,,skipped,15,18071.200000047684,,,18070.599999904633,,18071.299999952316,2021-10-27T16:22:25.292Z,18125.141,1635351725,incremental,ni_sequenzen,NI_Sequenzen,,,,,,,,,,,
,Screen_3,canvas.Screen,0_0_14_2,,skipped,15,18071.799999952316,,,18070.599999904633,,18071.799999952316,2021-10-27T16:22:25.292Z,18125.141,1635351725,incremental,ni_sequenzen,NI_Sequenzen,,,,,,,,,,,
,Screen_4,canvas.Screen,0_0_14_3,,skipped,15,18072.400000095367,,,18070.599999904633,,18072.400000095367,2021-10-27T16:22:25.293Z,18125.141,1635351725,incremental,ni_sequenzen,NI_Sequenzen,,,,,,,,,,,
,Sequence,flow.Sequence,0_0_14,,completion,15,18069.900000095367,,,18070.599999904633,,18072.599999904633,2021-10-27T16:22:25.293Z,18125.141,1635351725,incremental,ni_sequenzen,NI_Sequenzen,,,,,,,,,,,
,Screen_1,canvas.Screen,0_0_15_0,,skipped,16,18073.400000095367,,,18073.400000095367,,18073.400000095367,2021-10-27T16:22:25.294Z,18125.141,1635351725,incremental,ni_sequenzen,NI_Sequenzen,,,,,,,,,,,
,Screen_2,canvas.Screen,0_0_15_1,,skipped,16,18074.5,,,18073.400000095367,,18074.599999904633,2021-10-27T16:22:25.295Z,18125.141,1635351725,incremental,ni_sequenzen,NI_Sequenzen,,,,,,,,,,,
,Screen_3,canvas.Screen,0_0_15_2,,skipped,16,18076.099999904633,,,18073.400000095367,,18076.200000047684,2021-10-27T16:22:25.297Z,18125.141,1635351725,incremental,ni_sequenzen,NI_Sequenzen,,,,,,,,,,,
,Screen_4,canvas.Screen,0_0_15_3,,skipped,16,18077.400000095367,,,18073.400000095367,,18077.5,2021-10-27T16:22:25.298Z,18125.141,1635351725,incremental,ni_sequenzen,NI_Sequenzen,,,,,,,,,,,
,Sequence,flow.Sequence,0_0_15,,completion,16,18072.799999952316,,,18073.400000095367,,18077.700000047684,2021-10-27T16:22:25.298Z,18125.141,1635351725,incremental,ni_sequenzen,NI_Sequenzen,,,,,,,,,,,
,Screen_1,canvas.Screen,0_0_16_0,,skipped,17,18078.599999904633,,,18078.599999904633,,18078.700000047684,2021-10-27T16:22:25.299Z,18125.141,1635351725,incremental,ni_sequenzen,NI_Sequenzen,,,,,,,,,,,
,Screen_2,canvas.Screen,0_0_16_1,,skipped,17,18079.200000047684,,,18078.599999904633,,18079.299999952316,2021-10-27T16:22:25.300Z,18125.141,1635351725,incremental,ni_sequenzen,NI_Sequenzen,,,,,,,,,,,
,Screen_3,canvas.Screen,0_0_16_2,,skipped,17,18079.900000095367,,,18078.599999904633,,18080.099999904633,2021-10-27T16:22:25.301Z,18125.141,1635351725,incremental,ni_sequenzen,NI_Sequenzen,,,,,,,,,,,
,Screen_4,canvas.Screen,0_0_16_3,,skipped,17,18080.599999904633,,,18078.599999904633,,18080.700000047684,2021-10-27T16:22:25.301Z,18125.141,1635351725,incremental,ni_sequenzen,NI_Sequenzen,,,,,,,,,,,
,Sequence,flow.Sequence,0_0_16,,completion,17,18078,,,18078.599999904633,,18080.700000047684,2021-10-27T16:22:25.301Z,18125.141,1635351725,incremental,ni_sequenzen,NI_Sequenzen,,,,,,,,,,,
,Screen_1,canvas.Screen,0_0_17_0,,skipped,18,18081.700000047684,,,18081.700000047684,,18081.700000047684,2021-10-27T16:22:25.302Z,18125.141,1635351725,incremental,ni_sequenzen,NI_Sequenzen,,,,,,,,,,,
,Screen_2,canvas.Screen,0_0_17_1,,skipped,18,18082.400000095367,,,18081.700000047684,,18082.400000095367,2021-10-27T16:22:25.303Z,18125.141,1635351725,incremental,ni_sequenzen,NI_Sequenzen,,,,,,,,,,,
,Screen_3,canvas.Screen,0_0_17_2,,skipped,18,18084,,,18081.700000047684,,18084.099999904633,2021-10-27T16:22:25.305Z,18125.141,1635351725,incremental,ni_sequenzen,NI_Sequenzen,,,,,,,,,,,
,Screen_4,canvas.Screen,0_0_17_3,,skipped,18,18084.700000047684,,,18081.700000047684,,18084.700000047684,2021-10-27T16:22:25.305Z,18125.141,1635351725,incremental,ni_sequenzen,NI_Sequenzen,,,,,,,,,,,
,Sequence,flow.Sequence,0_0_17,,completion,18,18081,,,18081.700000047684,,18084.799999952316,2021-10-27T16:22:25.305Z,18125.141,1635351725,incremental,ni_sequenzen,NI_Sequenzen,,,,,,,,,,,
,Screen_1,canvas.Screen,0_0_18_0,,skipped,19,18085.599999904633,,,18085.599999904633,,18085.599999904633,2021-10-27T16:22:25.306Z,18125.141,1635351725,incremental,ni_sequenzen,NI_Sequenzen,,,,,,,,,,,
,Screen_2,canvas.Screen,0_0_18_1,,skipped,19,18086.200000047684,,,18085.599999904633,,18086.200000047684,2021-10-27T16:22:25.307Z,18125.141,1635351725,incremental,ni_sequenzen,NI_Sequenzen,,,,,,,,,,,
,Screen_3,canvas.Screen,0_0_18_2,,skipped,19,18086.799999952316,,,18085.599999904633,,18086.799999952316,2021-10-27T16:22:25.307Z,18125.141,1635351725,incremental,ni_sequenzen,NI_Sequenzen,,,,,,,,,,,
,Screen_4,canvas.Screen,0_0_18_3,,skipped,19,18087.299999952316,,,18085.599999904633,,18087.299999952316,2021-10-27T16:22:25.308Z,18125.141,1635351725,incremental,ni_sequenzen,NI_Sequenzen,,,,,,,,,,,
,Sequence,flow.Sequence,0_0_18,,completion,19,18085,,,18085.599999904633,,18087.5,2021-10-27T16:22:25.308Z,18125.141,1635351725,incremental,ni_sequenzen,NI_Sequenzen,,,,,,,,,,,
,Screen_1,canvas.Screen,0_0_19_0,,skipped,20,18088.200000047684,,,18088.200000047684,,18088.299999952316,2021-10-27T16:22:25.309Z,18125.141,1635351725,incremental,ni_sequenzen,NI_Sequenzen,,,,,,,,,,,
,Screen_2,canvas.Screen,0_0_19_1,,skipped,20,18088.799999952316,,,18088.200000047684,,18088.799999952316,2021-10-27T16:22:25.309Z,18125.141,1635351725,incremental,ni_sequenzen,NI_Sequenzen,,,,,,,,,,,
,Screen_3,canvas.Screen,0_0_19_2,,skipped,20,18089.299999952316,,,18088.200000047684,,18089.299999952316,2021-10-27T16:22:25.310Z,18125.141,1635351725,incremental,ni_sequenzen,NI_Sequenzen,,,,,,,,,,,
,Screen_4,canvas.Screen,0_0_19_3,,skipped,20,18089.900000095367,,,18088.200000047684,,18089.900000095367,2021-10-27T16:22:25.310Z,18125.141,1635351725,incremental,ni_sequenzen,NI_Sequenzen,,,,,,,,,,,
,Sequence,flow.Sequence,0_0_19,,completion,20,18087.700000047684,,,18088.200000047684,,18090.099999904633,2021-10-27T16:22:25.311Z,18125.141,1635351725,incremental,ni_sequenzen,NI_Sequenzen,,,,,,,,,,,
,Instructions_I,flow.Loop,0_0,,completion,,731.7000000476837,787.053,836.956,18088.200000047684,17251.244000047685,18090.099999904633,2021-10-27T16:22:25.311Z,18125.141,1635351725,incremental,ni_sequenzen,NI_Sequenzen,,,,,,,,,,,
,Move,canvas.Screen,0_1_0_0,right,response,,18107.200000047684,18091.208,18125.141,20415.200000047684,2290.059000047684,20416.799999952316,2021-10-27T16:22:27.637Z,20425.205,1635351725,incremental,ni_sequenzen,NI_Sequenzen,1,,,,,,,,,,
,Move,canvas.Screen,0_1_0_1,right,response,,20420.599999904633,20408.771,20425.205,25840.400000095367,5415.195000095366,25841.400000095367,2021-10-27T16:22:33.062Z,25860.206,1635351725,incremental,ni_sequenzen,NI_Sequenzen,2,,,,,,,,,,
,Move,canvas.Screen,0_1_0_2,right,response,,25845.400000095367,25843.483,25860.206,26574.400000095367,714.1940000953691,26574.799999952316,2021-10-27T16:22:33.795Z,26610.665,1635351725,incremental,ni_sequenzen,NI_Sequenzen,3,,,,,,,,,,
,Move,canvas.Screen,0_1_0_3,left,response,,26576.099999904633,26560.278,26610.665,28817.900000095367,2207.2350000953666,28819.099999904633,2021-10-27T16:22:36.040Z,28827.268,1635351725,incremental,ni_sequenzen,NI_Sequenzen,4,,,,,,,,,,
,Move,canvas.Screen,0_1_0_4,down,response,,28823.5,28810.756,28827.268,30048.900000095367,1221.6320000953674,30050,2021-10-27T16:22:37.271Z,30060.908,1635351725,incremental,ni_sequenzen,NI_Sequenzen,5,,,,,,,,,,
,Move,canvas.Screen,0_1_0_5,down,response,,30054.099999904633,30044.722,30060.908,30596.099999904633,535.1919999046331,30597.200000047684,2021-10-27T16:22:37.818Z,30611.136,1635351725,incremental,ni_sequenzen,NI_Sequenzen,6,,,,,,,,,,
,Move,canvas.Screen,0_1_0_6,down,response,,30602,30594.827,30611.136,30907.299999952316,296.1639999523177,30908.599999904633,2021-10-27T16:22:38.129Z,30928.046,1635351725,incremental,ni_sequenzen,NI_Sequenzen,7,,,,,,,,,,
,Move,canvas.Screen,0_1_0_7,down,response,,30912,30911.706,30928.046,31175,246.95400000000154,31176.400000095367,2021-10-27T16:22:38.397Z,31194.615,1635351725,incremental,ni_sequenzen,NI_Sequenzen,8,,,,,,,,,,
,Move,canvas.Screen,0_1_0_8,left,response,,31182,31178.212,31194.615,31982.299999952316,787.6849999523147,31983.299999952316,2021-10-27T16:22:39.204Z,31994.692,1635351725,incremental,ni_sequenzen,NI_Sequenzen,9,,,,,,,,,,
,Move,canvas.Screen,0_1_0_9,left,response,,31986.400000095367,31978.608,31994.692,32268.200000047684,273.5080000476846,32269.400000095367,2021-10-27T16:22:39.490Z,32278.081,1635351725,incremental,ni_sequenzen,NI_Sequenzen,10,,,,,,,,,,
,Move,canvas.Screen,0_1_0_10,left,response,,32273.799999952316,32261.874,32278.081,32699.900000095367,421.8190000953691,32700.299999952316,2021-10-27T16:22:39.921Z,32711.548,1635351725,incremental,ni_sequenzen,NI_Sequenzen,11,,,,,,,,,,
,Move,canvas.Screen,0_1_0_11,down,response,,32702,32695.597,32711.548,35919.40000009537,3207.8520000953686,35919.799999952316,2021-10-27T16:22:43.140Z,35929.043,1635351725,incremental,ni_sequenzen,NI_Sequenzen,12,,,,,,,,,,
,Move,canvas.Screen,0_1_0_12,right,response,,35921.200000047684,35912.845,35929.043,36440.299999952316,511.25699995231844,36441.5,2021-10-27T16:22:43.662Z,36445.796,1635351725,incremental,ni_sequenzen,NI_Sequenzen,13,,,,,,,,,,
,Move,canvas.Screen,0_1_0_13,right,response,,36444,36429.481,36445.796,37586.799999952316,1141.0039999523142,37587.09999990463,2021-10-27T16:22:44.808Z,37596.09,1635351725,incremental,ni_sequenzen,NI_Sequenzen,14,,,,,,,,,,
,Move,canvas.Screen,0_1_0_14,right,response,,37588.40000009537,37579.67,37596.09,38146.90000009537,550.8100000953709,38148.09999990463,2021-10-27T16:22:45.369Z,38162.992,1635351725,incremental,ni_sequenzen,NI_Sequenzen,15,,,,,,,,,,
,Move,canvas.Screen,0_1_0_15,right,response,,38153.299999952316,38146.895,38162.992,38372.40000009537,209.40800009536906,38373.700000047684,2021-10-27T16:22:45.594Z,38412.499,1635351725,incremental,ni_sequenzen,NI_Sequenzen,16,,,,,,,,,,
,Move,canvas.Screen,0_1_0_16,left,response,,38378.5,38363.172,38412.499,39269.799999952316,857.3009999523128,39271.09999990463,2021-10-27T16:22:46.492Z,39296.6,1635351725,incremental,ni_sequenzen,NI_Sequenzen,17,,,,,,,,,,
,Move,canvas.Screen,0_1_0_17,down,response,,39275.09999990463,39263.521,39296.6,39620.799999952316,324.19999995231774,39622.09999990463,2021-10-27T16:22:46.843Z,39629.944,1635351725,incremental,ni_sequenzen,NI_Sequenzen,18,,,,,,,,,,
,Move,canvas.Screen,0_1_0_18,down,response,,39626,39613.678,39629.944,39815.299999952316,185.35599995231314,39816.5,2021-10-27T16:22:47.037Z,39829.991,1635351725,incremental,ni_sequenzen,NI_Sequenzen,19,,,,,,,,,,
,Move,canvas.Screen,0_1_0_19,down,response,,39821.09999990463,39813.734,39829.991,39982,152.0089999999982,39983.200000047684,2021-10-27T16:22:47.204Z,39996.924,1635351725,incremental,ni_sequenzen,NI_Sequenzen,20,,,,,,,,,,
,Move,canvas.Screen,0_1_0_20,down,response,,39987.799999952316,39980.765,39996.924,40160.200000047684,163.27600004768465,40161.299999952316,2021-10-27T16:22:47.382Z,40180.155,1635351725,incremental,ni_sequenzen,NI_Sequenzen,21,,,,,,,,,,
,Move,canvas.Screen,0_1_0_21,left,response,,40166.40000009537,40163.7,40180.155,40565.59999990463,385.44499990463373,40566.09999990463,2021-10-27T16:22:47.787Z,40580.29,1635351725,incremental,ni_sequenzen,NI_Sequenzen,22,,,,,,,,,,
,Move,canvas.Screen,0_1_0_22,left,response,,40567.5,40563.48,40580.29,40869,288.7099999999991,40869.59999990463,2021-10-27T16:22:48.090Z,40880.295,1635351725,incremental,ni_sequenzen,NI_Sequenzen,23,,,,,,,,,,
,Move,canvas.Screen,0_1_0_23,left,response,,40871.40000009537,40863.964,40880.295,41199,318.70500000000175,41200.59999990463,2021-10-27T16:22:48.421Z,41213.691,1635351725,incremental,ni_sequenzen,NI_Sequenzen,24,,,,,,,,,,
,Move,canvas.Screen,0_1_0_24,down,response,,41209.299999952316,41197.65,41213.691,41790.200000047684,576.5090000476848,41791.5,2021-10-27T16:22:49.012Z,41797.149,1635351725,incremental,ni_sequenzen,NI_Sequenzen,25,,,,,,,,,,
,Move,canvas.Screen,0_1_0_25,right,response,,41795.700000047684,41780.878,41797.149,51877.09999990463,10079.950999904635,51878,2021-10-27T16:22:59.099Z,51882.973,1635351725,incremental,ni_sequenzen,NI_Sequenzen,26,,,,,,,,,,
,Move,canvas.Screen,0_1_0_26,down,response,,51880.5,51866.255,51882.973,52449.700000047684,566.7270000476856,52450.09999990463,2021-10-27T16:22:59.671Z,52466.568,1635351725,incremental,ni_sequenzen,NI_Sequenzen,27,,,,,,,,,,
,Move,canvas.Screen,0_1_0_27,down,response,,52451.200000047684,52450.011,52466.568,52769.5,302.9320000000007,52770.59999990463,2021-10-27T16:22:59.991Z,52783.259,1635351725,incremental,ni_sequenzen,NI_Sequenzen,28,,,,,,,,,,
,Move,canvas.Screen,0_1_0_28,right,response,,52775.700000047684,52766.557,52783.259,53087,303.7410000000018,53088.200000047684,2021-10-27T16:23:00.309Z,53099.944,1635351725,incremental,ni_sequenzen,NI_Sequenzen,29,,,,,,,,,,
,Move,canvas.Screen,0_1_0_29,right,response,,53093,53083.264,53099.944,53316.700000047684,216.75600004768057,53318.40000009537,2021-10-27T16:23:00.539Z,53366.856,1635351725,incremental,ni_sequenzen,NI_Sequenzen,30,,,,,,,,,,
,Loop,flow.Loop,0_1_0,-999,completion,,18099,18091.208,18125.141,53316.700000047684,35191.55900004768,53319,2021-10-27T16:23:00.540Z,53366.856,1635351725,incremental,ni_sequenzen,NI_Sequenzen,,,,,,,,,,,
,Training_I,flow.Sequence,0_1,,completion,,18090.5,18091.208,18125.141,53316.700000047684,35191.55900004768,53319.40000009537,2021-10-27T16:23:00.540Z,53366.856,1635351725,incremental,ni_sequenzen,NI_Sequenzen,,,,,,,,,,,
,Screen_1,canvas.Screen,0_2_0_0,cont,response,1,53355.59999990463,53350.609,53366.856,60619.5,7252.644,60619.90000009537,2021-10-27T16:23:07.841Z,60768.492,1635351725,incremental,ni_sequenzen,NI_Sequenzen,,,,,,,,,,,
,Screen_2,canvas.Screen,0_2_0_1,cont,response,1,60755.299999952316,60751.829,60768.492,64291.799999952316,3523.307999952318,64292.200000047684,2021-10-27T16:23:11.513Z,64302.868,1635351725,incremental,ni_sequenzen,NI_Sequenzen,,,,,,,,,,,
,Screen_3,canvas.Screen,0_2_0_2,cont,response,1,64294.59999990463,64286.54,64302.868,64689.90000009537,387.0320000953652,64691.299999952316,2021-10-27T16:23:11.912Z,64786.216,1635351725,incremental,ni_sequenzen,NI_Sequenzen,,,,,,,,,,,
,Screen_4,canvas.Screen,0_2_0_3,cont,response,1,64775.799999952316,64770.085,64786.216,65603.20000004768,816.9840000476834,65604.40000009537,2021-10-27T16:23:12.825Z,65619.985,1635351725,incremental,ni_sequenzen,NI_Sequenzen,,,,,,,,,,,
,Screen_5,canvas.Screen,0_2_0_4,cont,response,1,65607.70000004768,65603.571,65619.985,66080.29999995232,460.3149999523157,66080.70000004768,2021-10-27T16:23:13.302Z,66186.523,1635351725,incremental,ni_sequenzen,NI_Sequenzen,,,,,,,,,,,
,Screen_6,canvas.Screen,0_2_0_5,cont,response,1,66165.5,66153.604,66186.523,66916.29999995232,729.7769999523152,66917.59999990463,2021-10-27T16:23:14.138Z,67103.767,1635351725,incremental,ni_sequenzen,NI_Sequenzen,,,,,,,,,,,
,Sequence,flow.Sequence,0_2_0,,completion,1,53354.700000047684,53350.609,53366.856,66916.29999995232,13549.443999952317,66918.20000004768,2021-10-27T16:23:14.139Z,67103.767,1635351725,incremental,ni_sequenzen,NI_Sequenzen,,,,,,,,,,,
,Screen_1,canvas.Screen,0_2_1_0,,skipped,2,66924.20000004768,,,66924.20000004768,,66924.40000009537,2021-10-27T16:23:14.145Z,67103.767,1635351725,incremental,ni_sequenzen,NI_Sequenzen,,,,,,,,,,,
,Screen_2,canvas.Screen,0_2_1_1,,skipped,2,66928,,,66924.20000004768,,66928.20000004768,2021-10-27T16:23:14.149Z,67103.767,1635351725,incremental,ni_sequenzen,NI_Sequenzen,,,,,,,,,,,
,Screen_3,canvas.Screen,0_2_1_2,,skipped,2,66931.29999995232,,,66924.20000004768,,66931.59999990463,2021-10-27T16:23:14.152Z,67103.767,1635351725,incremental,ni_sequenzen,NI_Sequenzen,,,,,,,,,,,
,Screen_4,canvas.Screen,0_2_1_3,,skipped,2,66936.5,,,66924.20000004768,,66936.90000009537,2021-10-27T16:23:14.158Z,67103.767,1635351725,incremental,ni_sequenzen,NI_Sequenzen,,,,,,,,,,,
,Screen_5,canvas.Screen,0_2_1_4,,skipped,2,66940.40000009537,,,66924.20000004768,,66940.70000004768,2021-10-27T16:23:14.162Z,67103.767,1635351725,incremental,ni_sequenzen,NI_Sequenzen,,,,,,,,,,,
,Screen_6,canvas.Screen,0_2_1_5,,skipped,2,66944.29999995232,,,66924.20000004768,,66944.40000009537,2021-10-27T16:23:14.165Z,67103.767,1635351725,incremental,ni_sequenzen,NI_Sequenzen,,,,,,,,,,,
,Sequence,flow.Sequence,0_2_1,,completion,2,66920.09999990463,,,66924.20000004768,,66944.70000004768,2021-10-27T16:23:14.166Z,67103.767,1635351725,incremental,ni_sequenzen,NI_Sequenzen,,,,,,,,,,,
,Screen_1,canvas.Screen,0_2_2_0,,skipped,3,66947.09999990463,,,66947.09999990463,,66947.20000004768,2021-10-27T16:23:14.168Z,67103.767,1635351725,incremental,ni_sequenzen,NI_Sequenzen,,,,,,,,,,,
,Screen_2,canvas.Screen,0_2_2_1,,skipped,3,66948.40000009537,,,66947.09999990463,,66948.5,2021-10-27T16:23:14.169Z,67103.767,1635351725,incremental,ni_sequenzen,NI_Sequenzen,,,,,,,,,,,
,Screen_3,canvas.Screen,0_2_2_2,,skipped,3,66949.79999995232,,,66947.09999990463,,66949.79999995232,2021-10-27T16:23:14.171Z,67103.767,1635351725,incremental,ni_sequenzen,NI_Sequenzen,,,,,,,,,,,
,Screen_4,canvas.Screen,0_2_2_3,,skipped,3,66951,,,66947.09999990463,,66951.09999990463,2021-10-27T16:23:14.172Z,67103.767,1635351725,incremental,ni_sequenzen,NI_Sequenzen,,,,,,,,,,,
,Screen_5,canvas.Screen,0_2_2_4,,skipped,3,66952.29999995232,,,66947.09999990463,,66952.5,2021-10-27T16:23:14.173Z,67103.767,1635351725,incremental,ni_sequenzen,NI_Sequenzen,,,,,,,,,,,
,Screen_6,canvas.Screen,0_2_2_5,,skipped,3,66953.40000009537,,,66947.09999990463,,66953.40000009537,2021-10-27T16:23:14.174Z,67103.767,1635351725,incremental,ni_sequenzen,NI_Sequenzen,,,,,,,,,,,
,Sequence,flow.Sequence,0_2_2,,completion,3,66945.5,,,66947.09999990463,,66953.59999990463,2021-10-27T16:23:14.174Z,67103.767,1635351725,incremental,ni_sequenzen,NI_Sequenzen,,,,,,,,,,,
,Screen_1,canvas.Screen,0_2_3_0,,skipped,4,66955,,,66955,,66955.09999990463,2021-10-27T16:23:14.176Z,67103.767,1635351725,incremental,ni_sequenzen,NI_Sequenzen,,,,,,,,,,,
,Screen_2,canvas.Screen,0_2_3_1,,skipped,4,66956.90000009537,,,66955,,66957,2021-10-27T16:23:14.178Z,67103.767,1635351725,incremental,ni_sequenzen,NI_Sequenzen,,,,,,,,,,,
,Screen_3,canvas.Screen,0_2_3_2,,skipped,4,66957.90000009537,,,66955,,66958,2021-10-27T16:23:14.179Z,67103.767,1635351725,incremental,ni_sequenzen,NI_Sequenzen,,,,,,,,,,,
,Screen_4,canvas.Screen,0_2_3_3,,skipped,4,66958.70000004768,,,66955,,66958.79999995232,2021-10-27T16:23:14.180Z,67103.767,1635351725,incremental,ni_sequenzen,NI_Sequenzen,,,,,,,,,,,
,Screen_5,canvas.Screen,0_2_3_4,,skipped,4,66959.5,,,66955,,66959.59999990463,2021-10-27T16:23:14.180Z,67103.767,1635351725,incremental,ni_sequenzen,NI_Sequenzen,,,,,,,,,,,
,Screen_6,canvas.Screen,0_2_3_5,,skipped,4,66960.29999995232,,,66955,,66960.29999995232,2021-10-27T16:23:14.181Z,67103.767,1635351725,incremental,ni_sequenzen,NI_Sequenzen,,,,,,,,,,,
,Sequence,flow.Sequence,0_2_3,,completion,4,66954.09999990463,,,66955,,66960.5,2021-10-27T16:23:14.181Z,67103.767,1635351725,incremental,ni_sequenzen,NI_Sequenzen,,,,,,,,,,,
,Screen_1,canvas.Screen,0_2_4_0,,skipped,5,66961.5,,,66961.5,,66961.70000004768,2021-10-27T16:23:14.182Z,67103.767,1635351725,incremental,ni_sequenzen,NI_Sequenzen,,,,,,,,,,,
,Screen_2,canvas.Screen,0_2_4_1,,skipped,5,66962.40000009537,,,66961.5,,66962.5,2021-10-27T16:23:14.183Z,67103.767,1635351725,incremental,ni_sequenzen,NI_Sequenzen,,,,,,,,,,,
,Screen_3,canvas.Screen,0_2_4_2,,skipped,5,66963.09999990463,,,66961.5,,66963.09999990463,2021-10-27T16:23:14.184Z,67103.767,1635351725,incremental,ni_sequenzen,NI_Sequenzen,,,,,,,,,,,
,Screen_4,canvas.Screen,0_2_4_3,,skipped,5,66963.70000004768,,,66961.5,,66963.79999995232,2021-10-27T16:23:14.185Z,67103.767,1635351725,incremental,ni_sequenzen,NI_Sequenzen,,,,,,,,,,,
,Screen_5,canvas.Screen,0_2_4_4,,skipped,5,66964.29999995232,,,66961.5,,66964.40000009537,2021-10-27T16:23:14.185Z,67103.767,1635351725,incremental,ni_sequenzen,NI_Sequenzen,,,,,,,,,,,
,Screen_6,canvas.Screen,0_2_4_5,,skipped,5,66965.09999990463,,,66961.5,,66965.09999990463,2021-10-27T16:23:14.186Z,67103.767,1635351725,incremental,ni_sequenzen,NI_Sequenzen,,,,,,,,,,,
,Sequence,flow.Sequence,0_2_4,,completion,5,66960.79999995232,,,66961.5,,66965.20000004768,2021-10-27T16:23:14.186Z,67103.767,1635351725,incremental,ni_sequenzen,NI_Sequenzen,,,,,,,,,,,
,Screen_1,canvas.Screen,0_2_5_0,,skipped,6,66966.09999990463,,,66966.09999990463,,66966.20000004768,2021-10-27T16:23:14.187Z,67103.767,1635351725,incremental,ni_sequenzen,NI_Sequenzen,,,,,,,,,,,
,Screen_2,canvas.Screen,0_2_5_1,,skipped,6,66967,,,66966.09999990463,,66967,2021-10-27T16:23:14.188Z,67103.767,1635351725,incremental,ni_sequenzen,NI_Sequenzen,,,,,,,,,,,
,Screen_3,canvas.Screen,0_2_5_2,,skipped,6,66967.70000004768,,,66966.09999990463,,66967.70000004768,2021-10-27T16:23:14.189Z,67103.767,1635351725,incremental,ni_sequenzen,NI_Sequenzen,,,,,,,,,,,
,Screen_4,canvas.Screen,0_2_5_3,,skipped,6,66969,,,66966.09999990463,,66969,2021-10-27T16:23:14.190Z,67103.767,1635351725,incremental,ni_sequenzen,NI_Sequenzen,,,,,,,,,,,
,Screen_5,canvas.Screen,0_2_5_4,,skipped,6,66969.70000004768,,,66966.09999990463,,66969.70000004768,2021-10-27T16:23:14.191Z,67103.767,1635351725,incremental,ni_sequenzen,NI_Sequenzen,,,,,,,,,,,
,Screen_6,canvas.Screen,0_2_5_5,,skipped,6,66970.5,,,66966.09999990463,,66970.5,2021-10-27T16:23:14.191Z,67103.767,1635351725,incremental,ni_sequenzen,NI_Sequenzen,,,,,,,,,,,
,Sequence,flow.Sequence,0_2_5,,completion,6,66965.5,,,66966.09999990463,,66970.59999990463,2021-10-27T16:23:14.191Z,67103.767,1635351725,incremental,ni_sequenzen,NI_Sequenzen,,,,,,,,,,,
,Screen_1,canvas.Screen,0_2_6_0,,skipped,7,66971.5,,,66971.5,,66971.5,2021-10-27T16:23:14.192Z,67103.767,1635351725,incremental,ni_sequenzen,NI_Sequenzen,,,,,,,,,,,
,Screen_2,canvas.Screen,0_2_6_1,,skipped,7,66972,,,66971.5,,66972.09999990463,2021-10-27T16:23:14.193Z,67103.767,1635351725,incremental,ni_sequenzen,NI_Sequenzen,,,,,,,,,,,
,Screen_3,canvas.Screen,0_2_6_2,,skipped,7,66972.59999990463,,,66971.5,,66972.70000004768,2021-10-27T16:23:14.193Z,67103.767,1635351725,incremental,ni_sequenzen,NI_Sequenzen,,,,,,,,,,,
,Screen_4,canvas.Screen,0_2_6_3,,skipped,7,66973.20000004768,,,66971.5,,66973.20000004768,2021-10-27T16:23:14.194Z,67103.767,1635351725,incremental,ni_sequenzen,NI_Sequenzen,,,,,,,,,,,
,Screen_5,canvas.Screen,0_2_6_4,,skipped,7,66973.70000004768,,,66971.5,,66973.79999995232,2021-10-27T16:23:14.195Z,67103.767,1635351725,incremental,ni_sequenzen,NI_Sequenzen,,,,,,,,,,,
,Screen_6,canvas.Screen,0_2_6_5,,skipped,7,66974.29999995232,,,66971.5,,66974.29999995232,2021-10-27T16:23:14.195Z,67103.767,1635351725,incremental,ni_sequenzen,NI_Sequenzen,,,,,,,,,,,
,Sequence,flow.Sequence,0_2_6,,completion,7,66970.79999995232,,,66971.5,,66974.40000009537,2021-10-27T16:23:14.195Z,67103.767,1635351725,incremental,ni_sequenzen,NI_Sequenzen,,,,,,,,,,,
,Screen_1,canvas.Screen,0_2_7_0,,skipped,8,66975.09999990463,,,66975.09999990463,,66975.09999990463,2021-10-27T16:23:14.196Z,67103.767,1635351725,incremental,ni_sequenzen,NI_Sequenzen,,,,,,,,,,,
,Screen_2,canvas.Screen,0_2_7_1,,skipped,8,66975.70000004768,,,66975.09999990463,,66975.70000004768,2021-10-27T16:23:14.197Z,67103.767,1635351725,incremental,ni_sequenzen,NI_Sequenzen,,,,,,,,,,,
,Screen_3,canvas.Screen,0_2_7_2,,skipped,8,66976.20000004768,,,66975.09999990463,,66976.20000004768,2021-10-27T16:23:14.197Z,67103.767,1635351725,incremental,ni_sequenzen,NI_Sequenzen,,,,,,,,,,,
,Screen_4,canvas.Screen,0_2_7_3,,skipped,8,66976.79999995232,,,66975.09999990463,,66976.79999995232,2021-10-27T16:23:14.198Z,67103.767,1635351725,incremental,ni_sequenzen,NI_Sequenzen,,,,,,,,,,,
,Screen_5,canvas.Screen,0_2_7_4,,skipped,8,66977.79999995232,,,66975.09999990463,,66977.90000009537,2021-10-27T16:23:14.199Z,67103.767,1635351725,incremental,ni_sequenzen,NI_Sequenzen,,,,,,,,,,,
,Screen_6,canvas.Screen,0_2_7_5,,skipped,8,66978.5,,,66975.09999990463,,66978.5,2021-10-27T16:23:14.199Z,67103.767,1635351725,incremental,ni_sequenzen,NI_Sequenzen,,,,,,,,,,,
,Sequence,flow.Sequence,0_2_7,,completion,8,66974.70000004768,,,66975.09999990463,,66978.59999990463,2021-10-27T16:23:14.199Z,67103.767,1635351725,incremental,ni_sequenzen,NI_Sequenzen,,,,,,,,,,,
,Screen_1,canvas.Screen,0_2_8_0,,skipped,9,66979.29999995232,,,66979.29999995232,,66979.40000009537,2021-10-27T16:23:14.200Z,67103.767,1635351725,incremental,ni_sequenzen,NI_Sequenzen,,,,,,,,,,,
,Screen_2,canvas.Screen,0_2_8_1,,skipped,9,66979.90000009537,,,66979.29999995232,,66980,2021-10-27T16:23:14.201Z,67103.767,1635351725,incremental,ni_sequenzen,NI_Sequenzen,,,,,,,,,,,
,Screen_3,canvas.Screen,0_2_8_2,,skipped,9,66980.40000009537,,,66979.29999995232,,66980.5,2021-10-27T16:23:14.201Z,67103.767,1635351725,incremental,ni_sequenzen,NI_Sequenzen,,,,,,,,,,,
,Screen_4,canvas.Screen,0_2_8_3,,skipped,9,66980.90000009537,,,66979.29999995232,,66981,2021-10-27T16:23:14.202Z,67103.767,1635351725,incremental,ni_sequenzen,NI_Sequenzen,,,,,,,,,,,
,Screen_5,canvas.Screen,0_2_8_4,,skipped,9,66981.59999990463,,,66979.29999995232,,66981.59999990463,2021-10-27T16:23:14.202Z,67103.767,1635351725,incremental,ni_sequenzen,NI_Sequenzen,,,,,,,,,,,
,Screen_6,canvas.Screen,0_2_8_5,,skipped,9,66982,,,66979.29999995232,,66982.09999990463,2021-10-27T16:23:14.203Z,67103.767,1635351725,incremental,ni_sequenzen,NI_Sequenzen,,,,,,,,,,,
,Sequence,flow.Sequence,0_2_8,,completion,9,66978.90000009537,,,66979.29999995232,,66982.20000004768,2021-10-27T16:23:14.203Z,67103.767,1635351725,incremental,ni_sequenzen,NI_Sequenzen,,,,,,,,,,,
,Screen_1,canvas.Screen,0_2_9_0,,skipped,10,66983,,,66983,,66983.09999990463,2021-10-27T16:23:14.204Z,67103.767,1635351725,incremental,ni_sequenzen,NI_Sequenzen,,,,,,,,,,,
,Screen_2,canvas.Screen,0_2_9_1,,skipped,10,66983.70000004768,,,66983,,66983.70000004768,2021-10-27T16:23:14.205Z,67103.767,1635351725,incremental,ni_sequenzen,NI_Sequenzen,,,,,,,,,,,
,Screen_3,canvas.Screen,0_2_9_2,,skipped,10,66984.20000004768,,,66983,,66984.20000004768,2021-10-27T16:23:14.205Z,67103.767,1635351725,incremental,ni_sequenzen,NI_Sequenzen,,,,,,,,,,,
,Screen_4,canvas.Screen,0_2_9_3,,skipped,10,66984.90000009537,,,66983,,66984.90000009537,2021-10-27T16:23:14.206Z,67103.767,1635351725,incremental,ni_sequenzen,NI_Sequenzen,,,,,,,,,,,
,Screen_5,canvas.Screen,0_2_9_4,,skipped,10,66985.70000004768,,,66983,,66985.70000004768,2021-10-27T16:23:14.207Z,67103.767,1635351725,incremental,ni_sequenzen,NI_Sequenzen,,,,,,,,,,,
,Screen_6,canvas.Screen,0_2_9_5,,skipped,10,66986.5,,,66983,,66986.59999990463,2021-10-27T16:23:14.207Z,67103.767,1635351725,incremental,ni_sequenzen,NI_Sequenzen,,,,,,,,,,,
,Sequence,flow.Sequence,0_2_9,,completion,10,66982.5,,,66983,,66986.70000004768,2021-10-27T16:23:14.208Z,67103.767,1635351725,incremental,ni_sequenzen,NI_Sequenzen,,,,,,,,,,,
,Screen_1,canvas.Screen,0_2_10_0,,skipped,11,66988.29999995232,,,66988.29999995232,,66988.40000009537,2021-10-27T16:23:14.209Z,67103.767,1635351725,incremental,ni_sequenzen,NI_Sequenzen,,,,,,,,,,,
,Screen_2,canvas.Screen,0_2_10_1,,skipped,11,66989,,,66988.29999995232,,66989.09999990463,2021-10-27T16:23:14.210Z,67103.767,1635351725,incremental,ni_sequenzen,NI_Sequenzen,,,,,,,,,,,
,Screen_3,canvas.Screen,0_2_10_2,,skipped,11,66989.59999990463,,,66988.29999995232,,66989.59999990463,2021-10-27T16:23:14.210Z,67103.767,1635351725,incremental,ni_sequenzen,NI_Sequenzen,,,,,,,,,,,
,Screen_4,canvas.Screen,0_2_10_3,,skipped,11,66990.09999990463,,,66988.29999995232,,66990.20000004768,2021-10-27T16:23:14.211Z,67103.767,1635351725,incremental,ni_sequenzen,NI_Sequenzen,,,,,,,,,,,
,Screen_5,canvas.Screen,0_2_10_4,,skipped,11,66990.70000004768,,,66988.29999995232,,66990.70000004768,2021-10-27T16:23:14.212Z,67103.767,1635351725,incremental,ni_sequenzen,NI_Sequenzen,,,,,,,,,,,
,Screen_6,canvas.Screen,0_2_10_5,,skipped,11,66991.20000004768,,,66988.29999995232,,66991.20000004768,2021-10-27T16:23:14.212Z,67103.767,1635351725,incremental,ni_sequenzen,NI_Sequenzen,,,,,,,,,,,
,Sequence,flow.Sequence,0_2_10,,completion,11,66987,,,66988.29999995232,,66991.40000009537,2021-10-27T16:23:14.212Z,67103.767,1635351725,incremental,ni_sequenzen,NI_Sequenzen,,,,,,,,,,,
,Screen_1,canvas.Screen,0_2_11_0,,skipped,12,66992.09999990463,,,66992.09999990463,,66992.09999990463,2021-10-27T16:23:14.213Z,67103.767,1635351725,incremental,ni_sequenzen,NI_Sequenzen,,,,,,,,,,,
,Screen_2,canvas.Screen,0_2_11_1,,skipped,12,66992.59999990463,,,66992.09999990463,,66992.70000004768,2021-10-27T16:23:14.213Z,67103.767,1635351725,incremental,ni_sequenzen,NI_Sequenzen,,,,,,,,,,,
,Screen_3,canvas.Screen,0_2_11_2,,skipped,12,66993.20000004768,,,66992.09999990463,,66993.20000004768,2021-10-27T16:23:14.214Z,67103.767,1635351725,incremental,ni_sequenzen,NI_Sequenzen,,,,,,,,,,,
,Screen_4,canvas.Screen,0_2_11_3,,skipped,12,66993.70000004768,,,66992.09999990463,,66993.70000004768,2021-10-27T16:23:14.215Z,67103.767,1635351725,incremental,ni_sequenzen,NI_Sequenzen,,,,,,,,,,,
,Screen_5,canvas.Screen,0_2_11_4,,skipped,12,66994.20000004768,,,66992.09999990463,,66994.20000004768,2021-10-27T16:23:14.215Z,67103.767,1635351725,incremental,ni_sequenzen,NI_Sequenzen,,,,,,,,,,,
,Screen_6,canvas.Screen,0_2_11_5,,skipped,12,66994.79999995232,,,66992.09999990463,,66994.79999995232,2021-10-27T16:23:14.216Z,67103.767,1635351725,incremental,ni_sequenzen,NI_Sequenzen,,,,,,,,,,,
,Sequence,flow.Sequence,0_2_11,,completion,12,66991.59999990463,,,66992.09999990463,,66994.90000009537,2021-10-27T16:23:14.216Z,67103.767,1635351725,incremental,ni_sequenzen,NI_Sequenzen,,,,,,,,,,,
,Screen_1,canvas.Screen,0_2_12_0,,skipped,13,66995.5,,,66995.59999990463,,66995.59999990463,2021-10-27T16:23:14.216Z,67103.767,1635351725,incremental,ni_sequenzen,NI_Sequenzen,,,,,,,,,,,
,Screen_2,canvas.Screen,0_2_12_1,,skipped,13,66996.70000004768,,,66995.59999990463,,66996.70000004768,2021-10-27T16:23:14.218Z,67103.767,1635351725,incremental,ni_sequenzen,NI_Sequenzen,,,,,,,,,,,
,Screen_3,canvas.Screen,0_2_12_2,,skipped,13,66997.29999995232,,,66995.59999990463,,66997.29999995232,2021-10-27T16:23:14.218Z,67103.767,1635351725,incremental,ni_sequenzen,NI_Sequenzen,,,,,,,,,,,
,Screen_4,canvas.Screen,0_2_12_3,,skipped,13,66997.90000009537,,,66995.59999990463,,66997.90000009537,2021-10-27T16:23:14.219Z,67103.767,1635351725,incremental,ni_sequenzen,NI_Sequenzen,,,,,,,,,,,
,Screen_5,canvas.Screen,0_2_12_4,,skipped,13,66998.40000009537,,,66995.59999990463,,66998.40000009537,2021-10-27T16:23:14.219Z,67103.767,1635351725,incremental,ni_sequenzen,NI_Sequenzen,,,,,,,,,,,
,Screen_6,canvas.Screen,0_2_12_5,,skipped,13,66998.90000009537,,,66995.59999990463,,66999,2021-10-27T16:23:14.220Z,67103.767,1635351725,incremental,ni_sequenzen,NI_Sequenzen,,,,,,,,,,,
,Sequence,flow.Sequence,0_2_12,,completion,13,66995.09999990463,,,66995.59999990463,,66999,2021-10-27T16:23:14.220Z,67103.767,1635351725,incremental,ni_sequenzen,NI_Sequenzen,,,,,,,,,,,
,Screen_1,canvas.Screen,0_2_13_0,,skipped,14,66999.79999995232,,,66999.79999995232,,66999.79999995232,2021-10-27T16:23:14.221Z,67103.767,1635351725,incremental,ni_sequenzen,NI_Sequenzen,,,,,,,,,,,
,Screen_2,canvas.Screen,0_2_13_1,,skipped,14,67000.40000009537,,,66999.79999995232,,67000.40000009537,2021-10-27T16:23:14.221Z,67103.767,1635351725,incremental,ni_sequenzen,NI_Sequenzen,,,,,,,,,,,
,Screen_3,canvas.Screen,0_2_13_2,,skipped,14,67000.90000009537,,,66999.79999995232,,67000.90000009537,2021-10-27T16:23:14.222Z,67103.767,1635351725,incremental,ni_sequenzen,NI_Sequenzen,,,,,,,,,,,
,Screen_4,canvas.Screen,0_2_13_3,,skipped,14,67001.40000009537,,,66999.79999995232,,67001.40000009537,2021-10-27T16:23:14.222Z,67103.767,1635351725,incremental,ni_sequenzen,NI_Sequenzen,,,,,,,,,,,
,Screen_5,canvas.Screen,0_2_13_4,,skipped,14,67001.90000009537,,,66999.79999995232,,67001.90000009537,2021-10-27T16:23:14.223Z,67103.767,1635351725,incremental,ni_sequenzen,NI_Sequenzen,,,,,,,,,,,
,Screen_6,canvas.Screen,0_2_13_5,,skipped,14,67002.5,,,66999.79999995232,,67002.5,2021-10-27T16:23:14.223Z,67103.767,1635351725,incremental,ni_sequenzen,NI_Sequenzen,,,,,,,,,,,
,Sequence,flow.Sequence,0_2_13,,completion,14,66999.29999995232,,,66999.79999995232,,67002.59999990463,2021-10-27T16:23:14.223Z,67103.767,1635351725,incremental,ni_sequenzen,NI_Sequenzen,,,,,,,,,,,
,Screen_1,canvas.Screen,0_2_14_0,,skipped,15,67003.29999995232,,,67003.29999995232,,67003.5,2021-10-27T16:23:14.224Z,67103.767,1635351725,incremental,ni_sequenzen,NI_Sequenzen,,,,,,,,,,,
,Screen_2,canvas.Screen,0_2_14_1,,skipped,15,67004.09999990463,,,67003.29999995232,,67004.09999990463,2021-10-27T16:23:14.225Z,67103.767,1635351725,incremental,ni_sequenzen,NI_Sequenzen,,,,,,,,,,,
,Screen_3,canvas.Screen,0_2_14_2,,skipped,15,67005.29999995232,,,67003.29999995232,,67005.40000009537,2021-10-27T16:23:14.226Z,67103.767,1635351725,incremental,ni_sequenzen,NI_Sequenzen,,,,,,,,,,,
,Screen_4,canvas.Screen,0_2_14_3,,skipped,15,67006,,,67003.29999995232,,67006.09999990463,2021-10-27T16:23:14.227Z,67103.767,1635351725,incremental,ni_sequenzen,NI_Sequenzen,,,,,,,,,,,
,Screen_5,canvas.Screen,0_2_14_4,,skipped,15,67006.5,,,67003.29999995232,,67006.5,2021-10-27T16:23:14.227Z,67103.767,1635351725,incremental,ni_sequenzen,NI_Sequenzen,,,,,,,,,,,
,Screen_6,canvas.Screen,0_2_14_5,,skipped,15,67007,,,67003.29999995232,,67007.09999990463,2021-10-27T16:23:14.228Z,67103.767,1635351725,incremental,ni_sequenzen,NI_Sequenzen,,,,,,,,,,,
,Sequence,flow.Sequence,0_2_14,,completion,15,67002.79999995232,,,67003.29999995232,,67007.20000004768,2021-10-27T16:23:14.228Z,67103.767,1635351725,incremental,ni_sequenzen,NI_Sequenzen,,,,,,,,,,,
,Screen_1,canvas.Screen,0_2_15_0,,skipped,16,67007.90000009537,,,67007.90000009537,,67008,2021-10-27T16:23:14.229Z,67103.767,1635351725,incremental,ni_sequenzen,NI_Sequenzen,,,,,,,,,,,
,Screen_2,canvas.Screen,0_2_15_1,,skipped,16,67008.40000009537,,,67007.90000009537,,67008.5,2021-10-27T16:23:14.229Z,67103.767,1635351725,incremental,ni_sequenzen,NI_Sequenzen,,,,,,,,,,,
,Screen_3,canvas.Screen,0_2_15_2,,skipped,16,67009,,,67007.90000009537,,67009.09999990463,2021-10-27T16:23:14.230Z,67103.767,1635351725,incremental,ni_sequenzen,NI_Sequenzen,,,,,,,,,,,
,Screen_4,canvas.Screen,0_2_15_3,,skipped,16,67009.5,,,67007.90000009537,,67009.5,2021-10-27T16:23:14.230Z,67103.767,1635351725,incremental,ni_sequenzen,NI_Sequenzen,,,,,,,,,,,
,Screen_5,canvas.Screen,0_2_15_4,,skipped,16,67010.09999990463,,,67007.90000009537,,67010.20000004768,2021-10-27T16:23:14.231Z,67103.767,1635351725,incremental,ni_sequenzen,NI_Sequenzen,,,,,,,,,,,
,Screen_6,canvas.Screen,0_2_15_5,,skipped,16,67010.59999990463,,,67007.90000009537,,67010.59999990463,2021-10-27T16:23:14.232Z,67103.767,1635351725,incremental,ni_sequenzen,NI_Sequenzen,,,,,,,,,,,
,Sequence,flow.Sequence,0_2_15,,completion,16,67007.40000009537,,,67007.90000009537,,67010.79999995232,2021-10-27T16:23:14.232Z,67103.767,1635351725,incremental,ni_sequenzen,NI_Sequenzen,,,,,,,,,,,
,Screen_1,canvas.Screen,0_2_16_0,,skipped,17,67011.5,,,67011.5,,67011.5,2021-10-27T16:23:14.232Z,67103.767,1635351725,incremental,ni_sequenzen,NI_Sequenzen,,,,,,,,,,,
,Screen_2,canvas.Screen,0_2_16_1,,skipped,17,67012.09999990463,,,67011.5,,67012.09999990463,2021-10-27T16:23:14.233Z,67103.767,1635351725,incremental,ni_sequenzen,NI_Sequenzen,,,,,,,,,,,
,Screen_3,canvas.Screen,0_2_16_2,,skipped,17,67012.5,,,67011.5,,67012.59999990463,2021-10-27T16:23:14.233Z,67103.767,1635351725,incremental,ni_sequenzen,NI_Sequenzen,,,,,,,,,,,
,Screen_4,canvas.Screen,0_2_16_3,,skipped,17,67013.09999990463,,,67011.5,,67013.09999990463,2021-10-27T16:23:14.234Z,67103.767,1635351725,incremental,ni_sequenzen,NI_Sequenzen,,,,,,,,,,,
,Screen_5,canvas.Screen,0_2_16_4,,skipped,17,67014.09999990463,,,67011.5,,67014.20000004768,2021-10-27T16:23:14.235Z,67103.767,1635351725,incremental,ni_sequenzen,NI_Sequenzen,,,,,,,,,,,
,Screen_6,canvas.Screen,0_2_16_5,,skipped,17,67014.59999990463,,,67011.5,,67014.79999995232,2021-10-27T16:23:14.236Z,67103.767,1635351725,incremental,ni_sequenzen,NI_Sequenzen,,,,,,,,,,,
,Sequence,flow.Sequence,0_2_16,,completion,17,67011,,,67011.5,,67014.79999995232,2021-10-27T16:23:14.236Z,67103.767,1635351725,incremental,ni_sequenzen,NI_Sequenzen,,,,,,,,,,,
,Screen_1,canvas.Screen,0_2_17_0,,skipped,18,67015.5,,,67015.5,,67015.5,2021-10-27T16:23:14.236Z,67103.767,1635351725,incremental,ni_sequenzen,NI_Sequenzen,,,,,,,,,,,
,Screen_2,canvas.Screen,0_2_17_1,,skipped,18,67016,,,67015.5,,67016,2021-10-27T16:23:14.237Z,67103.767,1635351725,incremental,ni_sequenzen,NI_Sequenzen,,,,,,,,,,,
,Screen_3,canvas.Screen,0_2_17_2,,skipped,18,67016.59999990463,,,67015.5,,67016.59999990463,2021-10-27T16:23:14.237Z,67103.767,1635351725,incremental,ni_sequenzen,NI_Sequenzen,,,,,,,,,,,
,Screen_4,canvas.Screen,0_2_17_3,,skipped,18,67017.09999990463,,,67015.5,,67017.09999990463,2021-10-27T16:23:14.238Z,67103.767,1635351725,incremental,ni_sequenzen,NI_Sequenzen,,,,,,,,,,,
,Screen_5,canvas.Screen,0_2_17_4,,skipped,18,67017.5,,,67015.5,,67017.59999990463,2021-10-27T16:23:14.238Z,67103.767,1635351725,incremental,ni_sequenzen,NI_Sequenzen,,,,,,,,,,,
,Screen_6,canvas.Screen,0_2_17_5,,skipped,18,67018.09999990463,,,67015.5,,67018.09999990463,2021-10-27T16:23:14.239Z,67103.767,1635351725,incremental,ni_sequenzen,NI_Sequenzen,,,,,,,,,,,
,Sequence,flow.Sequence,0_2_17,,completion,18,67015,,,67015.5,,67018.09999990463,2021-10-27T16:23:14.239Z,67103.767,1635351725,incremental,ni_sequenzen,NI_Sequenzen,,,,,,,,,,,
,Screen_1,canvas.Screen,0_2_18_0,,skipped,19,67018.90000009537,,,67018.90000009537,,67018.90000009537,2021-10-27T16:23:14.240Z,67103.767,1635351725,incremental,ni_sequenzen,NI_Sequenzen,,,,,,,,,,,
,Screen_2,canvas.Screen,0_2_18_1,,skipped,19,67019.40000009537,,,67018.90000009537,,67019.5,2021-10-27T16:23:14.240Z,67103.767,1635351725,incremental,ni_sequenzen,NI_Sequenzen,,,,,,,,,,,
,Screen_3,canvas.Screen,0_2_18_2,,skipped,19,67020.09999990463,,,67018.90000009537,,67020.09999990463,2021-10-27T16:23:14.241Z,67103.767,1635351725,incremental,ni_sequenzen,NI_Sequenzen,,,,,,,,,,,
,Screen_4,canvas.Screen,0_2_18_3,,skipped,19,67020.79999995232,,,67018.90000009537,,67020.90000009537,2021-10-27T16:23:14.242Z,67103.767,1635351725,incremental,ni_sequenzen,NI_Sequenzen,,,,,,,,,,,
,Screen_5,canvas.Screen,0_2_18_4,,skipped,19,67021.5,,,67018.90000009537,,67021.5,2021-10-27T16:23:14.242Z,67103.767,1635351725,incremental,ni_sequenzen,NI_Sequenzen,,,,,,,,,,,
,Screen_6,canvas.Screen,0_2_18_5,,skipped,19,67022.40000009537,,,67018.90000009537,,67022.40000009537,2021-10-27T16:23:14.243Z,67103.767,1635351725,incremental,ni_sequenzen,NI_Sequenzen,,,,,,,,,,,
,Sequence,flow.Sequence,0_2_18,,completion,19,67018.40000009537,,,67018.90000009537,,67022.59999990463,2021-10-27T16:23:14.243Z,67103.767,1635351725,incremental,ni_sequenzen,NI_Sequenzen,,,,,,,,,,,
,Screen_1,canvas.Screen,0_2_19_0,,skipped,20,67023.29999995232,,,67023.29999995232,,67023.29999995232,2021-10-27T16:23:14.244Z,67103.767,1635351725,incremental,ni_sequenzen,NI_Sequenzen,,,,,,,,,,,
,Screen_2,canvas.Screen,0_2_19_1,,skipped,20,67023.79999995232,,,67023.29999995232,,67023.90000009537,2021-10-27T16:23:14.245Z,67103.767,1635351725,incremental,ni_sequenzen,NI_Sequenzen,,,,,,,,,,,
,Screen_3,canvas.Screen,0_2_19_2,,skipped,20,67024.40000009537,,,67023.29999995232,,67024.40000009537,2021-10-27T16:23:14.245Z,67103.767,1635351725,incremental,ni_sequenzen,NI_Sequenzen,,,,,,,,,,,
,Screen_4,canvas.Screen,0_2_19_3,,skipped,20,67024.90000009537,,,67023.29999995232,,67024.90000009537,2021-10-27T16:23:14.246Z,67103.767,1635351725,incremental,ni_sequenzen,NI_Sequenzen,,,,,,,,,,,
,Screen_5,canvas.Screen,0_2_19_4,,skipped,20,67025.40000009537,,,67023.29999995232,,67025.5,2021-10-27T16:23:14.246Z,67103.767,1635351725,incremental,ni_sequenzen,NI_Sequenzen,,,,,,,,,,,
,Screen_6,canvas.Screen,0_2_19_5,,skipped,20,67025.90000009537,,,67023.29999995232,,67025.90000009537,2021-10-27T16:23:14.247Z,67103.767,1635351725,incremental,ni_sequenzen,NI_Sequenzen,,,,,,,,,,,
,Sequence,flow.Sequence,0_2_19,,completion,20,67022.79999995232,,,67023.29999995232,,67026,2021-10-27T16:23:14.247Z,67103.767,1635351725,incremental,ni_sequenzen,NI_Sequenzen,,,,,,,,,,,
,Screen_1,canvas.Screen,0_2_20_0,,skipped,21,67026.79999995232,,,67026.79999995232,,67026.79999995232,2021-10-27T16:23:14.248Z,67103.767,1635351725,incremental,ni_sequenzen,NI_Sequenzen,,,,,,,,,,,
,Screen_2,canvas.Screen,0_2_20_1,,skipped,21,67027.29999995232,,,67026.79999995232,,67027.29999995232,2021-10-27T16:23:14.248Z,67103.767,1635351725,incremental,ni_sequenzen,NI_Sequenzen,,,,,,,,,,,
,Screen_3,canvas.Screen,0_2_20_2,,skipped,21,67027.79999995232,,,67026.79999995232,,67027.79999995232,2021-10-27T16:23:14.249Z,67103.767,1635351725,incremental,ni_sequenzen,NI_Sequenzen,,,,,,,,,,,
,Screen_4,canvas.Screen,0_2_20_3,,skipped,21,67028.20000004768,,,67026.79999995232,,67028.29999995232,2021-10-27T16:23:14.249Z,67103.767,1635351725,incremental,ni_sequenzen,NI_Sequenzen,,,,,,,,,,,
,Screen_5,canvas.Screen,0_2_20_4,,skipped,21,67028.79999995232,,,67026.79999995232,,67028.79999995232,2021-10-27T16:23:14.250Z,67103.767,1635351725,incremental,ni_sequenzen,NI_Sequenzen,,,,,,,,,,,
,Screen_6,canvas.Screen,0_2_20_5,,skipped,21,67029.29999995232,,,67026.79999995232,,67029.40000009537,2021-10-27T16:23:14.250Z,67103.767,1635351725,incremental,ni_sequenzen,NI_Sequenzen,,,,,,,,,,,
,Sequence,flow.Sequence,0_2_20,,completion,21,67026.20000004768,,,67026.79999995232,,67029.40000009537,2021-10-27T16:23:14.250Z,67103.767,1635351725,incremental,ni_sequenzen,NI_Sequenzen,,,,,,,,,,,
,Screen_1,canvas.Screen,0_2_21_0,,skipped,22,67030.70000004768,,,67030.70000004768,,67030.70000004768,2021-10-27T16:23:14.252Z,67103.767,1635351725,incremental,ni_sequenzen,NI_Sequenzen,,,,,,,,,,,
,Screen_2,canvas.Screen,0_2_21_1,,skipped,22,67031.29999995232,,,67030.70000004768,,67031.29999995232,2021-10-27T16:23:14.252Z,67103.767,1635351725,incremental,ni_sequenzen,NI_Sequenzen,,,,,,,,,,,
,Screen_3,canvas.Screen,0_2_21_2,,skipped,22,67031.90000009537,,,67030.70000004768,,67032,2021-10-27T16:23:14.253Z,67103.767,1635351725,incremental,ni_sequenzen,NI_Sequenzen,,,,,,,,,,,
,Screen_4,canvas.Screen,0_2_21_3,,skipped,22,67032.40000009537,,,67030.70000004768,,67032.5,2021-10-27T16:23:14.253Z,67103.767,1635351725,incremental,ni_sequenzen,NI_Sequenzen,,,,,,,,,,,
,Screen_5,canvas.Screen,0_2_21_4,,skipped,22,67033.5,,,67030.70000004768,,67033.5,2021-10-27T16:23:14.254Z,67103.767,1635351725,incremental,ni_sequenzen,NI_Sequenzen,,,,,,,,,,,
,Screen_6,canvas.Screen,0_2_21_5,,skipped,22,67034.09999990463,,,67030.70000004768,,67034.09999990463,2021-10-27T16:23:14.255Z,67103.767,1635351725,incremental,ni_sequenzen,NI_Sequenzen,,,,,,,,,,,
,Sequence,flow.Sequence,0_2_21,,completion,22,67029.70000004768,,,67030.70000004768,,67034.20000004768,2021-10-27T16:23:14.255Z,67103.767,1635351725,incremental,ni_sequenzen,NI_Sequenzen,,,,,,,,,,,
,Screen_1,canvas.Screen,0_2_22_0,,skipped,23,67035.09999990463,,,67035.09999990463,,67035.09999990463,2021-10-27T16:23:14.256Z,67103.767,1635351725,incremental,ni_sequenzen,NI_Sequenzen,,,,,,,,,,,
,Screen_2,canvas.Screen,0_2_22_1,,skipped,23,67035.70000004768,,,67035.09999990463,,67035.79999995232,2021-10-27T16:23:14.257Z,67103.767,1635351725,incremental,ni_sequenzen,NI_Sequenzen,,,,,,,,,,,
,Screen_3,canvas.Screen,0_2_22_2,,skipped,23,67037,,,67035.09999990463,,67037.09999990463,2021-10-27T16:23:14.258Z,67103.767,1635351725,incremental,ni_sequenzen,NI_Sequenzen,,,,,,,,,,,
,Screen_4,canvas.Screen,0_2_22_3,,skipped,23,67037.90000009537,,,67035.09999990463,,67037.90000009537,2021-10-27T16:23:14.259Z,67103.767,1635351725,incremental,ni_sequenzen,NI_Sequenzen,,,,,,,,,,,
,Screen_5,canvas.Screen,0_2_22_4,,skipped,23,67038.40000009537,,,67035.09999990463,,67038.5,2021-10-27T16:23:14.259Z,67103.767,1635351725,incremental,ni_sequenzen,NI_Sequenzen,,,,,,,,,,,
,Screen_6,canvas.Screen,0_2_22_5,,skipped,23,67039,,,67035.09999990463,,67039,2021-10-27T16:23:14.260Z,67103.767,1635351725,incremental,ni_sequenzen,NI_Sequenzen,,,,,,,,,,,
,Sequence,flow.Sequence,0_2_22,,completion,23,67034.5,,,67035.09999990463,,67039.09999990463,2021-10-27T16:23:14.260Z,67103.767,1635351725,incremental,ni_sequenzen,NI_Sequenzen,,,,,,,,,,,
,Screen_1,canvas.Screen,0_2_23_0,,skipped,24,67039.90000009537,,,67039.90000009537,,67039.90000009537,2021-10-27T16:23:14.261Z,67103.767,1635351725,incremental,ni_sequenzen,NI_Sequenzen,,,,,,,,,,,
,Screen_2,canvas.Screen,0_2_23_1,,skipped,24,67040.40000009537,,,67039.90000009537,,67040.40000009537,2021-10-27T16:23:14.261Z,67103.767,1635351725,incremental,ni_sequenzen,NI_Sequenzen,,,,,,,,,,,
,Screen_3,canvas.Screen,0_2_23_2,,skipped,24,67041,,,67039.90000009537,,67041,2021-10-27T16:23:14.262Z,67103.767,1635351725,incremental,ni_sequenzen,NI_Sequenzen,,,,,,,,,,,
,Screen_4,canvas.Screen,0_2_23_3,,skipped,24,67041.5,,,67039.90000009537,,67041.5,2021-10-27T16:23:14.262Z,67103.767,1635351725,incremental,ni_sequenzen,NI_Sequenzen,,,,,,,,,,,
,Screen_5,canvas.Screen,0_2_23_4,,skipped,24,67042,,,67039.90000009537,,67042,2021-10-27T16:23:14.263Z,67103.767,1635351725,incremental,ni_sequenzen,NI_Sequenzen,,,,,,,,,,,
,Screen_6,canvas.Screen,0_2_23_5,,skipped,24,67042.5,,,67039.90000009537,,67042.59999990463,2021-10-27T16:23:14.263Z,67103.767,1635351725,incremental,ni_sequenzen,NI_Sequenzen,,,,,,,,,,,
,Sequence,flow.Sequence,0_2_23,,completion,24,67039.29999995232,,,67039.90000009537,,67042.59999990463,2021-10-27T16:23:14.263Z,67103.767,1635351725,incremental,ni_sequenzen,NI_Sequenzen,,,,,,,,,,,
,Screen_1,canvas.Screen,0_2_24_0,,skipped,25,67043.5,,,67043.5,,67043.5,2021-10-27T16:23:14.264Z,67103.767,1635351725,incremental,ni_sequenzen,NI_Sequenzen,,,,,,,,,,,
,Screen_2,canvas.Screen,0_2_24_1,,skipped,25,67044,,,67043.5,,67044.09999990463,2021-10-27T16:23:14.265Z,67103.767,1635351725,incremental,ni_sequenzen,NI_Sequenzen,,,,,,,,,,,
,Screen_3,canvas.Screen,0_2_24_2,,skipped,25,67044.5,,,67043.5,,67044.5,2021-10-27T16:23:14.265Z,67103.767,1635351725,incremental,ni_sequenzen,NI_Sequenzen,,,,,,,,,,,
,Screen_4,canvas.Screen,0_2_24_3,,skipped,25,67045,,,67043.5,,67045.09999990463,2021-10-27T16:23:14.266Z,67103.767,1635351725,incremental,ni_sequenzen,NI_Sequenzen,,,,,,,,,,,
,Screen_5,canvas.Screen,0_2_24_4,,skipped,25,67045.5,,,67043.5,,67045.59999990463,2021-10-27T16:23:14.266Z,67103.767,1635351725,incremental,ni_sequenzen,NI_Sequenzen,,,,,,,,,,,
,Screen_6,canvas.Screen,0_2_24_5,,skipped,25,67046.09999990463,,,67043.5,,67046.20000004768,2021-10-27T16:23:14.267Z,67103.767,1635351725,incremental,ni_sequenzen,NI_Sequenzen,,,,,,,,,,,
,Sequence,flow.Sequence,0_2_24,,completion,25,67042.90000009537,,,67043.5,,67046.20000004768,2021-10-27T16:23:14.267Z,67103.767,1635351725,incremental,ni_sequenzen,NI_Sequenzen,,,,,,,,,,,
,Screen_1,canvas.Screen,0_2_25_0,,skipped,26,67047,,,67047,,67047.09999990463,2021-10-27T16:23:14.268Z,67103.767,1635351725,incremental,ni_sequenzen,NI_Sequenzen,,,,,,,,,,,
,Screen_2,canvas.Screen,0_2_25_1,,skipped,26,67047.59999990463,,,67047,,67047.59999990463,2021-10-27T16:23:14.268Z,67103.767,1635351725,incremental,ni_sequenzen,NI_Sequenzen,,,,,,,,,,,
,Screen_3,canvas.Screen,0_2_25_2,,skipped,26,67048.09999990463,,,67047,,67048.20000004768,2021-10-27T16:23:14.269Z,67103.767,1635351725,incremental,ni_sequenzen,NI_Sequenzen,,,,,,,,,,,
,Screen_4,canvas.Screen,0_2_25_3,,skipped,26,67048.59999990463,,,67047,,67048.59999990463,2021-10-27T16:23:14.269Z,67103.767,1635351725,incremental,ni_sequenzen,NI_Sequenzen,,,,,,,,,,,
,Screen_5,canvas.Screen,0_2_25_4,,skipped,26,67049.20000004768,,,67047,,67049.20000004768,2021-10-27T16:23:14.270Z,67103.767,1635351725,incremental,ni_sequenzen,NI_Sequenzen,,,,,,,,,,,
,Screen_6,canvas.Screen,0_2_25_5,,skipped,26,67049.59999990463,,,67047,,67049.79999995232,2021-10-27T16:23:14.271Z,67103.767,1635351725,incremental,ni_sequenzen,NI_Sequenzen,,,,,,,,,,,
,Sequence,flow.Sequence,0_2_25,,completion,26,67046.5,,,67047,,67049.79999995232,2021-10-27T16:23:14.271Z,67103.767,1635351725,incremental,ni_sequenzen,NI_Sequenzen,,,,,,,,,,,
,Screen_1,canvas.Screen,0_2_26_0,,skipped,27,67051.29999995232,,,67051.29999995232,,67051.40000009537,2021-10-27T16:23:14.272Z,67103.767,1635351725,incremental,ni_sequenzen,NI_Sequenzen,,,,,,,,,,,
,Screen_2,canvas.Screen,0_2_26_1,,skipped,27,67051.90000009537,,,67051.29999995232,,67052.20000004768,2021-10-27T16:23:14.273Z,67103.767,1635351725,incremental,ni_sequenzen,NI_Sequenzen,,,,,,,,,,,
,Screen_3,canvas.Screen,0_2_26_2,,skipped,27,67053.20000004768,,,67051.29999995232,,67053.20000004768,2021-10-27T16:23:14.274Z,67103.767,1635351725,incremental,ni_sequenzen,NI_Sequenzen,,,,,,,,,,,
,Screen_4,canvas.Screen,0_2_26_3,,skipped,27,67053.79999995232,,,67051.29999995232,,67053.90000009537,2021-10-27T16:23:14.275Z,67103.767,1635351725,incremental,ni_sequenzen,NI_Sequenzen,,,,,,,,,,,
,Screen_5,canvas.Screen,0_2_26_4,,skipped,27,67054.29999995232,,,67051.29999995232,,67054.29999995232,2021-10-27T16:23:14.275Z,67103.767,1635351725,incremental,ni_sequenzen,NI_Sequenzen,,,,,,,,,,,
,Screen_6,canvas.Screen,0_2_26_5,,skipped,27,67054.79999995232,,,67051.29999995232,,67054.90000009537,2021-10-27T16:23:14.276Z,67103.767,1635351725,incremental,ni_sequenzen,NI_Sequenzen,,,,,,,,,,,
,Sequence,flow.Sequence,0_2_26,,completion,27,67050.09999990463,,,67051.29999995232,,67054.90000009537,2021-10-27T16:23:14.276Z,67103.767,1635351725,incremental,ni_sequenzen,NI_Sequenzen,,,,,,,,,,,
,Screen_1,canvas.Screen,0_2_27_0,,skipped,28,67055.70000004768,,,67055.70000004768,,67055.70000004768,2021-10-27T16:23:14.277Z,67103.767,1635351725,incremental,ni_sequenzen,NI_Sequenzen,,,,,,,,,,,
,Screen_2,canvas.Screen,0_2_27_1,,skipped,28,67056.20000004768,,,67055.70000004768,,67056.20000004768,2021-10-27T16:23:14.277Z,67103.767,1635351725,incremental,ni_sequenzen,NI_Sequenzen,,,,,,,,,,,
,Screen_3,canvas.Screen,0_2_27_2,,skipped,28,67056.70000004768,,,67055.70000004768,,67056.70000004768,2021-10-27T16:23:14.278Z,67103.767,1635351725,incremental,ni_sequenzen,NI_Sequenzen,,,,,,,,,,,
,Screen_4,canvas.Screen,0_2_27_3,,skipped,28,67057.20000004768,,,67055.70000004768,,67057.29999995232,2021-10-27T16:23:14.278Z,67103.767,1635351725,incremental,ni_sequenzen,NI_Sequenzen,,,,,,,,,,,
,Screen_5,canvas.Screen,0_2_27_4,,skipped,28,67057.70000004768,,,67055.70000004768,,67057.70000004768,2021-10-27T16:23:14.279Z,67103.767,1635351725,incremental,ni_sequenzen,NI_Sequenzen,,,,,,,,,,,
,Screen_6,canvas.Screen,0_2_27_5,,skipped,28,67058.20000004768,,,67055.70000004768,,67058.20000004768,2021-10-27T16:23:14.279Z,67103.767,1635351725,incremental,ni_sequenzen,NI_Sequenzen,,,,,,,,,,,
,Sequence,flow.Sequence,0_2_27,,completion,28,67055.09999990463,,,67055.70000004768,,67058.20000004768,2021-10-27T16:23:14.279Z,67103.767,1635351725,incremental,ni_sequenzen,NI_Sequenzen,,,,,,,,,,,
,Screen_1,canvas.Screen,0_2_28_0,,skipped,29,67058.90000009537,,,67059,,67059.09999990463,2021-10-27T16:23:14.280Z,67103.767,1635351725,incremental,ni_sequenzen,NI_Sequenzen,,,,,,,,,,,
,Screen_2,canvas.Screen,0_2_28_1,,skipped,29,67059.59999990463,,,67059,,67059.59999990463,2021-10-27T16:23:14.280Z,67103.767,1635351725,incremental,ni_sequenzen,NI_Sequenzen,,,,,,,,,,,
,Screen_3,canvas.Screen,0_2_28_2,,skipped,29,67060.09999990463,,,67059,,67060.09999990463,2021-10-27T16:23:14.281Z,67103.767,1635351725,incremental,ni_sequenzen,NI_Sequenzen,,,,,,,,,,,
,Screen_4,canvas.Screen,0_2_28_3,,skipped,29,67060.59999990463,,,67059,,67060.59999990463,2021-10-27T16:23:14.281Z,67103.767,1635351725,incremental,ni_sequenzen,NI_Sequenzen,,,,,,,,,,,
,Screen_5,canvas.Screen,0_2_28_4,,skipped,29,67061.09999990463,,,67059,,67061.20000004768,2021-10-27T16:23:14.282Z,67103.767,1635351725,incremental,ni_sequenzen,NI_Sequenzen,,,,,,,,,,,
,Screen_6,canvas.Screen,0_2_28_5,,skipped,29,67061.59999990463,,,67059,,67061.70000004768,2021-10-27T16:23:14.283Z,67103.767,1635351725,incremental,ni_sequenzen,NI_Sequenzen,,,,,,,,,,,
,Sequence,flow.Sequence,0_2_28,,completion,29,67058.5,,,67059,,67061.79999995232,2021-10-27T16:23:14.283Z,67103.767,1635351725,incremental,ni_sequenzen,NI_Sequenzen,,,,,,,,,,,
,Screen_1,canvas.Screen,0_2_29_0,,skipped,30,67062.59999990463,,,67062.59999990463,,67062.59999990463,2021-10-27T16:23:14.283Z,67103.767,1635351725,incremental,ni_sequenzen,NI_Sequenzen,,,,,,,,,,,
,Screen_2,canvas.Screen,0_2_29_1,,skipped,30,67063.09999990463,,,67062.59999990463,,67063.09999990463,2021-10-27T16:23:14.284Z,67103.767,1635351725,incremental,ni_sequenzen,NI_Sequenzen,,,,,,,,,,,
,Screen_3,canvas.Screen,0_2_29_2,,skipped,30,67063.70000004768,,,67062.59999990463,,67063.70000004768,2021-10-27T16:23:14.284Z,67103.767,1635351725,incremental,ni_sequenzen,NI_Sequenzen,,,,,,,,,,,
,Screen_4,canvas.Screen,0_2_29_3,,skipped,30,67064.09999990463,,,67062.59999990463,,67064.20000004768,2021-10-27T16:23:14.285Z,67103.767,1635351725,incremental,ni_sequenzen,NI_Sequenzen,,,,,,,,,,,
,Screen_5,canvas.Screen,0_2_29_4,,skipped,30,67064.70000004768,,,67062.59999990463,,67064.70000004768,2021-10-27T16:23:14.286Z,67103.767,1635351725,incremental,ni_sequenzen,NI_Sequenzen,,,,,,,,,,,
,Screen_6,canvas.Screen,0_2_29_5,,skipped,30,67065.20000004768,,,67062.59999990463,,67065.20000004768,2021-10-27T16:23:14.286Z,67103.767,1635351725,incremental,ni_sequenzen,NI_Sequenzen,,,,,,,,,,,
,Sequence,flow.Sequence,0_2_29,,completion,30,67062,,,67062.59999990463,,67065.40000009537,2021-10-27T16:23:14.286Z,67103.767,1635351725,incremental,ni_sequenzen,NI_Sequenzen,,,,,,,,,,,
,Instructions_II,flow.Loop,0_2,,completion,,53354.40000009537,53350.609,53366.856,67062.59999990463,13695.743999904633,67065.40000009537,2021-10-27T16:23:14.286Z,67103.767,1635351725,incremental,ni_sequenzen,NI_Sequenzen,,,,,,,,,,,
,Move,canvas.Screen,0_3_0_0_0_0,right,response,,67089,67087.117,67103.767,68326,1222.232999999993,68327.29999995232,2021-10-27T16:23:15.548Z,68337.102,1635351725,incremental,ni_sequenzen,NI_Sequenzen,1,0,,,,,,,,,
,Move,canvas.Screen,0_3_0_0_0_1,right,response,,68331.79999995232,68320.329,68337.102,68951.20000004768,614.0980000476848,68964.20000004768,2021-10-27T16:23:16.185Z,68970.518,1635351725,incremental,ni_sequenzen,NI_Sequenzen,2,0,,,,,,,,,
,Move,canvas.Screen,0_3_0_0_0_2,down,response,,68966,68954.072,68970.518,70118.79999995232,1148.28199995232,70119.90000009537,2021-10-27T16:23:17.341Z,70137.47,1635351725,incremental,ni_sequenzen,NI_Sequenzen,3,0,,,,,,,,,
,Move,canvas.Screen,0_3_0_0_0_3,down,response,,70129.20000004768,70121.06,70137.47,70454,316.52999999999884,70455.40000009537,2021-10-27T16:23:17.676Z,70487.983,1635351725,incremental,ni_sequenzen,NI_Sequenzen,4,0,,,,,,,,,
,Move,canvas.Screen,0_3_0_0_0_4,-999,skipped,,70460.20000004768,,,70454,,70460.20000004768,2021-10-27T16:23:17.681Z,70487.983,1635351725,incremental,ni_sequenzen,NI_Sequenzen,5,0,,,,,,,,,
,Move,canvas.Screen,0_3_0_0_0_5,-999,skipped,,70461.90000009537,,,70454,,70462,2021-10-27T16:23:17.683Z,70487.983,1635351725,incremental,ni_sequenzen,NI_Sequenzen,6,0,,,,,,,,,
,Move,canvas.Screen,0_3_0_0_0_6,-999,skipped,,70464,,,70454,,70464.09999990463,2021-10-27T16:23:17.685Z,70487.983,1635351725,incremental,ni_sequenzen,NI_Sequenzen,7,0,,,,,,,,,
,Move,canvas.Screen,0_3_0_0_0_7,-999,skipped,,70465.29999995232,,,70454,,70465.40000009537,2021-10-27T16:23:17.686Z,70487.983,1635351725,incremental,ni_sequenzen,NI_Sequenzen,8,0,,,,,,,,,
,Move,canvas.Screen,0_3_0_0_0_8,-999,skipped,,70466.40000009537,,,70454,,70466.5,2021-10-27T16:23:17.687Z,70487.983,1635351725,incremental,ni_sequenzen,NI_Sequenzen,9,0,,,,,,,,,
,Move,canvas.Screen,0_3_0_0_0_9,-999,skipped,,70467.59999990463,,,70454,,70467.70000004768,2021-10-27T16:23:17.689Z,70487.983,1635351725,incremental,ni_sequenzen,NI_Sequenzen,10,0,,,,,,,,,
,Move,canvas.Screen,0_3_0_0_0_10,-999,skipped,,70469.40000009537,,,70454,,70469.5,2021-10-27T16:23:17.690Z,70487.983,1635351725,incremental,ni_sequenzen,NI_Sequenzen,11,0,,,,,,,,,
,Move,canvas.Screen,0_3_0_0_0_11,-999,skipped,,70470.70000004768,,,70454,,70470.70000004768,2021-10-27T16:23:17.692Z,70487.983,1635351725,incremental,ni_sequenzen,NI_Sequenzen,12,0,,,,,,,,,
,Move,canvas.Screen,0_3_0_0_0_12,-999,skipped,,70472.29999995232,,,70454,,70472.29999995232,2021-10-27T16:23:17.693Z,70487.983,1635351725,incremental,ni_sequenzen,NI_Sequenzen,13,0,,,,,,,,,
,Move,canvas.Screen,0_3_0_0_0_13,-999,skipped,,70473.90000009537,,,70454,,70474,2021-10-27T16:23:17.695Z,70487.983,1635351725,incremental,ni_sequenzen,NI_Sequenzen,14,0,,,,,,,,,
,Move,canvas.Screen,0_3_0_0_0_14,-999,skipped,,70475.59999990463,,,70454,,70475.70000004768,2021-10-27T16:23:17.697Z,70487.983,1635351725,incremental,ni_sequenzen,NI_Sequenzen,15,0,,,,,,,,,
,Loop,flow.Loop,0_3_0_0_0,-999,completion,,67085.79999995232,67087.117,67103.767,70454,3350.232999999993,70475.79999995232,2021-10-27T16:23:17.697Z,70487.983,1635351725,incremental,ni_sequenzen,NI_Sequenzen,,0,,,,,,,,,
,Feedback,canvas.Screen,0_3_0_0_1,,timeout,,70477.09999990463,70471.354,70487.983,74472.229,4000.571000000011,74474,2021-10-27T16:23:21.695Z,74488.554,1635351725,incremental,ni_sequenzen,NI_Sequenzen,,0,,,,,,,,,
,Trial,flow.Sequence,0_3_0_0,,completion,,67076.40000009537,67087.117,67103.767,74472.229,7368.4619999999995,74474.29999995232,2021-10-27T16:23:21.695Z,74505.612,1635351725,incremental,ni_sequenzen,NI_Sequenzen,,0,,,,,,,,,
,Move,canvas.Screen,0_3_0_1_0_0,right,response,,74484.79999995232,74488.554,74505.612,76664,2158.3880000000063,76665.09999990463,2021-10-27T16:23:23.886Z,76672.425,1635351725,incremental,ni_sequenzen,NI_Sequenzen,1,1,,,,,,,,,
,Move,canvas.Screen,0_3_0_1_0_1,down,response,,76669.29999995232,76656.054,76672.425,77966.09999990463,1293.6749999046297,77967.40000009537,2021-10-27T16:23:25.188Z,77990.583,1635351725,incremental,ni_sequenzen,NI_Sequenzen,2,1,,,,,,,,,
,Move,canvas.Screen,0_3_0_1_0_2,down,response,,77972.09999990463,77956.428,77990.583,78501,510.4170000000013,78502.20000004768,2021-10-27T16:23:25.723Z,78522.987,1635351725,incremental,ni_sequenzen,NI_Sequenzen,3,1,,,,,,,,,
,Move,canvas.Screen,0_3_0_1_0_3,left,response,,78509.90000009537,78506.84,78522.987,79354.40000009537,831.4130000953737,79355.70000004768,2021-10-27T16:23:26.576Z,79389.793,1635351725,incremental,ni_sequenzen,NI_Sequenzen,4,1,,,,,,,,,
,Move,canvas.Screen,0_3_0_1_0_4,down,response,,79366.79999995232,79356.697,79389.793,80286,896.2069999999949,80287.09999990463,2021-10-27T16:23:27.508Z,80340.004,1635351725,incremental,ni_sequenzen,NI_Sequenzen,5,1,,,,,,,,,
,Move,canvas.Screen,0_3_0_1_0_5,-999,skipped,,80294.59999990463,,,80286,,80295,2021-10-27T16:23:27.516Z,80340.004,1635351725,incremental,ni_sequenzen,NI_Sequenzen,6,1,,,,,,,,,
,Move,canvas.Screen,0_3_0_1_0_6,-999,skipped,,80301.20000004768,,,80286,,80301.40000009537,2021-10-27T16:23:27.522Z,80340.004,1635351725,incremental,ni_sequenzen,NI_Sequenzen,7,1,,,,,,,,,
,Move,canvas.Screen,0_3_0_1_0_7,-999,skipped,,80307.20000004768,,,80286,,80307.40000009537,2021-10-27T16:23:27.528Z,80340.004,1635351725,incremental,ni_sequenzen,NI_Sequenzen,8,1,,,,,,,,,
,Move,canvas.Screen,0_3_0_1_0_8,-999,skipped,,80314.09999990463,,,80286,,80314.29999995232,2021-10-27T16:23:27.535Z,80340.004,1635351725,incremental,ni_sequenzen,NI_Sequenzen,9,1,,,,,,,,,
,Move,canvas.Screen,0_3_0_1_0_9,-999,skipped,,80319.09999990463,,,80286,,80319.20000004768,2021-10-27T16:23:27.540Z,80340.004,1635351725,incremental,ni_sequenzen,NI_Sequenzen,10,1,,,,,,,,,
,Move,canvas.Screen,0_3_0_1_0_10,-999,skipped,,80322.70000004768,,,80286,,80322.70000004768,2021-10-27T16:23:27.544Z,80340.004,1635351725,incremental,ni_sequenzen,NI_Sequenzen,11,1,,,,,,,,,
,Move,canvas.Screen,0_3_0_1_0_11,-999,skipped,,80326,,,80286,,80326,2021-10-27T16:23:27.547Z,80340.004,1635351725,incremental,ni_sequenzen,NI_Sequenzen,12,1,,,,,,,,,
,Move,canvas.Screen,0_3_0_1_0_12,-999,skipped,,80328.20000004768,,,80286,,80328.29999995232,2021-10-27T16:23:27.549Z,80340.004,1635351725,incremental,ni_sequenzen,NI_Sequenzen,13,1,,,,,,,,,
,Move,canvas.Screen,0_3_0_1_0_13,-999,skipped,,80330.09999990463,,,80286,,80330.09999990463,2021-10-27T16:23:27.551Z,80340.004,1635351725,incremental,ni_sequenzen,NI_Sequenzen,14,1,,,,,,,,,
,Move,canvas.Screen,0_3_0_1_0_14,-999,skipped,,80333.29999995232,,,80286,,80333.29999995232,2021-10-27T16:23:27.554Z,80340.004,1635351725,incremental,ni_sequenzen,NI_Sequenzen,15,1,,,,,,,,,
,Loop,flow.Loop,0_3_0_1_0,-999,completion,,74483.20000004768,74488.554,74505.612,80286,5780.388000000006,80333.5,2021-10-27T16:23:27.554Z,80340.004,1635351725,incremental,ni_sequenzen,NI_Sequenzen,,1,,,,,,,,,
,Feedback,canvas.Screen,0_3_0_1_1,,timeout,,80335.20000004768,80323.327,80340.004,84324.504,4000.998999999996,84326.20000004768,2021-10-27T16:23:31.547Z,84341.003,1635351725,incremental,ni_sequenzen,NI_Sequenzen,,1,,,,,,,,,
,Trial,flow.Sequence,0_3_0_1,,completion,,74475.29999995232,74488.554,74505.612,84324.504,9818.892000000007,84326.29999995232,2021-10-27T16:23:31.547Z,84357.974,1635351725,incremental,ni_sequenzen,NI_Sequenzen,,1,,,,,,,,,
,Move,canvas.Screen,0_3_0_2_0_0,right,response,,84336.90000009537,84341.003,84357.974,84903.40000009537,545.4260000953655,84903.90000009537,2021-10-27T16:23:32.125Z,84939.588,1635351725,incremental,ni_sequenzen,NI_Sequenzen,1,2,,,,,,,,,
,Move,canvas.Screen,0_3_0_2_0_1,down,response,,84907.20000004768,84891.555,84939.588,86002.59999990463,1063.0119999046292,86003.09999990463,2021-10-27T16:23:33.224Z,86026.255,1635351725,incremental,ni_sequenzen,NI_Sequenzen,2,2,,,,,,,,,
,Move,canvas.Screen,0_3_0_2_0_2,down,response,,86006.90000009537,85991.802,86026.255,86547.70000004768,521.4450000476791,86549,2021-10-27T16:23:33.770Z,86558.253,1635351725,incremental,ni_sequenzen,NI_Sequenzen,3,2,,,,,,,,,
,Move,canvas.Screen,0_3_0_2_0_3,left,response,,86553.90000009537,86541.812,86558.253,89045.29999995232,2487.0469999523193,89045.59999990463,2021-10-27T16:23:36.266Z,,1635351725,incremental,ni_sequenzen,NI_Sequenzen,4,2,,,,,,,,,
,Move,canvas.Screen,0_3_0_2_0_4,down,response,,89048.70000004768,89042.2,89058.826,91528.59999990463,2469.7739999046316,91529.79999995232,2021-10-27T16:23:38.751Z,91559.715,1635351725,incremental,ni_sequenzen,NI_Sequenzen,5,2,,,,,,,,,
,Move,canvas.Screen,0_3_0_2_0_5,-999,skipped,,91535.20000004768,,,91528.59999990463,,91535.29999995232,2021-10-27T16:23:38.756Z,91559.715,1635351725,incremental,ni_sequenzen,NI_Sequenzen,6,2,,,,,,,,,
,Move,canvas.Screen,0_3_0_2_0_6,-999,skipped,,91537.09999990463,,,91528.59999990463,,91537.09999990463,2021-10-27T16:23:38.758Z,91559.715,1635351725,incremental,ni_sequenzen,NI_Sequenzen,7,2,,,,,,,,,
,Move,canvas.Screen,0_3_0_2_0_7,-999,skipped,,91538.5,,,91528.59999990463,,91538.5,2021-10-27T16:23:38.759Z,91559.715,1635351725,incremental,ni_sequenzen,NI_Sequenzen,8,2,,,,,,,,,
,Move,canvas.Screen,0_3_0_2_0_8,-999,skipped,,91540.20000004768,,,91528.59999990463,,91540.20000004768,2021-10-27T16:23:38.761Z,91559.715,1635351725,incremental,ni_sequenzen,NI_Sequenzen,9,2,,,,,,,,,
,Move,canvas.Screen,0_3_0_2_0_9,-999,skipped,,91541.90000009537,,,91528.59999990463,,91542,2021-10-27T16:23:38.763Z,91559.715,1635351725,incremental,ni_sequenzen,NI_Sequenzen,10,2,,,,,,,,,
,Move,canvas.Screen,0_3_0_2_0_10,-999,skipped,,91543.59999990463,,,91528.59999990463,,91543.59999990463,2021-10-27T16:23:38.764Z,91559.715,1635351725,incremental,ni_sequenzen,NI_Sequenzen,11,2,,,,,,,,,
,Move,canvas.Screen,0_3_0_2_0_11,-999,skipped,,91544.90000009537,,,91528.59999990463,,91544.90000009537,2021-10-27T16:23:38.766Z,91559.715,1635351725,incremental,ni_sequenzen,NI_Sequenzen,12,2,,,,,,,,,
,Move,canvas.Screen,0_3_0_2_0_12,-999,skipped,,91546.20000004768,,,91528.59999990463,,91546.29999995232,2021-10-27T16:23:38.767Z,91559.715,1635351725,incremental,ni_sequenzen,NI_Sequenzen,13,2,,,,,,,,,
,Move,canvas.Screen,0_3_0_2_0_13,-999,skipped,,91548.09999990463,,,91528.59999990463,,91548.09999990463,2021-10-27T16:23:38.769Z,91559.715,1635351725,incremental,ni_sequenzen,NI_Sequenzen,14,2,,,,,,,,,
,Move,canvas.Screen,0_3_0_2_0_14,-999,skipped,,91549.5,,,91528.59999990463,,91549.5,2021-10-27T16:23:38.770Z,91559.715,1635351725,incremental,ni_sequenzen,NI_Sequenzen,15,2,,,,,,,,,
,Loop,flow.Loop,0_3_0_2_0,-999,completion,,84334.79999995232,84341.003,84357.974,91528.59999990463,7170.625999904631,91549.59999990463,2021-10-27T16:23:38.770Z,91559.715,1635351725,incremental,ni_sequenzen,NI_Sequenzen,,2,,,,,,,,,
,Feedback,canvas.Screen,0_3_0_2_1,,timeout,,91550.90000009537,91542.664,91559.715,95544.312,4001.1399999999994,95545.5,2021-10-27T16:23:42.766Z,95560.855,1635351725,incremental,ni_sequenzen,NI_Sequenzen,,2,,,,,,,,,
,Trial,flow.Sequence,0_3_0_2,,completion,,84326.5,84341.003,84357.974,95544.312,11186.338000000003,95545.59999990463,2021-10-27T16:23:42.766Z,95577.546,1635351725,incremental,ni_sequenzen,NI_Sequenzen,,2,,,,,,,,,
,Move,canvas.Screen,0_3_0_3_0_0,right,response,,95554.79999995232,95560.855,95577.546,95618.90000009537,41.354000095365336,95619.40000009537,2021-10-27T16:23:42.840Z,95644.021,1635351725,incremental,ni_sequenzen,NI_Sequenzen,1,3,,,,,,,,,
,Move,canvas.Screen,0_3_0_3_0_1,right,response,,95622.5,95627.13,95644.021,96861.40000009537,1217.379000095374,96862.70000004768,2021-10-27T16:23:44.083Z,96877.684,1635351725,incremental,ni_sequenzen,NI_Sequenzen,2,3,,,,,,,,,
,Move,canvas.Screen,0_3_0_3_0_2,down,response,,96868,96861.12,96877.684,97687.79999995232,810.1159999523225,97688.20000004768,2021-10-27T16:23:44.909Z,97694.305,1635351725,incremental,ni_sequenzen,NI_Sequenzen,3,3,,,,,,,,,
,Move,canvas.Screen,0_3_0_3_0_3,down,response,,97689.59999990463,97677.604,97694.305,98291.79999995232,597.4949999523233,98294,2021-10-27T16:23:45.515Z,98327.822,1635351725,incremental,ni_sequenzen,NI_Sequenzen,4,3,,,,,,,,,
,Move,canvas.Screen,0_3_0_3_0_4,-999,skipped,,98300.70000004768,,,98291.79999995232,,98300.90000009537,2021-10-27T16:23:45.522Z,98327.822,1635351725,incremental,ni_sequenzen,NI_Sequenzen,5,3,,,,,,,,,
,Move,canvas.Screen,0_3_0_3_0_5,-999,skipped,,98302.20000004768,,,98291.79999995232,,98302.29999995232,2021-10-27T16:23:45.523Z,98327.822,1635351725,incremental,ni_sequenzen,NI_Sequenzen,6,3,,,,,,,,,
,Move,canvas.Screen,0_3_0_3_0_6,-999,skipped,,98303.59999990463,,,98291.79999995232,,98303.70000004768,2021-10-27T16:23:45.524Z,98327.822,1635351725,incremental,ni_sequenzen,NI_Sequenzen,7,3,,,,,,,,,
,Move,canvas.Screen,0_3_0_3_0_7,-999,skipped,,98305.40000009537,,,98291.79999995232,,98305.5,2021-10-27T16:23:45.526Z,98327.822,1635351725,incremental,ni_sequenzen,NI_Sequenzen,8,3,,,,,,,,,
,Move,canvas.Screen,0_3_0_3_0_8,-999,skipped,,98306.70000004768,,,98291.79999995232,,98306.70000004768,2021-10-27T16:23:45.528Z,98327.822,1635351725,incremental,ni_sequenzen,NI_Sequenzen,9,3,,,,,,,,,
,Move,canvas.Screen,0_3_0_3_0_9,-999,skipped,,98308,,,98291.79999995232,,98308,2021-10-27T16:23:45.529Z,98327.822,1635351725,incremental,ni_sequenzen,NI_Sequenzen,10,3,,,,,,,,,
,Move,canvas.Screen,0_3_0_3_0_10,-999,skipped,,98309.90000009537,,,98291.79999995232,,98310,2021-10-27T16:23:45.531Z,98327.822,1635351725,incremental,ni_sequenzen,NI_Sequenzen,11,3,,,,,,,,,
,Move,canvas.Screen,0_3_0_3_0_11,-999,skipped,,98311.29999995232,,,98291.79999995232,,98311.29999995232,2021-10-27T16:23:45.532Z,98327.822,1635351725,incremental,ni_sequenzen,NI_Sequenzen,12,3,,,,,,,,,
,Move,canvas.Screen,0_3_0_3_0_12,-999,skipped,,98312.70000004768,,,98291.79999995232,,98312.79999995232,2021-10-27T16:23:45.534Z,98327.822,1635351725,incremental,ni_sequenzen,NI_Sequenzen,13,3,,,,,,,,,
,Move,canvas.Screen,0_3_0_3_0_13,-999,skipped,,98314.20000004768,,,98291.79999995232,,98314.20000004768,2021-10-27T16:23:45.535Z,98327.822,1635351725,incremental,ni_sequenzen,NI_Sequenzen,14,3,,,,,,,,,
,Move,canvas.Screen,0_3_0_3_0_14,-999,skipped,,98315.5,,,98291.79999995232,,98315.5,2021-10-27T16:23:45.536Z,98327.822,1635351725,incremental,ni_sequenzen,NI_Sequenzen,15,3,,,,,,,,,
,Loop,flow.Loop,0_3_0_3_0,-999,completion,,95552.70000004768,95560.855,95577.546,98291.79999995232,2714.253999952314,98315.5,2021-10-27T16:23:45.536Z,98327.822,1635351725,incremental,ni_sequenzen,NI_Sequenzen,,3,,,,,,,,,
,Feedback,canvas.Screen,0_3_0_3_1,,timeout,,98316.70000004768,98311.525,98327.822,102312.793,4000.9689999999973,102314,2021-10-27T16:23:49.535Z,102328.791,1635351725,incremental,ni_sequenzen,NI_Sequenzen,,3,,,,,,,,,
,Trial,flow.Sequence,0_3_0_3,,completion,,95545.70000004768,95560.855,95577.546,102312.793,6735.247000000003,102314.29999995232,2021-10-27T16:23:49.535Z,102345.73,1635351725,incremental,ni_sequenzen,NI_Sequenzen,,3,,,,,,,,,
,Move,canvas.Screen,0_3_0_4_0_0,left,response,,102327.59999990463,102328.791,102345.73,104294.90000009537,1949.1700000953715,104295.29999995232,2021-10-27T16:23:51.516Z,104312.633,1635351725,incremental,ni_sequenzen,NI_Sequenzen,1,4,,,,,,,,,
,Move,canvas.Screen,0_3_0_4_0_1,right,response,,104297.20000004768,104296.035,104312.633,105703.20000004768,1390.567000047682,105705.09999990463,2021-10-27T16:23:52.926Z,105712.954,1635351725,incremental,ni_sequenzen,NI_Sequenzen,2,4,,,,,,,,,
,Move,canvas.Screen,0_3_0_4_0_2,down,response,,105710.20000004768,105696.483,105712.954,106542.70000004768,829.7460000476858,106545,2021-10-27T16:23:53.766Z,106563.211,1635351725,incremental,ni_sequenzen,NI_Sequenzen,3,4,,,,,,,,,
,Move,canvas.Screen,0_3_0_4_0_3,down,response,,106552.59999990463,106546.511,106563.211,107003.29999995232,440.0889999523206,107004.09999990463,2021-10-27T16:23:54.225Z,107013.28,1635351725,incremental,ni_sequenzen,NI_Sequenzen,4,4,,,,,,,,,
,Move,canvas.Screen,0_3_0_4_0_4,down,response,,107009.29999995232,106997.131,107013.28,108052.90000009537,1039.6200000953686,108054.20000004768,2021-10-27T16:23:55.275Z,108063.591,1635351725,incremental,ni_sequenzen,NI_Sequenzen,5,4,,,,,,,,,
,Move,canvas.Screen,0_3_0_4_0_5,right,response,,108058.40000009537,108047.234,108063.591,108795,731.4089999999997,108796.20000004768,2021-10-27T16:23:56.017Z,108830.662,1635351725,incremental,ni_sequenzen,NI_Sequenzen,6,4,,,,,,,,,
,Move,canvas.Screen,0_3_0_4_0_6,-999,skipped,,108801,,,108795,,108801.09999990463,2021-10-27T16:23:56.022Z,108830.662,1635351725,incremental,ni_sequenzen,NI_Sequenzen,7,4,,,,,,,,,
,Move,canvas.Screen,0_3_0_4_0_7,-999,skipped,,108803,,,108795,,108803,2021-10-27T16:23:56.024Z,108830.662,1635351725,incremental,ni_sequenzen,NI_Sequenzen,8,4,,,,,,,,,
,Move,canvas.Screen,0_3_0_4_0_8,-999,skipped,,108804.29999995232,,,108795,,108804.40000009537,2021-10-27T16:23:56.025Z,108830.662,1635351725,incremental,ni_sequenzen,NI_Sequenzen,9,4,,,,,,,,,
,Move,canvas.Screen,0_3_0_4_0_9,-999,skipped,,108805.70000004768,,,108795,,108805.70000004768,2021-10-27T16:23:56.027Z,108830.662,1635351725,incremental,ni_sequenzen,NI_Sequenzen,10,4,,,,,,,,,
,Move,canvas.Screen,0_3_0_4_0_10,-999,skipped,,108807.20000004768,,,108795,,108807.29999995232,2021-10-27T16:23:56.028Z,108830.662,1635351725,incremental,ni_sequenzen,NI_Sequenzen,11,4,,,,,,,,,
,Move,canvas.Screen,0_3_0_4_0_11,-999,skipped,,108810,,,108795,,108810.09999990463,2021-10-27T16:23:56.031Z,108830.662,1635351725,incremental,ni_sequenzen,NI_Sequenzen,12,4,,,,,,,,,
,Move,canvas.Screen,0_3_0_4_0_12,-999,skipped,,108811.40000009537,,,108795,,108811.5,2021-10-27T16:23:56.032Z,108830.662,1635351725,incremental,ni_sequenzen,NI_Sequenzen,13,4,,,,,,,,,
,Move,canvas.Screen,0_3_0_4_0_13,-999,skipped,,108812.70000004768,,,108795,,108812.70000004768,2021-10-27T16:23:56.034Z,108830.662,1635351725,incremental,ni_sequenzen,NI_Sequenzen,14,4,,,,,,,,,
,Move,canvas.Screen,0_3_0_4_0_14,-999,skipped,,108814.59999990463,,,108795,,108814.59999990463,2021-10-27T16:23:56.036Z,108830.662,1635351725,incremental,ni_sequenzen,NI_Sequenzen,15,4,,,,,,,,,
,Loop,flow.Loop,0_3_0_4_0,-999,completion,,102326,102328.791,102345.73,108795,6449.270000000004,108814.70000004768,2021-10-27T16:23:56.036Z,108830.662,1635351725,incremental,ni_sequenzen,NI_Sequenzen,,4,,,,,,,,,
,Feedback,canvas.Screen,0_3_0_4_1,,timeout,,108816.79999995232,108814.058,108830.662,112814.766,4000.725000000006,112815.29999995232,2021-10-27T16:24:00.036Z,112831.387,1635351725,incremental,ni_sequenzen,NI_Sequenzen,,4,,,,,,,,,
,Trial,flow.Sequence,0_3_0_4,,completion,,102315.09999990463,102328.791,102345.73,112814.766,10469.036000000007,112815.40000009537,2021-10-27T16:24:00.036Z,112848.098,1635351725,incremental,ni_sequenzen,NI_Sequenzen,,4,,,,,,,,,
,Move,canvas.Screen,0_3_0_5_0_0,right,response,,112829.79999995232,112831.387,112848.098,113401.90000009537,553.8020000953693,113403.09999990463,2021-10-27T16:24:00.624Z,113415.146,1635351725,incremental,ni_sequenzen,NI_Sequenzen,1,5,,,,,,,,,
,Move,canvas.Screen,0_3_0_5_0_1,right,response,,113407.59999990463,113398.229,113415.146,113789.20000004768,374.05400004769035,113789.59999990463,2021-10-27T16:24:01.011Z,113798.304,1635351725,incremental,ni_sequenzen,NI_Sequenzen,2,5,,,,,,,,,
,Move,canvas.Screen,0_3_0_5_0_2,down,response,,113791.5,113782.066,113798.304,114419.79999995232,621.4959999523126,114420.09999990463,2021-10-27T16:24:01.641Z,114431.789,1635351725,incremental,ni_sequenzen,NI_Sequenzen,3,5,,,,,,,,,
,Move,canvas.Screen,0_3_0_5_0_3,down,response,,114421.59999990463,114415.129,114431.789,114924.29999995232,492.510999952312,114924.79999995232,2021-10-27T16:24:02.146Z,114948.633,1635351725,incremental,ni_sequenzen,NI_Sequenzen,4,5,,,,,,,,,
,Move,canvas.Screen,0_3_0_5_0_4,-999,skipped,,114926.90000009537,,,114924.29999995232,,114926.90000009537,2021-10-27T16:24:02.148Z,114948.633,1635351725,incremental,ni_sequenzen,NI_Sequenzen,5,5,,,,,,,,,
,Move,canvas.Screen,0_3_0_5_0_5,-999,skipped,,114928.70000004768,,,114924.29999995232,,114928.70000004768,2021-10-27T16:24:02.150Z,114948.633,1635351725,incremental,ni_sequenzen,NI_Sequenzen,6,5,,,,,,,,,
,Move,canvas.Screen,0_3_0_5_0_6,-999,skipped,,114930.79999995232,,,114924.29999995232,,114930.90000009537,2021-10-27T16:24:02.152Z,114948.633,1635351725,incremental,ni_sequenzen,NI_Sequenzen,7,5,,,,,,,,,
,Move,canvas.Screen,0_3_0_5_0_7,-999,skipped,,114933,,,114924.29999995232,,114933.09999990463,2021-10-27T16:24:02.154Z,114948.633,1635351725,incremental,ni_sequenzen,NI_Sequenzen,8,5,,,,,,,,,
,Move,canvas.Screen,0_3_0_5_0_8,-999,skipped,,114934.59999990463,,,114924.29999995232,,114934.59999990463,2021-10-27T16:24:02.156Z,114948.633,1635351725,incremental,ni_sequenzen,NI_Sequenzen,9,5,,,,,,,,,
,Move,canvas.Screen,0_3_0_5_0_9,-999,skipped,,114936.29999995232,,,114924.29999995232,,114936.40000009537,2021-10-27T16:24:02.157Z,114948.633,1635351725,incremental,ni_sequenzen,NI_Sequenzen,10,5,,,,,,,,,
,Move,canvas.Screen,0_3_0_5_0_10,-999,skipped,,114938.29999995232,,,114924.29999995232,,114938.29999995232,2021-10-27T16:24:02.159Z,114948.633,1635351725,incremental,ni_sequenzen,NI_Sequenzen,11,5,,,,,,,,,
,Move,canvas.Screen,0_3_0_5_0_11,-999,skipped,,114939.70000004768,,,114924.29999995232,,114939.70000004768,2021-10-27T16:24:02.161Z,114948.633,1635351725,incremental,ni_sequenzen,NI_Sequenzen,12,5,,,,,,,,,
,Move,canvas.Screen,0_3_0_5_0_12,-999,skipped,,114941.40000009537,,,114924.29999995232,,114941.5,2021-10-27T16:24:02.162Z,114948.633,1635351725,incremental,ni_sequenzen,NI_Sequenzen,13,5,,,,,,,,,
,Move,canvas.Screen,0_3_0_5_0_13,-999,skipped,,114943.20000004768,,,114924.29999995232,,114943.29999995232,2021-10-27T16:24:02.164Z,114948.633,1635351725,incremental,ni_sequenzen,NI_Sequenzen,14,5,,,,,,,,,
,Move,canvas.Screen,0_3_0_5_0_14,-999,skipped,,114944.90000009537,,,114924.29999995232,,114945,2021-10-27T16:24:02.166Z,114948.633,1635351725,incremental,ni_sequenzen,NI_Sequenzen,15,5,,,,,,,,,
,Loop,flow.Loop,0_3_0_5_0,-999,completion,,112826.79999995232,112831.387,112848.098,114924.29999995232,2076.201999952318,114945.20000004768,2021-10-27T16:24:02.166Z,114948.633,1635351725,incremental,ni_sequenzen,NI_Sequenzen,,5,,,,,,,,,
,Feedback,canvas.Screen,0_3_0_5_1,,timeout,,114946.40000009537,114932.306,114948.633,118955.09999990463,24589.464000000007,118955.29999995232,2021-10-27T16:24:06.176Z,139538.097,1635351725,incremental,ni_sequenzen,NI_Sequenzen,,5,,,,,,,,,
,Trial,flow.Sequence,0_3_0_5,,completion,,112815.70000004768,112831.387,112848.098,118955.09999990463,6107.001999904634,118955.40000009537,2021-10-27T16:24:06.176Z,139638.025,1635351725,incremental,ni_sequenzen,NI_Sequenzen,,5,,,,,,,,,
,Move,canvas.Screen,0_3_0_6_0_0,right,response,,118964.79999995232,139538.097,139638.025,143363.5,3725.475000000006,143369.09999990463,2021-10-27T16:24:30.590Z,143422.336,1635351725,incremental,ni_sequenzen,NI_Sequenzen,1,6,,,,,,,,,
,Move,canvas.Screen,0_3_0_6_0_1,down,response,,143390.90000009537,143388.934,143422.336,144491,1068.6639999999898,144491.59999990463,2021-10-27T16:24:31.713Z,144505.9,1635351725,incremental,ni_sequenzen,NI_Sequenzen,2,6,,,,,,,,,
,Move,canvas.Screen,0_3_0_6_0_2,down,response,,144493.70000004768,144489.365,144505.9,145001.90000009537,496.00000009537325,145003.59999990463,2021-10-27T16:24:32.225Z,145023.116,1635351725,incremental,ni_sequenzen,NI_Sequenzen,3,6,,,,,,,,,
,Move,canvas.Screen,0_3_0_6_0_3,down,response,,145012,145006.458,145023.116,149769.70000004768,4746.584000047675,149771.40000009537,2021-10-27T16:24:36.992Z,149807.221,1635351725,incremental,ni_sequenzen,NI_Sequenzen,4,6,,,,,,,,,
,Move,canvas.Screen,0_3_0_6_0_4,-999,skipped,,149781.5,,,149769.70000004768,,149781.59999990463,2021-10-27T16:24:37.003Z,149807.221,1635351725,incremental,ni_sequenzen,NI_Sequenzen,5,6,,,,,,,,,
,Move,canvas.Screen,0_3_0_6_0_5,-999,skipped,,149783.5,,,149769.70000004768,,149783.5,2021-10-27T16:24:37.005Z,149807.221,1635351725,incremental,ni_sequenzen,NI_Sequenzen,6,6,,,,,,,,,
,Move,canvas.Screen,0_3_0_6_0_6,-999,skipped,,149785,,,149769.70000004768,,149785.09999990463,2021-10-27T16:24:37.006Z,149807.221,1635351725,incremental,ni_sequenzen,NI_Sequenzen,7,6,,,,,,,,,
,Move,canvas.Screen,0_3_0_6_0_7,-999,skipped,,149786.79999995232,,,149769.70000004768,,149786.90000009537,2021-10-27T16:24:37.008Z,149807.221,1635351725,incremental,ni_sequenzen,NI_Sequenzen,8,6,,,,,,,,,
,Move,canvas.Screen,0_3_0_6_0_8,-999,skipped,,149788.09999990463,,,149769.70000004768,,149788.20000004768,2021-10-27T16:24:37.009Z,149807.221,1635351725,incremental,ni_sequenzen,NI_Sequenzen,9,6,,,,,,,,,
,Move,canvas.Screen,0_3_0_6_0_9,-999,skipped,,149789.40000009537,,,149769.70000004768,,149789.5,2021-10-27T16:24:37.010Z,149807.221,1635351725,incremental,ni_sequenzen,NI_Sequenzen,10,6,,,,,,,,,
,Move,canvas.Screen,0_3_0_6_0_10,-999,skipped,,149790.70000004768,,,149769.70000004768,,149790.79999995232,2021-10-27T16:24:37.012Z,149807.221,1635351725,incremental,ni_sequenzen,NI_Sequenzen,11,6,,,,,,,,,
,Move,canvas.Screen,0_3_0_6_0_11,-999,skipped,,149793.20000004768,,,149769.70000004768,,149793.29999995232,2021-10-27T16:24:37.014Z,149807.221,1635351725,incremental,ni_sequenzen,NI_Sequenzen,12,6,,,,,,,,,
,Move,canvas.Screen,0_3_0_6_0_12,-999,skipped,,149794.70000004768,,,149769.70000004768,,149794.70000004768,2021-10-27T16:24:37.016Z,149807.221,1635351725,incremental,ni_sequenzen,NI_Sequenzen,13,6,,,,,,,,,
,Move,canvas.Screen,0_3_0_6_0_13,-999,skipped,,149796,,,149769.70000004768,,149796,2021-10-27T16:24:37.017Z,149807.221,1635351725,incremental,ni_sequenzen,NI_Sequenzen,14,6,,,,,,,,,
,Move,canvas.Screen,0_3_0_6_0_14,-999,skipped,,149797.90000009537,,,149769.70000004768,,149797.90000009537,2021-10-27T16:24:37.019Z,149807.221,1635351725,incremental,ni_sequenzen,NI_Sequenzen,15,6,,,,,,,,,
,Loop,flow.Loop,0_3_0_6_0,-999,completion,,118963.20000004768,139538.097,139638.025,149769.70000004768,10131.67500004769,149798,2021-10-27T16:24:37.019Z,149807.221,1635351725,incremental,ni_sequenzen,NI_Sequenzen,,6,,,,,,,,,
,Feedback,canvas.Screen,0_3_0_6_1,,timeout,,149799.29999995232,149790.729,149807.221,153792.147,4017.676999999996,153798.59999990463,2021-10-27T16:24:41.020Z,153824.898,1635351725,incremental,ni_sequenzen,NI_Sequenzen,,6,,,,,,,,,
,Trial,flow.Sequence,0_3_0_6,,completion,,118955.59999990463,139538.097,139638.025,153792.147,14154.122000000003,153799.09999990463,2021-10-27T16:24:41.020Z,153841.552,1635351725,incremental,ni_sequenzen,NI_Sequenzen,,6,,,,,,,,,
,Move,canvas.Screen,0_3_0_7_0_0,right,response,,153830.29999995232,153824.898,153841.552,157010.09999990463,3168.5479999046365,157011.5,2021-10-27T16:24:44.233Z,157025.719,1635351725,incremental,ni_sequenzen,NI_Sequenzen,1,7,,,,,,,,,
,Move,canvas.Screen,0_3_0_7_0_1,down,response,,157019.59999990463,157009.562,157025.719,157994.70000004768,968.9810000476718,157996.20000004768,2021-10-27T16:24:45.217Z,158009.25,1635351725,incremental,ni_sequenzen,NI_Sequenzen,2,7,,,,,,,,,
,Move,canvas.Screen,0_3_0_7_0_2,down,response,,157999,157993.022,158009.25,158972.90000009537,963.6500000953674,158974.59999990463,2021-10-27T16:24:46.196Z,158992.935,1635351725,incremental,ni_sequenzen,NI_Sequenzen,3,7,,,,,,,,,
,Move,canvas.Screen,0_3_0_7_0_3,right,response,,158985.29999995232,158976.47,158992.935,164676.09999990463,5683.164999904635,164677.29999995232,2021-10-27T16:24:51.898Z,164727.61,1635351725,incremental,ni_sequenzen,NI_Sequenzen,4,7,,,,,,,,,
,Move,canvas.Screen,0_3_0_7_0_4,-999,skipped,,164686.90000009537,,,164676.09999990463,,164687.40000009537,2021-10-27T16:24:51.908Z,164727.61,1635351725,incremental,ni_sequenzen,NI_Sequenzen,5,7,,,,,,,,,
,Move,canvas.Screen,0_3_0_7_0_5,-999,skipped,,164693.70000004768,,,164676.09999990463,,164693.90000009537,2021-10-27T16:24:51.915Z,164727.61,1635351725,incremental,ni_sequenzen,NI_Sequenzen,6,7,,,,,,,,,
,Move,canvas.Screen,0_3_0_7_0_6,-999,skipped,,164698,,,164676.09999990463,,164698.20000004768,2021-10-27T16:24:51.919Z,164727.61,1635351725,incremental,ni_sequenzen,NI_Sequenzen,7,7,,,,,,,,,
,Move,canvas.Screen,0_3_0_7_0_7,-999,skipped,,164702,,,164676.09999990463,,164702.09999990463,2021-10-27T16:24:51.923Z,164727.61,1635351725,incremental,ni_sequenzen,NI_Sequenzen,8,7,,,,,,,,,
,Move,canvas.Screen,0_3_0_7_0_8,-999,skipped,,164704.59999990463,,,164676.09999990463,,164704.70000004768,2021-10-27T16:24:51.926Z,164727.61,1635351725,incremental,ni_sequenzen,NI_Sequenzen,9,7,,,,,,,,,
,Move,canvas.Screen,0_3_0_7_0_9,-999,skipped,,164707.29999995232,,,164676.09999990463,,164707.40000009537,2021-10-27T16:24:51.928Z,164727.61,1635351725,incremental,ni_sequenzen,NI_Sequenzen,10,7,,,,,,,,,
,Move,canvas.Screen,0_3_0_7_0_10,-999,skipped,,164709.90000009537,,,164676.09999990463,,164710.09999990463,2021-10-27T16:24:51.931Z,164727.61,1635351725,incremental,ni_sequenzen,NI_Sequenzen,11,7,,,,,,,,,
,Move,canvas.Screen,0_3_0_7_0_11,-999,skipped,,164712.90000009537,,,164676.09999990463,,164713,2021-10-27T16:24:51.934Z,164727.61,1635351725,incremental,ni_sequenzen,NI_Sequenzen,12,7,,,,,,,,,
,Move,canvas.Screen,0_3_0_7_0_12,-999,skipped,,164714.70000004768,,,164676.09999990463,,164714.90000009537,2021-10-27T16:24:51.936Z,164727.61,1635351725,incremental,ni_sequenzen,NI_Sequenzen,13,7,,,,,,,,,
,Move,canvas.Screen,0_3_0_7_0_13,-999,skipped,,164716.40000009537,,,164676.09999990463,,164716.5,2021-10-27T16:24:51.937Z,164727.61,1635351725,incremental,ni_sequenzen,NI_Sequenzen,14,7,,,,,,,,,
,Move,canvas.Screen,0_3_0_7_0_14,-999,skipped,,164718.59999990463,,,164676.09999990463,,164718.70000004768,2021-10-27T16:24:51.940Z,164727.61,1635351725,incremental,ni_sequenzen,NI_Sequenzen,15,7,,,,,,,,,
,Loop,flow.Loop,0_3_0_7_0,-999,completion,,153827.09999990463,153824.898,153841.552,164676.09999990463,10834.547999904637,164718.70000004768,2021-10-27T16:24:51.940Z,164727.61,1635351725,incremental,ni_sequenzen,NI_Sequenzen,,7,,,,,,,,,
,Feedback,canvas.Screen,0_3_0_7_1,,timeout,,164719.90000009537,164710.906,164727.61,168712.095,4017.6500000000233,168713.59999990463,2021-10-27T16:24:55.935Z,168745.26,1635351725,incremental,ni_sequenzen,NI_Sequenzen,,7,,,,,,,,,
,Trial,flow.Sequence,0_3_0_7,,completion,,153800.29999995232,153824.898,153841.552,168712.095,14870.543000000005,168714,2021-10-27T16:24:55.935Z,168761.919,1635351725,incremental,ni_sequenzen,NI_Sequenzen,,7,,,,,,,,,
,Move,canvas.Screen,0_3_0_8_0_0,right,response,,168750,168745.26,168761.919,170587.70000004768,1825.7810000476893,170588.20000004768,2021-10-27T16:24:57.809Z,170595.73,1635351725,incremental,ni_sequenzen,NI_Sequenzen,1,8,,,,,,,,,
,Move,canvas.Screen,0_3_0_8_0_1,down,response,,170590.59999990463,170579.294,170595.73,171473.20000004768,877.4700000476732,171473.5,2021-10-27T16:24:58.695Z,171479.255,1635351725,incremental,ni_sequenzen,NI_Sequenzen,2,8,,,,,,,,,
,Move,canvas.Screen,0_3_0_8_0_2,down,response,,171475.09999990463,171462.559,171479.255,171769.20000004768,289.94500004767906,171770.20000004768,2021-10-27T16:24:58.991Z,171779.364,1635351725,incremental,ni_sequenzen,NI_Sequenzen,3,8,,,,,,,,,
,Move,canvas.Screen,0_3_0_8_0_3,right,response,,171776.09999990463,171762.66,171779.364,172361.29999995232,581.9359999523149,172361.70000004768,2021-10-27T16:24:59.583Z,172396.179,1635351725,incremental,ni_sequenzen,NI_Sequenzen,4,8,,,,,,,,,
,Move,canvas.Screen,0_3_0_8_0_4,-999,skipped,,172363.59999990463,,,172361.29999995232,,172363.70000004768,2021-10-27T16:24:59.585Z,172396.179,1635351725,incremental,ni_sequenzen,NI_Sequenzen,5,8,,,,,,,,,
,Move,canvas.Screen,0_3_0_8_0_5,-999,skipped,,172365.5,,,172361.29999995232,,172365.59999990463,2021-10-27T16:24:59.587Z,172396.179,1635351725,incremental,ni_sequenzen,NI_Sequenzen,6,8,,,,,,,,,
,Move,canvas.Screen,0_3_0_8_0_6,-999,skipped,,172367.90000009537,,,172361.29999995232,,172368,2021-10-27T16:24:59.589Z,172396.179,1635351725,incremental,ni_sequenzen,NI_Sequenzen,7,8,,,,,,,,,
,Move,canvas.Screen,0_3_0_8_0_7,-999,skipped,,172369.59999990463,,,172361.29999995232,,172369.59999990463,2021-10-27T16:24:59.591Z,172396.179,1635351725,incremental,ni_sequenzen,NI_Sequenzen,8,8,,,,,,,,,
,Move,canvas.Screen,0_3_0_8_0_8,-999,skipped,,172371.20000004768,,,172361.29999995232,,172371.29999995232,2021-10-27T16:24:59.592Z,172396.179,1635351725,incremental,ni_sequenzen,NI_Sequenzen,9,8,,,,,,,,,
,Move,canvas.Screen,0_3_0_8_0_9,-999,skipped,,172383.5,,,172361.29999995232,,172383.70000004768,2021-10-27T16:24:59.605Z,172396.179,1635351725,incremental,ni_sequenzen,NI_Sequenzen,10,8,,,,,,,,,
