meta,sender,sender_type,sender_id,response,ended_on,instrCount,time_run,time_render,time_show,time_end,duration,time_commit,timestamp,time_switch,openLabId,type,task,project,move,trialN,blockN_Train,blockN,moveCount,currPP,points,movesTrial,visitedFields,diff,reward,Strategie,Zweck,Probleme
[object Object],Screen_1,canvas.Screen,0_0_0_0,cont,response,1,2187,2230.78,2280.76,69309,67028.24,69317,2021-11-02T15:48:06.267Z,69342.62,1635863919,incremental,ni_sequenzen,NI_Sequenzen,,,,,,,,,,,,,,
,Screen_2,canvas.Screen,0_0_0_1,cont,response,1,69333,69333.14,69342.62,69682,339.38000000000466,69691,2021-11-02T15:48:06.639Z,69708.72,1635863919,incremental,ni_sequenzen,NI_Sequenzen,,,,,,,,,,,,,,
,Screen_3,canvas.Screen,0_0_0_2,cont,response,1,69701,69700.52,69708.72,69910,201.27999999999884,69916,2021-11-02T15:48:06.865Z,69925.06,1635863919,incremental,ni_sequenzen,NI_Sequenzen,,,,,,,,,,,,,,
,Screen_4,canvas.Screen,0_0_0_3,cont,response,1,69921,69920.62,69925.06,70305,379.9400000000023,70315,2021-11-02T15:48:07.264Z,70573.98,1635863919,incremental,ni_sequenzen,NI_Sequenzen,,,,,,,,,,,,,,
,Sequence,flow.Sequence,0_0_0,,completion,1,2159,2230.78,2280.76,70305,68024.24,70317,2021-11-02T15:48:07.267Z,70573.98,1635863919,incremental,ni_sequenzen,NI_Sequenzen,,,,,,,,,,,,,,
,Screen_1,canvas.Screen,0_0_1_0,,skipped,2,70322,,,70322,,70323,2021-11-02T15:48:07.272Z,70573.98,1635863919,incremental,ni_sequenzen,NI_Sequenzen,,,,,,,,,,,,,,
,Screen_2,canvas.Screen,0_0_1_1,,skipped,2,70325,,,70322,,70326,2021-11-02T15:48:07.274Z,70573.98,1635863919,incremental,ni_sequenzen,NI_Sequenzen,,,,,,,,,,,,,,
,Screen_3,canvas.Screen,0_0_1_2,,skipped,2,70328,,,70322,,70328,2021-11-02T15:48:07.278Z,70573.98,1635863919,incremental,ni_sequenzen,NI_Sequenzen,,,,,,,,,,,,,,
,Screen_4,canvas.Screen,0_0_1_3,,skipped,2,70331,,,70322,,70331,2021-11-02T15:48:07.280Z,70573.98,1635863919,incremental,ni_sequenzen,NI_Sequenzen,,,,,,,,,,,,,,
,Sequence,flow.Sequence,0_0_1,,completion,2,70319,,,70322,,70331,2021-11-02T15:48:07.280Z,70573.98,1635863919,incremental,ni_sequenzen,NI_Sequenzen,,,,,,,,,,,,,,
,Screen_1,canvas.Screen,0_0_2_0,,skipped,3,70334,,,70335,,70335,2021-11-02T15:48:07.284Z,70573.98,1635863919,incremental,ni_sequenzen,NI_Sequenzen,,,,,,,,,,,,,,
,Screen_2,canvas.Screen,0_0_2_1,,skipped,3,70338,,,70335,,70338,2021-11-02T15:48:07.287Z,70573.98,1635863919,incremental,ni_sequenzen,NI_Sequenzen,,,,,,,,,,,,,,
,Screen_3,canvas.Screen,0_0_2_2,,skipped,3,70340,,,70335,,70340,2021-11-02T15:48:07.290Z,70573.98,1635863919,incremental,ni_sequenzen,NI_Sequenzen,,,,,,,,,,,,,,
,Screen_4,canvas.Screen,0_0_2_3,,skipped,3,70343,,,70335,,70343,2021-11-02T15:48:07.292Z,70573.98,1635863919,incremental,ni_sequenzen,NI_Sequenzen,,,,,,,,,,,,,,
,Sequence,flow.Sequence,0_0_2,,completion,3,70332,,,70335,,70343,2021-11-02T15:48:07.292Z,70573.98,1635863919,incremental,ni_sequenzen,NI_Sequenzen,,,,,,,,,,,,,,
,Screen_1,canvas.Screen,0_0_3_0,,skipped,4,70346,,,70346,,70346,2021-11-02T15:48:07.296Z,70573.98,1635863919,incremental,ni_sequenzen,NI_Sequenzen,,,,,,,,,,,,,,
,Screen_2,canvas.Screen,0_0_3_1,,skipped,4,70349,,,70346,,70349,2021-11-02T15:48:07.298Z,70573.98,1635863919,incremental,ni_sequenzen,NI_Sequenzen,,,,,,,,,,,,,,
,Screen_3,canvas.Screen,0_0_3_2,,skipped,4,70351,,,70346,,70351,2021-11-02T15:48:07.300Z,70573.98,1635863919,incremental,ni_sequenzen,NI_Sequenzen,,,,,,,,,,,,,,
,Screen_4,canvas.Screen,0_0_3_3,,skipped,4,70354,,,70346,,70354,2021-11-02T15:48:07.304Z,70573.98,1635863919,incremental,ni_sequenzen,NI_Sequenzen,,,,,,,,,,,,,,
,Sequence,flow.Sequence,0_0_3,,completion,4,70344,,,70346,,70354,2021-11-02T15:48:07.304Z,70573.98,1635863919,incremental,ni_sequenzen,NI_Sequenzen,,,,,,,,,,,,,,
,Screen_1,canvas.Screen,0_0_4_0,,skipped,5,70357,,,70357,,70357,2021-11-02T15:48:07.307Z,70573.98,1635863919,incremental,ni_sequenzen,NI_Sequenzen,,,,,,,,,,,,,,
,Screen_2,canvas.Screen,0_0_4_1,,skipped,5,70360,,,70357,,70360,2021-11-02T15:48:07.309Z,70573.98,1635863919,incremental,ni_sequenzen,NI_Sequenzen,,,,,,,,,,,,,,
,Screen_3,canvas.Screen,0_0_4_2,,skipped,5,70362,,,70357,,70362,2021-11-02T15:48:07.312Z,70573.98,1635863919,incremental,ni_sequenzen,NI_Sequenzen,,,,,,,,,,,,,,
,Screen_4,canvas.Screen,0_0_4_3,,skipped,5,70364,,,70357,,70364,2021-11-02T15:48:07.314Z,70573.98,1635863919,incremental,ni_sequenzen,NI_Sequenzen,,,,,,,,,,,,,,
,Sequence,flow.Sequence,0_0_4,,completion,5,70355,,,70357,,70365,2021-11-02T15:48:07.315Z,70573.98,1635863919,incremental,ni_sequenzen,NI_Sequenzen,,,,,,,,,,,,,,
,Screen_1,canvas.Screen,0_0_5_0,,skipped,6,70367,,,70367,,70368,2021-11-02T15:48:07.317Z,70573.98,1635863919,incremental,ni_sequenzen,NI_Sequenzen,,,,,,,,,,,,,,
,Screen_2,canvas.Screen,0_0_5_1,,skipped,6,70370,,,70367,,70370,2021-11-02T15:48:07.319Z,70573.98,1635863919,incremental,ni_sequenzen,NI_Sequenzen,,,,,,,,,,,,,,
,Screen_3,canvas.Screen,0_0_5_2,,skipped,6,70372,,,70367,,70372,2021-11-02T15:48:07.321Z,70573.98,1635863919,incremental,ni_sequenzen,NI_Sequenzen,,,,,,,,,,,,,,
,Screen_4,canvas.Screen,0_0_5_3,,skipped,6,70374,,,70367,,70374,2021-11-02T15:48:07.324Z,70573.98,1635863919,incremental,ni_sequenzen,NI_Sequenzen,,,,,,,,,,,,,,
,Sequence,flow.Sequence,0_0_5,,completion,6,70366,,,70367,,70375,2021-11-02T15:48:07.325Z,70573.98,1635863919,incremental,ni_sequenzen,NI_Sequenzen,,,,,,,,,,,,,,
,Screen_1,canvas.Screen,0_0_6_0,,skipped,7,70378,,,70378,,70379,2021-11-02T15:48:07.328Z,70573.98,1635863919,incremental,ni_sequenzen,NI_Sequenzen,,,,,,,,,,,,,,
,Screen_2,canvas.Screen,0_0_6_1,,skipped,7,70380,,,70378,,70380,2021-11-02T15:48:07.330Z,70573.98,1635863919,incremental,ni_sequenzen,NI_Sequenzen,,,,,,,,,,,,,,
,Screen_3,canvas.Screen,0_0_6_2,,skipped,7,70382,,,70378,,70382,2021-11-02T15:48:07.332Z,70573.98,1635863919,incremental,ni_sequenzen,NI_Sequenzen,,,,,,,,,,,,,,
,Screen_4,canvas.Screen,0_0_6_3,,skipped,7,70384,,,70378,,70384,2021-11-02T15:48:07.334Z,70573.98,1635863919,incremental,ni_sequenzen,NI_Sequenzen,,,,,,,,,,,,,,
,Sequence,flow.Sequence,0_0_6,,completion,7,70376,,,70378,,70384,2021-11-02T15:48:07.334Z,70573.98,1635863919,incremental,ni_sequenzen,NI_Sequenzen,,,,,,,,,,,,,,
,Screen_1,canvas.Screen,0_0_7_0,,skipped,8,70388,,,70388,,70388,2021-11-02T15:48:07.337Z,70573.98,1635863919,incremental,ni_sequenzen,NI_Sequenzen,,,,,,,,,,,,,,
,Screen_2,canvas.Screen,0_0_7_1,,skipped,8,70390,,,70388,,70390,2021-11-02T15:48:07.339Z,70573.98,1635863919,incremental,ni_sequenzen,NI_Sequenzen,,,,,,,,,,,,,,
,Screen_3,canvas.Screen,0_0_7_2,,skipped,8,70391,,,70388,,70391,2021-11-02T15:48:07.342Z,70573.98,1635863919,incremental,ni_sequenzen,NI_Sequenzen,,,,,,,,,,,,,,
,Screen_4,canvas.Screen,0_0_7_3,,skipped,8,70395,,,70388,,70395,2021-11-02T15:48:07.344Z,70573.98,1635863919,incremental,ni_sequenzen,NI_Sequenzen,,,,,,,,,,,,,,
,Sequence,flow.Sequence,0_0_7,,completion,8,70386,,,70388,,70395,2021-11-02T15:48:07.345Z,70573.98,1635863919,incremental,ni_sequenzen,NI_Sequenzen,,,,,,,,,,,,,,
,Screen_1,canvas.Screen,0_0_8_0,,skipped,9,70397,,,70397,,70397,2021-11-02T15:48:07.347Z,70573.98,1635863919,incremental,ni_sequenzen,NI_Sequenzen,,,,,,,,,,,,,,
,Screen_2,canvas.Screen,0_0_8_1,,skipped,9,70400,,,70397,,70401,2021-11-02T15:48:07.349Z,70573.98,1635863919,incremental,ni_sequenzen,NI_Sequenzen,,,,,,,,,,,,,,
,Screen_3,canvas.Screen,0_0_8_2,,skipped,9,70404,,,70397,,70404,2021-11-02T15:48:07.354Z,70573.98,1635863919,incremental,ni_sequenzen,NI_Sequenzen,,,,,,,,,,,,,,
,Screen_4,canvas.Screen,0_0_8_3,,skipped,9,70408,,,70397,,70408,2021-11-02T15:48:07.358Z,70573.98,1635863919,incremental,ni_sequenzen,NI_Sequenzen,,,,,,,,,,,,,,
,Sequence,flow.Sequence,0_0_8,,completion,9,70396,,,70397,,70409,2021-11-02T15:48:07.358Z,70573.98,1635863919,incremental,ni_sequenzen,NI_Sequenzen,,,,,,,,,,,,,,
,Screen_1,canvas.Screen,0_0_9_0,,skipped,10,70412,,,70412,,70413,2021-11-02T15:48:07.362Z,70573.98,1635863919,incremental,ni_sequenzen,NI_Sequenzen,,,,,,,,,,,,,,
,Screen_2,canvas.Screen,0_0_9_1,,skipped,10,70416,,,70412,,70416,2021-11-02T15:48:07.365Z,70573.98,1635863919,incremental,ni_sequenzen,NI_Sequenzen,,,,,,,,,,,,,,
,Screen_3,canvas.Screen,0_0_9_2,,skipped,10,70418,,,70412,,70419,2021-11-02T15:48:07.369Z,70573.98,1635863919,incremental,ni_sequenzen,NI_Sequenzen,,,,,,,,,,,,,,
,Screen_4,canvas.Screen,0_0_9_3,,skipped,10,70422,,,70412,,70422,2021-11-02T15:48:07.371Z,70573.98,1635863919,incremental,ni_sequenzen,NI_Sequenzen,,,,,,,,,,,,,,
,Sequence,flow.Sequence,0_0_9,,completion,10,70410,,,70412,,70422,2021-11-02T15:48:07.372Z,70573.98,1635863919,incremental,ni_sequenzen,NI_Sequenzen,,,,,,,,,,,,,,
,Screen_1,canvas.Screen,0_0_10_0,,skipped,11,70426,,,70426,,70426,2021-11-02T15:48:07.376Z,70573.98,1635863919,incremental,ni_sequenzen,NI_Sequenzen,,,,,,,,,,,,,,
,Screen_2,canvas.Screen,0_0_10_1,,skipped,11,70430,,,70426,,70430,2021-11-02T15:48:07.379Z,70573.98,1635863919,incremental,ni_sequenzen,NI_Sequenzen,,,,,,,,,,,,,,
,Screen_3,canvas.Screen,0_0_10_2,,skipped,11,70432,,,70426,,70433,2021-11-02T15:48:07.382Z,70573.98,1635863919,incremental,ni_sequenzen,NI_Sequenzen,,,,,,,,,,,,,,
,Screen_4,canvas.Screen,0_0_10_3,,skipped,11,70436,,,70426,,70436,2021-11-02T15:48:07.385Z,70573.98,1635863919,incremental,ni_sequenzen,NI_Sequenzen,,,,,,,,,,,,,,
,Sequence,flow.Sequence,0_0_10,,completion,11,70424,,,70426,,70436,2021-11-02T15:48:07.386Z,70573.98,1635863919,incremental,ni_sequenzen,NI_Sequenzen,,,,,,,,,,,,,,
,Screen_1,canvas.Screen,0_0_11_0,,skipped,12,70441,,,70441,,70442,2021-11-02T15:48:07.391Z,70573.98,1635863919,incremental,ni_sequenzen,NI_Sequenzen,,,,,,,,,,,,,,
,Screen_2,canvas.Screen,0_0_11_1,,skipped,12,70446,,,70441,,70446,2021-11-02T15:48:07.395Z,70573.98,1635863919,incremental,ni_sequenzen,NI_Sequenzen,,,,,,,,,,,,,,
,Screen_3,canvas.Screen,0_0_11_2,,skipped,12,70448,,,70441,,70449,2021-11-02T15:48:07.398Z,70573.98,1635863919,incremental,ni_sequenzen,NI_Sequenzen,,,,,,,,,,,,,,
,Screen_4,canvas.Screen,0_0_11_3,,skipped,12,70453,,,70441,,70454,2021-11-02T15:48:07.403Z,70573.98,1635863919,incremental,ni_sequenzen,NI_Sequenzen,,,,,,,,,,,,,,
,Sequence,flow.Sequence,0_0_11,,completion,12,70439,,,70441,,70454,2021-11-02T15:48:07.403Z,70573.98,1635863919,incremental,ni_sequenzen,NI_Sequenzen,,,,,,,,,,,,,,
,Screen_1,canvas.Screen,0_0_12_0,,skipped,13,70458,,,70458,,70458,2021-11-02T15:48:07.408Z,70573.98,1635863919,incremental,ni_sequenzen,NI_Sequenzen,,,,,,,,,,,,,,
,Screen_2,canvas.Screen,0_0_12_1,,skipped,13,70461,,,70458,,70461,2021-11-02T15:48:07.411Z,70573.98,1635863919,incremental,ni_sequenzen,NI_Sequenzen,,,,,,,,,,,,,,
,Screen_3,canvas.Screen,0_0_12_2,,skipped,13,70463,,,70458,,70463,2021-11-02T15:48:07.413Z,70573.98,1635863919,incremental,ni_sequenzen,NI_Sequenzen,,,,,,,,,,,,,,
,Screen_4,canvas.Screen,0_0_12_3,,skipped,13,70466,,,70458,,70466,2021-11-02T15:48:07.415Z,70573.98,1635863919,incremental,ni_sequenzen,NI_Sequenzen,,,,,,,,,,,,,,
,Sequence,flow.Sequence,0_0_12,,completion,13,70456,,,70458,,70466,2021-11-02T15:48:07.416Z,70573.98,1635863919,incremental,ni_sequenzen,NI_Sequenzen,,,,,,,,,,,,,,
,Screen_1,canvas.Screen,0_0_13_0,,skipped,14,70470,,,70470,,70470,2021-11-02T15:48:07.419Z,70573.98,1635863919,incremental,ni_sequenzen,NI_Sequenzen,,,,,,,,,,,,,,
,Screen_2,canvas.Screen,0_0_13_1,,skipped,14,70472,,,70470,,70472,2021-11-02T15:48:07.421Z,70573.98,1635863919,incremental,ni_sequenzen,NI_Sequenzen,,,,,,,,,,,,,,
,Screen_3,canvas.Screen,0_0_13_2,,skipped,14,70475,,,70470,,70475,2021-11-02T15:48:07.424Z,70573.98,1635863919,incremental,ni_sequenzen,NI_Sequenzen,,,,,,,,,,,,,,
,Screen_4,canvas.Screen,0_0_13_3,,skipped,14,70477,,,70470,,70477,2021-11-02T15:48:07.426Z,70573.98,1635863919,incremental,ni_sequenzen,NI_Sequenzen,,,,,,,,,,,,,,
,Sequence,flow.Sequence,0_0_13,,completion,14,70468,,,70470,,70477,2021-11-02T15:48:07.426Z,70573.98,1635863919,incremental,ni_sequenzen,NI_Sequenzen,,,,,,,,,,,,,,
,Screen_1,canvas.Screen,0_0_14_0,,skipped,15,70480,,,70480,,70480,2021-11-02T15:48:07.429Z,70573.98,1635863919,incremental,ni_sequenzen,NI_Sequenzen,,,,,,,,,,,,,,
,Screen_2,canvas.Screen,0_0_14_1,,skipped,15,70481,,,70480,,70482,2021-11-02T15:48:07.431Z,70573.98,1635863919,incremental,ni_sequenzen,NI_Sequenzen,,,,,,,,,,,,,,
,Screen_3,canvas.Screen,0_0_14_2,,skipped,15,70484,,,70480,,70484,2021-11-02T15:48:07.433Z,70573.98,1635863919,incremental,ni_sequenzen,NI_Sequenzen,,,,,,,,,,,,,,
,Screen_4,canvas.Screen,0_0_14_3,,skipped,15,70485,,,70480,,70487,2021-11-02T15:48:07.435Z,70573.98,1635863919,incremental,ni_sequenzen,NI_Sequenzen,,,,,,,,,,,,,,
,Sequence,flow.Sequence,0_0_14,,completion,15,70478,,,70480,,70487,2021-11-02T15:48:07.436Z,70573.98,1635863919,incremental,ni_sequenzen,NI_Sequenzen,,,,,,,,,,,,,,
,Screen_1,canvas.Screen,0_0_15_0,,skipped,16,70489,,,70489,,70489,2021-11-02T15:48:07.439Z,70573.98,1635863919,incremental,ni_sequenzen,NI_Sequenzen,,,,,,,,,,,,,,
,Screen_2,canvas.Screen,0_0_15_1,,skipped,16,70491,,,70489,,70491,2021-11-02T15:48:07.440Z,70573.98,1635863919,incremental,ni_sequenzen,NI_Sequenzen,,,,,,,,,,,,,,
,Screen_3,canvas.Screen,0_0_15_2,,skipped,16,70492,,,70489,,70493,2021-11-02T15:48:07.442Z,70573.98,1635863919,incremental,ni_sequenzen,NI_Sequenzen,,,,,,,,,,,,,,
,Screen_4,canvas.Screen,0_0_15_3,,skipped,16,70494,,,70489,,70494,2021-11-02T15:48:07.445Z,70573.98,1635863919,incremental,ni_sequenzen,NI_Sequenzen,,,,,,,,,,,,,,
,Sequence,flow.Sequence,0_0_15,,completion,16,70487,,,70489,,70495,2021-11-02T15:48:07.445Z,70573.98,1635863919,incremental,ni_sequenzen,NI_Sequenzen,,,,,,,,,,,,,,
,Screen_1,canvas.Screen,0_0_16_0,,skipped,17,70497,,,70497,,70497,2021-11-02T15:48:07.447Z,70573.98,1635863919,incremental,ni_sequenzen,NI_Sequenzen,,,,,,,,,,,,,,
,Screen_2,canvas.Screen,0_0_16_1,,skipped,17,70499,,,70497,,70499,2021-11-02T15:48:07.449Z,70573.98,1635863919,incremental,ni_sequenzen,NI_Sequenzen,,,,,,,,,,,,,,
,Screen_3,canvas.Screen,0_0_16_2,,skipped,17,70501,,,70497,,70501,2021-11-02T15:48:07.451Z,70573.98,1635863919,incremental,ni_sequenzen,NI_Sequenzen,,,,,,,,,,,,,,
,Screen_4,canvas.Screen,0_0_16_3,,skipped,17,70503,,,70497,,70504,2021-11-02T15:48:07.453Z,70573.98,1635863919,incremental,ni_sequenzen,NI_Sequenzen,,,,,,,,,,,,,,
,Sequence,flow.Sequence,0_0_16,,completion,17,70496,,,70497,,70504,2021-11-02T15:48:07.453Z,70573.98,1635863919,incremental,ni_sequenzen,NI_Sequenzen,,,,,,,,,,,,,,
,Screen_1,canvas.Screen,0_0_17_0,,skipped,18,70505,,,70505,,70505,2021-11-02T15:48:07.455Z,70573.98,1635863919,incremental,ni_sequenzen,NI_Sequenzen,,,,,,,,,,,,,,
,Screen_2,canvas.Screen,0_0_17_1,,skipped,18,70507,,,70505,,70507,2021-11-02T15:48:07.456Z,70573.98,1635863919,incremental,ni_sequenzen,NI_Sequenzen,,,,,,,,,,,,,,
,Screen_3,canvas.Screen,0_0_17_2,,skipped,18,70509,,,70505,,70509,2021-11-02T15:48:07.458Z,70573.98,1635863919,incremental,ni_sequenzen,NI_Sequenzen,,,,,,,,,,,,,,
,Screen_4,canvas.Screen,0_0_17_3,,skipped,18,70510,,,70505,,70511,2021-11-02T15:48:07.460Z,70573.98,1635863919,incremental,ni_sequenzen,NI_Sequenzen,,,,,,,,,,,,,,
,Sequence,flow.Sequence,0_0_17,,completion,18,70504,,,70505,,70512,2021-11-02T15:48:07.460Z,70573.98,1635863919,incremental,ni_sequenzen,NI_Sequenzen,,,,,,,,,,,,,,
,Screen_1,canvas.Screen,0_0_18_0,,skipped,19,70514,,,70514,,70514,2021-11-02T15:48:07.463Z,70573.98,1635863919,incremental,ni_sequenzen,NI_Sequenzen,,,,,,,,,,,,,,
,Screen_2,canvas.Screen,0_0_18_1,,skipped,19,70516,,,70514,,70516,2021-11-02T15:48:07.465Z,70573.98,1635863919,incremental,ni_sequenzen,NI_Sequenzen,,,,,,,,,,,,,,
,Screen_3,canvas.Screen,0_0_18_2,,skipped,19,70517,,,70514,,70517,2021-11-02T15:48:07.467Z,70573.98,1635863919,incremental,ni_sequenzen,NI_Sequenzen,,,,,,,,,,,,,,
,Screen_4,canvas.Screen,0_0_18_3,,skipped,19,70519,,,70514,,70519,2021-11-02T15:48:07.469Z,70573.98,1635863919,incremental,ni_sequenzen,NI_Sequenzen,,,,,,,,,,,,,,
,Sequence,flow.Sequence,0_0_18,,completion,19,70512,,,70514,,70519,2021-11-02T15:48:07.469Z,70573.98,1635863919,incremental,ni_sequenzen,NI_Sequenzen,,,,,,,,,,,,,,
,Screen_1,canvas.Screen,0_0_19_0,,skipped,20,70522,,,70522,,70522,2021-11-02T15:48:07.471Z,70573.98,1635863919,incremental,ni_sequenzen,NI_Sequenzen,,,,,,,,,,,,,,
,Screen_2,canvas.Screen,0_0_19_1,,skipped,20,70523,,,70522,,70523,2021-11-02T15:48:07.472Z,70573.98,1635863919,incremental,ni_sequenzen,NI_Sequenzen,,,,,,,,,,,,,,
,Screen_3,canvas.Screen,0_0_19_2,,skipped,20,70526,,,70522,,70526,2021-11-02T15:48:07.475Z,70573.98,1635863919,incremental,ni_sequenzen,NI_Sequenzen,,,,,,,,,,,,,,
,Screen_4,canvas.Screen,0_0_19_3,,skipped,20,70527,,,70522,,70528,2021-11-02T15:48:07.476Z,70573.98,1635863919,incremental,ni_sequenzen,NI_Sequenzen,,,,,,,,,,,,,,
,Sequence,flow.Sequence,0_0_19,,completion,20,70520,,,70522,,70528,2021-11-02T15:48:07.476Z,70573.98,1635863919,incremental,ni_sequenzen,NI_Sequenzen,,,,,,,,,,,,,,
,Instructions_I,flow.Loop,0_0,,completion,,2154,2230.78,2280.76,70522,68241.24,70528,2021-11-02T15:48:07.477Z,70573.98,1635863919,incremental,ni_sequenzen,NI_Sequenzen,,,,,,,,,,,,,,
,Move,canvas.Screen,0_1_0_0,right,response,,70557,70556.94,70573.98,70694,120.02000000000407,70702,2021-11-02T15:48:07.651Z,70723.72,1635863919,incremental,ni_sequenzen,NI_Sequenzen,1,,,,,,,,,,,,,
,Move,canvas.Screen,0_1_0_1,right,response,,70712,70711.36,70723.72,71025,301.27999999999884,71030,2021-11-02T15:48:07.979Z,71056.66,1635863919,incremental,ni_sequenzen,NI_Sequenzen,2,,,,,,,,,,,,,
,Move,canvas.Screen,0_1_0_2,right,response,,71041,71041.1,71056.66,71213,156.3399999999965,71221,2021-11-02T15:48:08.170Z,71239.7,1635863919,incremental,ni_sequenzen,NI_Sequenzen,3,,,,,,,,,,,,,
,Move,canvas.Screen,0_1_0_3,down,response,,71228,71227.28,71239.7,71592,352.3000000000029,71599,2021-11-02T15:48:08.548Z,71622.36,1635863919,incremental,ni_sequenzen,NI_Sequenzen,4,,,,,,,,,,,,,
,Move,canvas.Screen,0_1_0_4,right,response,,71608,71608.66,71622.36,72029,406.6399999999994,72037,2021-11-02T15:48:08.987Z,72054.94,1635863919,incremental,ni_sequenzen,NI_Sequenzen,5,,,,,,,,,,,,,
,Move,canvas.Screen,0_1_0_5,right,response,,72046,72046.34,72054.94,72607,552.0599999999977,72615,2021-11-02T15:48:09.565Z,72637.32,1635863919,incremental,ni_sequenzen,NI_Sequenzen,6,,,,,,,,,,,,,
,Move,canvas.Screen,0_1_0_6,down,response,,72622,72622.56,72637.32,73295,657.679999999993,73302,2021-11-02T15:48:10.252Z,73319.58,1635863919,incremental,ni_sequenzen,NI_Sequenzen,7,,,,,,,,,,,,,
,Move,canvas.Screen,0_1_0_7,right,response,,73310,73309.86,73319.58,73912,592.4199999999983,73924,2021-11-02T15:48:10.873Z,73968.44,1635863919,incremental,ni_sequenzen,NI_Sequenzen,8,,,,,,,,,,,,,
,Move,canvas.Screen,0_1_0_8,right,response,,73937,73951.82,73968.44,74671,702.5599999999977,74674,2021-11-02T15:48:11.623Z,74683.98,1635863919,incremental,ni_sequenzen,NI_Sequenzen,9,,,,,,,,,,,,,
,Move,canvas.Screen,0_1_0_9,down,response,,74680,74680.64,74683.98,104114,29430.020000000004,104123,2021-11-02T15:48:41.072Z,104150.66,1635863919,incremental,ni_sequenzen,NI_Sequenzen,10,,,,,,,,,,,,,
,Move,canvas.Screen,0_1_0_10,down,response,,104137,104137.84,104150.66,104494,343.3399999999965,104501,2021-11-02T15:48:41.451Z,104516.68,1635863919,incremental,ni_sequenzen,NI_Sequenzen,11,,,,,,,,,,,,,
,Move,canvas.Screen,0_1_0_11,left,response,,104510,104509.98,104516.68,105745,1228.320000000007,105752,2021-11-02T15:48:42.701Z,105780.86,1635863919,incremental,ni_sequenzen,NI_Sequenzen,12,,,,,,,,,,,,,
,Move,canvas.Screen,0_1_0_12,left,response,,105764,105763.7,105780.86,106133,352.1399999999994,106140,2021-11-02T15:48:43.089Z,106163.52,1635863919,incremental,ni_sequenzen,NI_Sequenzen,13,,,,,,,,,,,,,
,Move,canvas.Screen,0_1_0_13,down,response,,106150,106149.86,106163.52,106457,293.4799999999959,106464,2021-11-02T15:48:43.413Z,106479.64,1635863919,incremental,ni_sequenzen,NI_Sequenzen,14,,,,,,,,,,,,,
,Move,canvas.Screen,0_1_0_14,left,response,,106474,106474.44,106479.64,106980,500.3600000000006,106985,2021-11-02T15:48:43.934Z,106995.14,1635863919,incremental,ni_sequenzen,NI_Sequenzen,15,,,,,,,,,,,,,
,Move,canvas.Screen,0_1_0_15,down,response,,106993,106992.44,106995.14,107565,569.8600000000006,107570,2021-11-02T15:48:44.520Z,107594,1635863919,incremental,ni_sequenzen,NI_Sequenzen,16,,,,,,,,,,,,,
,Move,canvas.Screen,0_1_0_16,right,response,,107580,107579.64,107594,108391,797,108398,2021-11-02T15:48:45.347Z,108409.16,1635863919,incremental,ni_sequenzen,NI_Sequenzen,17,,,,,,,,,,,,,
,Move,canvas.Screen,0_1_0_17,right,response,,108406,108405.7,108409.16,108555,145.8399999999965,108559,2021-11-02T15:48:45.509Z,108575.44,1635863919,incremental,ni_sequenzen,NI_Sequenzen,18,,,,,,,,,,,,,
,Move,canvas.Screen,0_1_0_18,down,response,,108572,108572.6,108575.44,108808,232.55999999999767,108814,2021-11-02T15:48:45.764Z,108825.06,1635863919,incremental,ni_sequenzen,NI_Sequenzen,19,,,,,,,,,,,,,
,Move,canvas.Screen,0_1_0_19,left,response,,108823,108822.26,108825.06,109106,280.9400000000023,109114,2021-11-02T15:48:46.063Z,109141,1635863919,incremental,ni_sequenzen,NI_Sequenzen,20,,,,,,,,,,,,,
,Move,canvas.Screen,0_1_0_20,right,response,,109127,109127.54,109141,110480,1339,110486,2021-11-02T15:48:47.436Z,110505.64,1635863919,incremental,ni_sequenzen,NI_Sequenzen,21,,,,,,,,,,,,,
,Move,canvas.Screen,0_1_0_21,down,response,,110494,110494.42,110505.64,110851,345.3600000000006,110857,2021-11-02T15:48:47.806Z,110871.28,1635863919,incremental,ni_sequenzen,NI_Sequenzen,22,,,,,,,,,,,,,
,Move,canvas.Screen,0_1_0_22,down,response,,110864,110863.96,110871.28,111024,152.72000000000116,111030,2021-11-02T15:48:47.978Z,111054.06,1635863919,incremental,ni_sequenzen,NI_Sequenzen,23,,,,,,,,,,,,,
,Move,canvas.Screen,0_1_0_23,down,response,,111039,111039.44,111054.06,111181,126.94000000000233,111187,2021-11-02T15:48:48.136Z,111203.9,1635863919,incremental,ni_sequenzen,NI_Sequenzen,24,,,,,,,,,,,,,
,Move,canvas.Screen,0_1_0_24,left,response,,111199,111199.12,111203.9,111464,260.1000000000058,111469,2021-11-02T15:48:48.419Z,111486.56,1635863919,incremental,ni_sequenzen,NI_Sequenzen,25,,,,,,,,,,,,,
,Move,canvas.Screen,0_1_0_25,down,response,,111480,111480.24,111486.56,111813,326.4400000000023,111818,2021-11-02T15:48:48.767Z,111835.9,1635863919,incremental,ni_sequenzen,NI_Sequenzen,26,,,,,,,,,,,,,
,Move,canvas.Screen,0_1_0_26,right,response,,111827,111827.36,111835.9,112105,269.1000000000058,112111,2021-11-02T15:48:49.060Z,112135.34,1635863919,incremental,ni_sequenzen,NI_Sequenzen,27,,,,,,,,,,,,,
,Move,canvas.Screen,0_1_0_27,left,response,,112121,112120.44,112135.34,112380,244.6600000000035,112386,2021-11-02T15:48:49.335Z,112401.76,1635863919,incremental,ni_sequenzen,NI_Sequenzen,28,,,,,,,,,,,,,
,Move,canvas.Screen,0_1_0_28,left,response,,112395,112394.66,112401.76,112988,586.2400000000052,112993,2021-11-02T15:48:49.943Z,113000.42,1635863919,incremental,ni_sequenzen,NI_Sequenzen,29,,,,,,,,,,,,,
,Move,canvas.Screen,0_1_0_29,down,response,,112998,112998.74,113000.42,113296,295.58000000000175,113304,2021-11-02T15:48:50.253Z,113383,1635863919,incremental,ni_sequenzen,NI_Sequenzen,30,,,,,,,,,,,,,
,Loop,flow.Loop,0_1_0,-999,completion,,70547,70556.94,70573.98,113296,42722.020000000004,113304,2021-11-02T15:48:50.254Z,113383,1635863919,incremental,ni_sequenzen,NI_Sequenzen,,,,,,,,,,,,,,
,Training_I,flow.Sequence,0_1,,completion,,70529,70556.94,70573.98,113296,42722.020000000004,113305,2021-11-02T15:48:50.254Z,113383,1635863919,incremental,ni_sequenzen,NI_Sequenzen,,,,,,,,,,,,,,
,Screen_1,canvas.Screen,0_2_0_0,cont,response,1,113377,113377.02,113383,114636,1253,114641,2021-11-02T15:48:51.591Z,114847.86,1635863919,incremental,ni_sequenzen,NI_Sequenzen,,,,,,,,,,,,,,
,Screen_2,canvas.Screen,0_2_0_1,cont,response,1,114833,114833,114847.86,115324,476.1399999999994,115331,2021-11-02T15:48:52.280Z,115345.96,1635863919,incremental,ni_sequenzen,NI_Sequenzen,,,,,,,,,,,,,,
,Screen_3,canvas.Screen,0_2_0_2,cont,response,1,115337,115336.5,115345.96,115775,429.0399999999936,115780,2021-11-02T15:48:52.730Z,115812.18,1635863919,incremental,ni_sequenzen,NI_Sequenzen,,,,,,,,,,,,,,
,Screen_4,canvas.Screen,0_2_0_3,cont,response,1,115797,115797.52,115812.18,116640,827.820000000007,116647,2021-11-02T15:48:53.597Z,116660.48,1635863919,incremental,ni_sequenzen,NI_Sequenzen,,,,,,,,,,,,,,
,Screen_5,canvas.Screen,0_2_0_4,cont,response,1,116652,116651.74,116660.48,117051,390.5200000000041,117055,2021-11-02T15:48:54.004Z,117076.02,1635863919,incremental,ni_sequenzen,NI_Sequenzen,,,,,,,,,,,,,,
,Screen_6,canvas.Screen,0_2_0_5,cont,response,1,117065,117065.74,117076.02,117423,346.9799999999959,117430,2021-11-02T15:48:54.380Z,117957.74,1635863919,incremental,ni_sequenzen,NI_Sequenzen,,,,,,,,,,,,,,
,Sequence,flow.Sequence,0_2_0,,completion,1,113374,113377.02,113383,117423,4040,117431,2021-11-02T15:48:54.380Z,117957.74,1635863919,incremental,ni_sequenzen,NI_Sequenzen,,,,,,,,,,,,,,
,Screen_1,canvas.Screen,0_2_1_0,,skipped,2,117434,,,117434,,117434,2021-11-02T15:48:54.384Z,117957.74,1635863919,incremental,ni_sequenzen,NI_Sequenzen,,,,,,,,,,,,,,
,Screen_2,canvas.Screen,0_2_1_1,,skipped,2,117436,,,117434,,117436,2021-11-02T15:48:54.386Z,117957.74,1635863919,incremental,ni_sequenzen,NI_Sequenzen,,,,,,,,,,,,,,
,Screen_3,canvas.Screen,0_2_1_2,,skipped,2,117439,,,117434,,117439,2021-11-02T15:48:54.389Z,117957.74,1635863919,incremental,ni_sequenzen,NI_Sequenzen,,,,,,,,,,,,,,
,Screen_4,canvas.Screen,0_2_1_3,,skipped,2,117442,,,117434,,117442,2021-11-02T15:48:54.392Z,117957.74,1635863919,incremental,ni_sequenzen,NI_Sequenzen,,,,,,,,,,,,,,
,Screen_5,canvas.Screen,0_2_1_4,,skipped,2,117445,,,117434,,117445,2021-11-02T15:48:54.394Z,117957.74,1635863919,incremental,ni_sequenzen,NI_Sequenzen,,,,,,,,,,,,,,
,Screen_6,canvas.Screen,0_2_1_5,,skipped,2,117448,,,117434,,117448,2021-11-02T15:48:54.398Z,117957.74,1635863919,incremental,ni_sequenzen,NI_Sequenzen,,,,,,,,,,,,,,
,Sequence,flow.Sequence,0_2_1,,completion,2,117432,,,117434,,117449,2021-11-02T15:48:54.398Z,117957.74,1635863919,incremental,ni_sequenzen,NI_Sequenzen,,,,,,,,,,,,,,
,Screen_1,canvas.Screen,0_2_2_0,,skipped,3,117451,,,117451,,117451,2021-11-02T15:48:54.400Z,117957.74,1635863919,incremental,ni_sequenzen,NI_Sequenzen,,,,,,,,,,,,,,
,Screen_2,canvas.Screen,0_2_2_1,,skipped,3,117453,,,117451,,117453,2021-11-02T15:48:54.403Z,117957.74,1635863919,incremental,ni_sequenzen,NI_Sequenzen,,,,,,,,,,,,,,
,Screen_3,canvas.Screen,0_2_2_2,,skipped,3,117455,,,117451,,117456,2021-11-02T15:48:54.404Z,117957.74,1635863919,incremental,ni_sequenzen,NI_Sequenzen,,,,,,,,,,,,,,
,Screen_4,canvas.Screen,0_2_2_3,,skipped,3,117459,,,117451,,117459,2021-11-02T15:48:54.409Z,117957.74,1635863919,incremental,ni_sequenzen,NI_Sequenzen,,,,,,,,,,,,,,
,Screen_5,canvas.Screen,0_2_2_4,,skipped,3,117462,,,117451,,117462,2021-11-02T15:48:54.412Z,117957.74,1635863919,incremental,ni_sequenzen,NI_Sequenzen,,,,,,,,,,,,,,
,Screen_6,canvas.Screen,0_2_2_5,,skipped,3,117465,,,117451,,117465,2021-11-02T15:48:54.414Z,117957.74,1635863919,incremental,ni_sequenzen,NI_Sequenzen,,,,,,,,,,,,,,
,Sequence,flow.Sequence,0_2_2,,completion,3,117449,,,117451,,117465,2021-11-02T15:48:54.414Z,117957.74,1635863919,incremental,ni_sequenzen,NI_Sequenzen,,,,,,,,,,,,,,
,Screen_1,canvas.Screen,0_2_3_0,,skipped,4,117468,,,117468,,117468,2021-11-02T15:48:54.417Z,117957.74,1635863919,incremental,ni_sequenzen,NI_Sequenzen,,,,,,,,,,,,,,
,Screen_2,canvas.Screen,0_2_3_1,,skipped,4,117469,,,117468,,117469,2021-11-02T15:48:54.419Z,117957.74,1635863919,incremental,ni_sequenzen,NI_Sequenzen,,,,,,,,,,,,,,
,Screen_3,canvas.Screen,0_2_3_2,,skipped,4,117472,,,117468,,117472,2021-11-02T15:48:54.421Z,117957.74,1635863919,incremental,ni_sequenzen,NI_Sequenzen,,,,,,,,,,,,,,
,Screen_4,canvas.Screen,0_2_3_3,,skipped,4,117475,,,117468,,117475,2021-11-02T15:48:54.425Z,117957.74,1635863919,incremental,ni_sequenzen,NI_Sequenzen,,,,,,,,,,,,,,
,Screen_5,canvas.Screen,0_2_3_4,,skipped,4,117478,,,117468,,117479,2021-11-02T15:48:54.428Z,117957.74,1635863919,incremental,ni_sequenzen,NI_Sequenzen,,,,,,,,,,,,,,
,Screen_6,canvas.Screen,0_2_3_5,,skipped,4,117481,,,117468,,117481,2021-11-02T15:48:54.430Z,117957.74,1635863919,incremental,ni_sequenzen,NI_Sequenzen,,,,,,,,,,,,,,
,Sequence,flow.Sequence,0_2_3,,completion,4,117465,,,117468,,117481,2021-11-02T15:48:54.431Z,117957.74,1635863919,incremental,ni_sequenzen,NI_Sequenzen,,,,,,,,,,,,,,
,Screen_1,canvas.Screen,0_2_4_0,,skipped,5,117484,,,117484,,117484,2021-11-02T15:48:54.433Z,117957.74,1635863919,incremental,ni_sequenzen,NI_Sequenzen,,,,,,,,,,,,,,
,Screen_2,canvas.Screen,0_2_4_1,,skipped,5,117486,,,117484,,117486,2021-11-02T15:48:54.435Z,117957.74,1635863919,incremental,ni_sequenzen,NI_Sequenzen,,,,,,,,,,,,,,
,Screen_3,canvas.Screen,0_2_4_2,,skipped,5,117488,,,117484,,117488,2021-11-02T15:48:54.438Z,117957.74,1635863919,incremental,ni_sequenzen,NI_Sequenzen,,,,,,,,,,,,,,
,Screen_4,canvas.Screen,0_2_4_3,,skipped,5,117490,,,117484,,117491,2021-11-02T15:48:54.440Z,117957.74,1635863919,incremental,ni_sequenzen,NI_Sequenzen,,,,,,,,,,,,,,
,Screen_5,canvas.Screen,0_2_4_4,,skipped,5,117493,,,117484,,117493,2021-11-02T15:48:54.443Z,117957.74,1635863919,incremental,ni_sequenzen,NI_Sequenzen,,,,,,,,,,,,,,
,Screen_6,canvas.Screen,0_2_4_5,,skipped,5,117496,,,117484,,117497,2021-11-02T15:48:54.446Z,117957.74,1635863919,incremental,ni_sequenzen,NI_Sequenzen,,,,,,,,,,,,,,
,Sequence,flow.Sequence,0_2_4,,completion,5,117482,,,117484,,117497,2021-11-02T15:48:54.446Z,117957.74,1635863919,incremental,ni_sequenzen,NI_Sequenzen,,,,,,,,,,,,,,
,Screen_1,canvas.Screen,0_2_5_0,,skipped,6,117500,,,117500,,117500,2021-11-02T15:48:54.449Z,117957.74,1635863919,incremental,ni_sequenzen,NI_Sequenzen,,,,,,,,,,,,,,
,Screen_2,canvas.Screen,0_2_5_1,,skipped,6,117502,,,117500,,117502,2021-11-02T15:48:54.452Z,117957.74,1635863919,incremental,ni_sequenzen,NI_Sequenzen,,,,,,,,,,,,,,
,Screen_3,canvas.Screen,0_2_5_2,,skipped,6,117503,,,117500,,117505,2021-11-02T15:48:54.454Z,117957.74,1635863919,incremental,ni_sequenzen,NI_Sequenzen,,,,,,,,,,,,,,
,Screen_4,canvas.Screen,0_2_5_3,,skipped,6,117507,,,117500,,117507,2021-11-02T15:48:54.456Z,117957.74,1635863919,incremental,ni_sequenzen,NI_Sequenzen,,,,,,,,,,,,,,
,Screen_5,canvas.Screen,0_2_5_4,,skipped,6,117511,,,117500,,117511,2021-11-02T15:48:54.461Z,117957.74,1635863919,incremental,ni_sequenzen,NI_Sequenzen,,,,,,,,,,,,,,
,Screen_6,canvas.Screen,0_2_5_5,,skipped,6,117513,,,117500,,117513,2021-11-02T15:48:54.463Z,117957.74,1635863919,incremental,ni_sequenzen,NI_Sequenzen,,,,,,,,,,,,,,
,Sequence,flow.Sequence,0_2_5,,completion,6,117498,,,117500,,117514,2021-11-02T15:48:54.464Z,117957.74,1635863919,incremental,ni_sequenzen,NI_Sequenzen,,,,,,,,,,,,,,
,Screen_1,canvas.Screen,0_2_6_0,,skipped,7,117517,,,117517,,117517,2021-11-02T15:48:54.466Z,117957.74,1635863919,incremental,ni_sequenzen,NI_Sequenzen,,,,,,,,,,,,,,
,Screen_2,canvas.Screen,0_2_6_1,,skipped,7,117519,,,117517,,117519,2021-11-02T15:48:54.469Z,117957.74,1635863919,incremental,ni_sequenzen,NI_Sequenzen,,,,,,,,,,,,,,
,Screen_3,canvas.Screen,0_2_6_2,,skipped,7,117520,,,117517,,117521,2021-11-02T15:48:54.471Z,117957.74,1635863919,incremental,ni_sequenzen,NI_Sequenzen,,,,,,,,,,,,,,
,Screen_4,canvas.Screen,0_2_6_3,,skipped,7,117524,,,117517,,117524,2021-11-02T15:48:54.474Z,117957.74,1635863919,incremental,ni_sequenzen,NI_Sequenzen,,,,,,,,,,,,,,
,Screen_5,canvas.Screen,0_2_6_4,,skipped,7,117528,,,117517,,117528,2021-11-02T15:48:54.477Z,117957.74,1635863919,incremental,ni_sequenzen,NI_Sequenzen,,,,,,,,,,,,,,
,Screen_6,canvas.Screen,0_2_6_5,,skipped,7,117530,,,117517,,117530,2021-11-02T15:48:54.479Z,117957.74,1635863919,incremental,ni_sequenzen,NI_Sequenzen,,,,,,,,,,,,,,
,Sequence,flow.Sequence,0_2_6,,completion,7,117514,,,117517,,117530,2021-11-02T15:48:54.480Z,117957.74,1635863919,incremental,ni_sequenzen,NI_Sequenzen,,,,,,,,,,,,,,
,Screen_1,canvas.Screen,0_2_7_0,,skipped,8,117533,,,117533,,117533,2021-11-02T15:48:54.482Z,117957.74,1635863919,incremental,ni_sequenzen,NI_Sequenzen,,,,,,,,,,,,,,
,Screen_2,canvas.Screen,0_2_7_1,,skipped,8,117535,,,117533,,117535,2021-11-02T15:48:54.484Z,117957.74,1635863919,incremental,ni_sequenzen,NI_Sequenzen,,,,,,,,,,,,,,
,Screen_3,canvas.Screen,0_2_7_2,,skipped,8,117538,,,117533,,117538,2021-11-02T15:48:54.488Z,117957.74,1635863919,incremental,ni_sequenzen,NI_Sequenzen,,,,,,,,,,,,,,
,Screen_4,canvas.Screen,0_2_7_3,,skipped,8,117541,,,117533,,117541,2021-11-02T15:48:54.491Z,117957.74,1635863919,incremental,ni_sequenzen,NI_Sequenzen,,,,,,,,,,,,,,
,Screen_5,canvas.Screen,0_2_7_4,,skipped,8,117544,,,117533,,117544,2021-11-02T15:48:54.493Z,117957.74,1635863919,incremental,ni_sequenzen,NI_Sequenzen,,,,,,,,,,,,,,
,Screen_6,canvas.Screen,0_2_7_5,,skipped,8,117547,,,117533,,117547,2021-11-02T15:48:54.496Z,117957.74,1635863919,incremental,ni_sequenzen,NI_Sequenzen,,,,,,,,,,,,,,
,Sequence,flow.Sequence,0_2_7,,completion,8,117531,,,117533,,117548,2021-11-02T15:48:54.496Z,117957.74,1635863919,incremental,ni_sequenzen,NI_Sequenzen,,,,,,,,,,,,,,
,Screen_1,canvas.Screen,0_2_8_0,,skipped,9,117550,,,117550,,117550,2021-11-02T15:48:54.499Z,117957.74,1635863919,incremental,ni_sequenzen,NI_Sequenzen,,,,,,,,,,,,,,
,Screen_2,canvas.Screen,0_2_8_1,,skipped,9,117552,,,117550,,117552,2021-11-02T15:48:54.501Z,117957.74,1635863919,incremental,ni_sequenzen,NI_Sequenzen,,,,,,,,,,,,,,
,Screen_3,canvas.Screen,0_2_8_2,,skipped,9,117554,,,117550,,117554,2021-11-02T15:48:54.503Z,117957.74,1635863919,incremental,ni_sequenzen,NI_Sequenzen,,,,,,,,,,,,,,
,Screen_4,canvas.Screen,0_2_8_3,,skipped,9,117557,,,117550,,117557,2021-11-02T15:48:54.506Z,117957.74,1635863919,incremental,ni_sequenzen,NI_Sequenzen,,,,,,,,,,,,,,
,Screen_5,canvas.Screen,0_2_8_4,,skipped,9,117560,,,117550,,117560,2021-11-02T15:48:54.510Z,117957.74,1635863919,incremental,ni_sequenzen,NI_Sequenzen,,,,,,,,,,,,,,
,Screen_6,canvas.Screen,0_2_8_5,,skipped,9,117563,,,117550,,117563,2021-11-02T15:48:54.513Z,117957.74,1635863919,incremental,ni_sequenzen,NI_Sequenzen,,,,,,,,,,,,,,
,Sequence,flow.Sequence,0_2_8,,completion,9,117548,,,117550,,117563,2021-11-02T15:48:54.513Z,117957.74,1635863919,incremental,ni_sequenzen,NI_Sequenzen,,,,,,,,,,,,,,
,Screen_1,canvas.Screen,0_2_9_0,,skipped,10,117567,,,117567,,117567,2021-11-02T15:48:54.516Z,117957.74,1635863919,incremental,ni_sequenzen,NI_Sequenzen,,,,,,,,,,,,,,
,Screen_2,canvas.Screen,0_2_9_1,,skipped,10,117568,,,117567,,117568,2021-11-02T15:48:54.518Z,117957.74,1635863919,incremental,ni_sequenzen,NI_Sequenzen,,,,,,,,,,,,,,
,Screen_3,canvas.Screen,0_2_9_2,,skipped,10,117571,,,117567,,117571,2021-11-02T15:48:54.520Z,117957.74,1635863919,incremental,ni_sequenzen,NI_Sequenzen,,,,,,,,,,,,,,
,Screen_4,canvas.Screen,0_2_9_3,,skipped,10,117574,,,117567,,117574,2021-11-02T15:48:54.524Z,117957.74,1635863919,incremental,ni_sequenzen,NI_Sequenzen,,,,,,,,,,,,,,
,Screen_5,canvas.Screen,0_2_9_4,,skipped,10,117577,,,117567,,117577,2021-11-02T15:48:54.527Z,117957.74,1635863919,incremental,ni_sequenzen,NI_Sequenzen,,,,,,,,,,,,,,
,Screen_6,canvas.Screen,0_2_9_5,,skipped,10,117581,,,117567,,117581,2021-11-02T15:48:54.530Z,117957.74,1635863919,incremental,ni_sequenzen,NI_Sequenzen,,,,,,,,,,,,,,
,Sequence,flow.Sequence,0_2_9,,completion,10,117565,,,117567,,117581,2021-11-02T15:48:54.530Z,117957.74,1635863919,incremental,ni_sequenzen,NI_Sequenzen,,,,,,,,,,,,,,
,Screen_1,canvas.Screen,0_2_10_0,,skipped,11,117584,,,117584,,117584,2021-11-02T15:48:54.534Z,117957.74,1635863919,incremental,ni_sequenzen,NI_Sequenzen,,,,,,,,,,,,,,
,Screen_2,canvas.Screen,0_2_10_1,,skipped,11,117586,,,117584,,117586,2021-11-02T15:48:54.535Z,117957.74,1635863919,incremental,ni_sequenzen,NI_Sequenzen,,,,,,,,,,,,,,
,Screen_3,canvas.Screen,0_2_10_2,,skipped,11,117588,,,117584,,117589,2021-11-02T15:48:54.538Z,117957.74,1635863919,incremental,ni_sequenzen,NI_Sequenzen,,,,,,,,,,,,,,
,Screen_4,canvas.Screen,0_2_10_3,,skipped,11,117591,,,117584,,117592,2021-11-02T15:48:54.541Z,117957.74,1635863919,incremental,ni_sequenzen,NI_Sequenzen,,,,,,,,,,,,,,
,Screen_5,canvas.Screen,0_2_10_4,,skipped,11,117595,,,117584,,117595,2021-11-02T15:48:54.545Z,117957.74,1635863919,incremental,ni_sequenzen,NI_Sequenzen,,,,,,,,,,,,,,
,Screen_6,canvas.Screen,0_2_10_5,,skipped,11,117597,,,117584,,117597,2021-11-02T15:48:54.547Z,117957.74,1635863919,incremental,ni_sequenzen,NI_Sequenzen,,,,,,,,,,,,,,
,Sequence,flow.Sequence,0_2_10,,completion,11,117582,,,117584,,117598,2021-11-02T15:48:54.547Z,117957.74,1635863919,incremental,ni_sequenzen,NI_Sequenzen,,,,,,,,,,,,,,
,Screen_1,canvas.Screen,0_2_11_0,,skipped,12,117601,,,117601,,117601,2021-11-02T15:48:54.551Z,117957.74,1635863919,incremental,ni_sequenzen,NI_Sequenzen,,,,,,,,,,,,,,
,Screen_2,canvas.Screen,0_2_11_1,,skipped,12,117603,,,117601,,117603,2021-11-02T15:48:54.553Z,117957.74,1635863919,incremental,ni_sequenzen,NI_Sequenzen,,,,,,,,,,,,,,
,Screen_3,canvas.Screen,0_2_11_2,,skipped,12,117605,,,117601,,117606,2021-11-02T15:48:54.555Z,117957.74,1635863919,incremental,ni_sequenzen,NI_Sequenzen,,,,,,,,,,,,,,
,Screen_4,canvas.Screen,0_2_11_3,,skipped,12,117608,,,117601,,117609,2021-11-02T15:48:54.558Z,117957.74,1635863919,incremental,ni_sequenzen,NI_Sequenzen,,,,,,,,,,,,,,
,Screen_5,canvas.Screen,0_2_11_4,,skipped,12,117612,,,117601,,117612,2021-11-02T15:48:54.562Z,117957.74,1635863919,incremental,ni_sequenzen,NI_Sequenzen,,,,,,,,,,,,,,
,Screen_6,canvas.Screen,0_2_11_5,,skipped,12,117614,,,117601,,117614,2021-11-02T15:48:54.564Z,117957.74,1635863919,incremental,ni_sequenzen,NI_Sequenzen,,,,,,,,,,,,,,
,Sequence,flow.Sequence,0_2_11,,completion,12,117599,,,117601,,117614,2021-11-02T15:48:54.564Z,117957.74,1635863919,incremental,ni_sequenzen,NI_Sequenzen,,,,,,,,,,,,,,
,Screen_1,canvas.Screen,0_2_12_0,,skipped,13,117617,,,117617,,117617,2021-11-02T15:48:54.567Z,117957.74,1635863919,incremental,ni_sequenzen,NI_Sequenzen,,,,,,,,,,,,,,
,Screen_2,canvas.Screen,0_2_12_1,,skipped,13,117619,,,117617,,117619,2021-11-02T15:48:54.569Z,117957.74,1635863919,incremental,ni_sequenzen,NI_Sequenzen,,,,,,,,,,,,,,
,Screen_3,canvas.Screen,0_2_12_2,,skipped,13,117622,,,117617,,117622,2021-11-02T15:48:54.572Z,117957.74,1635863919,incremental,ni_sequenzen,NI_Sequenzen,,,,,,,,,,,,,,
,Screen_4,canvas.Screen,0_2_12_3,,skipped,13,117625,,,117617,,117625,2021-11-02T15:48:54.575Z,117957.74,1635863919,incremental,ni_sequenzen,NI_Sequenzen,,,,,,,,,,,,,,
,Screen_5,canvas.Screen,0_2_12_4,,skipped,13,117628,,,117617,,117628,2021-11-02T15:48:54.577Z,117957.74,1635863919,incremental,ni_sequenzen,NI_Sequenzen,,,,,,,,,,,,,,
,Screen_6,canvas.Screen,0_2_12_5,,skipped,13,117631,,,117617,,117631,2021-11-02T15:48:54.580Z,117957.74,1635863919,incremental,ni_sequenzen,NI_Sequenzen,,,,,,,,,,,,,,
,Sequence,flow.Sequence,0_2_12,,completion,13,117615,,,117617,,117631,2021-11-02T15:48:54.580Z,117957.74,1635863919,incremental,ni_sequenzen,NI_Sequenzen,,,,,,,,,,,,,,
,Screen_1,canvas.Screen,0_2_13_0,,skipped,14,117633,,,117633,,117633,2021-11-02T15:48:54.583Z,117957.74,1635863919,incremental,ni_sequenzen,NI_Sequenzen,,,,,,,,,,,,,,
,Screen_2,canvas.Screen,0_2_13_1,,skipped,14,117636,,,117633,,117636,2021-11-02T15:48:54.585Z,117957.74,1635863919,incremental,ni_sequenzen,NI_Sequenzen,,,,,,,,,,,,,,
,Screen_3,canvas.Screen,0_2_13_2,,skipped,14,117639,,,117633,,117639,2021-11-02T15:48:54.589Z,117957.74,1635863919,incremental,ni_sequenzen,NI_Sequenzen,,,,,,,,,,,,,,
,Screen_4,canvas.Screen,0_2_13_3,,skipped,14,117642,,,117633,,117642,2021-11-02T15:48:54.591Z,117957.74,1635863919,incremental,ni_sequenzen,NI_Sequenzen,,,,,,,,,,,,,,
,Screen_5,canvas.Screen,0_2_13_4,,skipped,14,117644,,,117633,,117644,2021-11-02T15:48:54.594Z,117957.74,1635863919,incremental,ni_sequenzen,NI_Sequenzen,,,,,,,,,,,,,,
,Screen_6,canvas.Screen,0_2_13_5,,skipped,14,117647,,,117633,,117647,2021-11-02T15:48:54.596Z,117957.74,1635863919,incremental,ni_sequenzen,NI_Sequenzen,,,,,,,,,,,,,,
,Sequence,flow.Sequence,0_2_13,,completion,14,117632,,,117633,,117648,2021-11-02T15:48:54.597Z,117957.74,1635863919,incremental,ni_sequenzen,NI_Sequenzen,,,,,,,,,,,,,,
,Screen_1,canvas.Screen,0_2_14_0,,skipped,15,117650,,,117650,,117650,2021-11-02T15:48:54.599Z,117957.74,1635863919,incremental,ni_sequenzen,NI_Sequenzen,,,,,,,,,,,,,,
,Screen_2,canvas.Screen,0_2_14_1,,skipped,15,117652,,,117650,,117652,2021-11-02T15:48:54.602Z,117957.74,1635863919,incremental,ni_sequenzen,NI_Sequenzen,,,,,,,,,,,,,,
,Screen_3,canvas.Screen,0_2_14_2,,skipped,15,117655,,,117650,,117655,2021-11-02T15:48:54.604Z,117957.74,1635863919,incremental,ni_sequenzen,NI_Sequenzen,,,,,,,,,,,,,,
,Screen_4,canvas.Screen,0_2_14_3,,skipped,15,117658,,,117650,,117658,2021-11-02T15:48:54.607Z,117957.74,1635863919,incremental,ni_sequenzen,NI_Sequenzen,,,,,,,,,,,,,,
,Screen_5,canvas.Screen,0_2_14_4,,skipped,15,117661,,,117650,,117661,2021-11-02T15:48:54.609Z,117957.74,1635863919,incremental,ni_sequenzen,NI_Sequenzen,,,,,,,,,,,,,,
,Screen_6,canvas.Screen,0_2_14_5,,skipped,15,117663,,,117650,,117663,2021-11-02T15:48:54.612Z,117957.74,1635863919,incremental,ni_sequenzen,NI_Sequenzen,,,,,,,,,,,,,,
,Sequence,flow.Sequence,0_2_14,,completion,15,117648,,,117650,,117663,2021-11-02T15:48:54.612Z,117957.74,1635863919,incremental,ni_sequenzen,NI_Sequenzen,,,,,,,,,,,,,,
,Screen_1,canvas.Screen,0_2_15_0,,skipped,16,117666,,,117666,,117666,2021-11-02T15:48:54.615Z,117957.74,1635863919,incremental,ni_sequenzen,NI_Sequenzen,,,,,,,,,,,,,,
,Screen_2,canvas.Screen,0_2_15_1,,skipped,16,117669,,,117666,,117669,2021-11-02T15:48:54.618Z,117957.74,1635863919,incremental,ni_sequenzen,NI_Sequenzen,,,,,,,,,,,,,,
,Screen_3,canvas.Screen,0_2_15_2,,skipped,16,117671,,,117666,,117671,2021-11-02T15:48:54.621Z,117957.74,1635863919,incremental,ni_sequenzen,NI_Sequenzen,,,,,,,,,,,,,,
,Screen_4,canvas.Screen,0_2_15_3,,skipped,16,117675,,,117666,,117675,2021-11-02T15:48:54.624Z,117957.74,1635863919,incremental,ni_sequenzen,NI_Sequenzen,,,,,,,,,,,,,,
,Screen_5,canvas.Screen,0_2_15_4,,skipped,16,117679,,,117666,,117679,2021-11-02T15:48:54.628Z,117957.74,1635863919,incremental,ni_sequenzen,NI_Sequenzen,,,,,,,,,,,,,,
,Screen_6,canvas.Screen,0_2_15_5,,skipped,16,117681,,,117666,,117681,2021-11-02T15:48:54.630Z,117957.74,1635863919,incremental,ni_sequenzen,NI_Sequenzen,,,,,,,,,,,,,,
,Sequence,flow.Sequence,0_2_15,,completion,16,117664,,,117666,,117681,2021-11-02T15:48:54.630Z,117957.74,1635863919,incremental,ni_sequenzen,NI_Sequenzen,,,,,,,,,,,,,,
,Screen_1,canvas.Screen,0_2_16_0,,skipped,17,117684,,,117684,,117684,2021-11-02T15:48:54.633Z,117957.74,1635863919,incremental,ni_sequenzen,NI_Sequenzen,,,,,,,,,,,,,,
,Screen_2,canvas.Screen,0_2_16_1,,skipped,17,117686,,,117684,,117686,2021-11-02T15:48:54.635Z,117957.74,1635863919,incremental,ni_sequenzen,NI_Sequenzen,,,,,,,,,,,,,,
,Screen_3,canvas.Screen,0_2_16_2,,skipped,17,117688,,,117684,,117688,2021-11-02T15:48:54.637Z,117957.74,1635863919,incremental,ni_sequenzen,NI_Sequenzen,,,,,,,,,,,,,,
,Screen_4,canvas.Screen,0_2_16_3,,skipped,17,117691,,,117684,,117691,2021-11-02T15:48:54.641Z,117957.74,1635863919,incremental,ni_sequenzen,NI_Sequenzen,,,,,,,,,,,,,,
,Screen_5,canvas.Screen,0_2_16_4,,skipped,17,117694,,,117684,,117694,2021-11-02T15:48:54.644Z,117957.74,1635863919,incremental,ni_sequenzen,NI_Sequenzen,,,,,,,,,,,,,,
,Screen_6,canvas.Screen,0_2_16_5,,skipped,17,117697,,,117684,,117697,2021-11-02T15:48:54.646Z,117957.74,1635863919,incremental,ni_sequenzen,NI_Sequenzen,,,,,,,,,,,,,,
,Sequence,flow.Sequence,0_2_16,,completion,17,117682,,,117684,,117697,2021-11-02T15:48:54.646Z,117957.74,1635863919,incremental,ni_sequenzen,NI_Sequenzen,,,,,,,,,,,,,,
,Screen_1,canvas.Screen,0_2_17_0,,skipped,18,117700,,,117700,,117700,2021-11-02T15:48:54.650Z,117957.74,1635863919,incremental,ni_sequenzen,NI_Sequenzen,,,,,,,,,,,,,,
,Screen_2,canvas.Screen,0_2_17_1,,skipped,18,117702,,,117700,,117702,2021-11-02T15:48:54.651Z,117957.74,1635863919,incremental,ni_sequenzen,NI_Sequenzen,,,,,,,,,,,,,,
,Screen_3,canvas.Screen,0_2_17_2,,skipped,18,117704,,,117700,,117704,2021-11-02T15:48:54.653Z,117957.74,1635863919,incremental,ni_sequenzen,NI_Sequenzen,,,,,,,,,,,,,,
,Screen_4,canvas.Screen,0_2_17_3,,skipped,18,117707,,,117700,,117708,2021-11-02T15:48:54.656Z,117957.74,1635863919,incremental,ni_sequenzen,NI_Sequenzen,,,,,,,,,,,,,,
,Screen_5,canvas.Screen,0_2_17_4,,skipped,18,117711,,,117700,,117711,2021-11-02T15:48:54.660Z,117957.74,1635863919,incremental,ni_sequenzen,NI_Sequenzen,,,,,,,,,,,,,,
,Screen_6,canvas.Screen,0_2_17_5,,skipped,18,117713,,,117700,,117713,2021-11-02T15:48:54.662Z,117957.74,1635863919,incremental,ni_sequenzen,NI_Sequenzen,,,,,,,,,,,,,,
,Sequence,flow.Sequence,0_2_17,,completion,18,117697,,,117700,,117713,2021-11-02T15:48:54.663Z,117957.74,1635863919,incremental,ni_sequenzen,NI_Sequenzen,,,,,,,,,,,,,,
,Screen_1,canvas.Screen,0_2_18_0,,skipped,19,117716,,,117716,,117716,2021-11-02T15:48:54.666Z,117957.74,1635863919,incremental,ni_sequenzen,NI_Sequenzen,,,,,,,,,,,,,,
,Screen_2,canvas.Screen,0_2_18_1,,skipped,19,117718,,,117716,,117718,2021-11-02T15:48:54.668Z,117957.74,1635863919,incremental,ni_sequenzen,NI_Sequenzen,,,,,,,,,,,,,,
,Screen_3,canvas.Screen,0_2_18_2,,skipped,19,117720,,,117716,,117720,2021-11-02T15:48:54.670Z,117957.74,1635863919,incremental,ni_sequenzen,NI_Sequenzen,,,,,,,,,,,,,,
,Screen_4,canvas.Screen,0_2_18_3,,skipped,19,117723,,,117716,,117723,2021-11-02T15:48:54.673Z,117957.74,1635863919,incremental,ni_sequenzen,NI_Sequenzen,,,,,,,,,,,,,,
,Screen_5,canvas.Screen,0_2_18_4,,skipped,19,117726,,,117716,,117726,2021-11-02T15:48:54.676Z,117957.74,1635863919,incremental,ni_sequenzen,NI_Sequenzen,,,,,,,,,,,,,,
,Screen_6,canvas.Screen,0_2_18_5,,skipped,19,117729,,,117716,,117729,2021-11-02T15:48:54.679Z,117957.74,1635863919,incremental,ni_sequenzen,NI_Sequenzen,,,,,,,,,,,,,,
,Sequence,flow.Sequence,0_2_18,,completion,19,117714,,,117716,,117729,2021-11-02T15:48:54.679Z,117957.74,1635863919,incremental,ni_sequenzen,NI_Sequenzen,,,,,,,,,,,,,,
,Screen_1,canvas.Screen,0_2_19_0,,skipped,20,117732,,,117732,,117732,2021-11-02T15:48:54.682Z,117957.74,1635863919,incremental,ni_sequenzen,NI_Sequenzen,,,,,,,,,,,,,,
,Screen_2,canvas.Screen,0_2_19_1,,skipped,20,117734,,,117732,,117734,2021-11-02T15:48:54.685Z,117957.74,1635863919,incremental,ni_sequenzen,NI_Sequenzen,,,,,,,,,,,,,,
,Screen_3,canvas.Screen,0_2_19_2,,skipped,20,117738,,,117732,,117738,2021-11-02T15:48:54.687Z,117957.74,1635863919,incremental,ni_sequenzen,NI_Sequenzen,,,,,,,,,,,,,,
,Screen_4,canvas.Screen,0_2_19_3,,skipped,20,117741,,,117732,,117741,2021-11-02T15:48:54.690Z,117957.74,1635863919,incremental,ni_sequenzen,NI_Sequenzen,,,,,,,,,,,,,,
,Screen_5,canvas.Screen,0_2_19_4,,skipped,20,117744,,,117732,,117744,2021-11-02T15:48:54.693Z,117957.74,1635863919,incremental,ni_sequenzen,NI_Sequenzen,,,,,,,,,,,,,,
,Screen_6,canvas.Screen,0_2_19_5,,skipped,20,117747,,,117732,,117747,2021-11-02T15:48:54.696Z,117957.74,1635863919,incremental,ni_sequenzen,NI_Sequenzen,,,,,,,,,,,,,,
,Sequence,flow.Sequence,0_2_19,,completion,20,117730,,,117732,,117747,2021-11-02T15:48:54.696Z,117957.74,1635863919,incremental,ni_sequenzen,NI_Sequenzen,,,,,,,,,,,,,,
,Screen_1,canvas.Screen,0_2_20_0,,skipped,21,117750,,,117750,,117750,2021-11-02T15:48:54.699Z,117957.74,1635863919,incremental,ni_sequenzen,NI_Sequenzen,,,,,,,,,,,,,,
,Screen_2,canvas.Screen,0_2_20_1,,skipped,21,117753,,,117750,,117753,2021-11-02T15:48:54.701Z,117957.74,1635863919,incremental,ni_sequenzen,NI_Sequenzen,,,,,,,,,,,,,,
,Screen_3,canvas.Screen,0_2_20_2,,skipped,21,117757,,,117750,,117757,2021-11-02T15:48:54.706Z,117957.74,1635863919,incremental,ni_sequenzen,NI_Sequenzen,,,,,,,,,,,,,,
,Screen_4,canvas.Screen,0_2_20_3,,skipped,21,117762,,,117750,,117762,2021-11-02T15:48:54.711Z,117957.74,1635863919,incremental,ni_sequenzen,NI_Sequenzen,,,,,,,,,,,,,,
,Screen_5,canvas.Screen,0_2_20_4,,skipped,21,117768,,,117750,,117768,2021-11-02T15:48:54.717Z,117957.74,1635863919,incremental,ni_sequenzen,NI_Sequenzen,,,,,,,,,,,,,,
,Screen_6,canvas.Screen,0_2_20_5,,skipped,21,117769,,,117750,,117769,2021-11-02T15:48:54.719Z,117957.74,1635863919,incremental,ni_sequenzen,NI_Sequenzen,,,,,,,,,,,,,,
,Sequence,flow.Sequence,0_2_20,,completion,21,117749,,,117750,,117770,2021-11-02T15:48:54.719Z,117957.74,1635863919,incremental,ni_sequenzen,NI_Sequenzen,,,,,,,,,,,,,,
,Screen_1,canvas.Screen,0_2_21_0,,skipped,22,117774,,,117774,,117774,2021-11-02T15:48:54.723Z,117957.74,1635863919,incremental,ni_sequenzen,NI_Sequenzen,,,,,,,,,,,,,,
,Screen_2,canvas.Screen,0_2_21_1,,skipped,22,117776,,,117774,,117777,2021-11-02T15:48:54.726Z,117957.74,1635863919,incremental,ni_sequenzen,NI_Sequenzen,,,,,,,,,,,,,,
,Screen_3,canvas.Screen,0_2_21_2,,skipped,22,117778,,,117774,,117779,2021-11-02T15:48:54.729Z,117957.74,1635863919,incremental,ni_sequenzen,NI_Sequenzen,,,,,,,,,,,,,,
,Screen_4,canvas.Screen,0_2_21_3,,skipped,22,117781,,,117774,,117781,2021-11-02T15:48:54.731Z,117957.74,1635863919,incremental,ni_sequenzen,NI_Sequenzen,,,,,,,,,,,,,,
,Screen_5,canvas.Screen,0_2_21_4,,skipped,22,117783,,,117774,,117783,2021-11-02T15:48:54.733Z,117957.74,1635863919,incremental,ni_sequenzen,NI_Sequenzen,,,,,,,,,,,,,,
,Screen_6,canvas.Screen,0_2_21_5,,skipped,22,117785,,,117774,,117785,2021-11-02T15:48:54.734Z,117957.74,1635863919,incremental,ni_sequenzen,NI_Sequenzen,,,,,,,,,,,,,,
,Sequence,flow.Sequence,0_2_21,,completion,22,117770,,,117774,,117785,2021-11-02T15:48:54.734Z,117957.74,1635863919,incremental,ni_sequenzen,NI_Sequenzen,,,,,,,,,,,,,,
,Screen_1,canvas.Screen,0_2_22_0,,skipped,23,117787,,,117787,,117787,2021-11-02T15:48:54.736Z,117957.74,1635863919,incremental,ni_sequenzen,NI_Sequenzen,,,,,,,,,,,,,,
,Screen_2,canvas.Screen,0_2_22_1,,skipped,23,117790,,,117787,,117790,2021-11-02T15:48:54.740Z,117957.74,1635863919,incremental,ni_sequenzen,NI_Sequenzen,,,,,,,,,,,,,,
,Screen_3,canvas.Screen,0_2_22_2,,skipped,23,117792,,,117787,,117793,2021-11-02T15:48:54.742Z,117957.74,1635863919,incremental,ni_sequenzen,NI_Sequenzen,,,,,,,,,,,,,,
,Screen_4,canvas.Screen,0_2_22_3,,skipped,23,117796,,,117787,,117796,2021-11-02T15:48:54.746Z,117957.74,1635863919,incremental,ni_sequenzen,NI_Sequenzen,,,,,,,,,,,,,,
,Screen_5,canvas.Screen,0_2_22_4,,skipped,23,117799,,,117787,,117799,2021-11-02T15:48:54.749Z,117957.74,1635863919,incremental,ni_sequenzen,NI_Sequenzen,,,,,,,,,,,,,,
,Screen_6,canvas.Screen,0_2_22_5,,skipped,23,117801,,,117787,,117802,2021-11-02T15:48:54.751Z,117957.74,1635863919,incremental,ni_sequenzen,NI_Sequenzen,,,,,,,,,,,,,,
,Sequence,flow.Sequence,0_2_22,,completion,23,117785,,,117787,,117802,2021-11-02T15:48:54.751Z,117957.74,1635863919,incremental,ni_sequenzen,NI_Sequenzen,,,,,,,,,,,,,,
,Screen_1,canvas.Screen,0_2_23_0,,skipped,24,117804,,,117804,,117804,2021-11-02T15:48:54.753Z,117957.74,1635863919,incremental,ni_sequenzen,NI_Sequenzen,,,,,,,,,,,,,,
,Screen_2,canvas.Screen,0_2_23_1,,skipped,24,117806,,,117804,,117806,2021-11-02T15:48:54.755Z,117957.74,1635863919,incremental,ni_sequenzen,NI_Sequenzen,,,,,,,,,,,,,,
,Screen_3,canvas.Screen,0_2_23_2,,skipped,24,117809,,,117804,,117809,2021-11-02T15:48:54.759Z,117957.74,1635863919,incremental,ni_sequenzen,NI_Sequenzen,,,,,,,,,,,,,,
,Screen_4,canvas.Screen,0_2_23_3,,skipped,24,117812,,,117804,,117812,2021-11-02T15:48:54.761Z,117957.74,1635863919,incremental,ni_sequenzen,NI_Sequenzen,,,,,,,,,,,,,,
,Screen_5,canvas.Screen,0_2_23_4,,skipped,24,117814,,,117804,,117814,2021-11-02T15:48:54.764Z,117957.74,1635863919,incremental,ni_sequenzen,NI_Sequenzen,,,,,,,,,,,,,,
,Screen_6,canvas.Screen,0_2_23_5,,skipped,24,117816,,,117804,,117816,2021-11-02T15:48:54.766Z,117957.74,1635863919,incremental,ni_sequenzen,NI_Sequenzen,,,,,,,,,,,,,,
,Sequence,flow.Sequence,0_2_23,,completion,24,117803,,,117804,,117816,2021-11-02T15:48:54.766Z,117957.74,1635863919,incremental,ni_sequenzen,NI_Sequenzen,,,,,,,,,,,,,,
,Screen_1,canvas.Screen,0_2_24_0,,skipped,25,117819,,,117819,,117819,2021-11-02T15:48:54.768Z,117957.74,1635863919,incremental,ni_sequenzen,NI_Sequenzen,,,,,,,,,,,,,,
,Screen_2,canvas.Screen,0_2_24_1,,skipped,25,117821,,,117819,,117821,2021-11-02T15:48:54.770Z,117957.74,1635863919,incremental,ni_sequenzen,NI_Sequenzen,,,,,,,,,,,,,,
,Screen_3,canvas.Screen,0_2_24_2,,skipped,25,117824,,,117819,,117824,2021-11-02T15:48:54.773Z,117957.74,1635863919,incremental,ni_sequenzen,NI_Sequenzen,,,,,,,,,,,,,,
,Screen_4,canvas.Screen,0_2_24_3,,skipped,25,117827,,,117819,,117827,2021-11-02T15:48:54.776Z,117957.74,1635863919,incremental,ni_sequenzen,NI_Sequenzen,,,,,,,,,,,,,,
,Screen_5,canvas.Screen,0_2_24_4,,skipped,25,117829,,,117819,,117829,2021-11-02T15:48:54.779Z,117957.74,1635863919,incremental,ni_sequenzen,NI_Sequenzen,,,,,,,,,,,,,,
,Screen_6,canvas.Screen,0_2_24_5,,skipped,25,117832,,,117819,,117832,2021-11-02T15:48:54.781Z,117957.74,1635863919,incremental,ni_sequenzen,NI_Sequenzen,,,,,,,,,,,,,,
,Sequence,flow.Sequence,0_2_24,,completion,25,117817,,,117819,,117832,2021-11-02T15:48:54.781Z,117957.74,1635863919,incremental,ni_sequenzen,NI_Sequenzen,,,,,,,,,,,,,,
,Screen_1,canvas.Screen,0_2_25_0,,skipped,26,117834,,,117834,,117834,2021-11-02T15:48:54.783Z,117957.74,1635863919,incremental,ni_sequenzen,NI_Sequenzen,,,,,,,,,,,,,,
,Screen_2,canvas.Screen,0_2_25_1,,skipped,26,117836,,,117834,,117836,2021-11-02T15:48:54.786Z,117957.74,1635863919,incremental,ni_sequenzen,NI_Sequenzen,,,,,,,,,,,,,,
,Screen_3,canvas.Screen,0_2_25_2,,skipped,26,117838,,,117834,,117839,2021-11-02T15:48:54.788Z,117957.74,1635863919,incremental,ni_sequenzen,NI_Sequenzen,,,,,,,,,,,,,,
,Screen_4,canvas.Screen,0_2_25_3,,skipped,26,117841,,,117834,,117841,2021-11-02T15:48:54.790Z,117957.74,1635863919,incremental,ni_sequenzen,NI_Sequenzen,,,,,,,,,,,,,,
,Screen_5,canvas.Screen,0_2_25_4,,skipped,26,117844,,,117834,,117844,2021-11-02T15:48:54.793Z,117957.74,1635863919,incremental,ni_sequenzen,NI_Sequenzen,,,,,,,,,,,,,,
,Screen_6,canvas.Screen,0_2_25_5,,skipped,26,117846,,,117834,,117846,2021-11-02T15:48:54.796Z,117957.74,1635863919,incremental,ni_sequenzen,NI_Sequenzen,,,,,,,,,,,,,,
,Sequence,flow.Sequence,0_2_25,,completion,26,117833,,,117834,,117846,2021-11-02T15:48:54.796Z,117957.74,1635863919,incremental,ni_sequenzen,NI_Sequenzen,,,,,,,,,,,,,,
,Screen_1,canvas.Screen,0_2_26_0,,skipped,27,117849,,,117849,,117849,2021-11-02T15:48:54.799Z,117957.74,1635863919,incremental,ni_sequenzen,NI_Sequenzen,,,,,,,,,,,,,,
,Screen_2,canvas.Screen,0_2_26_1,,skipped,27,117851,,,117849,,117851,2021-11-02T15:48:54.800Z,117957.74,1635863919,incremental,ni_sequenzen,NI_Sequenzen,,,,,,,,,,,,,,
,Screen_3,canvas.Screen,0_2_26_2,,skipped,27,117852,,,117849,,117852,2021-11-02T15:48:54.802Z,117957.74,1635863919,incremental,ni_sequenzen,NI_Sequenzen,,,,,,,,,,,,,,
,Screen_4,canvas.Screen,0_2_26_3,,skipped,27,117855,,,117849,,117855,2021-11-02T15:48:54.805Z,117957.74,1635863919,incremental,ni_sequenzen,NI_Sequenzen,,,,,,,,,,,,,,
,Screen_5,canvas.Screen,0_2_26_4,,skipped,27,117858,,,117849,,117858,2021-11-02T15:48:54.807Z,117957.74,1635863919,incremental,ni_sequenzen,NI_Sequenzen,,,,,,,,,,,,,,
,Screen_6,canvas.Screen,0_2_26_5,,skipped,27,117860,,,117849,,117861,2021-11-02T15:48:54.810Z,117957.74,1635863919,incremental,ni_sequenzen,NI_Sequenzen,,,,,,,,,,,,,,
,Sequence,flow.Sequence,0_2_26,,completion,27,117847,,,117849,,117861,2021-11-02T15:48:54.810Z,117957.74,1635863919,incremental,ni_sequenzen,NI_Sequenzen,,,,,,,,,,,,,,
,Screen_1,canvas.Screen,0_2_27_0,,skipped,28,117863,,,117863,,117863,2021-11-02T15:48:54.813Z,117957.74,1635863919,incremental,ni_sequenzen,NI_Sequenzen,,,,,,,,,,,,,,
,Screen_2,canvas.Screen,0_2_27_1,,skipped,28,117865,,,117863,,117865,2021-11-02T15:48:54.815Z,117957.74,1635863919,incremental,ni_sequenzen,NI_Sequenzen,,,,,,,,,,,,,,
,Screen_3,canvas.Screen,0_2_27_2,,skipped,28,117867,,,117863,,117867,2021-11-02T15:48:54.817Z,117957.74,1635863919,incremental,ni_sequenzen,NI_Sequenzen,,,,,,,,,,,,,,
,Screen_4,canvas.Screen,0_2_27_3,,skipped,28,117869,,,117863,,117869,2021-11-02T15:48:54.818Z,117957.74,1635863919,incremental,ni_sequenzen,NI_Sequenzen,,,,,,,,,,,,,,
,Screen_5,canvas.Screen,0_2_27_4,,skipped,28,117871,,,117863,,117872,2021-11-02T15:48:54.821Z,117957.74,1635863919,incremental,ni_sequenzen,NI_Sequenzen,,,,,,,,,,,,,,
,Screen_6,canvas.Screen,0_2_27_5,,skipped,28,117874,,,117863,,117874,2021-11-02T15:48:54.824Z,117957.74,1635863919,incremental,ni_sequenzen,NI_Sequenzen,,,,,,,,,,,,,,
,Sequence,flow.Sequence,0_2_27,,completion,28,117863,,,117863,,117874,2021-11-02T15:48:54.824Z,117957.74,1635863919,incremental,ni_sequenzen,NI_Sequenzen,,,,,,,,,,,,,,
,Screen_1,canvas.Screen,0_2_28_0,,skipped,29,117878,,,117878,,117878,2021-11-02T15:48:54.828Z,117957.74,1635863919,incremental,ni_sequenzen,NI_Sequenzen,,,,,,,,,,,,,,
,Screen_2,canvas.Screen,0_2_28_1,,skipped,29,117880,,,117878,,117880,2021-11-02T15:48:54.830Z,117957.74,1635863919,incremental,ni_sequenzen,NI_Sequenzen,,,,,,,,,,,,,,
,Screen_3,canvas.Screen,0_2_28_2,,skipped,29,117882,,,117878,,117882,2021-11-02T15:48:54.832Z,117957.74,1635863919,incremental,ni_sequenzen,NI_Sequenzen,,,,,,,,,,,,,,
,Screen_4,canvas.Screen,0_2_28_3,,skipped,29,117884,,,117878,,117884,2021-11-02T15:48:54.834Z,117957.74,1635863919,incremental,ni_sequenzen,NI_Sequenzen,,,,,,,,,,,,,,
,Screen_5,canvas.Screen,0_2_28_4,,skipped,29,117886,,,117878,,117886,2021-11-02T15:48:54.835Z,117957.74,1635863919,incremental,ni_sequenzen,NI_Sequenzen,,,,,,,,,,,,,,
,Screen_6,canvas.Screen,0_2_28_5,,skipped,29,117888,,,117878,,117888,2021-11-02T15:48:54.837Z,117957.74,1635863919,incremental,ni_sequenzen,NI_Sequenzen,,,,,,,,,,,,,,
,Sequence,flow.Sequence,0_2_28,,completion,29,117876,,,117878,,117888,2021-11-02T15:48:54.837Z,117957.74,1635863919,incremental,ni_sequenzen,NI_Sequenzen,,,,,,,,,,,,,,
,Screen_1,canvas.Screen,0_2_29_0,,skipped,30,117891,,,117891,,117891,2021-11-02T15:48:54.841Z,117957.74,1635863919,incremental,ni_sequenzen,NI_Sequenzen,,,,,,,,,,,,,,
,Screen_2,canvas.Screen,0_2_29_1,,skipped,30,117894,,,117891,,117894,2021-11-02T15:48:54.843Z,117957.74,1635863919,incremental,ni_sequenzen,NI_Sequenzen,,,,,,,,,,,,,,
,Screen_3,canvas.Screen,0_2_29_2,,skipped,30,117897,,,117891,,117897,2021-11-02T15:48:54.846Z,117957.74,1635863919,incremental,ni_sequenzen,NI_Sequenzen,,,,,,,,,,,,,,
,Screen_4,canvas.Screen,0_2_29_3,,skipped,30,117899,,,117891,,117899,2021-11-02T15:48:54.848Z,117957.74,1635863919,incremental,ni_sequenzen,NI_Sequenzen,,,,,,,,,,,,,,
,Screen_5,canvas.Screen,0_2_29_4,,skipped,30,117901,,,117891,,117901,2021-11-02T15:48:54.851Z,117957.74,1635863919,incremental,ni_sequenzen,NI_Sequenzen,,,,,,,,,,,,,,
,Screen_6,canvas.Screen,0_2_29_5,,skipped,30,117903,,,117891,,117903,2021-11-02T15:48:54.853Z,117957.74,1635863919,incremental,ni_sequenzen,NI_Sequenzen,,,,,,,,,,,,,,
,Sequence,flow.Sequence,0_2_29,,completion,30,117889,,,117891,,117904,2021-11-02T15:48:54.853Z,117957.74,1635863919,incremental,ni_sequenzen,NI_Sequenzen,,,,,,,,,,,,,,
,Instructions_II,flow.Loop,0_2,,completion,,113373,113377.02,113383,117891,4508,117904,2021-11-02T15:48:54.853Z,117957.74,1635863919,incremental,ni_sequenzen,NI_Sequenzen,,,,,,,,,,,,,,
,Move,canvas.Screen,0_3_0_0_0_0,right,response,,117945,117945.8,117957.74,118174,216.25999999999476,118179,2021-11-02T15:48:55.130Z,118207.26,1635863919,incremental,ni_sequenzen,NI_Sequenzen,1,0,,,,,,,,,,,,
,Move,canvas.Screen,0_3_0_0_0_1,down,response,,118193,118192.66,118207.26,118918,710.7400000000052,118923,2021-11-02T15:48:55.873Z,118955.8,1635863919,incremental,ni_sequenzen,NI_Sequenzen,2,0,,,,,,,,,,,,
,Move,canvas.Screen,0_3_0_0_0_2,left,response,,118939,118939.26,118955.8,119187,231.1999999999971,119193,2021-11-02T15:48:56.142Z,119221.88,1635863919,incremental,ni_sequenzen,NI_Sequenzen,3,0,,,,,,,,,,,,
,Move,canvas.Screen,0_3_0_0_0_3,down,response,,119205,119204.86,119221.88,119660,438.11999999999534,119664,2021-11-02T15:48:56.613Z,119687.9,1635863919,incremental,ni_sequenzen,NI_Sequenzen,4,0,,,,,,,,,,,,
,Move,canvas.Screen,0_3_0_0_0_4,right,response,,119678,119678.24,119687.9,119920,232.10000000000582,119926,2021-11-02T15:48:56.875Z,120054.1,1635863919,incremental,ni_sequenzen,NI_Sequenzen,5,0,,,,,,,,,,,,
,Move,canvas.Screen,0_3_0_0_0_5,-999,skipped,,119938,,,119920,,119938,2021-11-02T15:48:56.887Z,120054.1,1635863919,incremental,ni_sequenzen,NI_Sequenzen,6,0,,,,,,,,,,,,
,Move,canvas.Screen,0_3_0_0_0_6,-999,skipped,,119948,,,119920,,119948,2021-11-02T15:48:56.897Z,120054.1,1635863919,incremental,ni_sequenzen,NI_Sequenzen,7,0,,,,,,,,,,,,
,Move,canvas.Screen,0_3_0_0_0_7,-999,skipped,,119959,,,119920,,119959,2021-11-02T15:48:56.908Z,120054.1,1635863919,incremental,ni_sequenzen,NI_Sequenzen,8,0,,,,,,,,,,,,
,Move,canvas.Screen,0_3_0_0_0_8,-999,skipped,,119968,,,119920,,119968,2021-11-02T15:48:56.918Z,120054.1,1635863919,incremental,ni_sequenzen,NI_Sequenzen,9,0,,,,,,,,,,,,
,Move,canvas.Screen,0_3_0_0_0_9,-999,skipped,,119978,,,119920,,119978,2021-11-02T15:48:56.927Z,120054.1,1635863919,incremental,ni_sequenzen,NI_Sequenzen,10,0,,,,,,,,,,,,
,Move,canvas.Screen,0_3_0_0_0_10,-999,skipped,,119990,,,119920,,119991,2021-11-02T15:48:56.939Z,120054.1,1635863919,incremental,ni_sequenzen,NI_Sequenzen,11,0,,,,,,,,,,,,
,Move,canvas.Screen,0_3_0_0_0_11,-999,skipped,,119999,,,119920,,119999,2021-11-02T15:48:56.948Z,120054.1,1635863919,incremental,ni_sequenzen,NI_Sequenzen,12,0,,,,,,,,,,,,
,Move,canvas.Screen,0_3_0_0_0_12,-999,skipped,,120010,,,119920,,120010,2021-11-02T15:48:56.960Z,120054.1,1635863919,incremental,ni_sequenzen,NI_Sequenzen,13,0,,,,,,,,,,,,
,Move,canvas.Screen,0_3_0_0_0_13,-999,skipped,,120020,,,119920,,120020,2021-11-02T15:48:56.969Z,120054.1,1635863919,incremental,ni_sequenzen,NI_Sequenzen,14,0,,,,,,,,,,,,
,Move,canvas.Screen,0_3_0_0_0_14,-999,skipped,,120033,,,119920,,120033,2021-11-02T15:48:56.982Z,120054.1,1635863919,incremental,ni_sequenzen,NI_Sequenzen,15,0,,,,,,,,,,,,
,Loop,flow.Loop,0_3_0_0_0,-999,completion,,117933,117945.8,117957.74,119920,1962.2599999999948,120033,2021-11-02T15:48:56.982Z,120054.1,1635863919,incremental,ni_sequenzen,NI_Sequenzen,,0,,,,,,,,,,,,
,Feedback,canvas.Screen,0_3_0_0_1,,timeout,,120043,120042.92,120054.1,124029.82,4003.5,124035,2021-11-02T15:49:00.985Z,124057.6,1635863919,incremental,ni_sequenzen,NI_Sequenzen,,0,,,,,,,,,,,,
,Trial,flow.Sequence,0_3_0_0,,completion,,117924,117945.8,117957.74,124029.82,6072.080000000002,124035,2021-11-02T15:49:00.986Z,124063.1,1635863919,incremental,ni_sequenzen,NI_Sequenzen,,0,,,,,,,,,,,,
,Move,canvas.Screen,0_3_0_1_0_0,down,response,,124058,124057.6,124063.1,124716,652.8999999999942,124720,2021-11-02T15:49:01.670Z,124745.36,1635863919,incremental,ni_sequenzen,NI_Sequenzen,1,1,,,,,,,,,,,,
,Move,canvas.Screen,0_3_0_1_0_1,left,response,,124730,124730.34,124745.36,124966,220.63999999999942,124972,2021-11-02T15:49:01.920Z,124994.84,1635863919,incremental,ni_sequenzen,NI_Sequenzen,2,1,,,,,,,,,,,,
,Move,canvas.Screen,0_3_0_1_0_2,down,response,,124982,124982.56,124994.84,125339,344.1600000000035,125343,2021-11-02T15:49:02.292Z,125360.6,1635863919,incremental,ni_sequenzen,NI_Sequenzen,3,1,,,,,,,,,,,,
,Move,canvas.Screen,0_3_0_1_0_3,right,response,,125353,125353.2,125360.6,125552,191.39999999999418,125559,2021-11-02T15:49:02.509Z,125576.9,1635863919,incremental,ni_sequenzen,NI_Sequenzen,4,1,,,,,,,,,,,,
,Move,canvas.Screen,0_3_0_1_0_4,down,response,,125571,125570.94,125576.9,125772,195.10000000000582,125777,2021-11-02T15:49:02.726Z,125893.02,1635863919,incremental,ni_sequenzen,NI_Sequenzen,5,1,,,,,,,,,,,,
,Move,canvas.Screen,0_3_0_1_0_5,-999,skipped,,125792,,,125772,,125792,2021-11-02T15:49:02.741Z,125893.02,1635863919,incremental,ni_sequenzen,NI_Sequenzen,6,1,,,,,,,,,,,,
,Move,canvas.Screen,0_3_0_1_0_6,-999,skipped,,125801,,,125772,,125802,2021-11-02T15:49:02.751Z,125893.02,1635863919,incremental,ni_sequenzen,NI_Sequenzen,7,1,,,,,,,,,,,,
,Move,canvas.Screen,0_3_0_1_0_7,-999,skipped,,125812,,,125772,,125812,2021-11-02T15:49:02.761Z,125893.02,1635863919,incremental,ni_sequenzen,NI_Sequenzen,8,1,,,,,,,,,,,,
,Move,canvas.Screen,0_3_0_1_0_8,-999,skipped,,125821,,,125772,,125821,2021-11-02T15:49:02.769Z,125893.02,1635863919,incremental,ni_sequenzen,NI_Sequenzen,9,1,,,,,,,,,,,,
,Move,canvas.Screen,0_3_0_1_0_9,-999,skipped,,125830,,,125772,,125830,2021-11-02T15:49:02.780Z,125893.02,1635863919,incremental,ni_sequenzen,NI_Sequenzen,10,1,,,,,,,,,,,,
,Move,canvas.Screen,0_3_0_1_0_10,-999,skipped,,125839,,,125772,,125839,2021-11-02T15:49:02.788Z,125893.02,1635863919,incremental,ni_sequenzen,NI_Sequenzen,11,1,,,,,,,,,,,,
,Move,canvas.Screen,0_3_0_1_0_11,-999,skipped,,125852,,,125772,,125852,2021-11-02T15:49:02.801Z,125893.02,1635863919,incremental,ni_sequenzen,NI_Sequenzen,12,1,,,,,,,,,,,,
,Move,canvas.Screen,0_3_0_1_0_12,-999,skipped,,125861,,,125772,,125862,2021-11-02T15:49:02.811Z,125893.02,1635863919,incremental,ni_sequenzen,NI_Sequenzen,13,1,,,,,,,,,,,,
,Move,canvas.Screen,0_3_0_1_0_13,-999,skipped,,125870,,,125772,,125870,2021-11-02T15:49:02.820Z,125893.02,1635863919,incremental,ni_sequenzen,NI_Sequenzen,14,1,,,,,,,,,,,,
,Move,canvas.Screen,0_3_0_1_0_14,-999,skipped,,125879,,,125772,,125879,2021-11-02T15:49:02.829Z,125893.02,1635863919,incremental,ni_sequenzen,NI_Sequenzen,15,1,,,,,,,,,,,,
,Loop,flow.Loop,0_3_0_1_0,-999,completion,,124048,124057.6,124063.1,125772,1708.8999999999942,125879,2021-11-02T15:49:02.829Z,125893.02,1635863919,incremental,ni_sequenzen,NI_Sequenzen,,1,,,,,,,,,,,,
,Feedback,canvas.Screen,0_3_0_1_1,,timeout,,125886,125886.5,125893.02,129870.72,4016.959999999992,129878,2021-11-02T15:49:06.827Z,129909.98,1635863919,incremental,ni_sequenzen,NI_Sequenzen,,1,,,,,,,,,,,,
,Trial,flow.Sequence,0_3_0_1,,completion,,124037,124057.6,124063.1,129870.72,5807.619999999995,129878,2021-11-02T15:49:06.828Z,129919.26,1635863919,incremental,ni_sequenzen,NI_Sequenzen,,1,,,,,,,,,,,,
,Move,canvas.Screen,0_3_0_2_0_0,left,response,,129910,129909.98,129919.26,133597,3677.7400000000052,133604,2021-11-02T15:49:10.553Z,133629.62,1635863919,incremental,ni_sequenzen,NI_Sequenzen,1,2,,,,,,,,,,,,
,Move,canvas.Screen,0_3_0_2_0_1,down,response,,133620,133619.74,133629.62,133793,163.38000000000466,133798,2021-11-02T15:49:10.748Z,133828.58,1635863919,incremental,ni_sequenzen,NI_Sequenzen,2,2,,,,,,,,,,,,
,Move,canvas.Screen,0_3_0_2_0_2,down,response,,133816,133816.16,133828.58,133926,97.4200000000128,133931,2021-11-02T15:49:10.880Z,133945.18,1635863919,incremental,ni_sequenzen,NI_Sequenzen,3,2,,,,,,,,,,,,
,Move,canvas.Screen,0_3_0_2_0_3,left,response,,133942,133942.38,133945.18,134146,200.82000000000698,134153,2021-11-02T15:49:11.103Z,134328.14,1635863919,incremental,ni_sequenzen,NI_Sequenzen,4,2,,,,,,,,,,,,
,Move,canvas.Screen,0_3_0_2_0_4,-999,skipped,,134170,,,134146,,134170,2021-11-02T15:49:11.119Z,134328.14,1635863919,incremental,ni_sequenzen,NI_Sequenzen,5,2,,,,,,,,,,,,
,Move,canvas.Screen,0_3_0_2_0_5,-999,skipped,,134186,,,134146,,134187,2021-11-02T15:49:11.136Z,134328.14,1635863919,incremental,ni_sequenzen,NI_Sequenzen,6,2,,,,,,,,,,,,
,Move,canvas.Screen,0_3_0_2_0_6,-999,skipped,,134199,,,134146,,134199,2021-11-02T15:49:11.149Z,134328.14,1635863919,incremental,ni_sequenzen,NI_Sequenzen,7,2,,,,,,,,,,,,
,Move,canvas.Screen,0_3_0_2_0_7,-999,skipped,,134211,,,134146,,134212,2021-11-02T15:49:11.161Z,134328.14,1635863919,incremental,ni_sequenzen,NI_Sequenzen,8,2,,,,,,,,,,,,
,Move,canvas.Screen,0_3_0_2_0_8,-999,skipped,,134227,,,134146,,134227,2021-11-02T15:49:11.176Z,134328.14,1635863919,incremental,ni_sequenzen,NI_Sequenzen,9,2,,,,,,,,,,,,
,Move,canvas.Screen,0_3_0_2_0_9,-999,skipped,,134246,,,134146,,134246,2021-11-02T15:49:11.195Z,134328.14,1635863919,incremental,ni_sequenzen,NI_Sequenzen,10,2,,,,,,,,,,,,
,Move,canvas.Screen,0_3_0_2_0_10,-999,skipped,,134260,,,134146,,134260,2021-11-02T15:49:11.210Z,134328.14,1635863919,incremental,ni_sequenzen,NI_Sequenzen,11,2,,,,,,,,,,,,
,Move,canvas.Screen,0_3_0_2_0_11,-999,skipped,,134273,,,134146,,134274,2021-11-02T15:49:11.224Z,134328.14,1635863919,incremental,ni_sequenzen,NI_Sequenzen,12,2,,,,,,,,,,,,
,Move,canvas.Screen,0_3_0_2_0_12,-999,skipped,,134290,,,134146,,134290,2021-11-02T15:49:11.239Z,134328.14,1635863919,incremental,ni_sequenzen,NI_Sequenzen,13,2,,,,,,,,,,,,
,Move,canvas.Screen,0_3_0_2_0_13,-999,skipped,,134301,,,134146,,134301,2021-11-02T15:49:11.251Z,134328.14,1635863919,incremental,ni_sequenzen,NI_Sequenzen,14,2,,,,,,,,,,,,
,Move,canvas.Screen,0_3_0_2_0_14,-999,skipped,,134313,,,134146,,134313,2021-11-02T15:49:11.262Z,134328.14,1635863919,incremental,ni_sequenzen,NI_Sequenzen,15,2,,,,,,,,,,,,
,Loop,flow.Loop,0_3_0_2_0,-999,completion,,129894,129909.98,129919.26,134146,4226.740000000005,134313,2021-11-02T15:49:11.263Z,134328.14,1635863919,incremental,ni_sequenzen,NI_Sequenzen,,2,,,,,,,,,,,,
,Feedback,canvas.Screen,0_3_0_2_1,,timeout,,134323,134323.24,134328.14,138304.08,4039.3399999999965,138311,2021-11-02T15:49:15.260Z,138367.48,1635863919,incremental,ni_sequenzen,NI_Sequenzen,,2,,,,,,,,,,,,
,Trial,flow.Sequence,0_3_0_2,,completion,,129879,129909.98,129919.26,138304.08,8384.819999999992,138313,2021-11-02T15:49:15.262Z,138370.26,1635863919,incremental,ni_sequenzen,NI_Sequenzen,,2,,,,,,,,,,,,
,Move,canvas.Screen,0_3_0_3_0_0,left,response,,138367,138367.48,138370.26,139104,733.7399999999907,139108,2021-11-02T15:49:16.058Z,139135.76,1635863919,incremental,ni_sequenzen,NI_Sequenzen,1,3,,,,,,,,,,,,
,Move,canvas.Screen,0_3_0_3_0_1,down,response,,139130,139130.58,139135.76,139287,151.2399999999907,139294,2021-11-02T15:49:16.243Z,139335.12,1635863919,incremental,ni_sequenzen,NI_Sequenzen,2,3,,,,,,,,,,,,
,Move,canvas.Screen,0_3_0_3_0_2,right,response,,139321,139320.9,139335.12,139459,123.88000000000466,139463,2021-11-02T15:49:16.412Z,139485.14,1635863919,incremental,ni_sequenzen,NI_Sequenzen,3,3,,,,,,,,,,,,
,Move,canvas.Screen,0_3_0_3_0_3,left,response,,139480,139479.74,139485.14,139695,209.85999999998603,139699,2021-11-02T15:49:16.648Z,139885.14,1635863919,incremental,ni_sequenzen,NI_Sequenzen,4,3,,,,,,,,,,,,
,Move,canvas.Screen,0_3_0_3_0_4,-999,skipped,,139721,,,139695,,139722,2021-11-02T15:49:16.672Z,139885.14,1635863919,incremental,ni_sequenzen,NI_Sequenzen,5,3,,,,,,,,,,,,
,Move,canvas.Screen,0_3_0_3_0_5,-999,skipped,,139736,,,139695,,139736,2021-11-02T15:49:16.686Z,139885.14,1635863919,incremental,ni_sequenzen,NI_Sequenzen,6,3,,,,,,,,,,,,
,Move,canvas.Screen,0_3_0_3_0_6,-999,skipped,,139749,,,139695,,139749,2021-11-02T15:49:16.698Z,139885.14,1635863919,incremental,ni_sequenzen,NI_Sequenzen,7,3,,,,,,,,,,,,
,Move,canvas.Screen,0_3_0_3_0_7,-999,skipped,,139761,,,139695,,139762,2021-11-02T15:49:16.711Z,139885.14,1635863919,incremental,ni_sequenzen,NI_Sequenzen,8,3,,,,,,,,,,,,
,Move,canvas.Screen,0_3_0_3_0_8,-999,skipped,,139775,,,139695,,139776,2021-11-02T15:49:16.725Z,139885.14,1635863919,incremental,ni_sequenzen,NI_Sequenzen,9,3,,,,,,,,,,,,
,Move,canvas.Screen,0_3_0_3_0_9,-999,skipped,,139787,,,139695,,139787,2021-11-02T15:49:16.737Z,139885.14,1635863919,incremental,ni_sequenzen,NI_Sequenzen,10,3,,,,,,,,,,,,
,Move,canvas.Screen,0_3_0_3_0_10,-999,skipped,,139804,,,139695,,139804,2021-11-02T15:49:16.754Z,139885.14,1635863919,incremental,ni_sequenzen,NI_Sequenzen,11,3,,,,,,,,,,,,
,Move,canvas.Screen,0_3_0_3_0_11,-999,skipped,,139821,,,139695,,139821,2021-11-02T15:49:16.771Z,139885.14,1635863919,incremental,ni_sequenzen,NI_Sequenzen,12,3,,,,,,,,,,,,
,Move,canvas.Screen,0_3_0_3_0_12,-999,skipped,,139832,,,139695,,139832,2021-11-02T15:49:16.782Z,139885.14,1635863919,incremental,ni_sequenzen,NI_Sequenzen,13,3,,,,,,,,,,,,
,Move,canvas.Screen,0_3_0_3_0_13,-999,skipped,,139851,,,139695,,139851,2021-11-02T15:49:16.800Z,139885.14,1635863919,incremental,ni_sequenzen,NI_Sequenzen,14,3,,,,,,,,,,,,
,Move,canvas.Screen,0_3_0_3_0_14,-999,skipped,,139864,,,139695,,139865,2021-11-02T15:49:16.814Z,139885.14,1635863919,incremental,ni_sequenzen,NI_Sequenzen,15,3,,,,,,,,,,,,
,Loop,flow.Loop,0_3_0_3_0,-999,completion,,138347,138367.48,138370.26,139695,1324.7399999999907,139865,2021-11-02T15:49:16.814Z,139885.14,1635863919,incremental,ni_sequenzen,NI_Sequenzen,,3,,,,,,,,,,,,
,Feedback,canvas.Screen,0_3_0_3_1,,timeout,,139876,139876.06,139885.14,143877.46,4063.1199999999953,143887,2021-11-02T15:49:20.837Z,143948.26,1635863919,incremental,ni_sequenzen,NI_Sequenzen,,3,,,,,,,,,,,,
,Trial,flow.Sequence,0_3_0_3,,completion,,138314,138367.48,138370.26,143877.46,5507.1999999999825,143889,2021-11-02T15:49:20.839Z,143960.64,1635863919,incremental,ni_sequenzen,NI_Sequenzen,,3,,,,,,,,,,,,
,Move,canvas.Screen,0_3_0_4_0_0,down,response,,143948,143948.26,143960.64,145306,1345.359999999986,145312,2021-11-02T15:49:22.261Z,145341.4,1635863919,incremental,ni_sequenzen,NI_Sequenzen,1,4,,,,,,,,,,,,
,Move,canvas.Screen,0_3_0_4_0_1,right,response,,145336,145335.9,145341.4,145559,217.60000000000582,145566,2021-11-02T15:49:22.516Z,145590.68,1635863919,incremental,ni_sequenzen,NI_Sequenzen,2,4,,,,,,,,,,,,
,Move,canvas.Screen,0_3_0_4_0_2,down,response,,145584,145583.7,145590.68,145765,174.32000000000698,145769,2021-11-02T15:49:22.718Z,145806.74,1635863919,incremental,ni_sequenzen,NI_Sequenzen,3,4,,,,,,,,,,,,
,Move,canvas.Screen,0_3_0_4_0_3,right,response,,145791,145792.1,145806.74,145944,137.2600000000093,145949,2021-11-02T15:49:22.899Z,146139.48,1635863919,incremental,ni_sequenzen,NI_Sequenzen,4,4,,,,,,,,,,,,
,Move,canvas.Screen,0_3_0_4_0_4,-999,skipped,,145971,,,145944,,145971,2021-11-02T15:49:22.920Z,146139.48,1635863919,incremental,ni_sequenzen,NI_Sequenzen,5,4,,,,,,,,,,,,
,Move,canvas.Screen,0_3_0_4_0_5,-999,skipped,,145985,,,145944,,145985,2021-11-02T15:49:22.935Z,146139.48,1635863919,incremental,ni_sequenzen,NI_Sequenzen,6,4,,,,,,,,,,,,
,Move,canvas.Screen,0_3_0_4_0_6,-999,skipped,,146003,,,145944,,146003,2021-11-02T15:49:22.952Z,146139.48,1635863919,incremental,ni_sequenzen,NI_Sequenzen,7,4,,,,,,,,,,,,
,Move,canvas.Screen,0_3_0_4_0_7,-999,skipped,,146017,,,145944,,146017,2021-11-02T15:49:22.966Z,146139.48,1635863919,incremental,ni_sequenzen,NI_Sequenzen,8,4,,,,,,,,,,,,
,Move,canvas.Screen,0_3_0_4_0_8,-999,skipped,,146032,,,145944,,146033,2021-11-02T15:49:22.981Z,146139.48,1635863919,incremental,ni_sequenzen,NI_Sequenzen,9,4,,,,,,,,,,,,
,Move,canvas.Screen,0_3_0_4_0_9,-999,skipped,,146047,,,145944,,146047,2021-11-02T15:49:22.997Z,146139.48,1635863919,incremental,ni_sequenzen,NI_Sequenzen,10,4,,,,,,,,,,,,
,Move,canvas.Screen,0_3_0_4_0_10,-999,skipped,,146063,,,145944,,146063,2021-11-02T15:49:23.013Z,146139.48,1635863919,incremental,ni_sequenzen,NI_Sequenzen,11,4,,,,,,,,,,,,
,Move,canvas.Screen,0_3_0_4_0_11,-999,skipped,,146078,,,145944,,146078,2021-11-02T15:49:23.028Z,146139.48,1635863919,incremental,ni_sequenzen,NI_Sequenzen,12,4,,,,,,,,,,,,
,Move,canvas.Screen,0_3_0_4_0_12,-999,skipped,,146094,,,145944,,146094,2021-11-02T15:49:23.043Z,146139.48,1635863919,incremental,ni_sequenzen,NI_Sequenzen,13,4,,,,,,,,,,,,
,Move,canvas.Screen,0_3_0_4_0_13,-999,skipped,,146110,,,145944,,146110,2021-11-02T15:49:23.059Z,146139.48,1635863919,incremental,ni_sequenzen,NI_Sequenzen,14,4,,,,,,,,,,,,
,Move,canvas.Screen,0_3_0_4_0_14,-999,skipped,,146125,,,145944,,146125,2021-11-02T15:49:23.074Z,146139.48,1635863919,incremental,ni_sequenzen,NI_Sequenzen,15,4,,,,,,,,,,,,
,Loop,flow.Loop,0_3_0_4_0,-999,completion,,143922,143948.26,143960.64,145944,1983.359999999986,146126,2021-11-02T15:49:23.075Z,146139.48,1635863919,incremental,ni_sequenzen,NI_Sequenzen,,4,,,,,,,,,,,,
,Feedback,canvas.Screen,0_3_0_4_1,,timeout,,146138,146137.6,146139.48,150115.66,4013.6999999999825,150120,2021-11-02T15:49:27.070Z,150153.18,1635863919,incremental,ni_sequenzen,NI_Sequenzen,,4,,,,,,,,,,,,
,Trial,flow.Sequence,0_3_0_4,,completion,,143892,143948.26,143960.64,150115.66,6155.0199999999895,150121,2021-11-02T15:49:27.070Z,150165.5,1635863919,incremental,ni_sequenzen,NI_Sequenzen,,4,,,,,,,,,,,,
,Move,canvas.Screen,0_3_0_5_0_0,left,response,,150153,150153.18,150165.5,150495,329.5,150500,2021-11-02T15:49:27.449Z,150531.4,1635863919,incremental,ni_sequenzen,NI_Sequenzen,1,5,,,,,,,,,,,,
,Move,canvas.Screen,0_3_0_5_0_1,right,response,,150516,150516.34,150531.4,150700,168.60000000000582,150706,2021-11-02T15:49:27.655Z,150731.7,1635863919,incremental,ni_sequenzen,NI_Sequenzen,2,5,,,,,,,,,,,,
,Move,canvas.Screen,0_3_0_5_0_2,down,response,,150721,150721,150731.7,150905,173.29999999998836,150910,2021-11-02T15:49:27.860Z,150930.7,1635863919,incremental,ni_sequenzen,NI_Sequenzen,3,5,,,,,,,,,,,,
,Move,canvas.Screen,0_3_0_5_0_3,right,response,,150929,150929.84,150930.7,151015,84.29999999998836,151022,2021-11-02T15:49:27.972Z,151213.96,1635863919,incremental,ni_sequenzen,NI_Sequenzen,4,5,,,,,,,,,,,,
,Move,canvas.Screen,0_3_0_5_0_4,-999,skipped,,151040,,,151015,,151040,2021-11-02T15:49:27.989Z,151213.96,1635863919,incremental,ni_sequenzen,NI_Sequenzen,5,5,,,,,,,,,,,,
,Move,canvas.Screen,0_3_0_5_0_5,-999,skipped,,151058,,,151015,,151058,2021-11-02T15:49:28.007Z,151213.96,1635863919,incremental,ni_sequenzen,NI_Sequenzen,6,5,,,,,,,,,,,,
,Move,canvas.Screen,0_3_0_5_0_6,-999,skipped,,151070,,,151015,,151070,2021-11-02T15:49:28.019Z,151213.96,1635863919,incremental,ni_sequenzen,NI_Sequenzen,7,5,,,,,,,,,,,,
,Move,canvas.Screen,0_3_0_5_0_7,-999,skipped,,151083,,,151015,,151083,2021-11-02T15:49:28.032Z,151213.96,1635863919,incremental,ni_sequenzen,NI_Sequenzen,8,5,,,,,,,,,,,,
,Move,canvas.Screen,0_3_0_5_0_8,-999,skipped,,151100,,,151015,,151100,2021-11-02T15:49:28.049Z,151213.96,1635863919,incremental,ni_sequenzen,NI_Sequenzen,9,5,,,,,,,,,,,,
,Move,canvas.Screen,0_3_0_5_0_9,-999,skipped,,151113,,,151015,,151113,2021-11-02T15:49:28.062Z,151213.96,1635863919,incremental,ni_sequenzen,NI_Sequenzen,10,5,,,,,,,,,,,,
,Move,canvas.Screen,0_3_0_5_0_10,-999,skipped,,151129,,,151015,,151129,2021-11-02T15:49:28.078Z,151213.96,1635863919,incremental,ni_sequenzen,NI_Sequenzen,11,5,,,,,,,,,,,,
,Move,canvas.Screen,0_3_0_5_0_11,-999,skipped,,151141,,,151015,,151141,2021-11-02T15:49:28.090Z,151213.96,1635863919,incremental,ni_sequenzen,NI_Sequenzen,12,5,,,,,,,,,,,,
,Move,canvas.Screen,0_3_0_5_0_12,-999,skipped,,151159,,,151015,,151159,2021-11-02T15:49:28.108Z,151213.96,1635863919,incremental,ni_sequenzen,NI_Sequenzen,13,5,,,,,,,,,,,,
,Move,canvas.Screen,0_3_0_5_0_13,-999,skipped,,151170,,,151015,,151170,2021-11-02T15:49:28.120Z,151213.96,1635863919,incremental,ni_sequenzen,NI_Sequenzen,14,5,,,,,,,,,,,,
,Move,canvas.Screen,0_3_0_5_0_14,-999,skipped,,151182,,,151015,,151183,2021-11-02T15:49:28.133Z,151213.96,1635863919,incremental,ni_sequenzen,NI_Sequenzen,15,5,,,,,,,,,,,,
,Loop,flow.Loop,0_3_0_5_0,-999,completion,,150138,150153.18,150165.5,151015,849.5,151185,2021-11-02T15:49:28.134Z,151213.96,1635863919,incremental,ni_sequenzen,NI_Sequenzen,,5,,,,,,,,,,,,
,Feedback,canvas.Screen,0_3_0_5_1,,timeout,,151197,151196.78,151213.96,155190.02,4007.0800000000163,155195,2021-11-02T15:49:32.145Z,155221.04,1635863919,incremental,ni_sequenzen,NI_Sequenzen,,5,,,,,,,,,,,,
,Trial,flow.Sequence,0_3_0_5,,completion,,150122,150153.18,150165.5,155190.02,5024.5199999999895,155195,2021-11-02T15:49:32.145Z,155223.48,1635863919,incremental,ni_sequenzen,NI_Sequenzen,,5,,,,,,,,,,,,
,Move,canvas.Screen,0_3_0_6_0_0,left,response,,155221,155221.04,155223.48,155864,640.5199999999895,155868,2021-11-02T15:49:32.817Z,155888.64,1635863919,incremental,ni_sequenzen,NI_Sequenzen,1,6,,,,,,,,,,,,
,Move,canvas.Screen,0_3_0_6_0_1,right,response,,155880,155879.44,155888.64,156056,167.35999999998603,156062,2021-11-02T15:49:33.010Z,156088.16,1635863919,incremental,ni_sequenzen,NI_Sequenzen,2,6,,,,,,,,,,,,
,Move,canvas.Screen,0_3_0_6_0_2,right,response,,156076,156075.48,156088.16,156300,211.8399999999965,156305,2021-11-02T15:49:33.254Z,156321.3,1635863919,incremental,ni_sequenzen,NI_Sequenzen,3,6,,,,,,,,,,,,
,Move,canvas.Screen,0_3_0_6_0_3,down,response,,156319,156318.98,156321.3,156490,168.70000000001164,156494,2021-11-02T15:49:33.443Z,156520.64,1635863919,incremental,ni_sequenzen,NI_Sequenzen,4,6,,,,,,,,,,,,
,Move,canvas.Screen,0_3_0_6_0_4,right,response,,156510,156509.94,156520.64,156592,71.35999999998603,156596,2021-11-02T15:49:33.545Z,156737.22,1635863919,incremental,ni_sequenzen,NI_Sequenzen,5,6,,,,,,,,,,,,
,Move,canvas.Screen,0_3_0_6_0_5,-999,skipped,,156611,,,156592,,156611,2021-11-02T15:49:33.560Z,156737.22,1635863919,incremental,ni_sequenzen,NI_Sequenzen,6,6,,,,,,,,,,,,
,Move,canvas.Screen,0_3_0_6_0_6,-999,skipped,,156622,,,156592,,156623,2021-11-02T15:49:33.572Z,156737.22,1635863919,incremental,ni_sequenzen,NI_Sequenzen,7,6,,,,,,,,,,,,
,Move,canvas.Screen,0_3_0_6_0_7,-999,skipped,,156633,,,156592,,156633,2021-11-02T15:49:33.582Z,156737.22,1635863919,incremental,ni_sequenzen,NI_Sequenzen,8,6,,,,,,,,,,,,
,Move,canvas.Screen,0_3_0_6_0_8,-999,skipped,,156643,,,156592,,156643,2021-11-02T15:49:33.593Z,156737.22,1635863919,incremental,ni_sequenzen,NI_Sequenzen,9,6,,,,,,,,,,,,
,Move,canvas.Screen,0_3_0_6_0_9,-999,skipped,,156653,,,156592,,156654,2021-11-02T15:49:33.603Z,156737.22,1635863919,incremental,ni_sequenzen,NI_Sequenzen,10,6,,,,,,,,,,,,
,Move,canvas.Screen,0_3_0_6_0_10,-999,skipped,,156667,,,156592,,156668,2021-11-02T15:49:33.617Z,156737.22,1635863919,incremental,ni_sequenzen,NI_Sequenzen,11,6,,,,,,,,,,,,
,Move,canvas.Screen,0_3_0_6_0_11,-999,skipped,,156679,,,156592,,156680,2021-11-02T15:49:33.630Z,156737.22,1635863919,incremental,ni_sequenzen,NI_Sequenzen,12,6,,,,,,,,,,,,
,Move,canvas.Screen,0_3_0_6_0_12,-999,skipped,,156691,,,156592,,156691,2021-11-02T15:49:33.641Z,156737.22,1635863919,incremental,ni_sequenzen,NI_Sequenzen,13,6,,,,,,,,,,,,
,Move,canvas.Screen,0_3_0_6_0_13,-999,skipped,,156701,,,156592,,156701,2021-11-02T15:49:33.651Z,156737.22,1635863919,incremental,ni_sequenzen,NI_Sequenzen,14,6,,,,,,,,,,,,
,Move,canvas.Screen,0_3_0_6_0_14,-999,skipped,,156713,,,156592,,156713,2021-11-02T15:49:33.662Z,156737.22,1635863919,incremental,ni_sequenzen,NI_Sequenzen,15,6,,,,,,,,,,,,
,Loop,flow.Loop,0_3_0_6_0,-999,completion,,155210,155221.04,155223.48,156592,1368.5199999999895,156713,2021-11-02T15:49:33.662Z,156737.22,1635863919,incremental,ni_sequenzen,NI_Sequenzen,,6,,,,,,,,,,,,
,Feedback,canvas.Screen,0_3_0_6_1,,timeout,,156721,156721.76,156737.22,160730.14,4020.779999999999,160735,2021-11-02T15:49:37.685Z,160758,1635863919,incremental,ni_sequenzen,NI_Sequenzen,,6,,,,,,,,,,,,
,Trial,flow.Sequence,0_3_0_6,,completion,,155197,155221.04,155223.48,160730.14,5506.6600000000035,160737,2021-11-02T15:49:37.686Z,160763.28,1635863919,incremental,ni_sequenzen,NI_Sequenzen,,6,,,,,,,,,,,,
,Move,canvas.Screen,0_3_0_7_0_0,left,response,,160758,160758,160763.28,162794,2030.7200000000012,162800,2021-11-02T15:49:39.749Z,162826.4,1635863919,incremental,ni_sequenzen,NI_Sequenzen,1,7,,,,,,,,,,,,
,Move,canvas.Screen,0_3_0_7_0_1,down,response,,162812,162812.66,162826.4,163039,212.60000000000582,163044,2021-11-02T15:49:39.994Z,163059.26,1635863919,incremental,ni_sequenzen,NI_Sequenzen,2,7,,,,,,,,,,,,
,Move,canvas.Screen,0_3_0_7_0_2,left,response,,163056,163056.08,163059.26,164125,1065.7399999999907,164130,2021-11-02T15:49:41.079Z,164156.96,1635863919,incremental,ni_sequenzen,NI_Sequenzen,3,7,,,,,,,,,,,,
,Move,canvas.Screen,0_3_0_7_0_3,left,response,,164145,164145.06,164156.96,164402,245.04000000000815,164406,2021-11-02T15:49:41.356Z,164423.5,1635863919,incremental,ni_sequenzen,NI_Sequenzen,4,7,,,,,,,,,,,,
,Move,canvas.Screen,0_3_0_7_0_4,left,response,,164420,164420.1,164423.5,187059,22635.5,187063,2021-11-02T15:50:04.012Z,187082.84,1635863919,incremental,ni_sequenzen,NI_Sequenzen,5,7,,,,,,,,,,,,
,Move,canvas.Screen,0_3_0_7_0_5,down,response,,187078,187077.1,187082.84,187278,195.1600000000035,187279,2021-11-02T15:50:04.229Z,187432,1635863919,incremental,ni_sequenzen,NI_Sequenzen,6,7,,,,,,,,,,,,
,Move,canvas.Screen,0_3_0_7_0_6,-999,skipped,,187293,,,187278,,187293,2021-11-02T15:50:04.243Z,187432,1635863919,incremental,ni_sequenzen,NI_Sequenzen,7,7,,,,,,,,,,,,
,Move,canvas.Screen,0_3_0_7_0_7,-999,skipped,,187304,,,187278,,187304,2021-11-02T15:50:04.253Z,187432,1635863919,incremental,ni_sequenzen,NI_Sequenzen,8,7,,,,,,,,,,,,
,Move,canvas.Screen,0_3_0_7_0_8,-999,skipped,,187314,,,187278,,187314,2021-11-02T15:50:04.263Z,187432,1635863919,incremental,ni_sequenzen,NI_Sequenzen,9,7,,,,,,,,,,,,
,Move,canvas.Screen,0_3_0_7_0_9,-999,skipped,,187329,,,187278,,187329,2021-11-02T15:50:04.279Z,187432,1635863919,incremental,ni_sequenzen,NI_Sequenzen,10,7,,,,,,,,,,,,
,Move,canvas.Screen,0_3_0_7_0_10,-999,skipped,,187341,,,187278,,187342,2021-11-02T15:50:04.291Z,187432,1635863919,incremental,ni_sequenzen,NI_Sequenzen,11,7,,,,,,,,,,,,
,Move,canvas.Screen,0_3_0_7_0_11,-999,skipped,,187352,,,187278,,187352,2021-11-02T15:50:04.301Z,187432,1635863919,incremental,ni_sequenzen,NI_Sequenzen,12,7,,,,,,,,,,,,
,Move,canvas.Screen,0_3_0_7_0_12,-999,skipped,,187363,,,187278,,187363,2021-11-02T15:50:04.313Z,187432,1635863919,incremental,ni_sequenzen,NI_Sequenzen,13,7,,,,,,,,,,,,
,Move,canvas.Screen,0_3_0_7_0_13,-999,skipped,,187377,,,187278,,187377,2021-11-02T15:50:04.327Z,187432,1635863919,incremental,ni_sequenzen,NI_Sequenzen,14,7,,,,,,,,,,,,
,Move,canvas.Screen,0_3_0_7_0_14,-999,skipped,,187389,,,187278,,187389,2021-11-02T15:50:04.338Z,187432,1635863919,incremental,ni_sequenzen,NI_Sequenzen,15,7,,,,,,,,,,,,
,Loop,flow.Loop,0_3_0_7_0,-999,completion,,160748,160758,160763.28,187278,26514.72,187390,2021-11-02T15:50:04.339Z,187432,1635863919,incremental,ni_sequenzen,NI_Sequenzen,,7,,,,,,,,,,,,
,Feedback,canvas.Screen,0_3_0_7_1,,timeout,,187398,187398.02,187432,191408.26,4005.7000000000116,191412,2021-11-02T15:50:08.361Z,191437.7,1635863919,incremental,ni_sequenzen,NI_Sequenzen,,7,,,,,,,,,,,,
,Trial,flow.Sequence,0_3_0_7,,completion,,160738,160758,160763.28,191408.26,30644.98000000001,191412,2021-11-02T15:50:08.361Z,191441.5,1635863919,incremental,ni_sequenzen,NI_Sequenzen,,7,,,,,,,,,,,,
,Move,canvas.Screen,0_3_0_8_0_0,down,response,,191438,191437.7,191441.5,191633,191.5,191637,2021-11-02T15:50:08.586Z,191657.76,1635863919,incremental,ni_sequenzen,NI_Sequenzen,1,8,,,,,,,,,,,,
,Move,canvas.Screen,0_3_0_8_0_1,left,response,,191653,191653.12,191657.76,192018,360.2399999999907,192020,2021-11-02T15:50:08.970Z,192040.6,1635863919,incremental,ni_sequenzen,NI_Sequenzen,2,8,,,,,,,,,,,,
,Move,canvas.Screen,0_3_0_8_0_2,down,response,,192036,192035.74,192040.6,192216,175.39999999999418,192220,2021-11-02T15:50:09.169Z,192240.04,1635863919,incremental,ni_sequenzen,NI_Sequenzen,3,8,,,,,,,,,,,,
,Move,canvas.Screen,0_3_0_8_0_3,right,response,,192237,192236.4,192240.04,192532,291.95999999999185,192535,2021-11-02T15:50:09.484Z,192556.46,1635863919,incremental,ni_sequenzen,NI_Sequenzen,4,8,,,,,,,,,,,,
,Move,canvas.Screen,0_3_0_8_0_4,down,response,,192550,192549.4,192556.46,192958,401.54000000000815,192962,2021-11-02T15:50:09.911Z,193106.4,1635863919,incremental,ni_sequenzen,NI_Sequenzen,5,8,,,,,,,,,,,,
,Move,canvas.Screen,0_3_0_8_0_5,-999,skipped,,192976,,,192958,,192977,2021-11-02T15:50:09.926Z,193106.4,1635863919,incremental,ni_sequenzen,NI_Sequenzen,6,8,,,,,,,,,,,,
,Move,canvas.Screen,0_3_0_8_0_6,-999,skipped,,192989,,,192958,,192989,2021-11-02T15:50:09.938Z,193106.4,1635863919,incremental,ni_sequenzen,NI_Sequenzen,7,8,,,,,,,,,,,,
,Move,canvas.Screen,0_3_0_8_0_7,-999,skipped,,193003,,,192958,,193003,2021-11-02T15:50:09.953Z,193106.4,1635863919,incremental,ni_sequenzen,NI_Sequenzen,8,8,,,,,,,,,,,,
,Move,canvas.Screen,0_3_0_8_0_8,-999,skipped,,193015,,,192958,,193016,2021-11-02T15:50:09.965Z,193106.4,1635863919,incremental,ni_sequenzen,NI_Sequenzen,9,8,,,,,,,,,,,,
,Move,canvas.Screen,0_3_0_8_0_9,-999,skipped,,193027,,,192958,,193028,2021-11-02T15:50:09.977Z,193106.4,1635863919,incremental,ni_sequenzen,NI_Sequenzen,10,8,,,,,,,,,,,,
,Move,canvas.Screen,0_3_0_8_0_10,-999,skipped,,193040,,,192958,,193040,2021-11-02T15:50:09.990Z,193106.4,1635863919,incremental,ni_sequenzen,NI_Sequenzen,11,8,,,,,,,,,,,,
,Move,canvas.Screen,0_3_0_8_0_11,-999,skipped,,193052,,,192958,,193052,2021-11-02T15:50:10.002Z,193106.4,1635863919,incremental,ni_sequenzen,NI_Sequenzen,12,8,,,,,,,,,,,,
,Move,canvas.Screen,0_3_0_8_0_12,-999,skipped,,193065,,,192958,,193065,2021-11-02T15:50:10.015Z,193106.4,1635863919,incremental,ni_sequenzen,NI_Sequenzen,13,8,,,,,,,,,,,,
,Move,canvas.Screen,0_3_0_8_0_13,-999,skipped,,193076,,,192958,,193076,2021-11-02T15:50:10.026Z,193106.4,1635863919,incremental,ni_sequenzen,NI_Sequenzen,14,8,,,,,,,,,,,,
,Move,canvas.Screen,0_3_0_8_0_14,-999,skipped,,193089,,,192958,,193090,2021-11-02T15:50:10.038Z,193106.4,1635863919,incremental,ni_sequenzen,NI_Sequenzen,15,8,,,,,,,,,,,,
,Loop,flow.Loop,0_3_0_8_0,-999,completion,,191427,191437.7,191441.5,192958,1516.5,193090,2021-11-02T15:50:10.040Z,193106.4,1635863919,incremental,ni_sequenzen,NI_Sequenzen,,8,,,,,,,,,,,,
,Feedback,canvas.Screen,0_3_0_8_1,,timeout,,193101,193101.34,193106.4,197081.54,4006.4800000000105,197084,2021-11-02T15:50:14.033Z,197112.88,1635863919,incremental,ni_sequenzen,NI_Sequenzen,,8,,,,,,,,,,,,
,Trial,flow.Sequence,0_3_0_8,,completion,,191413,191437.7,191441.5,197081.54,5640.040000000008,197084,2021-11-02T15:50:14.034Z,197114.76,1635863919,incremental,ni_sequenzen,NI_Sequenzen,,8,,,,,,,,,,,,
,Move,canvas.Screen,0_3_0_9_0_0,left,response,,197112,197112.88,197114.76,197573,458.2399999999907,197576,2021-11-02T15:50:14.525Z,197597.32,1635863919,incremental,ni_sequenzen,NI_Sequenzen,1,9,,,,,,,,,,,,
,Move,canvas.Screen,0_3_0_9_0_1,down,response,,197590,197589.42,197597.32,197755,157.67999999999302,197757,2021-11-02T15:50:14.706Z,197780.26,1635863919,incremental,ni_sequenzen,NI_Sequenzen,2,9,,,,,,,,,,,,
,Move,canvas.Screen,0_3_0_9_0_2,right,response,,197773,197772.68,197780.26,197878,97.73999999999069,197879,2021-11-02T15:50:14.829Z,197896.7,1635863919,incremental,ni_sequenzen,NI_Sequenzen,3,9,,,,,,,,,,,,
,Move,canvas.Screen,0_3_0_9_0_3,right,response,,197893,197893.38,197896.7,198115,218.29999999998836,198118,2021-11-02T15:50:15.067Z,198279.84,1635863919,incremental,ni_sequenzen,NI_Sequenzen,4,9,,,,,,,,,,,,
,Move,canvas.Screen,0_3_0_9_0_4,-999,skipped,,198132,,,198115,,198132,2021-11-02T15:50:15.081Z,198279.84,1635863919,incremental,ni_sequenzen,NI_Sequenzen,5,9,,,,,,,,,,,,
,Move,canvas.Screen,0_3_0_9_0_5,-999,skipped,,198145,,,198115,,198145,2021-11-02T15:50:15.094Z,198279.84,1635863919,incremental,ni_sequenzen,NI_Sequenzen,6,9,,,,,,,,,,,,
,Move,canvas.Screen,0_3_0_9_0_6,-999,skipped,,198158,,,198115,,198158,2021-11-02T15:50:15.108Z,198279.84,1635863919,incremental,ni_sequenzen,NI_Sequenzen,7,9,,,,,,,,,,,,
,Move,canvas.Screen,0_3_0_9_0_7,-999,skipped,,198171,,,198115,,198172,2021-11-02T15:50:15.121Z,198279.84,1635863919,incremental,ni_sequenzen,NI_Sequenzen,8,9,,,,,,,,,,,,
,Move,canvas.Screen,0_3_0_9_0_8,-999,skipped,,198184,,,198115,,198184,2021-11-02T15:50:15.134Z,198279.84,1635863919,incremental,ni_sequenzen,NI_Sequenzen,9,9,,,,,,,,,,,,
,Move,canvas.Screen,0_3_0_9_0_9,-999,skipped,,198196,,,198115,,198197,2021-11-02T15:50:15.146Z,198279.84,1635863919,incremental,ni_sequenzen,NI_Sequenzen,10,9,,,,,,,,,,,,
,Move,canvas.Screen,0_3_0_9_0_10,-999,skipped,,198209,,,198115,,198209,2021-11-02T15:50:15.159Z,198279.84,1635863919,incremental,ni_sequenzen,NI_Sequenzen,11,9,,,,,,,,,,,,
,Move,canvas.Screen,0_3_0_9_0_11,-999,skipped,,198223,,,198115,,198223,2021-11-02T15:50:15.173Z,198279.84,1635863919,incremental,ni_sequenzen,NI_Sequenzen,12,9,,,,,,,,,,,,
,Move,canvas.Screen,0_3_0_9_0_12,-999,skipped,,198238,,,198115,,198239,2021-11-02T15:50:15.187Z,198279.84,1635863919,incremental,ni_sequenzen,NI_Sequenzen,13,9,,,,,,,,,,,,
,Move,canvas.Screen,0_3_0_9_0_13,-999,skipped,,198249,,,198115,,198249,2021-11-02T15:50:15.199Z,198279.84,1635863919,incremental,ni_sequenzen,NI_Sequenzen,14,9,,,,,,,,,,,,
,Move,canvas.Screen,0_3_0_9_0_14,-999,skipped,,198263,,,198115,,198264,2021-11-02T15:50:15.214Z,198279.84,1635863919,incremental,ni_sequenzen,NI_Sequenzen,15,9,,,,,,,,,,,,
,Loop,flow.Loop,0_3_0_9_0,-999,completion,,197100,197112.88,197114.76,198115,1000.2399999999907,198264,2021-11-02T15:50:15.214Z,198279.84,1635863919,incremental,ni_sequenzen,NI_Sequenzen,,9,,,,,,,,,,,,
,Feedback,canvas.Screen,0_3_0_9_1,,timeout,,198274,198274.82,198279.84,202255.7,4207.679999999993,202261,2021-11-02T15:50:19.210Z,202487.52,1635863919,incremental,ni_sequenzen,NI_Sequenzen,,9,,,,,,,,,,,,
,Trial,flow.Sequence,0_3_0_9,,completion,,197084,197112.88,197114.76,202255.7,5140.940000000002,202266,2021-11-02T15:50:19.215Z,202488.92,1635863919,incremental,ni_sequenzen,NI_Sequenzen,,9,,,,,,,,,,,,
,Block,flow.Loop,0_3_0,,completion,,117924,117945.8,117957.74,202255.7,84297.96,202267,2021-11-02T15:50:19.217Z,202488.92,1635863919,incremental,ni_sequenzen,NI_Sequenzen,,,,,,,,,,,,,,
,Training_II,flow.Sequence,0_3,,completion,,117905,117945.8,117957.74,202255.7,84297.96,202268,2021-11-02T15:50:19.218Z,202488.92,1635863919,incremental,ni_sequenzen,NI_Sequenzen,,,,,,,,,,,,,,
,Screen_1,canvas.Screen,0_4_0_0,cont,response,1,202488,202487.52,202488.92,204260,1771.0799999999872,204264,2021-11-02T15:50:21.213Z,204269.06,1635863919,incremental,ni_sequenzen,NI_Sequenzen,,,,,,,,,,,,,,
,Screen_2,canvas.Screen,0_4_0_1,cont,response,1,204267,204267.3,204269.06,205211,941.9400000000023,205213,2021-11-02T15:50:22.163Z,205234.14,1635863919,incremental,ni_sequenzen,NI_Sequenzen,,,,,,,,,,,,,,
,Screen_3,canvas.Screen,0_4_0_2,cont,response,1,205227,205227.06,205234.14,205974,739.859999999986,205977,2021-11-02T15:50:22.926Z,206448.44,1635863919,incremental,ni_sequenzen,NI_Sequenzen,,,,,,,,,,,,,,
,Sequence,flow.Sequence,0_4_0,,completion,1,202335,202487.52,202488.92,205974,3485.079999999987,205978,2021-11-02T15:50:22.927Z,206448.44,1635863919,incremental,ni_sequenzen,NI_Sequenzen,,,,,,,,,,,,,,
,Screen_1,canvas.Screen,0_4_1_0,,skipped,2,205982,,,205982,,205982,2021-11-02T15:50:22.932Z,206448.44,1635863919,incremental,ni_sequenzen,NI_Sequenzen,,,,,,,,,,,,,,
,Screen_2,canvas.Screen,0_4_1_1,,skipped,2,205989,,,205982,,205991,2021-11-02T15:50:22.940Z,206448.44,1635863919,incremental,ni_sequenzen,NI_Sequenzen,,,,,,,,,,,,,,
,Screen_3,canvas.Screen,0_4_1_2,,skipped,2,205994,,,205982,,205994,2021-11-02T15:50:22.944Z,206448.44,1635863919,incremental,ni_sequenzen,NI_Sequenzen,,,,,,,,,,,,,,
,Sequence,flow.Sequence,0_4_1,,completion,2,205979,,,205982,,205994,2021-11-02T15:50:22.944Z,206448.44,1635863919,incremental,ni_sequenzen,NI_Sequenzen,,,,,,,,,,,,,,
,Screen_1,canvas.Screen,0_4_2_0,,skipped,3,205998,,,205998,,205998,2021-11-02T15:50:22.948Z,206448.44,1635863919,incremental,ni_sequenzen,NI_Sequenzen,,,,,,,,,,,,,,
,Screen_2,canvas.Screen,0_4_2_1,,skipped,3,206002,,,205998,,206003,2021-11-02T15:50:22.954Z,206448.44,1635863919,incremental,ni_sequenzen,NI_Sequenzen,,,,,,,,,,,,,,
,Screen_3,canvas.Screen,0_4_2_2,,skipped,3,206012,,,205998,,206012,2021-11-02T15:50:22.961Z,206448.44,1635863919,incremental,ni_sequenzen,NI_Sequenzen,,,,,,,,,,,,,,
,Sequence,flow.Sequence,0_4_2,,completion,3,205996,,,205998,,206012,2021-11-02T15:50:22.961Z,206448.44,1635863919,incremental,ni_sequenzen,NI_Sequenzen,,,,,,,,,,,,,,
,Screen_1,canvas.Screen,0_4_3_0,,skipped,4,206016,,,206016,,206016,2021-11-02T15:50:22.965Z,206448.44,1635863919,incremental,ni_sequenzen,NI_Sequenzen,,,,,,,,,,,,,,
,Screen_2,canvas.Screen,0_4_3_1,,skipped,4,206023,,,206016,,206024,2021-11-02T15:50:22.973Z,206448.44,1635863919,incremental,ni_sequenzen,NI_Sequenzen,,,,,,,,,,,,,,
,Screen_3,canvas.Screen,0_4_3_2,,skipped,4,206028,,,206016,,206028,2021-11-02T15:50:22.977Z,206448.44,1635863919,incremental,ni_sequenzen,NI_Sequenzen,,,,,,,,,,,,,,
,Sequence,flow.Sequence,0_4_3,,completion,4,206013,,,206016,,206028,2021-11-02T15:50:22.978Z,206448.44,1635863919,incremental,ni_sequenzen,NI_Sequenzen,,,,,,,,,,,,,,
,Screen_1,canvas.Screen,0_4_4_0,,skipped,5,206031,,,206031,,206031,2021-11-02T15:50:22.981Z,206448.44,1635863919,incremental,ni_sequenzen,NI_Sequenzen,,,,,,,,,,,,,,
,Screen_2,canvas.Screen,0_4_4_1,,skipped,5,206034,,,206031,,206035,2021-11-02T15:50:22.983Z,206448.44,1635863919,incremental,ni_sequenzen,NI_Sequenzen,,,,,,,,,,,,,,
,Screen_3,canvas.Screen,0_4_4_2,,skipped,5,206041,,,206031,,206041,2021-11-02T15:50:22.990Z,206448.44,1635863919,incremental,ni_sequenzen,NI_Sequenzen,,,,,,,,,,,,,,
,Sequence,flow.Sequence,0_4_4,,completion,5,206029,,,206031,,206041,2021-11-02T15:50:22.991Z,206448.44,1635863919,incremental,ni_sequenzen,NI_Sequenzen,,,,,,,,,,,,,,
,Screen_1,canvas.Screen,0_4_5_0,,skipped,6,206046,,,206046,,206046,2021-11-02T15:50:22.995Z,206448.44,1635863919,incremental,ni_sequenzen,NI_Sequenzen,,,,,,,,,,,,,,
,Screen_2,canvas.Screen,0_4_5_1,,skipped,6,206049,,,206046,,206049,2021-11-02T15:50:22.998Z,206448.44,1635863919,incremental,ni_sequenzen,NI_Sequenzen,,,,,,,,,,,,,,
,Screen_3,canvas.Screen,0_4_5_2,,skipped,6,206052,,,206046,,206052,2021-11-02T15:50:23.002Z,206448.44,1635863919,incremental,ni_sequenzen,NI_Sequenzen,,,,,,,,,,,,,,
,Sequence,flow.Sequence,0_4_5,,completion,6,206043,,,206046,,206053,2021-11-02T15:50:23.003Z,206448.44,1635863919,incremental,ni_sequenzen,NI_Sequenzen,,,,,,,,,,,,,,
,Screen_1,canvas.Screen,0_4_6_0,,skipped,7,206059,,,206059,,206059,2021-11-02T15:50:23.008Z,206448.44,1635863919,incremental,ni_sequenzen,NI_Sequenzen,,,,,,,,,,,,,,
,Screen_2,canvas.Screen,0_4_6_1,,skipped,7,206062,,,206059,,206062,2021-11-02T15:50:23.011Z,206448.44,1635863919,incremental,ni_sequenzen,NI_Sequenzen,,,,,,,,,,,,,,
,Screen_3,canvas.Screen,0_4_6_2,,skipped,7,206065,,,206059,,206065,2021-11-02T15:50:23.014Z,206448.44,1635863919,incremental,ni_sequenzen,NI_Sequenzen,,,,,,,,,,,,,,
,Sequence,flow.Sequence,0_4_6,,completion,7,206055,,,206059,,206065,2021-11-02T15:50:23.015Z,206448.44,1635863919,incremental,ni_sequenzen,NI_Sequenzen,,,,,,,,,,,,,,
,Screen_1,canvas.Screen,0_4_7_0,,skipped,8,206073,,,206073,,206074,2021-11-02T15:50:23.023Z,206448.44,1635863919,incremental,ni_sequenzen,NI_Sequenzen,,,,,,,,,,,,,,
,Screen_2,canvas.Screen,0_4_7_1,,skipped,8,206078,,,206073,,206078,2021-11-02T15:50:23.028Z,206448.44,1635863919,incremental,ni_sequenzen,NI_Sequenzen,,,,,,,,,,,,,,
,Screen_3,canvas.Screen,0_4_7_2,,skipped,8,206080,,,206073,,206080,2021-11-02T15:50:23.030Z,206448.44,1635863919,incremental,ni_sequenzen,NI_Sequenzen,,,,,,,,,,,,,,
,Sequence,flow.Sequence,0_4_7,,completion,8,206068,,,206073,,206081,2021-11-02T15:50:23.031Z,206448.44,1635863919,incremental,ni_sequenzen,NI_Sequenzen,,,,,,,,,,,,,,
,Screen_1,canvas.Screen,0_4_8_0,,skipped,9,206086,,,206086,,206086,2021-11-02T15:50:23.036Z,206448.44,1635863919,incremental,ni_sequenzen,NI_Sequenzen,,,,,,,,,,,,,,
,Screen_2,canvas.Screen,0_4_8_1,,skipped,9,206093,,,206086,,206093,2021-11-02T15:50:23.042Z,206448.44,1635863919,incremental,ni_sequenzen,NI_Sequenzen,,,,,,,,,,,,,,
,Screen_3,canvas.Screen,0_4_8_2,,skipped,9,206095,,,206086,,206095,2021-11-02T15:50:23.045Z,206448.44,1635863919,incremental,ni_sequenzen,NI_Sequenzen,,,,,,,,,,,,,,
,Sequence,flow.Sequence,0_4_8,,completion,9,206082,,,206086,,206096,2021-11-02T15:50:23.046Z,206448.44,1635863919,incremental,ni_sequenzen,NI_Sequenzen,,,,,,,,,,,,,,
,Screen_1,canvas.Screen,0_4_9_0,,skipped,10,206099,,,206099,,206099,2021-11-02T15:50:23.049Z,206448.44,1635863919,incremental,ni_sequenzen,NI_Sequenzen,,,,,,,,,,,,,,
,Screen_2,canvas.Screen,0_4_9_1,,skipped,10,206105,,,206099,,206105,2021-11-02T15:50:23.054Z,206448.44,1635863919,incremental,ni_sequenzen,NI_Sequenzen,,,,,,,,,,,,,,
,Screen_3,canvas.Screen,0_4_9_2,,skipped,10,206111,,,206099,,206111,2021-11-02T15:50:23.060Z,206448.44,1635863919,incremental,ni_sequenzen,NI_Sequenzen,,,,,,,,,,,,,,
,Sequence,flow.Sequence,0_4_9,,completion,10,206097,,,206099,,206111,2021-11-02T15:50:23.060Z,206448.44,1635863919,incremental,ni_sequenzen,NI_Sequenzen,,,,,,,,,,,,,,
,Screen_1,canvas.Screen,0_4_10_0,,skipped,11,206113,,,206113,,206113,2021-11-02T15:50:23.063Z,206448.44,1635863919,incremental,ni_sequenzen,NI_Sequenzen,,,,,,,,,,,,,,
,Screen_2,canvas.Screen,0_4_10_1,,skipped,11,206115,,,206113,,206115,2021-11-02T15:50:23.065Z,206448.44,1635863919,incremental,ni_sequenzen,NI_Sequenzen,,,,,,,,,,,,,,
