meta,sender,sender_type,sender_id,response,ended_on,instrCount,time_run,time_render,time_show,time_end,duration,time_commit,timestamp,time_switch,openLabId,type,task,project,move,trialN,blockN_Train,blockN,moveCount,currPP,points,movesTrial,visitedFields,diff,reward,Strategie,Zweck,Probleme
[object Object],Screen_1,canvas.Screen,0_0_0_0,cont,response,1,2473.6999999284744,2468.942,2518.778,12228.199999928474,9709.421999928474,12232.099999904633,2021-10-25T17:07:29.162Z,12511.672,1635181625,full,ni_sequenzen,NI_Sequenzen,,,,,,,,,,,,,,
,Screen_2,canvas.Screen,0_0_0_1,cont,response,1,12488.899999976158,12475.059,12511.672,31426.899999976158,18915.22799997616,31427.599999904633,2021-10-25T17:07:48.352Z,31573.858,1635181625,full,ni_sequenzen,NI_Sequenzen,,,,,,,,,,,,,,
,Screen_3,canvas.Screen,0_0_0_2,cont,response,1,31558.799999952316,31558.492,31573.858,44121.39999997616,12547.541999976158,44122.299999952316,2021-10-25T17:08:01.047Z,44130.434,1635181625,full,ni_sequenzen,NI_Sequenzen,,,,,,,,,,,,,,
,Screen_4,canvas.Screen,0_0_0_3,cont,response,1,44127.199999928474,44122.591,44130.434,49039,4908.565999999999,49039.799999952316,2021-10-25T17:08:05.964Z,49149.034,1635181625,full,ni_sequenzen,NI_Sequenzen,,,,,,,,,,,,,,
,Sequence,flow.Sequence,0_0_0,,completion,1,1244,2468.942,2518.778,49039,46520.222,49042.39999997616,2021-10-25T17:08:05.967Z,49149.034,1635181625,full,ni_sequenzen,NI_Sequenzen,,,,,,,,,,,,,,
,Screen_1,canvas.Screen,0_0_1_0,,skipped,2,49045.09999990463,,,49045.09999990463,,49045.299999952316,2021-10-25T17:08:05.970Z,49149.034,1635181625,full,ni_sequenzen,NI_Sequenzen,,,,,,,,,,,,,,
,Screen_2,canvas.Screen,0_0_1_1,,skipped,2,49046.89999997616,,,49045.09999990463,,49047,2021-10-25T17:08:05.972Z,49149.034,1635181625,full,ni_sequenzen,NI_Sequenzen,,,,,,,,,,,,,,
,Screen_3,canvas.Screen,0_0_1_2,,skipped,2,49048.799999952316,,,49045.09999990463,,49048.89999997616,2021-10-25T17:08:05.973Z,49149.034,1635181625,full,ni_sequenzen,NI_Sequenzen,,,,,,,,,,,,,,
,Screen_4,canvas.Screen,0_0_1_3,,skipped,2,49050.5,,,49045.09999990463,,49050.59999990463,2021-10-25T17:08:05.975Z,49149.034,1635181625,full,ni_sequenzen,NI_Sequenzen,,,,,,,,,,,,,,
,Sequence,flow.Sequence,0_0_1,,completion,2,49043.5,,,49045.09999990463,,49051,2021-10-25T17:08:05.975Z,49149.034,1635181625,full,ni_sequenzen,NI_Sequenzen,,,,,,,,,,,,,,
,Screen_1,canvas.Screen,0_0_2_0,,skipped,3,49052.39999997616,,,49052.39999997616,,49052.59999990463,2021-10-25T17:08:05.977Z,49149.034,1635181625,full,ni_sequenzen,NI_Sequenzen,,,,,,,,,,,,,,
,Screen_2,canvas.Screen,0_0_2_1,,skipped,3,49053.5,,,49052.39999997616,,49053.59999990463,2021-10-25T17:08:05.978Z,49149.034,1635181625,full,ni_sequenzen,NI_Sequenzen,,,,,,,,,,,,,,
,Screen_3,canvas.Screen,0_0_2_2,,skipped,3,49063.39999997616,,,49052.39999997616,,49063.5,2021-10-25T17:08:05.988Z,49149.034,1635181625,full,ni_sequenzen,NI_Sequenzen,,,,,,,,,,,,,,
,Screen_4,canvas.Screen,0_0_2_3,,skipped,3,49064.59999990463,,,49052.39999997616,,49064.699999928474,2021-10-25T17:08:05.989Z,49149.034,1635181625,full,ni_sequenzen,NI_Sequenzen,,,,,,,,,,,,,,
,Sequence,flow.Sequence,0_0_2,,completion,3,49051.5,,,49052.39999997616,,49065,2021-10-25T17:08:05.990Z,49149.034,1635181625,full,ni_sequenzen,NI_Sequenzen,,,,,,,,,,,,,,
,Screen_1,canvas.Screen,0_0_3_0,,skipped,4,49066.199999928474,,,49066.199999928474,,49066.299999952316,2021-10-25T17:08:05.991Z,49149.034,1635181625,full,ni_sequenzen,NI_Sequenzen,,,,,,,,,,,,,,
,Screen_2,canvas.Screen,0_0_3_1,,skipped,4,49067.299999952316,,,49066.199999928474,,49067.299999952316,2021-10-25T17:08:05.992Z,49149.034,1635181625,full,ni_sequenzen,NI_Sequenzen,,,,,,,,,,,,,,
,Screen_3,canvas.Screen,0_0_3_2,,skipped,4,49067.799999952316,,,49066.199999928474,,49067.799999952316,2021-10-25T17:08:05.992Z,49149.034,1635181625,full,ni_sequenzen,NI_Sequenzen,,,,,,,,,,,,,,
,Screen_4,canvas.Screen,0_0_3_3,,skipped,4,49068.199999928474,,,49066.199999928474,,49068.299999952316,2021-10-25T17:08:05.993Z,49149.034,1635181625,full,ni_sequenzen,NI_Sequenzen,,,,,,,,,,,,,,
,Sequence,flow.Sequence,0_0_3,,completion,4,49065.39999997616,,,49066.199999928474,,49068.299999952316,2021-10-25T17:08:05.993Z,49149.034,1635181625,full,ni_sequenzen,NI_Sequenzen,,,,,,,,,,,,,,
,Screen_1,canvas.Screen,0_0_4_0,,skipped,5,49068.799999952316,,,49068.799999952316,,49068.799999952316,2021-10-25T17:08:05.993Z,49149.034,1635181625,full,ni_sequenzen,NI_Sequenzen,,,,,,,,,,,,,,
,Screen_2,canvas.Screen,0_0_4_1,,skipped,5,49069.199999928474,,,49068.799999952316,,49069.299999952316,2021-10-25T17:08:05.994Z,49149.034,1635181625,full,ni_sequenzen,NI_Sequenzen,,,,,,,,,,,,,,
,Screen_3,canvas.Screen,0_0_4_2,,skipped,5,49069.59999990463,,,49068.799999952316,,49069.59999990463,2021-10-25T17:08:05.994Z,49149.034,1635181625,full,ni_sequenzen,NI_Sequenzen,,,,,,,,,,,,,,
,Screen_4,canvas.Screen,0_0_4_3,,skipped,5,49070,,,49068.799999952316,,49070.09999990463,2021-10-25T17:08:05.995Z,49149.034,1635181625,full,ni_sequenzen,NI_Sequenzen,,,,,,,,,,,,,,
,Sequence,flow.Sequence,0_0_4,,completion,5,49068.5,,,49068.799999952316,,49070.199999928474,2021-10-25T17:08:05.995Z,49149.034,1635181625,full,ni_sequenzen,NI_Sequenzen,,,,,,,,,,,,,,
,Screen_1,canvas.Screen,0_0_5_0,,skipped,6,49070.59999990463,,,49070.59999990463,,49070.699999928474,2021-10-25T17:08:05.995Z,49149.034,1635181625,full,ni_sequenzen,NI_Sequenzen,,,,,,,,,,,,,,
,Screen_2,canvas.Screen,0_0_5_1,,skipped,6,49071.199999928474,,,49070.59999990463,,49071.199999928474,2021-10-25T17:08:05.996Z,49149.034,1635181625,full,ni_sequenzen,NI_Sequenzen,,,,,,,,,,,,,,
,Screen_3,canvas.Screen,0_0_5_2,,skipped,6,49071.5,,,49070.59999990463,,49071.5,2021-10-25T17:08:05.996Z,49149.034,1635181625,full,ni_sequenzen,NI_Sequenzen,,,,,,,,,,,,,,
,Screen_4,canvas.Screen,0_0_5_3,,skipped,6,49072,,,49070.59999990463,,49072,2021-10-25T17:08:05.997Z,49149.034,1635181625,full,ni_sequenzen,NI_Sequenzen,,,,,,,,,,,,,,
,Sequence,flow.Sequence,0_0_5,,completion,6,49070.299999952316,,,49070.59999990463,,49072.09999990463,2021-10-25T17:08:05.997Z,49149.034,1635181625,full,ni_sequenzen,NI_Sequenzen,,,,,,,,,,,,,,
,Screen_1,canvas.Screen,0_0_6_0,,skipped,7,49073.09999990463,,,49073.09999990463,,49073.199999928474,2021-10-25T17:08:05.998Z,49149.034,1635181625,full,ni_sequenzen,NI_Sequenzen,,,,,,,,,,,,,,
,Screen_2,canvas.Screen,0_0_6_1,,skipped,7,49073.59999990463,,,49073.09999990463,,49073.59999990463,2021-10-25T17:08:05.998Z,49149.034,1635181625,full,ni_sequenzen,NI_Sequenzen,,,,,,,,,,,,,,
,Screen_3,canvas.Screen,0_0_6_2,,skipped,7,49074.09999990463,,,49073.09999990463,,49074.09999990463,2021-10-25T17:08:05.999Z,49149.034,1635181625,full,ni_sequenzen,NI_Sequenzen,,,,,,,,,,,,,,
,Screen_4,canvas.Screen,0_0_6_3,,skipped,7,49074.59999990463,,,49073.09999990463,,49074.59999990463,2021-10-25T17:08:05.999Z,49149.034,1635181625,full,ni_sequenzen,NI_Sequenzen,,,,,,,,,,,,,,
,Sequence,flow.Sequence,0_0_6,,completion,7,49072.199999928474,,,49073.09999990463,,49074.699999928474,2021-10-25T17:08:05.999Z,49149.034,1635181625,full,ni_sequenzen,NI_Sequenzen,,,,,,,,,,,,,,
,Screen_1,canvas.Screen,0_0_7_0,,skipped,8,49075.199999928474,,,49075.199999928474,,49075.299999952316,2021-10-25T17:08:06.000Z,49149.034,1635181625,full,ni_sequenzen,NI_Sequenzen,,,,,,,,,,,,,,
,Screen_2,canvas.Screen,0_0_7_1,,skipped,8,49075.59999990463,,,49075.199999928474,,49075.699999928474,2021-10-25T17:08:06.000Z,49149.034,1635181625,full,ni_sequenzen,NI_Sequenzen,,,,,,,,,,,,,,
,Screen_3,canvas.Screen,0_0_7_2,,skipped,8,49076,,,49075.199999928474,,49076,2021-10-25T17:08:06.001Z,49149.034,1635181625,full,ni_sequenzen,NI_Sequenzen,,,,,,,,,,,,,,
,Screen_4,canvas.Screen,0_0_7_3,,skipped,8,49076.5,,,49075.199999928474,,49076.5,2021-10-25T17:08:06.001Z,49149.034,1635181625,full,ni_sequenzen,NI_Sequenzen,,,,,,,,,,,,,,
,Sequence,flow.Sequence,0_0_7,,completion,8,49074.799999952316,,,49075.199999928474,,49076.59999990463,2021-10-25T17:08:06.001Z,49149.034,1635181625,full,ni_sequenzen,NI_Sequenzen,,,,,,,,,,,,,,
,Screen_1,canvas.Screen,0_0_8_0,,skipped,9,49077.09999990463,,,49077.09999990463,,49077.199999928474,2021-10-25T17:08:06.002Z,49149.034,1635181625,full,ni_sequenzen,NI_Sequenzen,,,,,,,,,,,,,,
,Screen_2,canvas.Screen,0_0_8_1,,skipped,9,49077.59999990463,,,49077.09999990463,,49077.59999990463,2021-10-25T17:08:06.002Z,49149.034,1635181625,full,ni_sequenzen,NI_Sequenzen,,,,,,,,,,,,,,
,Screen_3,canvas.Screen,0_0_8_2,,skipped,9,49078.199999928474,,,49077.09999990463,,49078.199999928474,2021-10-25T17:08:06.003Z,49149.034,1635181625,full,ni_sequenzen,NI_Sequenzen,,,,,,,,,,,,,,
,Screen_4,canvas.Screen,0_0_8_3,,skipped,9,49079.09999990463,,,49077.09999990463,,49079.299999952316,2021-10-25T17:08:06.004Z,49149.034,1635181625,full,ni_sequenzen,NI_Sequenzen,,,,,,,,,,,,,,
,Sequence,flow.Sequence,0_0_8,,completion,9,49076.799999952316,,,49077.09999990463,,49079.39999997616,2021-10-25T17:08:06.004Z,49149.034,1635181625,full,ni_sequenzen,NI_Sequenzen,,,,,,,,,,,,,,
,Screen_1,canvas.Screen,0_0_9_0,,skipped,10,49081.39999997616,,,49081.39999997616,,49081.59999990463,2021-10-25T17:08:06.006Z,49149.034,1635181625,full,ni_sequenzen,NI_Sequenzen,,,,,,,,,,,,,,
,Screen_2,canvas.Screen,0_0_9_1,,skipped,10,49082.5,,,49081.39999997616,,49082.59999990463,2021-10-25T17:08:06.007Z,49149.034,1635181625,full,ni_sequenzen,NI_Sequenzen,,,,,,,,,,,,,,
,Screen_3,canvas.Screen,0_0_9_2,,skipped,10,49083.59999990463,,,49081.39999997616,,49083.699999928474,2021-10-25T17:08:06.008Z,49149.034,1635181625,full,ni_sequenzen,NI_Sequenzen,,,,,,,,,,,,,,
,Screen_4,canvas.Screen,0_0_9_3,,skipped,10,49084.5,,,49081.39999997616,,49084.59999990463,2021-10-25T17:08:06.009Z,49149.034,1635181625,full,ni_sequenzen,NI_Sequenzen,,,,,,,,,,,,,,
,Sequence,flow.Sequence,0_0_9,,completion,10,49079.799999952316,,,49081.39999997616,,49084.699999928474,2021-10-25T17:08:06.009Z,49149.034,1635181625,full,ni_sequenzen,NI_Sequenzen,,,,,,,,,,,,,,
,Screen_1,canvas.Screen,0_0_10_0,,skipped,11,49086,,,49086,,49086,2021-10-25T17:08:06.011Z,49149.034,1635181625,full,ni_sequenzen,NI_Sequenzen,,,,,,,,,,,,,,
,Screen_2,canvas.Screen,0_0_10_1,,skipped,11,49086.799999952316,,,49086,,49086.89999997616,2021-10-25T17:08:06.011Z,49149.034,1635181625,full,ni_sequenzen,NI_Sequenzen,,,,,,,,,,,,,,
,Screen_3,canvas.Screen,0_0_10_2,,skipped,11,49087.799999952316,,,49086,,49087.799999952316,2021-10-25T17:08:06.012Z,49149.034,1635181625,full,ni_sequenzen,NI_Sequenzen,,,,,,,,,,,,,,
,Screen_4,canvas.Screen,0_0_10_3,,skipped,11,49088.89999997616,,,49086,,49088.89999997616,2021-10-25T17:08:06.014Z,49149.034,1635181625,full,ni_sequenzen,NI_Sequenzen,,,,,,,,,,,,,,
,Sequence,flow.Sequence,0_0_10,,completion,11,49085.199999928474,,,49086,,49089,2021-10-25T17:08:06.014Z,49149.034,1635181625,full,ni_sequenzen,NI_Sequenzen,,,,,,,,,,,,,,
,Screen_1,canvas.Screen,0_0_11_0,,skipped,12,49092.09999990463,,,49092.09999990463,,49092.199999928474,2021-10-25T17:08:06.017Z,49149.034,1635181625,full,ni_sequenzen,NI_Sequenzen,,,,,,,,,,,,,,
,Screen_2,canvas.Screen,0_0_11_1,,skipped,12,49093.299999952316,,,49092.09999990463,,49093.39999997616,2021-10-25T17:08:06.018Z,49149.034,1635181625,full,ni_sequenzen,NI_Sequenzen,,,,,,,,,,,,,,
,Screen_3,canvas.Screen,0_0_11_2,,skipped,12,49094.5,,,49092.09999990463,,49094.59999990463,2021-10-25T17:08:06.019Z,49149.034,1635181625,full,ni_sequenzen,NI_Sequenzen,,,,,,,,,,,,,,
,Screen_4,canvas.Screen,0_0_11_3,,skipped,12,49095.5,,,49092.09999990463,,49095.59999990463,2021-10-25T17:08:06.020Z,49149.034,1635181625,full,ni_sequenzen,NI_Sequenzen,,,,,,,,,,,,,,
,Sequence,flow.Sequence,0_0_11,,completion,12,49090.199999928474,,,49092.09999990463,,49095.799999952316,2021-10-25T17:08:06.020Z,49149.034,1635181625,full,ni_sequenzen,NI_Sequenzen,,,,,,,,,,,,,,
,Screen_1,canvas.Screen,0_0_12_0,,skipped,13,49096.699999928474,,,49096.799999952316,,49096.89999997616,2021-10-25T17:08:06.021Z,49149.034,1635181625,full,ni_sequenzen,NI_Sequenzen,,,,,,,,,,,,,,
,Screen_2,canvas.Screen,0_0_12_1,,skipped,13,49098.39999997616,,,49096.799999952316,,49098.5,2021-10-25T17:08:06.023Z,49149.034,1635181625,full,ni_sequenzen,NI_Sequenzen,,,,,,,,,,,,,,
,Screen_3,canvas.Screen,0_0_12_2,,skipped,13,49099.199999928474,,,49096.799999952316,,49099.199999928474,2021-10-25T17:08:06.024Z,49149.034,1635181625,full,ni_sequenzen,NI_Sequenzen,,,,,,,,,,,,,,
,Screen_4,canvas.Screen,0_0_12_3,,skipped,13,49099.799999952316,,,49096.799999952316,,49099.89999997616,2021-10-25T17:08:06.024Z,49149.034,1635181625,full,ni_sequenzen,NI_Sequenzen,,,,,,,,,,,,,,
,Sequence,flow.Sequence,0_0_12,,completion,13,49096.09999990463,,,49096.799999952316,,49099.89999997616,2021-10-25T17:08:06.024Z,49149.034,1635181625,full,ni_sequenzen,NI_Sequenzen,,,,,,,,,,,,,,
,Screen_1,canvas.Screen,0_0_13_0,,skipped,14,49100.5,,,49100.59999990463,,49100.59999990463,2021-10-25T17:08:06.025Z,49149.034,1635181625,full,ni_sequenzen,NI_Sequenzen,,,,,,,,,,,,,,
,Screen_2,canvas.Screen,0_0_13_1,,skipped,14,49101,,,49100.59999990463,,49101.09999990463,2021-10-25T17:08:06.026Z,49149.034,1635181625,full,ni_sequenzen,NI_Sequenzen,,,,,,,,,,,,,,
,Screen_3,canvas.Screen,0_0_13_2,,skipped,14,49101.799999952316,,,49100.59999990463,,49101.89999997616,2021-10-25T17:08:06.026Z,49149.034,1635181625,full,ni_sequenzen,NI_Sequenzen,,,,,,,,,,,,,,
,Screen_4,canvas.Screen,0_0_13_3,,skipped,14,49102.5,,,49100.59999990463,,49102.5,2021-10-25T17:08:06.027Z,49149.034,1635181625,full,ni_sequenzen,NI_Sequenzen,,,,,,,,,,,,,,
,Sequence,flow.Sequence,0_0_13,,completion,14,49100.09999990463,,,49100.59999990463,,49102.699999928474,2021-10-25T17:08:06.027Z,49149.034,1635181625,full,ni_sequenzen,NI_Sequenzen,,,,,,,,,,,,,,
,Screen_1,canvas.Screen,0_0_14_0,,skipped,15,49103.39999997616,,,49103.39999997616,,49103.5,2021-10-25T17:08:06.028Z,49149.034,1635181625,full,ni_sequenzen,NI_Sequenzen,,,,,,,,,,,,,,
,Screen_2,canvas.Screen,0_0_14_1,,skipped,15,49104.09999990463,,,49103.39999997616,,49104.09999990463,2021-10-25T17:08:06.029Z,49149.034,1635181625,full,ni_sequenzen,NI_Sequenzen,,,,,,,,,,,,,,
,Screen_3,canvas.Screen,0_0_14_2,,skipped,15,49104.699999928474,,,49103.39999997616,,49104.699999928474,2021-10-25T17:08:06.029Z,49149.034,1635181625,full,ni_sequenzen,NI_Sequenzen,,,,,,,,,,,,,,
,Screen_4,canvas.Screen,0_0_14_3,,skipped,15,49105.39999997616,,,49103.39999997616,,49105.39999997616,2021-10-25T17:08:06.030Z,49149.034,1635181625,full,ni_sequenzen,NI_Sequenzen,,,,,,,,,,,,,,
,Sequence,flow.Sequence,0_0_14,,completion,15,49102.89999997616,,,49103.39999997616,,49105.5,2021-10-25T17:08:06.030Z,49149.034,1635181625,full,ni_sequenzen,NI_Sequenzen,,,,,,,,,,,,,,
,Screen_1,canvas.Screen,0_0_15_0,,skipped,16,49106.39999997616,,,49106.39999997616,,49106.39999997616,2021-10-25T17:08:06.031Z,49149.034,1635181625,full,ni_sequenzen,NI_Sequenzen,,,,,,,,,,,,,,
,Screen_2,canvas.Screen,0_0_15_1,,skipped,16,49108,,,49106.39999997616,,49108.09999990463,2021-10-25T17:08:06.033Z,49149.034,1635181625,full,ni_sequenzen,NI_Sequenzen,,,,,,,,,,,,,,
,Screen_3,canvas.Screen,0_0_15_2,,skipped,16,49109.39999997616,,,49106.39999997616,,49109.39999997616,2021-10-25T17:08:06.034Z,49149.034,1635181625,full,ni_sequenzen,NI_Sequenzen,,,,,,,,,,,,,,
,Screen_4,canvas.Screen,0_0_15_3,,skipped,16,49110,,,49106.39999997616,,49110,2021-10-25T17:08:06.035Z,49149.034,1635181625,full,ni_sequenzen,NI_Sequenzen,,,,,,,,,,,,,,
,Sequence,flow.Sequence,0_0_15,,completion,16,49105.799999952316,,,49106.39999997616,,49110.09999990463,2021-10-25T17:08:06.035Z,49149.034,1635181625,full,ni_sequenzen,NI_Sequenzen,,,,,,,,,,,,,,
,Screen_1,canvas.Screen,0_0_16_0,,skipped,17,49110.799999952316,,,49110.799999952316,,49110.799999952316,2021-10-25T17:08:06.035Z,49149.034,1635181625,full,ni_sequenzen,NI_Sequenzen,,,,,,,,,,,,,,
,Screen_2,canvas.Screen,0_0_16_1,,skipped,17,49111.39999997616,,,49110.799999952316,,49111.5,2021-10-25T17:08:06.036Z,49149.034,1635181625,full,ni_sequenzen,NI_Sequenzen,,,,,,,,,,,,,,
,Screen_3,canvas.Screen,0_0_16_2,,skipped,17,49111.89999997616,,,49110.799999952316,,49112,2021-10-25T17:08:06.037Z,49149.034,1635181625,full,ni_sequenzen,NI_Sequenzen,,,,,,,,,,,,,,
,Screen_4,canvas.Screen,0_0_16_3,,skipped,17,49112.39999997616,,,49110.799999952316,,49112.39999997616,2021-10-25T17:08:06.037Z,49149.034,1635181625,full,ni_sequenzen,NI_Sequenzen,,,,,,,,,,,,,,
,Sequence,flow.Sequence,0_0_16,,completion,17,49110.299999952316,,,49110.799999952316,,49112.5,2021-10-25T17:08:06.037Z,49149.034,1635181625,full,ni_sequenzen,NI_Sequenzen,,,,,,,,,,,,,,
,Screen_1,canvas.Screen,0_0_17_0,,skipped,18,49113.199999928474,,,49113.199999928474,,49113.199999928474,2021-10-25T17:08:06.038Z,49149.034,1635181625,full,ni_sequenzen,NI_Sequenzen,,,,,,,,,,,,,,
,Screen_2,canvas.Screen,0_0_17_1,,skipped,18,49113.59999990463,,,49113.199999928474,,49113.699999928474,2021-10-25T17:08:06.038Z,49149.034,1635181625,full,ni_sequenzen,NI_Sequenzen,,,,,,,,,,,,,,
,Screen_3,canvas.Screen,0_0_17_2,,skipped,18,49114.09999990463,,,49113.199999928474,,49114.09999990463,2021-10-25T17:08:06.039Z,49149.034,1635181625,full,ni_sequenzen,NI_Sequenzen,,,,,,,,,,,,,,
,Screen_4,canvas.Screen,0_0_17_3,,skipped,18,49114.5,,,49113.199999928474,,49114.5,2021-10-25T17:08:06.039Z,49149.034,1635181625,full,ni_sequenzen,NI_Sequenzen,,,,,,,,,,,,,,
,Sequence,flow.Sequence,0_0_17,,completion,18,49112.799999952316,,,49113.199999928474,,49114.59999990463,2021-10-25T17:08:06.039Z,49149.034,1635181625,full,ni_sequenzen,NI_Sequenzen,,,,,,,,,,,,,,
,Screen_1,canvas.Screen,0_0_18_0,,skipped,19,49115.09999990463,,,49115.09999990463,,49115.199999928474,2021-10-25T17:08:06.040Z,49149.034,1635181625,full,ni_sequenzen,NI_Sequenzen,,,,,,,,,,,,,,
,Screen_2,canvas.Screen,0_0_18_1,,skipped,19,49115.5,,,49115.09999990463,,49115.59999990463,2021-10-25T17:08:06.040Z,49149.034,1635181625,full,ni_sequenzen,NI_Sequenzen,,,,,,,,,,,,,,
,Screen_3,canvas.Screen,0_0_18_2,,skipped,19,49116.39999997616,,,49115.09999990463,,49116.5,2021-10-25T17:08:06.041Z,49149.034,1635181625,full,ni_sequenzen,NI_Sequenzen,,,,,,,,,,,,,,
,Screen_4,canvas.Screen,0_0_18_3,,skipped,19,49116.89999997616,,,49115.09999990463,,49117,2021-10-25T17:08:06.042Z,49149.034,1635181625,full,ni_sequenzen,NI_Sequenzen,,,,,,,,,,,,,,
,Sequence,flow.Sequence,0_0_18,,completion,19,49114.699999928474,,,49115.09999990463,,49117.09999990463,2021-10-25T17:08:06.042Z,49149.034,1635181625,full,ni_sequenzen,NI_Sequenzen,,,,,,,,,,,,,,
,Screen_1,canvas.Screen,0_0_19_0,,skipped,20,49117.5,,,49117.5,,49117.59999990463,2021-10-25T17:08:06.042Z,49149.034,1635181625,full,ni_sequenzen,NI_Sequenzen,,,,,,,,,,,,,,
,Screen_2,canvas.Screen,0_0_19_1,,skipped,20,49118.09999990463,,,49117.5,,49118.199999928474,2021-10-25T17:08:06.043Z,49149.034,1635181625,full,ni_sequenzen,NI_Sequenzen,,,,,,,,,,,,,,
,Screen_3,canvas.Screen,0_0_19_2,,skipped,20,49118.39999997616,,,49117.5,,49118.5,2021-10-25T17:08:06.043Z,49149.034,1635181625,full,ni_sequenzen,NI_Sequenzen,,,,,,,,,,,,,,
,Screen_4,canvas.Screen,0_0_19_3,,skipped,20,49118.89999997616,,,49117.5,,49118.89999997616,2021-10-25T17:08:06.043Z,49149.034,1635181625,full,ni_sequenzen,NI_Sequenzen,,,,,,,,,,,,,,
,Sequence,flow.Sequence,0_0_19,,completion,20,49117.199999928474,,,49117.5,,49118.89999997616,2021-10-25T17:08:06.044Z,49149.034,1635181625,full,ni_sequenzen,NI_Sequenzen,,,,,,,,,,,,,,
,Instructions_I,flow.Loop,0_0,,completion,,1243.1999999284744,2468.942,2518.778,49117.5,46598.722,49119,2021-10-25T17:08:06.044Z,49149.034,1635181625,full,ni_sequenzen,NI_Sequenzen,,,,,,,,,,,,,,
,Move,canvas.Screen,0_1_0_0,down,response,,49126.299999952316,49113.565,49149.034,50473.699999928474,1324.6659999284748,50474.89999997616,2021-10-25T17:08:07.399Z,50500.809,1635181625,full,ni_sequenzen,NI_Sequenzen,1,,,,,,,,,,,,,
,Move,canvas.Screen,0_1_0_1,left,response,,50477.799999952316,50465.467,50500.809,51529,1028.190999999999,51529.89999997616,2021-10-25T17:08:08.454Z,51557.326,1635181625,full,ni_sequenzen,NI_Sequenzen,2,,,,,,,,,,,,,
,Move,canvas.Screen,0_1_0_2,down,response,,51534.299999952316,51533.949,51557.326,52395.39999997616,838.0739999761572,52396.299999952316,2021-10-25T17:08:09.321Z,52421.383,1635181625,full,ni_sequenzen,NI_Sequenzen,3,,,,,,,,,,,,,
,Move,canvas.Screen,0_1_0_3,right,response,,52398.39999997616,52390.459,52421.383,52760.89999997616,339.5169999761565,52761.799999952316,2021-10-25T17:08:09.686Z,52786.941,1635181625,full,ni_sequenzen,NI_Sequenzen,4,,,,,,,,,,,,,
,Move,canvas.Screen,0_1_0_4,down,response,,52763.799999952316,52754.506,52786.941,53209.39999997616,422.45899997615925,53210.199999928474,2021-10-25T17:08:10.135Z,53235.479,1635181625,full,ni_sequenzen,NI_Sequenzen,5,,,,,,,,,,,,,
,Move,canvas.Screen,0_1_0_5,right,response,,53212.5,53203.419,53235.479,53569.799999952316,334.3209999523169,53573.299999952316,2021-10-25T17:08:10.498Z,53598.102,1635181625,full,ni_sequenzen,NI_Sequenzen,6,,,,,,,,,,,,,
,Move,canvas.Screen,0_1_0_6,left,response,,53575.199999928474,53568.715,53598.102,54168.699999928474,570.5979999284755,54169.39999997616,2021-10-25T17:08:11.094Z,54194.509,1635181625,full,ni_sequenzen,NI_Sequenzen,7,,,,,,,,,,,,,
,Move,canvas.Screen,0_1_0_7,left,response,,54171.59999990463,54164.655,54194.509,54503.09999990463,308.5909999046344,54503.89999997616,2021-10-25T17:08:11.429Z,54528.748,1635181625,full,ni_sequenzen,NI_Sequenzen,8,,,,,,,,,,,,,
,Move,canvas.Screen,0_1_0_8,down,response,,54506,54494.449,54528.748,54899.299999952316,370.5519999523167,54900.199999928474,2021-10-25T17:08:11.825Z,54925.545,1635181625,full,ni_sequenzen,NI_Sequenzen,9,,,,,,,,,,,,,
,Move,canvas.Screen,0_1_0_9,right,response,,54902.5,54895.442,54925.545,55380.799999952316,455.25499995231803,55381.59999990463,2021-10-25T17:08:12.306Z,55406.468,1635181625,full,ni_sequenzen,NI_Sequenzen,10,,,,,,,,,,,,,
,Move,canvas.Screen,0_1_0_10,down,response,,55383.59999990463,55375.384,55406.468,56740.39999997616,1333.9319999761574,56741.199999928474,2021-10-25T17:08:13.666Z,56752.946,1635181625,full,ni_sequenzen,NI_Sequenzen,11,,,,,,,,,,,,,
,Move,canvas.Screen,0_1_0_11,down,response,,56743.299999952316,56739.55,56752.946,56952.09999990463,199.15399990462902,56953,2021-10-25T17:08:13.878Z,56958.523,1635181625,full,ni_sequenzen,NI_Sequenzen,12,,,,,,,,,,,,,
,Move,canvas.Screen,0_1_0_12,down,response,,56955.199999928474,56953.166,56958.523,57130.39999997616,171.8769999761571,57131.199999928474,2021-10-25T17:08:14.056Z,57141.847,1635181625,full,ni_sequenzen,NI_Sequenzen,13,,,,,,,,,,,,,
,Move,canvas.Screen,0_1_0_13,right,response,,57133.39999997616,57125.496,57141.847,57937.299999952316,795.4529999523147,57938.199999928474,2021-10-25T17:08:14.863Z,57963.243,1635181625,full,ni_sequenzen,NI_Sequenzen,14,,,,,,,,,,,,,
,Move,canvas.Screen,0_1_0_14,down,response,,57940.199999928474,57925.382,57963.243,58287.799999952316,324.5569999523141,58288.59999990463,2021-10-25T17:08:15.213Z,58313.497,1635181625,full,ni_sequenzen,NI_Sequenzen,15,,,,,,,,,,,,,
,Move,canvas.Screen,0_1_0_15,right,response,,58290.699999928474,58279.67,58313.497,59788.09999990463,1474.6029999046295,59788.89999997616,2021-10-25T17:08:16.713Z,59814.541,1635181625,full,ni_sequenzen,NI_Sequenzen,16,,,,,,,,,,,,,
,Move,canvas.Screen,0_1_0_16,down,response,,59791.699999928474,59780.176,59814.541,60067.799999952316,253.25899995231885,60068.299999952316,2021-10-25T17:08:16.993Z,60086.768,1635181625,full,ni_sequenzen,NI_Sequenzen,17,,,,,,,,,,,,,
,Move,canvas.Screen,0_1_0_17,left,response,,60070.39999997616,60064.515,60086.768,60737.89999997616,651.1319999761618,60739,2021-10-25T17:08:17.664Z,60764.238,1635181625,full,ni_sequenzen,NI_Sequenzen,18,,,,,,,,,,,,,
,Move,canvas.Screen,0_1_0_18,right,response,,60741.299999952316,60736.77,60764.238,61609.699999928474,845.4619999284769,61610.5,2021-10-25T17:08:18.535Z,61635.68,1635181625,full,ni_sequenzen,NI_Sequenzen,19,,,,,,,,,,,,,
,Move,canvas.Screen,0_1_0_19,right,response,,61612.699999928474,61597.352,61635.68,62260.699999928474,625.0199999284741,62261.699999928474,2021-10-25T17:08:19.186Z,62287.004,1635181625,full,ni_sequenzen,NI_Sequenzen,20,,,,,,,,,,,,,
,Move,canvas.Screen,0_1_0_20,down,response,,62264.199999928474,62252.064,62287.004,63421.39999997616,1134.3959999761573,63422.299999952316,2021-10-25T17:08:20.347Z,63447.687,1635181625,full,ni_sequenzen,NI_Sequenzen,21,,,,,,,,,,,,,
,Move,canvas.Screen,0_1_0_21,left,response,,63424.699999928474,63420.517,63447.687,64014.699999928474,567.0129999284763,64015.299999952316,2021-10-25T17:08:20.940Z,64050.413,1635181625,full,ni_sequenzen,NI_Sequenzen,22,,,,,,,,,,,,,
,Move,canvas.Screen,0_1_0_22,down,response,,64017.59999990463,64014.172,64050.413,64289.39999997616,238.98699997615768,64311,2021-10-25T17:08:21.236Z,64345.484,1635181625,full,ni_sequenzen,NI_Sequenzen,23,,,,,,,,,,,,,
,Move,canvas.Screen,0_1_0_23,down,response,,64312.799999952316,64307.083,64345.484,64704.799999952316,359.31599995231954,64705.5,2021-10-25T17:08:21.630Z,64730.546,1635181625,full,ni_sequenzen,NI_Sequenzen,24,,,,,,,,,,,,,
,Move,canvas.Screen,0_1_0_24,right,response,,64707.799999952316,64702.084,64730.546,65019,288.4539999999979,65019.799999952316,2021-10-25T17:08:21.944Z,65045.038,1635181625,full,ni_sequenzen,NI_Sequenzen,25,,,,,,,,,,,,,
,Move,canvas.Screen,0_1_0_25,left,response,,65022.09999990463,65014.019,65045.038,66049,1003.9619999999995,66049.79999995232,2021-10-25T17:08:22.974Z,66074.636,1635181625,full,ni_sequenzen,NI_Sequenzen,26,,,,,,,,,,,,,
,Move,canvas.Screen,0_1_0_26,down,response,,66051.79999995232,66044.883,66074.636,68363.09999990463,2288.463999904634,68363.89999997616,2021-10-25T17:08:25.288Z,68388.979,1635181625,full,ni_sequenzen,NI_Sequenzen,27,,,,,,,,,,,,,
,Move,canvas.Screen,0_1_0_27,right,response,,68366,68357.746,68388.979,68946.09999990463,557.1209999046259,68947.09999990463,2021-10-25T17:08:25.872Z,68972.429,1635181625,full,ni_sequenzen,NI_Sequenzen,28,,,,,,,,,,,,,
,Move,canvas.Screen,0_1_0_28,left,response,,68949.5,68938.785,68972.429,70117.09999990463,1144.6709999046288,70118,2021-10-25T17:08:27.043Z,70143.206,1635181625,full,ni_sequenzen,NI_Sequenzen,29,,,,,,,,,,,,,
,Move,canvas.Screen,0_1_0_29,right,response,,70120.39999997616,70105.78,70143.206,71624.29999995232,1481.0939999523107,71625.19999992847,2021-10-25T17:08:28.550Z,71695.708,1635181625,full,ni_sequenzen,NI_Sequenzen,30,,,,,,,,,,,,,
,Loop,flow.Loop,0_1_0,-999,completion,,49125.199999928474,49113.565,49149.034,71624.29999995232,22475.265999952317,71625.5,2021-10-25T17:08:28.550Z,71695.708,1635181625,full,ni_sequenzen,NI_Sequenzen,,,,,,,,,,,,,,
,Training_I,flow.Sequence,0_1,,completion,,49119.199999928474,49113.565,49149.034,71624.29999995232,22475.265999952317,71625.59999990463,2021-10-25T17:08:28.550Z,71695.708,1635181625,full,ni_sequenzen,NI_Sequenzen,,,,,,,,,,,,,,
,Screen_1,canvas.Screen,0_2_0_0,cont,response,1,71672.89999997616,71659.769,71695.708,84689.19999992847,12993.491999928476,84690.09999990463,2021-10-25T17:08:41.615Z,84950.224,1635181625,full,ni_sequenzen,NI_Sequenzen,,,,,,,,,,,,,,
,Screen_2,canvas.Screen,0_2_0_1,cont,response,1,84926.19999992847,84915.098,84950.224,92559.79999995232,7609.575999952314,92560.59999990463,2021-10-25T17:08:49.490Z,92587.905,1635181625,full,ni_sequenzen,NI_Sequenzen,,,,,,,,,,,,,,
,Screen_3,canvas.Screen,0_2_0_2,cont,response,1,92565,92564.946,92587.905,101266.39999997616,8678.49499997616,101267.39999997616,2021-10-25T17:08:58.197Z,102475.073,1635181625,full,ni_sequenzen,NI_Sequenzen,,,,,,,,,,,,,,
,Screen_4,canvas.Screen,0_2_0_3,cont,response,1,102452.19999992847,102436.847,102475.073,112037.19999992847,9562.12699992847,112038,2021-10-25T17:09:08.967Z,112075.025,1635181625,full,ni_sequenzen,NI_Sequenzen,,,,,,,,,,,,,,
,Screen_5,canvas.Screen,0_2_0_4,cont,response,1,112042.09999990463,112040.802,112075.025,116241.29999995232,4166.274999952322,116242.19999992847,2021-10-25T17:09:13.172Z,116454.662,1635181625,full,ni_sequenzen,NI_Sequenzen,,,,,,,,,,,,,,
,Screen_6,canvas.Screen,0_2_0_5,cont,response,1,116431.69999992847,116431.211,116454.662,124888.29999995232,8433.63799995232,124889.19999992847,2021-10-25T17:09:21.819Z,125050.235,1635181625,full,ni_sequenzen,NI_Sequenzen,,,,,,,,,,,,,,
,Sequence,flow.Sequence,0_2_0,,completion,1,71672.19999992847,71659.769,71695.708,124888.29999995232,53192.59199995232,124891.59999990463,2021-10-25T17:09:21.821Z,125050.235,1635181625,full,ni_sequenzen,NI_Sequenzen,,,,,,,,,,,,,,
,Screen_1,canvas.Screen,0_2_1_0,,skipped,2,124895.59999990463,,,124895.59999990463,,124895.89999997616,2021-10-25T17:09:21.825Z,125050.235,1635181625,full,ni_sequenzen,NI_Sequenzen,,,,,,,,,,,,,,
,Screen_2,canvas.Screen,0_2_1_1,,skipped,2,124897.09999990463,,,124895.59999990463,,124897.09999990463,2021-10-25T17:09:21.827Z,125050.235,1635181625,full,ni_sequenzen,NI_Sequenzen,,,,,,,,,,,,,,
,Screen_3,canvas.Screen,0_2_1_2,,skipped,2,124898.19999992847,,,124895.59999990463,,124898.29999995232,2021-10-25T17:09:21.828Z,125050.235,1635181625,full,ni_sequenzen,NI_Sequenzen,,,,,,,,,,,,,,
,Screen_4,canvas.Screen,0_2_1_3,,skipped,2,124899.39999997616,,,124895.59999990463,,124899.5,2021-10-25T17:09:21.829Z,125050.235,1635181625,full,ni_sequenzen,NI_Sequenzen,,,,,,,,,,,,,,
,Screen_5,canvas.Screen,0_2_1_4,,skipped,2,124900.69999992847,,,124895.59999990463,,124900.89999997616,2021-10-25T17:09:21.830Z,125050.235,1635181625,full,ni_sequenzen,NI_Sequenzen,,,,,,,,,,,,,,
,Screen_6,canvas.Screen,0_2_1_5,,skipped,2,124902.19999992847,,,124895.59999990463,,124902.19999992847,2021-10-25T17:09:21.832Z,125050.235,1635181625,full,ni_sequenzen,NI_Sequenzen,,,,,,,,,,,,,,
,Sequence,flow.Sequence,0_2_1,,completion,2,124894.19999992847,,,124895.59999990463,,124902.39999997616,2021-10-25T17:09:21.832Z,125050.235,1635181625,full,ni_sequenzen,NI_Sequenzen,,,,,,,,,,,,,,
,Screen_1,canvas.Screen,0_2_2_0,,skipped,3,124903.69999992847,,,124903.69999992847,,124903.79999995232,2021-10-25T17:09:21.833Z,125050.235,1635181625,full,ni_sequenzen,NI_Sequenzen,,,,,,,,,,,,,,
,Screen_2,canvas.Screen,0_2_2_1,,skipped,3,124905,,,124903.69999992847,,124905,2021-10-25T17:09:21.834Z,125050.235,1635181625,full,ni_sequenzen,NI_Sequenzen,,,,,,,,,,,,,,
,Screen_3,canvas.Screen,0_2_2_2,,skipped,3,124906,,,124903.69999992847,,124906,2021-10-25T17:09:21.835Z,125050.235,1635181625,full,ni_sequenzen,NI_Sequenzen,,,,,,,,,,,,,,
,Screen_4,canvas.Screen,0_2_2_3,,skipped,3,124907.89999997616,,,124903.69999992847,,124908.09999990463,2021-10-25T17:09:21.837Z,125050.235,1635181625,full,ni_sequenzen,NI_Sequenzen,,,,,,,,,,,,,,
,Screen_5,canvas.Screen,0_2_2_4,,skipped,3,124908.79999995232,,,124903.69999992847,,124908.89999997616,2021-10-25T17:09:21.838Z,125050.235,1635181625,full,ni_sequenzen,NI_Sequenzen,,,,,,,,,,,,,,
,Screen_6,canvas.Screen,0_2_2_5,,skipped,3,124909.79999995232,,,124903.69999992847,,124909.79999995232,2021-10-25T17:09:21.839Z,125050.235,1635181625,full,ni_sequenzen,NI_Sequenzen,,,,,,,,,,,,,,
,Sequence,flow.Sequence,0_2_2,,completion,3,124902.89999997616,,,124903.69999992847,,124910,2021-10-25T17:09:21.839Z,125050.235,1635181625,full,ni_sequenzen,NI_Sequenzen,,,,,,,,,,,,,,
,Screen_1,canvas.Screen,0_2_3_0,,skipped,4,124911.09999990463,,,124911.19999992847,,124911.19999992847,2021-10-25T17:09:21.841Z,125050.235,1635181625,full,ni_sequenzen,NI_Sequenzen,,,,,,,,,,,,,,
,Screen_2,canvas.Screen,0_2_3_1,,skipped,4,124912.09999990463,,,124911.19999992847,,124912.09999990463,2021-10-25T17:09:21.842Z,125050.235,1635181625,full,ni_sequenzen,NI_Sequenzen,,,,,,,,,,,,,,
,Screen_3,canvas.Screen,0_2_3_2,,skipped,4,124912.89999997616,,,124911.19999992847,,124913,2021-10-25T17:09:21.842Z,125050.235,1635181625,full,ni_sequenzen,NI_Sequenzen,,,,,,,,,,,,,,
,Screen_4,canvas.Screen,0_2_3_3,,skipped,4,124913.69999992847,,,124911.19999992847,,124913.79999995232,2021-10-25T17:09:21.843Z,125050.235,1635181625,full,ni_sequenzen,NI_Sequenzen,,,,,,,,,,,,,,
,Screen_5,canvas.Screen,0_2_3_4,,skipped,4,124914.69999992847,,,124911.19999992847,,124914.79999995232,2021-10-25T17:09:21.844Z,125050.235,1635181625,full,ni_sequenzen,NI_Sequenzen,,,,,,,,,,,,,,
,Screen_6,canvas.Screen,0_2_3_5,,skipped,4,124915.59999990463,,,124911.19999992847,,124915.69999992847,2021-10-25T17:09:21.845Z,125050.235,1635181625,full,ni_sequenzen,NI_Sequenzen,,,,,,,,,,,,,,
,Sequence,flow.Sequence,0_2_3,,completion,4,124910.39999997616,,,124911.19999992847,,124915.89999997616,2021-10-25T17:09:21.845Z,125050.235,1635181625,full,ni_sequenzen,NI_Sequenzen,,,,,,,,,,,,,,
,Screen_1,canvas.Screen,0_2_4_0,,skipped,5,124917.19999992847,,,124917.19999992847,,124917.29999995232,2021-10-25T17:09:21.847Z,125050.235,1635181625,full,ni_sequenzen,NI_Sequenzen,,,,,,,,,,,,,,
,Screen_2,canvas.Screen,0_2_4_1,,skipped,5,124918.09999990463,,,124917.19999992847,,124918.19999992847,2021-10-25T17:09:21.848Z,125050.235,1635181625,full,ni_sequenzen,NI_Sequenzen,,,,,,,,,,,,,,
,Screen_3,canvas.Screen,0_2_4_2,,skipped,5,124919.09999990463,,,124917.19999992847,,124919.19999992847,2021-10-25T17:09:21.849Z,125050.235,1635181625,full,ni_sequenzen,NI_Sequenzen,,,,,,,,,,,,,,
,Screen_4,canvas.Screen,0_2_4_3,,skipped,5,124920.09999990463,,,124917.19999992847,,124920.09999990463,2021-10-25T17:09:21.850Z,125050.235,1635181625,full,ni_sequenzen,NI_Sequenzen,,,,,,,,,,,,,,
,Screen_5,canvas.Screen,0_2_4_4,,skipped,5,124921,,,124917.19999992847,,124921.09999990463,2021-10-25T17:09:21.850Z,125050.235,1635181625,full,ni_sequenzen,NI_Sequenzen,,,,,,,,,,,,,,
,Screen_6,canvas.Screen,0_2_4_5,,skipped,5,124921.79999995232,,,124917.19999992847,,124921.79999995232,2021-10-25T17:09:21.851Z,125050.235,1635181625,full,ni_sequenzen,NI_Sequenzen,,,,,,,,,,,,,,
,Sequence,flow.Sequence,0_2_4,,completion,5,124916.19999992847,,,124917.19999992847,,124921.89999997616,2021-10-25T17:09:21.851Z,125050.235,1635181625,full,ni_sequenzen,NI_Sequenzen,,,,,,,,,,,,,,
,Screen_1,canvas.Screen,0_2_5_0,,skipped,6,124924,,,124924,,124924.09999990463,2021-10-25T17:09:21.854Z,125050.235,1635181625,full,ni_sequenzen,NI_Sequenzen,,,,,,,,,,,,,,
,Screen_2,canvas.Screen,0_2_5_1,,skipped,6,124925,,,124924,,124925.09999990463,2021-10-25T17:09:21.854Z,125050.235,1635181625,full,ni_sequenzen,NI_Sequenzen,,,,,,,,,,,,,,
,Screen_3,canvas.Screen,0_2_5_2,,skipped,6,124925.89999997616,,,124924,,124926,2021-10-25T17:09:21.855Z,125050.235,1635181625,full,ni_sequenzen,NI_Sequenzen,,,,,,,,,,,,,,
,Screen_4,canvas.Screen,0_2_5_3,,skipped,6,124926.79999995232,,,124924,,124926.89999997616,2021-10-25T17:09:21.856Z,125050.235,1635181625,full,ni_sequenzen,NI_Sequenzen,,,,,,,,,,,,,,
,Screen_5,canvas.Screen,0_2_5_4,,skipped,6,124927.59999990463,,,124924,,124927.69999992847,2021-10-25T17:09:21.857Z,125050.235,1635181625,full,ni_sequenzen,NI_Sequenzen,,,,,,,,,,,,,,
,Screen_6,canvas.Screen,0_2_5_5,,skipped,6,124928.5,,,124924,,124928.59999990463,2021-10-25T17:09:21.858Z,125050.235,1635181625,full,ni_sequenzen,NI_Sequenzen,,,,,,,,,,,,,,
,Sequence,flow.Sequence,0_2_5,,completion,6,124922.29999995232,,,124924,,124928.59999990463,2021-10-25T17:09:21.858Z,125050.235,1635181625,full,ni_sequenzen,NI_Sequenzen,,,,,,,,,,,,,,
,Screen_1,canvas.Screen,0_2_6_0,,skipped,7,124929.79999995232,,,124929.79999995232,,124929.89999997616,2021-10-25T17:09:21.859Z,125050.235,1635181625,full,ni_sequenzen,NI_Sequenzen,,,,,,,,,,,,,,
,Screen_2,canvas.Screen,0_2_6_1,,skipped,7,124930.69999992847,,,124929.79999995232,,124930.69999992847,2021-10-25T17:09:21.860Z,125050.235,1635181625,full,ni_sequenzen,NI_Sequenzen,,,,,,,,,,,,,,
,Screen_3,canvas.Screen,0_2_6_2,,skipped,7,124931.5,,,124929.79999995232,,124931.59999990463,2021-10-25T17:09:21.861Z,125050.235,1635181625,full,ni_sequenzen,NI_Sequenzen,,,,,,,,,,,,,,
,Screen_4,canvas.Screen,0_2_6_3,,skipped,7,124932.29999995232,,,124929.79999995232,,124932.39999997616,2021-10-25T17:09:21.862Z,125050.235,1635181625,full,ni_sequenzen,NI_Sequenzen,,,,,,,,,,,,,,
,Screen_5,canvas.Screen,0_2_6_4,,skipped,7,124933.29999995232,,,124929.79999995232,,124933.29999995232,2021-10-25T17:09:21.863Z,125050.235,1635181625,full,ni_sequenzen,NI_Sequenzen,,,,,,,,,,,,,,
,Screen_6,canvas.Screen,0_2_6_5,,skipped,7,124934.09999990463,,,124929.79999995232,,124934.19999992847,2021-10-25T17:09:21.864Z,125050.235,1635181625,full,ni_sequenzen,NI_Sequenzen,,,,,,,,,,,,,,
,Sequence,flow.Sequence,0_2_6,,completion,7,124929,,,124929.79999995232,,124934.29999995232,2021-10-25T17:09:21.864Z,125050.235,1635181625,full,ni_sequenzen,NI_Sequenzen,,,,,,,,,,,,,,
,Screen_1,canvas.Screen,0_2_7_0,,skipped,8,124935.29999995232,,,124935.29999995232,,124935.39999997616,2021-10-25T17:09:21.865Z,125050.235,1635181625,full,ni_sequenzen,NI_Sequenzen,,,,,,,,,,,,,,
,Screen_2,canvas.Screen,0_2_7_1,,skipped,8,124936.09999990463,,,124935.29999995232,,124936.09999990463,2021-10-25T17:09:21.866Z,125050.235,1635181625,full,ni_sequenzen,NI_Sequenzen,,,,,,,,,,,,,,
,Screen_3,canvas.Screen,0_2_7_2,,skipped,8,124936.69999992847,,,124935.29999995232,,124936.89999997616,2021-10-25T17:09:21.866Z,125050.235,1635181625,full,ni_sequenzen,NI_Sequenzen,,,,,,,,,,,,,,
,Screen_4,canvas.Screen,0_2_7_3,,skipped,8,124938.09999990463,,,124935.29999995232,,124938.19999992847,2021-10-25T17:09:21.868Z,125050.235,1635181625,full,ni_sequenzen,NI_Sequenzen,,,,,,,,,,,,,,
,Screen_5,canvas.Screen,0_2_7_4,,skipped,8,124938.89999997616,,,124935.29999995232,,124938.89999997616,2021-10-25T17:09:21.868Z,125050.235,1635181625,full,ni_sequenzen,NI_Sequenzen,,,,,,,,,,,,,,
,Screen_6,canvas.Screen,0_2_7_5,,skipped,8,124939.5,,,124935.29999995232,,124939.59999990463,2021-10-25T17:09:21.869Z,125050.235,1635181625,full,ni_sequenzen,NI_Sequenzen,,,,,,,,,,,,,,
,Sequence,flow.Sequence,0_2_7,,completion,8,124934.69999992847,,,124935.29999995232,,124939.69999992847,2021-10-25T17:09:21.869Z,125050.235,1635181625,full,ni_sequenzen,NI_Sequenzen,,,,,,,,,,,,,,
,Screen_1,canvas.Screen,0_2_8_0,,skipped,9,124940.59999990463,,,124940.59999990463,,124940.69999992847,2021-10-25T17:09:21.870Z,125050.235,1635181625,full,ni_sequenzen,NI_Sequenzen,,,,,,,,,,,,,,
,Screen_2,canvas.Screen,0_2_8_1,,skipped,9,124941.29999995232,,,124940.59999990463,,124941.39999997616,2021-10-25T17:09:21.871Z,125050.235,1635181625,full,ni_sequenzen,NI_Sequenzen,,,,,,,,,,,,,,
,Screen_3,canvas.Screen,0_2_8_2,,skipped,9,124942,,,124940.59999990463,,124942,2021-10-25T17:09:21.871Z,125050.235,1635181625,full,ni_sequenzen,NI_Sequenzen,,,,,,,,,,,,,,
,Screen_4,canvas.Screen,0_2_8_3,,skipped,9,124942.5,,,124940.59999990463,,124942.59999990463,2021-10-25T17:09:21.872Z,125050.235,1635181625,full,ni_sequenzen,NI_Sequenzen,,,,,,,,,,,,,,
,Screen_5,canvas.Screen,0_2_8_4,,skipped,9,124943,,,124940.59999990463,,124943,2021-10-25T17:09:21.872Z,125050.235,1635181625,full,ni_sequenzen,NI_Sequenzen,,,,,,,,,,,,,,
,Screen_6,canvas.Screen,0_2_8_5,,skipped,9,124943.39999997616,,,124940.59999990463,,124943.39999997616,2021-10-25T17:09:21.873Z,125050.235,1635181625,full,ni_sequenzen,NI_Sequenzen,,,,,,,,,,,,,,
,Sequence,flow.Sequence,0_2_8,,completion,9,124940,,,124940.59999990463,,124943.5,2021-10-25T17:09:21.873Z,125050.235,1635181625,full,ni_sequenzen,NI_Sequenzen,,,,,,,,,,,,,,
,Screen_1,canvas.Screen,0_2_9_0,,skipped,10,124944.29999995232,,,124944.29999995232,,124944.29999995232,2021-10-25T17:09:21.874Z,125050.235,1635181625,full,ni_sequenzen,NI_Sequenzen,,,,,,,,,,,,,,
,Screen_2,canvas.Screen,0_2_9_1,,skipped,10,124944.89999997616,,,124944.29999995232,,124944.89999997616,2021-10-25T17:09:21.874Z,125050.235,1635181625,full,ni_sequenzen,NI_Sequenzen,,,,,,,,,,,,,,
,Screen_3,canvas.Screen,0_2_9_2,,skipped,10,124945.29999995232,,,124944.29999995232,,124945.39999997616,2021-10-25T17:09:21.875Z,125050.235,1635181625,full,ni_sequenzen,NI_Sequenzen,,,,,,,,,,,,,,
,Screen_4,canvas.Screen,0_2_9_3,,skipped,10,124945.79999995232,,,124944.29999995232,,124945.79999995232,2021-10-25T17:09:21.875Z,125050.235,1635181625,full,ni_sequenzen,NI_Sequenzen,,,,,,,,,,,,,,
,Screen_5,canvas.Screen,0_2_9_4,,skipped,10,124946.69999992847,,,124944.29999995232,,124946.79999995232,2021-10-25T17:09:21.876Z,125050.235,1635181625,full,ni_sequenzen,NI_Sequenzen,,,,,,,,,,,,,,
,Screen_6,canvas.Screen,0_2_9_5,,skipped,10,124947.39999997616,,,124944.29999995232,,124947.5,2021-10-25T17:09:21.877Z,125050.235,1635181625,full,ni_sequenzen,NI_Sequenzen,,,,,,,,,,,,,,
,Sequence,flow.Sequence,0_2_9,,completion,10,124943.69999992847,,,124944.29999995232,,124947.59999990463,2021-10-25T17:09:21.877Z,125050.235,1635181625,full,ni_sequenzen,NI_Sequenzen,,,,,,,,,,,,,,
,Screen_1,canvas.Screen,0_2_10_0,,skipped,11,124948.59999990463,,,124948.59999990463,,124948.59999990463,2021-10-25T17:09:21.878Z,125050.235,1635181625,full,ni_sequenzen,NI_Sequenzen,,,,,,,,,,,,,,
,Screen_2,canvas.Screen,0_2_10_1,,skipped,11,124949.5,,,124948.59999990463,,124949.5,2021-10-25T17:09:21.879Z,125050.235,1635181625,full,ni_sequenzen,NI_Sequenzen,,,,,,,,,,,,,,
,Screen_3,canvas.Screen,0_2_10_2,,skipped,11,124949.79999995232,,,124948.59999990463,,124949.79999995232,2021-10-25T17:09:21.879Z,125050.235,1635181625,full,ni_sequenzen,NI_Sequenzen,,,,,,,,,,,,,,
,Screen_4,canvas.Screen,0_2_10_3,,skipped,11,124950.19999992847,,,124948.59999990463,,124950.29999995232,2021-10-25T17:09:21.880Z,125050.235,1635181625,full,ni_sequenzen,NI_Sequenzen,,,,,,,,,,,,,,
,Screen_5,canvas.Screen,0_2_10_4,,skipped,11,124950.59999990463,,,124948.59999990463,,124950.59999990463,2021-10-25T17:09:21.880Z,125050.235,1635181625,full,ni_sequenzen,NI_Sequenzen,,,,,,,,,,,,,,
,Screen_6,canvas.Screen,0_2_10_5,,skipped,11,124950.89999997616,,,124948.59999990463,,124951,2021-10-25T17:09:21.880Z,125050.235,1635181625,full,ni_sequenzen,NI_Sequenzen,,,,,,,,,,,,,,
,Sequence,flow.Sequence,0_2_10,,completion,11,124948.09999990463,,,124948.59999990463,,124951.09999990463,2021-10-25T17:09:21.880Z,125050.235,1635181625,full,ni_sequenzen,NI_Sequenzen,,,,,,,,,,,,,,
,Screen_1,canvas.Screen,0_2_11_0,,skipped,12,124951.59999990463,,,124951.59999990463,,124951.59999990463,2021-10-25T17:09:21.881Z,125050.235,1635181625,full,ni_sequenzen,NI_Sequenzen,,,,,,,,,,,,,,
,Screen_2,canvas.Screen,0_2_11_1,,skipped,12,124951.89999997616,,,124951.59999990463,,124951.89999997616,2021-10-25T17:09:21.881Z,125050.235,1635181625,full,ni_sequenzen,NI_Sequenzen,,,,,,,,,,,,,,
,Screen_3,canvas.Screen,0_2_11_2,,skipped,12,124952.19999992847,,,124951.59999990463,,124952.29999995232,2021-10-25T17:09:21.882Z,125050.235,1635181625,full,ni_sequenzen,NI_Sequenzen,,,,,,,,,,,,,,
,Screen_4,canvas.Screen,0_2_11_3,,skipped,12,124952.59999990463,,,124951.59999990463,,124952.69999992847,2021-10-25T17:09:21.882Z,125050.235,1635181625,full,ni_sequenzen,NI_Sequenzen,,,,,,,,,,,,,,
,Screen_5,canvas.Screen,0_2_11_4,,skipped,12,124953,,,124951.59999990463,,124953,2021-10-25T17:09:21.882Z,125050.235,1635181625,full,ni_sequenzen,NI_Sequenzen,,,,,,,,,,,,,,
,Screen_6,canvas.Screen,0_2_11_5,,skipped,12,124953.29999995232,,,124951.59999990463,,124953.39999997616,2021-10-25T17:09:21.883Z,125050.235,1635181625,full,ni_sequenzen,NI_Sequenzen,,,,,,,,,,,,,,
,Sequence,flow.Sequence,0_2_11,,completion,12,124951.19999992847,,,124951.59999990463,,124953.39999997616,2021-10-25T17:09:21.883Z,125050.235,1635181625,full,ni_sequenzen,NI_Sequenzen,,,,,,,,,,,,,,
,Screen_1,canvas.Screen,0_2_12_0,,skipped,13,124953.89999997616,,,124953.89999997616,,124953.89999997616,2021-10-25T17:09:21.883Z,125050.235,1635181625,full,ni_sequenzen,NI_Sequenzen,,,,,,,,,,,,,,
,Screen_2,canvas.Screen,0_2_12_1,,skipped,13,124954.29999995232,,,124953.89999997616,,124954.29999995232,2021-10-25T17:09:21.884Z,125050.235,1635181625,full,ni_sequenzen,NI_Sequenzen,,,,,,,,,,,,,,
,Screen_3,canvas.Screen,0_2_12_2,,skipped,13,124954.69999992847,,,124953.89999997616,,124954.69999992847,2021-10-25T17:09:21.884Z,125050.235,1635181625,full,ni_sequenzen,NI_Sequenzen,,,,,,,,,,,,,,
,Screen_4,canvas.Screen,0_2_12_3,,skipped,13,124954.89999997616,,,124953.89999997616,,124955,2021-10-25T17:09:21.884Z,125050.235,1635181625,full,ni_sequenzen,NI_Sequenzen,,,,,,,,,,,,,,
,Screen_5,canvas.Screen,0_2_12_4,,skipped,13,124955.89999997616,,,124953.89999997616,,124955.89999997616,2021-10-25T17:09:21.885Z,125050.235,1635181625,full,ni_sequenzen,NI_Sequenzen,,,,,,,,,,,,,,
,Screen_6,canvas.Screen,0_2_12_5,,skipped,13,124956.29999995232,,,124953.89999997616,,124956.29999995232,2021-10-25T17:09:21.886Z,125050.235,1635181625,full,ni_sequenzen,NI_Sequenzen,,,,,,,,,,,,,,
,Sequence,flow.Sequence,0_2_12,,completion,13,124953.59999990463,,,124953.89999997616,,124956.39999997616,2021-10-25T17:09:21.886Z,125050.235,1635181625,full,ni_sequenzen,NI_Sequenzen,,,,,,,,,,,,,,
,Screen_1,canvas.Screen,0_2_13_0,,skipped,14,124956.89999997616,,,124956.89999997616,,124956.89999997616,2021-10-25T17:09:21.886Z,125050.235,1635181625,full,ni_sequenzen,NI_Sequenzen,,,,,,,,,,,,,,
,Screen_2,canvas.Screen,0_2_13_1,,skipped,14,124957.29999995232,,,124956.89999997616,,124957.29999995232,2021-10-25T17:09:21.887Z,125050.235,1635181625,full,ni_sequenzen,NI_Sequenzen,,,,,,,,,,,,,,
,Screen_3,canvas.Screen,0_2_13_2,,skipped,14,124957.69999992847,,,124956.89999997616,,124957.69999992847,2021-10-25T17:09:21.887Z,125050.235,1635181625,full,ni_sequenzen,NI_Sequenzen,,,,,,,,,,,,,,
,Screen_4,canvas.Screen,0_2_13_3,,skipped,14,124958,,,124956.89999997616,,124958,2021-10-25T17:09:21.887Z,125050.235,1635181625,full,ni_sequenzen,NI_Sequenzen,,,,,,,,,,,,,,
,Screen_5,canvas.Screen,0_2_13_4,,skipped,14,124958.39999997616,,,124956.89999997616,,124958.39999997616,2021-10-25T17:09:21.888Z,125050.235,1635181625,full,ni_sequenzen,NI_Sequenzen,,,,,,,,,,,,,,
,Screen_6,canvas.Screen,0_2_13_5,,skipped,14,124958.69999992847,,,124956.89999997616,,124958.69999992847,2021-10-25T17:09:21.888Z,125050.235,1635181625,full,ni_sequenzen,NI_Sequenzen,,,,,,,,,,,,,,
,Sequence,flow.Sequence,0_2_13,,completion,14,124956.5,,,124956.89999997616,,124958.69999992847,2021-10-25T17:09:21.888Z,125050.235,1635181625,full,ni_sequenzen,NI_Sequenzen,,,,,,,,,,,,,,
,Screen_1,canvas.Screen,0_2_14_0,,skipped,15,124959.29999995232,,,124959.29999995232,,124959.29999995232,2021-10-25T17:09:21.889Z,125050.235,1635181625,full,ni_sequenzen,NI_Sequenzen,,,,,,,,,,,,,,
,Screen_2,canvas.Screen,0_2_14_1,,skipped,15,124959.69999992847,,,124959.29999995232,,124959.69999992847,2021-10-25T17:09:21.889Z,125050.235,1635181625,full,ni_sequenzen,NI_Sequenzen,,,,,,,,,,,,,,
,Screen_3,canvas.Screen,0_2_14_2,,skipped,15,124960,,,124959.29999995232,,124960,2021-10-25T17:09:21.889Z,125050.235,1635181625,full,ni_sequenzen,NI_Sequenzen,,,,,,,,,,,,,,
,Screen_4,canvas.Screen,0_2_14_3,,skipped,15,124960.39999997616,,,124959.29999995232,,124960.39999997616,2021-10-25T17:09:21.890Z,125050.235,1635181625,full,ni_sequenzen,NI_Sequenzen,,,,,,,,,,,,,,
,Screen_5,canvas.Screen,0_2_14_4,,skipped,15,124960.79999995232,,,124959.29999995232,,124960.79999995232,2021-10-25T17:09:21.890Z,125050.235,1635181625,full,ni_sequenzen,NI_Sequenzen,,,,,,,,,,,,,,
,Screen_6,canvas.Screen,0_2_14_5,,skipped,15,124961.09999990463,,,124959.29999995232,,124961.09999990463,2021-10-25T17:09:21.891Z,125050.235,1635181625,full,ni_sequenzen,NI_Sequenzen,,,,,,,,,,,,,,
,Sequence,flow.Sequence,0_2_14,,completion,15,124958.89999997616,,,124959.29999995232,,124961.19999992847,2021-10-25T17:09:21.891Z,125050.235,1635181625,full,ni_sequenzen,NI_Sequenzen,,,,,,,,,,,,,,
,Screen_1,canvas.Screen,0_2_15_0,,skipped,16,124962.09999990463,,,124962.09999990463,,124962.19999992847,2021-10-25T17:09:21.892Z,125050.235,1635181625,full,ni_sequenzen,NI_Sequenzen,,,,,,,,,,,,,,
,Screen_2,canvas.Screen,0_2_15_1,,skipped,16,124962.59999990463,,,124962.09999990463,,124962.59999990463,2021-10-25T17:09:21.892Z,125050.235,1635181625,full,ni_sequenzen,NI_Sequenzen,,,,,,,,,,,,,,
,Screen_3,canvas.Screen,0_2_15_2,,skipped,16,124962.89999997616,,,124962.09999990463,,124963,2021-10-25T17:09:21.892Z,125050.235,1635181625,full,ni_sequenzen,NI_Sequenzen,,,,,,,,,,,,,,
,Screen_4,canvas.Screen,0_2_15_3,,skipped,16,124963.29999995232,,,124962.09999990463,,124963.39999997616,2021-10-25T17:09:21.893Z,125050.235,1635181625,full,ni_sequenzen,NI_Sequenzen,,,,,,,,,,,,,,
,Screen_5,canvas.Screen,0_2_15_4,,skipped,16,124963.79999995232,,,124962.09999990463,,124963.79999995232,2021-10-25T17:09:21.893Z,125050.235,1635181625,full,ni_sequenzen,NI_Sequenzen,,,,,,,,,,,,,,
,Screen_6,canvas.Screen,0_2_15_5,,skipped,16,124964.19999992847,,,124962.09999990463,,124964.19999992847,2021-10-25T17:09:21.894Z,125050.235,1635181625,full,ni_sequenzen,NI_Sequenzen,,,,,,,,,,,,,,
,Sequence,flow.Sequence,0_2_15,,completion,16,124961.39999997616,,,124962.09999990463,,124964.19999992847,2021-10-25T17:09:21.894Z,125050.235,1635181625,full,ni_sequenzen,NI_Sequenzen,,,,,,,,,,,,,,
,Screen_1,canvas.Screen,0_2_16_0,,skipped,17,124964.69999992847,,,124964.69999992847,,124964.69999992847,2021-10-25T17:09:21.894Z,125050.235,1635181625,full,ni_sequenzen,NI_Sequenzen,,,,,,,,,,,,,,
,Screen_2,canvas.Screen,0_2_16_1,,skipped,17,124965.09999990463,,,124964.69999992847,,124965.09999990463,2021-10-25T17:09:21.894Z,125050.235,1635181625,full,ni_sequenzen,NI_Sequenzen,,,,,,,,,,,,,,
,Screen_3,canvas.Screen,0_2_16_2,,skipped,17,124965.39999997616,,,124964.69999992847,,124965.39999997616,2021-10-25T17:09:21.895Z,125050.235,1635181625,full,ni_sequenzen,NI_Sequenzen,,,,,,,,,,,,,,
,Screen_4,canvas.Screen,0_2_16_3,,skipped,17,124965.69999992847,,,124964.69999992847,,124965.69999992847,2021-10-25T17:09:21.895Z,125050.235,1635181625,full,ni_sequenzen,NI_Sequenzen,,,,,,,,,,,,,,
,Screen_5,canvas.Screen,0_2_16_4,,skipped,17,124966.09999990463,,,124964.69999992847,,124966.09999990463,2021-10-25T17:09:21.896Z,125050.235,1635181625,full,ni_sequenzen,NI_Sequenzen,,,,,,,,,,,,,,
,Screen_6,canvas.Screen,0_2_16_5,,skipped,17,124966.39999997616,,,124964.69999992847,,124966.5,2021-10-25T17:09:21.896Z,125050.235,1635181625,full,ni_sequenzen,NI_Sequenzen,,,,,,,,,,,,,,
,Sequence,flow.Sequence,0_2_16,,completion,17,124964.39999997616,,,124964.69999992847,,124966.59999990463,2021-10-25T17:09:21.896Z,125050.235,1635181625,full,ni_sequenzen,NI_Sequenzen,,,,,,,,,,,,,,
,Screen_1,canvas.Screen,0_2_17_0,,skipped,18,124967,,,124967,,124967.09999990463,2021-10-25T17:09:21.896Z,125050.235,1635181625,full,ni_sequenzen,NI_Sequenzen,,,,,,,,,,,,,,
,Screen_2,canvas.Screen,0_2_17_1,,skipped,18,124967.39999997616,,,124967,,124967.39999997616,2021-10-25T17:09:21.897Z,125050.235,1635181625,full,ni_sequenzen,NI_Sequenzen,,,,,,,,,,,,,,
,Screen_3,canvas.Screen,0_2_17_2,,skipped,18,124967.69999992847,,,124967,,124967.69999992847,2021-10-25T17:09:21.897Z,125050.235,1635181625,full,ni_sequenzen,NI_Sequenzen,,,,,,,,,,,,,,
,Screen_4,canvas.Screen,0_2_17_3,,skipped,18,124968.09999990463,,,124967,,124968.09999990463,2021-10-25T17:09:21.897Z,125050.235,1635181625,full,ni_sequenzen,NI_Sequenzen,,,,,,,,,,,,,,
,Screen_5,canvas.Screen,0_2_17_4,,skipped,18,124968.89999997616,,,124967,,124969,2021-10-25T17:09:21.898Z,125050.235,1635181625,full,ni_sequenzen,NI_Sequenzen,,,,,,,,,,,,,,
,Screen_6,canvas.Screen,0_2_17_5,,skipped,18,124969.39999997616,,,124967,,124969.39999997616,2021-10-25T17:09:21.899Z,125050.235,1635181625,full,ni_sequenzen,NI_Sequenzen,,,,,,,,,,,,,,
,Sequence,flow.Sequence,0_2_17,,completion,18,124966.69999992847,,,124967,,124969.5,2021-10-25T17:09:21.899Z,125050.235,1635181625,full,ni_sequenzen,NI_Sequenzen,,,,,,,,,,,,,,
,Screen_1,canvas.Screen,0_2_18_0,,skipped,19,124970,,,124970,,124970.09999990463,2021-10-25T17:09:21.899Z,125050.235,1635181625,full,ni_sequenzen,NI_Sequenzen,,,,,,,,,,,,,,
,Screen_2,canvas.Screen,0_2_18_1,,skipped,19,124970.39999997616,,,124970,,124970.39999997616,2021-10-25T17:09:21.900Z,125050.235,1635181625,full,ni_sequenzen,NI_Sequenzen,,,,,,,,,,,,,,
,Screen_3,canvas.Screen,0_2_18_2,,skipped,19,124970.79999995232,,,124970,,124970.79999995232,2021-10-25T17:09:21.900Z,125050.235,1635181625,full,ni_sequenzen,NI_Sequenzen,,,,,,,,,,,,,,
,Screen_4,canvas.Screen,0_2_18_3,,skipped,19,124971.09999990463,,,124970,,124971.09999990463,2021-10-25T17:09:21.901Z,125050.235,1635181625,full,ni_sequenzen,NI_Sequenzen,,,,,,,,,,,,,,
,Screen_5,canvas.Screen,0_2_18_4,,skipped,19,124971.39999997616,,,124970,,124971.5,2021-10-25T17:09:21.901Z,125050.235,1635181625,full,ni_sequenzen,NI_Sequenzen,,,,,,,,,,,,,,
,Screen_6,canvas.Screen,0_2_18_5,,skipped,19,124971.79999995232,,,124970,,124971.79999995232,2021-10-25T17:09:21.901Z,125050.235,1635181625,full,ni_sequenzen,NI_Sequenzen,,,,,,,,,,,,,,
,Sequence,flow.Sequence,0_2_18,,completion,19,124969.59999990463,,,124970,,124971.89999997616,2021-10-25T17:09:21.901Z,125050.235,1635181625,full,ni_sequenzen,NI_Sequenzen,,,,,,,,,,,,,,
,Screen_1,canvas.Screen,0_2_19_0,,skipped,20,124972.39999997616,,,124972.5,,124972.5,2021-10-25T17:09:21.902Z,125050.235,1635181625,full,ni_sequenzen,NI_Sequenzen,,,,,,,,,,,,,,
,Screen_2,canvas.Screen,0_2_19_1,,skipped,20,124972.69999992847,,,124972.5,,124972.69999992847,2021-10-25T17:09:21.902Z,125050.235,1635181625,full,ni_sequenzen,NI_Sequenzen,,,,,,,,,,,,,,
,Screen_3,canvas.Screen,0_2_19_2,,skipped,20,124973.09999990463,,,124972.5,,124973.09999990463,2021-10-25T17:09:21.903Z,125050.235,1635181625,full,ni_sequenzen,NI_Sequenzen,,,,,,,,,,,,,,
,Screen_4,canvas.Screen,0_2_19_3,,skipped,20,124973.5,,,124972.5,,124973.5,2021-10-25T17:09:21.903Z,125050.235,1635181625,full,ni_sequenzen,NI_Sequenzen,,,,,,,,,,,,,,
,Screen_5,canvas.Screen,0_2_19_4,,skipped,20,124973.79999995232,,,124972.5,,124973.79999995232,2021-10-25T17:09:21.903Z,125050.235,1635181625,full,ni_sequenzen,NI_Sequenzen,,,,,,,,,,,,,,
,Screen_6,canvas.Screen,0_2_19_5,,skipped,20,124974.09999990463,,,124972.5,,124974.09999990463,2021-10-25T17:09:21.904Z,125050.235,1635181625,full,ni_sequenzen,NI_Sequenzen,,,,,,,,,,,,,,
,Sequence,flow.Sequence,0_2_19,,completion,20,124972.09999990463,,,124972.5,,124974.29999995232,2021-10-25T17:09:21.904Z,125050.235,1635181625,full,ni_sequenzen,NI_Sequenzen,,,,,,,,,,,,,,
,Screen_1,canvas.Screen,0_2_20_0,,skipped,21,124974.69999992847,,,124974.69999992847,,124974.69999992847,2021-10-25T17:09:21.904Z,125050.235,1635181625,full,ni_sequenzen,NI_Sequenzen,,,,,,,,,,,,,,
,Screen_2,canvas.Screen,0_2_20_1,,skipped,21,124975.59999990463,,,124974.69999992847,,124975.59999990463,2021-10-25T17:09:21.905Z,125050.235,1635181625,full,ni_sequenzen,NI_Sequenzen,,,,,,,,,,,,,,
,Screen_3,canvas.Screen,0_2_20_2,,skipped,21,124975.89999997616,,,124974.69999992847,,124976,2021-10-25T17:09:21.905Z,125050.235,1635181625,full,ni_sequenzen,NI_Sequenzen,,,,,,,,,,,,,,
,Screen_4,canvas.Screen,0_2_20_3,,skipped,21,124976.29999995232,,,124974.69999992847,,124976.39999997616,2021-10-25T17:09:21.906Z,125050.235,1635181625,full,ni_sequenzen,NI_Sequenzen,,,,,,,,,,,,,,
,Screen_5,canvas.Screen,0_2_20_4,,skipped,21,124976.69999992847,,,124974.69999992847,,124976.79999995232,2021-10-25T17:09:21.906Z,125050.235,1635181625,full,ni_sequenzen,NI_Sequenzen,,,,,,,,,,,,,,
,Screen_6,canvas.Screen,0_2_20_5,,skipped,21,124977.09999990463,,,124974.69999992847,,124977.09999990463,2021-10-25T17:09:21.906Z,125050.235,1635181625,full,ni_sequenzen,NI_Sequenzen,,,,,,,,,,,,,,
,Sequence,flow.Sequence,0_2_20,,completion,21,124974.39999997616,,,124974.69999992847,,124977.19999992847,2021-10-25T17:09:21.907Z,125050.235,1635181625,full,ni_sequenzen,NI_Sequenzen,,,,,,,,,,,,,,
,Screen_1,canvas.Screen,0_2_21_0,,skipped,22,124977.69999992847,,,124977.69999992847,,124977.79999995232,2021-10-25T17:09:21.907Z,125050.235,1635181625,full,ni_sequenzen,NI_Sequenzen,,,,,,,,,,,,,,
,Screen_2,canvas.Screen,0_2_21_1,,skipped,22,124978,,,124977.69999992847,,124978.09999990463,2021-10-25T17:09:21.907Z,125050.235,1635181625,full,ni_sequenzen,NI_Sequenzen,,,,,,,,,,,,,,
,Screen_3,canvas.Screen,0_2_21_2,,skipped,22,124978.39999997616,,,124977.69999992847,,124978.39999997616,2021-10-25T17:09:21.908Z,125050.235,1635181625,full,ni_sequenzen,NI_Sequenzen,,,,,,,,,,,,,,
,Screen_4,canvas.Screen,0_2_21_3,,skipped,22,124978.69999992847,,,124977.69999992847,,124978.69999992847,2021-10-25T17:09:21.908Z,125050.235,1635181625,full,ni_sequenzen,NI_Sequenzen,,,,,,,,,,,,,,
,Screen_5,canvas.Screen,0_2_21_4,,skipped,22,124979.5,,,124977.69999992847,,124979.59999990463,2021-10-25T17:09:21.909Z,125050.235,1635181625,full,ni_sequenzen,NI_Sequenzen,,,,,,,,,,,,,,
,Screen_6,canvas.Screen,0_2_21_5,,skipped,22,124980.19999992847,,,124977.69999992847,,124980.19999992847,2021-10-25T17:09:21.910Z,125050.235,1635181625,full,ni_sequenzen,NI_Sequenzen,,,,,,,,,,,,,,
,Sequence,flow.Sequence,0_2_21,,completion,22,124977.29999995232,,,124977.69999992847,,124980.29999995232,2021-10-25T17:09:21.910Z,125050.235,1635181625,full,ni_sequenzen,NI_Sequenzen,,,,,,,,,,,,,,
,Screen_1,canvas.Screen,0_2_22_0,,skipped,23,124981,,,124981,,124981.09999990463,2021-10-25T17:09:21.911Z,125050.235,1635181625,full,ni_sequenzen,NI_Sequenzen,,,,,,,,,,,,,,
,Screen_2,canvas.Screen,0_2_22_1,,skipped,23,124981.69999992847,,,124981,,124981.69999992847,2021-10-25T17:09:21.911Z,125050.235,1635181625,full,ni_sequenzen,NI_Sequenzen,,,,,,,,,,,,,,
,Screen_3,canvas.Screen,0_2_22_2,,skipped,23,124982.39999997616,,,124981,,124982.39999997616,2021-10-25T17:09:21.912Z,125050.235,1635181625,full,ni_sequenzen,NI_Sequenzen,,,,,,,,,,,,,,
,Screen_4,canvas.Screen,0_2_22_3,,skipped,23,124983.19999992847,,,124981,,124983.19999992847,2021-10-25T17:09:21.913Z,125050.235,1635181625,full,ni_sequenzen,NI_Sequenzen,,,,,,,,,,,,,,
,Screen_5,canvas.Screen,0_2_22_4,,skipped,23,124983.79999995232,,,124981,,124984.69999992847,2021-10-25T17:09:21.914Z,125050.235,1635181625,full,ni_sequenzen,NI_Sequenzen,,,,,,,,,,,,,,
,Screen_6,canvas.Screen,0_2_22_5,,skipped,23,124985.09999990463,,,124981,,124985.19999992847,2021-10-25T17:09:21.915Z,125050.235,1635181625,full,ni_sequenzen,NI_Sequenzen,,,,,,,,,,,,,,
,Sequence,flow.Sequence,0_2_22,,completion,23,124980.59999990463,,,124981,,124985.19999992847,2021-10-25T17:09:21.915Z,125050.235,1635181625,full,ni_sequenzen,NI_Sequenzen,,,,,,,,,,,,,,
,Screen_1,canvas.Screen,0_2_23_0,,skipped,24,124985.79999995232,,,124985.79999995232,,124985.79999995232,2021-10-25T17:09:21.915Z,125050.235,1635181625,full,ni_sequenzen,NI_Sequenzen,,,,,,,,,,,,,,
,Screen_2,canvas.Screen,0_2_23_1,,skipped,24,124986.09999990463,,,124985.79999995232,,124986.09999990463,2021-10-25T17:09:21.916Z,125050.235,1635181625,full,ni_sequenzen,NI_Sequenzen,,,,,,,,,,,,,,
,Screen_3,canvas.Screen,0_2_23_2,,skipped,24,124986.5,,,124985.79999995232,,124986.5,2021-10-25T17:09:21.916Z,125050.235,1635181625,full,ni_sequenzen,NI_Sequenzen,,,,,,,,,,,,,,
,Screen_4,canvas.Screen,0_2_23_3,,skipped,24,124986.89999997616,,,124985.79999995232,,124986.89999997616,2021-10-25T17:09:21.916Z,125050.235,1635181625,full,ni_sequenzen,NI_Sequenzen,,,,,,,,,,,,,,
,Screen_5,canvas.Screen,0_2_23_4,,skipped,24,124987.19999992847,,,124985.79999995232,,124987.19999992847,2021-10-25T17:09:21.917Z,125050.235,1635181625,full,ni_sequenzen,NI_Sequenzen,,,,,,,,,,,,,,
,Screen_6,canvas.Screen,0_2_23_5,,skipped,24,124987.59999990463,,,124985.79999995232,,124987.59999990463,2021-10-25T17:09:21.917Z,125050.235,1635181625,full,ni_sequenzen,NI_Sequenzen,,,,,,,,,,,,,,
,Sequence,flow.Sequence,0_2_23,,completion,24,124985.39999997616,,,124985.79999995232,,124987.69999992847,2021-10-25T17:09:21.917Z,125050.235,1635181625,full,ni_sequenzen,NI_Sequenzen,,,,,,,,,,,,,,
,Screen_1,canvas.Screen,0_2_24_0,,skipped,25,124988.19999992847,,,124988.19999992847,,124988.19999992847,2021-10-25T17:09:21.918Z,125050.235,1635181625,full,ni_sequenzen,NI_Sequenzen,,,,,,,,,,,,,,
,Screen_2,canvas.Screen,0_2_24_1,,skipped,25,124988.5,,,124988.19999992847,,124988.59999990463,2021-10-25T17:09:21.918Z,125050.235,1635181625,full,ni_sequenzen,NI_Sequenzen,,,,,,,,,,,,,,
,Screen_3,canvas.Screen,0_2_24_2,,skipped,25,124988.89999997616,,,124988.19999992847,,124988.89999997616,2021-10-25T17:09:21.918Z,125050.235,1635181625,full,ni_sequenzen,NI_Sequenzen,,,,,,,,,,,,,,
,Screen_4,canvas.Screen,0_2_24_3,,skipped,25,124989.29999995232,,,124988.19999992847,,124989.29999995232,2021-10-25T17:09:21.919Z,125050.235,1635181625,full,ni_sequenzen,NI_Sequenzen,,,,,,,,,,,,,,
,Screen_5,canvas.Screen,0_2_24_4,,skipped,25,124989.59999990463,,,124988.19999992847,,124989.69999992847,2021-10-25T17:09:21.919Z,125050.235,1635181625,full,ni_sequenzen,NI_Sequenzen,,,,,,,,,,,,,,
,Screen_6,canvas.Screen,0_2_24_5,,skipped,25,124990,,,124988.19999992847,,124990.09999990463,2021-10-25T17:09:21.919Z,125050.235,1635181625,full,ni_sequenzen,NI_Sequenzen,,,,,,,,,,,,,,
,Sequence,flow.Sequence,0_2_24,,completion,25,124987.79999995232,,,124988.19999992847,,124990.09999990463,2021-10-25T17:09:21.919Z,125050.235,1635181625,full,ni_sequenzen,NI_Sequenzen,,,,,,,,,,,,,,
,Screen_1,canvas.Screen,0_2_25_0,,skipped,26,124990.59999990463,,,124990.59999990463,,124990.59999990463,2021-10-25T17:09:21.920Z,125050.235,1635181625,full,ni_sequenzen,NI_Sequenzen,,,,,,,,,,,,,,
,Screen_2,canvas.Screen,0_2_25_1,,skipped,26,124991,,,124990.59999990463,,124991,2021-10-25T17:09:21.920Z,125050.235,1635181625,full,ni_sequenzen,NI_Sequenzen,,,,,,,,,,,,,,
,Screen_3,canvas.Screen,0_2_25_2,,skipped,26,124991.79999995232,,,124990.59999990463,,124991.79999995232,2021-10-25T17:09:21.921Z,125050.235,1635181625,full,ni_sequenzen,NI_Sequenzen,,,,,,,,,,,,,,
,Screen_4,canvas.Screen,0_2_25_3,,skipped,26,124992.19999992847,,,124990.59999990463,,124992.19999992847,2021-10-25T17:09:21.922Z,125050.235,1635181625,full,ni_sequenzen,NI_Sequenzen,,,,,,,,,,,,,,
,Screen_5,canvas.Screen,0_2_25_4,,skipped,26,124992.59999990463,,,124990.59999990463,,124992.59999990463,2021-10-25T17:09:21.922Z,125050.235,1635181625,full,ni_sequenzen,NI_Sequenzen,,,,,,,,,,,,,,
,Screen_6,canvas.Screen,0_2_25_5,,skipped,26,124992.89999997616,,,124990.59999990463,,124992.89999997616,2021-10-25T17:09:21.922Z,125050.235,1635181625,full,ni_sequenzen,NI_Sequenzen,,,,,,,,,,,,,,
,Sequence,flow.Sequence,0_2_25,,completion,26,124990.29999995232,,,124990.59999990463,,124993,2021-10-25T17:09:21.922Z,125050.235,1635181625,full,ni_sequenzen,NI_Sequenzen,,,,,,,,,,,,,,
,Screen_1,canvas.Screen,0_2_26_0,,skipped,27,124993.5,,,124993.5,,124993.5,2021-10-25T17:09:21.923Z,125050.235,1635181625,full,ni_sequenzen,NI_Sequenzen,,,,,,,,,,,,,,
,Screen_2,canvas.Screen,0_2_26_1,,skipped,27,124993.89999997616,,,124993.5,,124994,2021-10-25T17:09:21.923Z,125050.235,1635181625,full,ni_sequenzen,NI_Sequenzen,,,,,,,,,,,,,,
,Screen_3,canvas.Screen,0_2_26_2,,skipped,27,124994.5,,,124993.5,,124994.59999990463,2021-10-25T17:09:21.924Z,125050.235,1635181625,full,ni_sequenzen,NI_Sequenzen,,,,,,,,,,,,,,
,Screen_4,canvas.Screen,0_2_26_3,,skipped,27,124995.09999990463,,,124993.5,,124995.09999990463,2021-10-25T17:09:21.924Z,125050.235,1635181625,full,ni_sequenzen,NI_Sequenzen,,,,,,,,,,,,,,
,Screen_5,canvas.Screen,0_2_26_4,,skipped,27,124995.39999997616,,,124993.5,,124995.5,2021-10-25T17:09:21.925Z,125050.235,1635181625,full,ni_sequenzen,NI_Sequenzen,,,,,,,,,,,,,,
,Screen_6,canvas.Screen,0_2_26_5,,skipped,27,124995.69999992847,,,124993.5,,124995.79999995232,2021-10-25T17:09:21.925Z,125050.235,1635181625,full,ni_sequenzen,NI_Sequenzen,,,,,,,,,,,,,,
,Sequence,flow.Sequence,0_2_26,,completion,27,124993.19999992847,,,124993.5,,124995.79999995232,2021-10-25T17:09:21.925Z,125050.235,1635181625,full,ni_sequenzen,NI_Sequenzen,,,,,,,,,,,,,,
,Screen_1,canvas.Screen,0_2_27_0,,skipped,28,124996.39999997616,,,124996.39999997616,,124996.39999997616,2021-10-25T17:09:21.926Z,125050.235,1635181625,full,ni_sequenzen,NI_Sequenzen,,,,,,,,,,,,,,
,Screen_2,canvas.Screen,0_2_27_1,,skipped,28,124996.69999992847,,,124996.39999997616,,124996.79999995232,2021-10-25T17:09:21.926Z,125050.235,1635181625,full,ni_sequenzen,NI_Sequenzen,,,,,,,,,,,,,,
,Screen_3,canvas.Screen,0_2_27_2,,skipped,28,124997.09999990463,,,124996.39999997616,,124997.19999992847,2021-10-25T17:09:21.927Z,125050.235,1635181625,full,ni_sequenzen,NI_Sequenzen,,,,,,,,,,,,,,
,Screen_4,canvas.Screen,0_2_27_3,,skipped,28,124997.5,,,124996.39999997616,,124997.5,2021-10-25T17:09:21.927Z,125050.235,1635181625,full,ni_sequenzen,NI_Sequenzen,,,,,,,,,,,,,,
,Screen_5,canvas.Screen,0_2_27_4,,skipped,28,124997.89999997616,,,124996.39999997616,,124997.89999997616,2021-10-25T17:09:21.927Z,125050.235,1635181625,full,ni_sequenzen,NI_Sequenzen,,,,,,,,,,,,,,
,Screen_6,canvas.Screen,0_2_27_5,,skipped,28,124998.09999990463,,,124996.39999997616,,124998.19999992847,2021-10-25T17:09:21.928Z,125050.235,1635181625,full,ni_sequenzen,NI_Sequenzen,,,,,,,,,,,,,,
,Sequence,flow.Sequence,0_2_27,,completion,28,124996.09999990463,,,124996.39999997616,,124998.69999992847,2021-10-25T17:09:21.928Z,125050.235,1635181625,full,ni_sequenzen,NI_Sequenzen,,,,,,,,,,,,,,
,Screen_1,canvas.Screen,0_2_28_0,,skipped,29,124999.29999995232,,,124999.29999995232,,124999.29999995232,2021-10-25T17:09:21.929Z,125050.235,1635181625,full,ni_sequenzen,NI_Sequenzen,,,,,,,,,,,,,,
,Screen_2,canvas.Screen,0_2_28_1,,skipped,29,124999.59999990463,,,124999.29999995232,,124999.69999992847,2021-10-25T17:09:21.929Z,125050.235,1635181625,full,ni_sequenzen,NI_Sequenzen,,,,,,,,,,,,,,
,Screen_3,canvas.Screen,0_2_28_2,,skipped,29,125000.09999990463,,,124999.29999995232,,125000.09999990463,2021-10-25T17:09:21.929Z,125050.235,1635181625,full,ni_sequenzen,NI_Sequenzen,,,,,,,,,,,,,,
,Screen_4,canvas.Screen,0_2_28_3,,skipped,29,125000.39999997616,,,124999.29999995232,,125000.39999997616,2021-10-25T17:09:21.930Z,125050.235,1635181625,full,ni_sequenzen,NI_Sequenzen,,,,,,,,,,,,,,
,Screen_5,canvas.Screen,0_2_28_4,,skipped,29,125000.69999992847,,,124999.29999995232,,125000.69999992847,2021-10-25T17:09:21.930Z,125050.235,1635181625,full,ni_sequenzen,NI_Sequenzen,,,,,,,,,,,,,,
,Screen_6,canvas.Screen,0_2_28_5,,skipped,29,125001.09999990463,,,124999.29999995232,,125001.09999990463,2021-10-25T17:09:21.931Z,125050.235,1635181625,full,ni_sequenzen,NI_Sequenzen,,,,,,,,,,,,,,
,Sequence,flow.Sequence,0_2_28,,completion,29,124998.89999997616,,,124999.29999995232,,125001.19999992847,2021-10-25T17:09:21.931Z,125050.235,1635181625,full,ni_sequenzen,NI_Sequenzen,,,,,,,,,,,,,,
,Screen_1,canvas.Screen,0_2_29_0,,skipped,30,125001.69999992847,,,125001.69999992847,,125001.69999992847,2021-10-25T17:09:21.931Z,125050.235,1635181625,full,ni_sequenzen,NI_Sequenzen,,,,,,,,,,,,,,
,Screen_2,canvas.Screen,0_2_29_1,,skipped,30,125002,,,125001.69999992847,,125002,2021-10-25T17:09:21.931Z,125050.235,1635181625,full,ni_sequenzen,NI_Sequenzen,,,,,,,,,,,,,,
,Screen_3,canvas.Screen,0_2_29_2,,skipped,30,125002.29999995232,,,125001.69999992847,,125002.39999997616,2021-10-25T17:09:21.932Z,125050.235,1635181625,full,ni_sequenzen,NI_Sequenzen,,,,,,,,,,,,,,
,Screen_4,canvas.Screen,0_2_29_3,,skipped,30,125002.59999990463,,,125001.69999992847,,125002.69999992847,2021-10-25T17:09:21.932Z,125050.235,1635181625,full,ni_sequenzen,NI_Sequenzen,,,,,,,,,,,,,,
,Screen_5,canvas.Screen,0_2_29_4,,skipped,30,125003.09999990463,,,125001.69999992847,,125003.09999990463,2021-10-25T17:09:21.932Z,125050.235,1635181625,full,ni_sequenzen,NI_Sequenzen,,,,,,,,,,,,,,
,Screen_6,canvas.Screen,0_2_29_5,,skipped,30,125003.39999997616,,,125001.69999992847,,125003.39999997616,2021-10-25T17:09:21.933Z,125050.235,1635181625,full,ni_sequenzen,NI_Sequenzen,,,,,,,,,,,,,,
,Sequence,flow.Sequence,0_2_29,,completion,30,125001.29999995232,,,125001.69999992847,,125003.39999997616,2021-10-25T17:09:21.933Z,125050.235,1635181625,full,ni_sequenzen,NI_Sequenzen,,,,,,,,,,,,,,
,Instructions_II,flow.Loop,0_2,,completion,,71671.69999992847,71659.769,71695.708,125001.69999992847,53305.991999928476,125003.5,2021-10-25T17:09:21.933Z,125050.235,1635181625,full,ni_sequenzen,NI_Sequenzen,,,,,,,,,,,,,,
,Move,canvas.Screen,0_3_0_0_0_0,right,response,,125027.79999995232,125020.377,125050.235,128494.69999992847,3444.464999928474,128495.59999990463,2021-10-25T17:09:25.425Z,128523.944,1635181625,full,ni_sequenzen,NI_Sequenzen,1,0,,,,,,,,,,,,
,Move,canvas.Screen,0_3_0_0_0_1,down,response,,128501.19999992847,128500.08,128523.944,130771.79999995232,2247.855999952313,130772.59999990463,2021-10-25T17:09:27.702Z,130798.974,1635181625,full,ni_sequenzen,NI_Sequenzen,2,0,,,,,,,,,,,,
,Move,canvas.Screen,0_3_0_0_0_2,right,response,,130776,130773.617,130798.974,140145.29999995232,9346.325999952314,140146.39999997616,2021-10-25T17:09:37.076Z,140173.293,1635181625,full,ni_sequenzen,NI_Sequenzen,3,0,,,,,,,,,,,,
,Move,canvas.Screen,0_3_0_0_0_3,down,response,,140150.29999995232,140147.944,140173.293,140825.39999997616,652.106999976153,140826.29999995232,2021-10-25T17:09:37.756Z,140890.842,1635181625,full,ni_sequenzen,NI_Sequenzen,4,0,,,,,,,,,,,,
,Move,canvas.Screen,0_3_0_0_0_4,-999,skipped,,140829.79999995232,,,140825.39999997616,,140830,2021-10-25T17:09:37.759Z,140890.842,1635181625,full,ni_sequenzen,NI_Sequenzen,5,0,,,,,,,,,,,,
,Move,canvas.Screen,0_3_0_0_0_5,-999,skipped,,140833.39999997616,,,140825.39999997616,,140833.5,2021-10-25T17:09:37.763Z,140890.842,1635181625,full,ni_sequenzen,NI_Sequenzen,6,0,,,,,,,,,,,,
,Move,canvas.Screen,0_3_0_0_0_6,-999,skipped,,140837,,,140825.39999997616,,140837.09999990463,2021-10-25T17:09:37.767Z,140890.842,1635181625,full,ni_sequenzen,NI_Sequenzen,7,0,,,,,,,,,,,,
,Move,canvas.Screen,0_3_0_0_0_7,-999,skipped,,140840.59999990463,,,140825.39999997616,,140840.69999992847,2021-10-25T17:09:37.770Z,140890.842,1635181625,full,ni_sequenzen,NI_Sequenzen,8,0,,,,,,,,,,,,
,Move,canvas.Screen,0_3_0_0_0_8,-999,skipped,,140843.39999997616,,,140825.39999997616,,140843.5,2021-10-25T17:09:37.773Z,140890.842,1635181625,full,ni_sequenzen,NI_Sequenzen,9,0,,,,,,,,,,,,
,Move,canvas.Screen,0_3_0_0_0_9,-999,skipped,,140846.19999992847,,,140825.39999997616,,140846.29999995232,2021-10-25T17:09:37.776Z,140890.842,1635181625,full,ni_sequenzen,NI_Sequenzen,10,0,,,,,,,,,,,,
,Move,canvas.Screen,0_3_0_0_0_10,-999,skipped,,140849.89999997616,,,140825.39999997616,,140850,2021-10-25T17:09:37.779Z,140890.842,1635181625,full,ni_sequenzen,NI_Sequenzen,11,0,,,,,,,,,,,,
,Move,canvas.Screen,0_3_0_0_0_11,-999,skipped,,140852.5,,,140825.39999997616,,140852.5,2021-10-25T17:09:37.782Z,140890.842,1635181625,full,ni_sequenzen,NI_Sequenzen,12,0,,,,,,,,,,,,
,Move,canvas.Screen,0_3_0_0_0_12,-999,skipped,,140855.69999992847,,,140825.39999997616,,140855.89999997616,2021-10-25T17:09:37.785Z,140890.842,1635181625,full,ni_sequenzen,NI_Sequenzen,13,0,,,,,,,,,,,,
,Move,canvas.Screen,0_3_0_0_0_13,-999,skipped,,140859.69999992847,,,140825.39999997616,,140859.79999995232,2021-10-25T17:09:37.789Z,140890.842,1635181625,full,ni_sequenzen,NI_Sequenzen,14,0,,,,,,,,,,,,
,Move,canvas.Screen,0_3_0_0_0_14,-999,skipped,,140863.39999997616,,,140825.39999997616,,140863.5,2021-10-25T17:09:37.793Z,140890.842,1635181625,full,ni_sequenzen,NI_Sequenzen,15,0,,,,,,,,,,,,
,Loop,flow.Loop,0_3_0_0_0,-999,completion,,125025.19999992847,125020.377,125050.235,140825.39999997616,15775.164999976158,140863.69999992847,2021-10-25T17:09:37.793Z,140890.842,1635181625,full,ni_sequenzen,NI_Sequenzen,,0,,,,,,,,,,,,
,Feedback,canvas.Screen,0_3_0_0_1,,timeout,,140867.89999997616,140856.447,140890.842,144869.064,3994.8010000000068,144870.19999992847,2021-10-25T17:09:41.800Z,144885.643,1635181625,full,ni_sequenzen,NI_Sequenzen,,0,,,,,,,,,,,,
,Trial,flow.Sequence,0_3_0_0,,completion,,125016.89999997616,125020.377,125050.235,144869.064,19818.829000000012,144870.39999997616,2021-10-25T17:09:41.800Z,144902.606,1635181625,full,ni_sequenzen,NI_Sequenzen,,0,,,,,,,,,,,,
,Move,canvas.Screen,0_3_0_1_0_0,right,response,,144891.79999995232,144885.643,144902.606,148157.39999997616,3254.7939999761584,148159.5,2021-10-25T17:09:45.089Z,148188.369,1635181625,full,ni_sequenzen,NI_Sequenzen,1,1,,,,,,,,,,,,
,Move,canvas.Screen,0_3_0_1_0_1,down,response,,148163.79999995232,148152.066,148188.369,149208.19999992847,1019.8309999284684,149209.09999990463,2021-10-25T17:09:46.138Z,149228.72,1635181625,full,ni_sequenzen,NI_Sequenzen,2,1,,,,,,,,,,,,
,Move,canvas.Screen,0_3_0_1_0_2,right,response,,149212.89999997616,149203.253,149228.72,152422.89999997616,3194.179999976157,152423.89999997616,2021-10-25T17:09:49.353Z,152451.32,1635181625,full,ni_sequenzen,NI_Sequenzen,3,1,,,,,,,,,,,,
,Move,canvas.Screen,0_3_0_1_0_3,down,response,,152428.5,152428.409,152451.32,152732.79999995232,281.4799999523093,152733.59999990463,2021-10-25T17:09:49.663Z,152795.826,1635181625,full,ni_sequenzen,NI_Sequenzen,4,1,,,,,,,,,,,,
,Move,canvas.Screen,0_3_0_1_0_4,-999,skipped,,152736.89999997616,,,152732.79999995232,,152737,2021-10-25T17:09:49.667Z,152795.826,1635181625,full,ni_sequenzen,NI_Sequenzen,5,1,,,,,,,,,,,,
,Move,canvas.Screen,0_3_0_1_0_5,-999,skipped,,152740,,,152732.79999995232,,152740.09999990463,2021-10-25T17:09:49.670Z,152795.826,1635181625,full,ni_sequenzen,NI_Sequenzen,6,1,,,,,,,,,,,,
,Move,canvas.Screen,0_3_0_1_0_6,-999,skipped,,152743.79999995232,,,152732.79999995232,,152743.79999995232,2021-10-25T17:09:49.673Z,152795.826,1635181625,full,ni_sequenzen,NI_Sequenzen,7,1,,,,,,,,,,,,
,Move,canvas.Screen,0_3_0_1_0_7,-999,skipped,,152746.59999990463,,,152732.79999995232,,152746.69999992847,2021-10-25T17:09:49.676Z,152795.826,1635181625,full,ni_sequenzen,NI_Sequenzen,8,1,,,,,,,,,,,,
,Move,canvas.Screen,0_3_0_1_0_8,-999,skipped,,152749.59999990463,,,152732.79999995232,,152749.79999995232,2021-10-25T17:09:49.679Z,152795.826,1635181625,full,ni_sequenzen,NI_Sequenzen,9,1,,,,,,,,,,,,
,Move,canvas.Screen,0_3_0_1_0_9,-999,skipped,,152754.39999997616,,,152732.79999995232,,152754.59999990463,2021-10-25T17:09:49.684Z,152795.826,1635181625,full,ni_sequenzen,NI_Sequenzen,10,1,,,,,,,,,,,,
,Move,canvas.Screen,0_3_0_1_0_10,-999,skipped,,152758.39999997616,,,152732.79999995232,,152758.39999997616,2021-10-25T17:09:49.688Z,152795.826,1635181625,full,ni_sequenzen,NI_Sequenzen,11,1,,,,,,,,,,,,
,Move,canvas.Screen,0_3_0_1_0_11,-999,skipped,,152761.5,,,152732.79999995232,,152761.59999990463,2021-10-25T17:09:49.691Z,152795.826,1635181625,full,ni_sequenzen,NI_Sequenzen,12,1,,,,,,,,,,,,
,Move,canvas.Screen,0_3_0_1_0_12,-999,skipped,,152764.19999992847,,,152732.79999995232,,152764.29999995232,2021-10-25T17:09:49.694Z,152795.826,1635181625,full,ni_sequenzen,NI_Sequenzen,13,1,,,,,,,,,,,,
,Move,canvas.Screen,0_3_0_1_0_13,-999,skipped,,152767.39999997616,,,152732.79999995232,,152767.5,2021-10-25T17:09:49.697Z,152795.826,1635181625,full,ni_sequenzen,NI_Sequenzen,14,1,,,,,,,,,,,,
,Move,canvas.Screen,0_3_0_1_0_14,-999,skipped,,152770.39999997616,,,152732.79999995232,,152770.5,2021-10-25T17:09:49.700Z,152795.826,1635181625,full,ni_sequenzen,NI_Sequenzen,15,1,,,,,,,,,,,,
,Loop,flow.Loop,0_3_0_1_0,-999,completion,,144890.39999997616,144885.643,144902.606,152732.79999995232,7830.1939999523165,152770.59999990463,2021-10-25T17:09:49.700Z,152795.826,1635181625,full,ni_sequenzen,NI_Sequenzen,,1,,,,,,,,,,,,
,Feedback,canvas.Screen,0_3_0_1_1,,timeout,,152772.89999997616,152767.852,152795.826,156771.539,3992.1350000000093,156772.19999992847,2021-10-25T17:09:53.702Z,156787.961,1635181625,full,ni_sequenzen,NI_Sequenzen,,1,,,,,,,,,,,,
,Trial,flow.Sequence,0_3_0_1,,completion,,144870.69999992847,144885.643,144902.606,156771.539,11868.93299999999,156772.39999997616,2021-10-25T17:09:53.702Z,156804.862,1635181625,full,ni_sequenzen,NI_Sequenzen,,1,,,,,,,,,,,,
,Move,canvas.Screen,0_3_0_2_0_0,right,response,,156794.5,156787.961,156804.862,159600.39999997616,2795.5379999761644,159601.29999995232,2021-10-25T17:09:56.531Z,159628.525,1635181625,full,ni_sequenzen,NI_Sequenzen,1,2,,,,,,,,,,,,
,Move,canvas.Screen,0_3_0_2_0_1,down,response,,159605.5,159604.444,159628.525,162406.5,2777.975000000006,162407.29999995232,2021-10-25T17:09:59.337Z,162433.505,1635181625,full,ni_sequenzen,NI_Sequenzen,2,2,,,,,,,,,,,,
,Move,canvas.Screen,0_3_0_2_0_2,right,response,,162410.59999990463,162394.794,162433.505,162838.19999992847,404.69499992846977,162839.19999992847,2021-10-25T17:09:59.769Z,162865.787,1635181625,full,ni_sequenzen,NI_Sequenzen,3,2,,,,,,,,,,,,
,Move,canvas.Screen,0_3_0_2_0_3,down,response,,162842.69999992847,162833.603,162865.787,163218.09999990463,352.3129999046214,163218.79999995232,2021-10-25T17:10:00.148Z,163276.454,1635181625,full,ni_sequenzen,NI_Sequenzen,4,2,,,,,,,,,,,,
,Move,canvas.Screen,0_3_0_2_0_4,-999,skipped,,163221.89999997616,,,163218.09999990463,,163222,2021-10-25T17:10:00.152Z,163276.454,1635181625,full,ni_sequenzen,NI_Sequenzen,5,2,,,,,,,,,,,,
,Move,canvas.Screen,0_3_0_2_0_5,-999,skipped,,163224.69999992847,,,163218.09999990463,,163224.79999995232,2021-10-25T17:10:00.154Z,163276.454,1635181625,full,ni_sequenzen,NI_Sequenzen,6,2,,,,,,,,,,,,
,Move,canvas.Screen,0_3_0_2_0_6,-999,skipped,,163228.29999995232,,,163218.09999990463,,163228.39999997616,2021-10-25T17:10:00.158Z,163276.454,1635181625,full,ni_sequenzen,NI_Sequenzen,7,2,,,,,,,,,,,,
,Move,canvas.Screen,0_3_0_2_0_7,-999,skipped,,163231.19999992847,,,163218.09999990463,,163231.19999992847,2021-10-25T17:10:00.161Z,163276.454,1635181625,full,ni_sequenzen,NI_Sequenzen,8,2,,,,,,,,,,,,
,Move,canvas.Screen,0_3_0_2_0_8,-999,skipped,,163234.79999995232,,,163218.09999990463,,163234.89999997616,2021-10-25T17:10:00.164Z,163276.454,1635181625,full,ni_sequenzen,NI_Sequenzen,9,2,,,,,,,,,,,,
,Move,canvas.Screen,0_3_0_2_0_9,-999,skipped,,163238.29999995232,,,163218.09999990463,,163238.29999995232,2021-10-25T17:10:00.168Z,163276.454,1635181625,full,ni_sequenzen,NI_Sequenzen,10,2,,,,,,,,,,,,
,Move,canvas.Screen,0_3_0_2_0_10,-999,skipped,,163240.69999992847,,,163218.09999990463,,163240.79999995232,2021-10-25T17:10:00.170Z,163276.454,1635181625,full,ni_sequenzen,NI_Sequenzen,11,2,,,,,,,,,,,,
,Move,canvas.Screen,0_3_0_2_0_11,-999,skipped,,163243.09999990463,,,163218.09999990463,,163243.19999992847,2021-10-25T17:10:00.173Z,163276.454,1635181625,full,ni_sequenzen,NI_Sequenzen,12,2,,,,,,,,,,,,
,Move,canvas.Screen,0_3_0_2_0_12,-999,skipped,,163246.29999995232,,,163218.09999990463,,163246.39999997616,2021-10-25T17:10:00.176Z,163276.454,1635181625,full,ni_sequenzen,NI_Sequenzen,13,2,,,,,,,,,,,,
,Move,canvas.Screen,0_3_0_2_0_13,-999,skipped,,163248.69999992847,,,163218.09999990463,,163248.69999992847,2021-10-25T17:10:00.178Z,163276.454,1635181625,full,ni_sequenzen,NI_Sequenzen,14,2,,,,,,,,,,,,
,Move,canvas.Screen,0_3_0_2_0_14,-999,skipped,,163250.89999997616,,,163218.09999990463,,163250.89999997616,2021-10-25T17:10:00.180Z,163276.454,1635181625,full,ni_sequenzen,NI_Sequenzen,15,2,,,,,,,,,,,,
,Loop,flow.Loop,0_3_0_2_0,-999,completion,,156792.19999992847,156787.961,156804.862,163218.09999990463,6413.237999904639,163251.09999990463,2021-10-25T17:10:00.181Z,163276.454,1635181625,full,ni_sequenzen,NI_Sequenzen,,2,,,,,,,,,,,,
,Feedback,canvas.Screen,0_3_0_2_1,,timeout,,163253.5,163248.907,163276.454,167266.519,4006.5050000000047,167267.29999995232,2021-10-25T17:10:04.197Z,167282.959,1635181625,full,ni_sequenzen,NI_Sequenzen,,2,,,,,,,,,,,,
,Trial,flow.Sequence,0_3_0_2,,completion,,156772.79999995232,156787.961,156804.862,167266.519,10461.657000000007,167267.39999997616,2021-10-25T17:10:04.197Z,167299.848,1635181625,full,ni_sequenzen,NI_Sequenzen,,2,,,,,,,,,,,,
,Move,canvas.Screen,0_3_0_3_0_0,right,response,,167289.29999995232,167282.959,167299.848,169879.5,2579.652000000002,169880.39999997616,2021-10-25T17:10:06.810Z,169906.757,1635181625,full,ni_sequenzen,NI_Sequenzen,1,3,,,,,,,,,,,,
,Move,canvas.Screen,0_3_0_3_0_1,down,response,,169883.79999995232,169882.819,169906.757,170352.5,445.74299999998766,170353.39999997616,2021-10-25T17:10:07.283Z,170389.505,1635181625,full,ni_sequenzen,NI_Sequenzen,2,3,,,,,,,,,,,,
,Move,canvas.Screen,0_3_0_3_0_2,right,response,,170356.79999995232,170356.63,170389.505,170981.59999990463,592.0949999046279,170982.39999997616,2021-10-25T17:10:07.912Z,171008.532,1635181625,full,ni_sequenzen,NI_Sequenzen,3,3,,,,,,,,,,,,
,Move,canvas.Screen,0_3_0_3_0_3,down,response,,170985.59999990463,170979.639,171008.532,171646.39999997616,637.8679999761516,171647.29999995232,2021-10-25T17:10:08.577Z,171701.677,1635181625,full,ni_sequenzen,NI_Sequenzen,4,3,,,,,,,,,,,,
,Move,canvas.Screen,0_3_0_3_0_4,-999,skipped,,171651.5,,,171646.39999997616,,171651.69999992847,2021-10-25T17:10:08.581Z,171701.677,1635181625,full,ni_sequenzen,NI_Sequenzen,5,3,,,,,,,,,,,,
,Move,canvas.Screen,0_3_0_3_0_5,-999,skipped,,171654.69999992847,,,171646.39999997616,,171654.79999995232,2021-10-25T17:10:08.584Z,171701.677,1635181625,full,ni_sequenzen,NI_Sequenzen,6,3,,,,,,,,,,,,
,Move,canvas.Screen,0_3_0_3_0_6,-999,skipped,,171657.09999990463,,,171646.39999997616,,171657.19999992847,2021-10-25T17:10:08.587Z,171701.677,1635181625,full,ni_sequenzen,NI_Sequenzen,7,3,,,,,,,,,,,,
,Move,canvas.Screen,0_3_0_3_0_7,-999,skipped,,171658.09999990463,,,171646.39999997616,,171658.19999992847,2021-10-25T17:10:08.588Z,171701.677,1635181625,full,ni_sequenzen,NI_Sequenzen,8,3,,,,,,,,,,,,
,Move,canvas.Screen,0_3_0_3_0_8,-999,skipped,,171659.59999990463,,,171646.39999997616,,171659.59999990463,2021-10-25T17:10:08.589Z,171701.677,1635181625,full,ni_sequenzen,NI_Sequenzen,9,3,,,,,,,,,,,,
,Move,canvas.Screen,0_3_0_3_0_9,-999,skipped,,171661.69999992847,,,171646.39999997616,,171661.79999995232,2021-10-25T17:10:08.591Z,171701.677,1635181625,full,ni_sequenzen,NI_Sequenzen,10,3,,,,,,,,,,,,
,Move,canvas.Screen,0_3_0_3_0_10,-999,skipped,,171664.39999997616,,,171646.39999997616,,171664.5,2021-10-25T17:10:08.594Z,171701.677,1635181625,full,ni_sequenzen,NI_Sequenzen,11,3,,,,,,,,,,,,
,Move,canvas.Screen,0_3_0_3_0_11,-999,skipped,,171668,,,171646.39999997616,,171668.09999990463,2021-10-25T17:10:08.597Z,171701.677,1635181625,full,ni_sequenzen,NI_Sequenzen,12,3,,,,,,,,,,,,
,Move,canvas.Screen,0_3_0_3_0_12,-999,skipped,,171670.5,,,171646.39999997616,,171670.59999990463,2021-10-25T17:10:08.600Z,171701.677,1635181625,full,ni_sequenzen,NI_Sequenzen,13,3,,,,,,,,,,,,
,Move,canvas.Screen,0_3_0_3_0_13,-999,skipped,,171672.89999997616,,,171646.39999997616,,171673,2021-10-25T17:10:08.602Z,171701.677,1635181625,full,ni_sequenzen,NI_Sequenzen,14,3,,,,,,,,,,,,
,Move,canvas.Screen,0_3_0_3_0_14,-999,skipped,,171675.29999995232,,,171646.39999997616,,171675.39999997616,2021-10-25T17:10:08.605Z,171701.677,1635181625,full,ni_sequenzen,NI_Sequenzen,15,3,,,,,,,,,,,,
,Loop,flow.Loop,0_3_0_3_0,-999,completion,,167286.89999997616,167282.959,167299.848,171646.39999997616,4346.55199997616,171675.59999990463,2021-10-25T17:10:08.605Z,171701.677,1635181625,full,ni_sequenzen,NI_Sequenzen,,3,,,,,,,,,,,,
,Feedback,canvas.Screen,0_3_0_3_1,,timeout,,171678.59999990463,171675.124,171701.677,175689.747,4004.4189999999944,175690.39999997616,2021-10-25T17:10:12.620Z,175706.096,1635181625,full,ni_sequenzen,NI_Sequenzen,,3,,,,,,,,,,,,
,Trial,flow.Sequence,0_3_0_3,,completion,,167267.79999995232,167282.959,167299.848,175689.747,8389.899000000005,175690.5,2021-10-25T17:10:12.620Z,175722.983,1635181625,full,ni_sequenzen,NI_Sequenzen,,3,,,,,,,,,,,,
,Move,canvas.Screen,0_3_0_4_0_0,down,response,,175707.19999992847,175706.096,175722.983,180086.19999992847,4363.216999928467,180087.09999990463,2021-10-25T17:10:17.017Z,180123.326,1635181625,full,ni_sequenzen,NI_Sequenzen,1,4,,,,,,,,,,,,
,Move,canvas.Screen,0_3_0_4_0_1,left,response,,180090.29999995232,180089.223,180123.326,180735.69999992847,612.3739999284735,180736.5,2021-10-25T17:10:17.666Z,180763.679,1635181625,full,ni_sequenzen,NI_Sequenzen,2,4,,,,,,,,,,,,
,Move,canvas.Screen,0_3_0_4_0_2,down,response,,180740.69999992847,180729.614,180763.679,181810.89999997616,1047.2209999761544,181811.89999997616,2021-10-25T17:10:18.741Z,181838.225,1635181625,full,ni_sequenzen,NI_Sequenzen,3,4,,,,,,,,,,,,
,Move,canvas.Screen,0_3_0_4_0_3,left,response,,181815.29999995232,181813.701,181838.225,183196.39999997616,1358.1749999761523,183197.29999995232,2021-10-25T17:10:20.127Z,183263.085,1635181625,full,ni_sequenzen,NI_Sequenzen,4,4,,,,,,,,,,,,
,Move,canvas.Screen,0_3_0_4_0_4,-999,skipped,,183200.69999992847,,,183196.39999997616,,183200.89999997616,2021-10-25T17:10:20.130Z,183263.085,1635181625,full,ni_sequenzen,NI_Sequenzen,5,4,,,,,,,,,,,,
,Move,canvas.Screen,0_3_0_4_0_5,-999,skipped,,183213,,,183196.39999997616,,183213.09999990463,2021-10-25T17:10:20.143Z,183263.085,1635181625,full,ni_sequenzen,NI_Sequenzen,6,4,,,,,,,,,,,,
,Move,canvas.Screen,0_3_0_4_0_6,-999,skipped,,183214.59999990463,,,183196.39999997616,,183214.59999990463,2021-10-25T17:10:20.144Z,183263.085,1635181625,full,ni_sequenzen,NI_Sequenzen,7,4,,,,,,,,,,,,
,Move,canvas.Screen,0_3_0_4_0_7,-999,skipped,,183215.89999997616,,,183196.39999997616,,183216,2021-10-25T17:10:20.145Z,183263.085,1635181625,full,ni_sequenzen,NI_Sequenzen,8,4,,,,,,,,,,,,
,Move,canvas.Screen,0_3_0_4_0_8,-999,skipped,,183218.5,,,183196.39999997616,,183218.59999990463,2021-10-25T17:10:20.148Z,183263.085,1635181625,full,ni_sequenzen,NI_Sequenzen,9,4,,,,,,,,,,,,
,Move,canvas.Screen,0_3_0_4_0_9,-999,skipped,,183223,,,183196.39999997616,,183223.09999990463,2021-10-25T17:10:20.153Z,183263.085,1635181625,full,ni_sequenzen,NI_Sequenzen,10,4,,,,,,,,,,,,
,Move,canvas.Screen,0_3_0_4_0_10,-999,skipped,,183227,,,183196.39999997616,,183227.09999990463,2021-10-25T17:10:20.157Z,183263.085,1635181625,full,ni_sequenzen,NI_Sequenzen,11,4,,,,,,,,,,,,
,Move,canvas.Screen,0_3_0_4_0_11,-999,skipped,,183229.59999990463,,,183196.39999997616,,183229.79999995232,2021-10-25T17:10:20.159Z,183263.085,1635181625,full,ni_sequenzen,NI_Sequenzen,12,4,,,,,,,,,,,,
,Move,canvas.Screen,0_3_0_4_0_12,-999,skipped,,183233,,,183196.39999997616,,183233.09999990463,2021-10-25T17:10:20.163Z,183263.085,1635181625,full,ni_sequenzen,NI_Sequenzen,13,4,,,,,,,,,,,,
,Move,canvas.Screen,0_3_0_4_0_13,-999,skipped,,183235.59999990463,,,183196.39999997616,,183235.79999995232,2021-10-25T17:10:20.165Z,183263.085,1635181625,full,ni_sequenzen,NI_Sequenzen,14,4,,,,,,,,,,,,
,Move,canvas.Screen,0_3_0_4_0_14,-999,skipped,,183237.89999997616,,,183196.39999997616,,183237.89999997616,2021-10-25T17:10:20.167Z,183263.085,1635181625,full,ni_sequenzen,NI_Sequenzen,15,4,,,,,,,,,,,,
,Loop,flow.Loop,0_3_0_4_0,-999,completion,,175705.5,175706.096,175722.983,183196.39999997616,7473.416999976151,183238.19999992847,2021-10-25T17:10:20.168Z,183263.085,1635181625,full,ni_sequenzen,NI_Sequenzen,,4,,,,,,,,,,,,
,Feedback,canvas.Screen,0_3_0_4_1,,timeout,,183239.89999997616,183237.977,183263.085,187253.673,4006.92300000001,187254.29999995232,2021-10-25T17:10:24.184Z,187270.008,1635181625,full,ni_sequenzen,NI_Sequenzen,,4,,,,,,,,,,,,
,Trial,flow.Sequence,0_3_0_4,,completion,,175690.89999997616,175706.096,175722.983,187253.673,11530.690000000002,187254.39999997616,2021-10-25T17:10:24.184Z,187287.018,1635181625,full,ni_sequenzen,NI_Sequenzen,,4,,,,,,,,,,,,
,Move,canvas.Screen,0_3_0_5_0_0,right,response,,187274.09999990463,187270.008,187287.018,195134.29999995232,7847.281999952305,195135.39999997616,2021-10-25T17:10:32.065Z,195162.005,1635181625,full,ni_sequenzen,NI_Sequenzen,1,5,,,,,,,,,,,,
,Move,canvas.Screen,0_3_0_5_0_1,down,response,,195139.09999990463,195136.062,195162.005,195508.5,346.49499999999534,195509.39999997616,2021-10-25T17:10:32.439Z,195535.283,1635181625,full,ni_sequenzen,NI_Sequenzen,2,5,,,,,,,,,,,,
,Move,canvas.Screen,0_3_0_5_0_2,right,response,,195512.29999995232,195511.991,195535.283,195865,329.7170000000042,195865.69999992847,2021-10-25T17:10:32.795Z,195892.388,1635181625,full,ni_sequenzen,NI_Sequenzen,3,5,,,,,,,,,,,,
,Move,canvas.Screen,0_3_0_5_0_3,down,response,,195869.39999997616,195868.527,195892.388,196199.5,307.1119999999937,196200.39999997616,2021-10-25T17:10:33.130Z,196258.031,1635181625,full,ni_sequenzen,NI_Sequenzen,4,5,,,,,,,,,,,,
,Move,canvas.Screen,0_3_0_5_0_4,-999,skipped,,196203.89999997616,,,196199.5,,196204,2021-10-25T17:10:33.133Z,196258.031,1635181625,full,ni_sequenzen,NI_Sequenzen,5,5,,,,,,,,,,,,
,Move,canvas.Screen,0_3_0_5_0_5,-999,skipped,,196206.79999995232,,,196199.5,,196206.89999997616,2021-10-25T17:10:33.136Z,196258.031,1635181625,full,ni_sequenzen,NI_Sequenzen,6,5,,,,,,,,,,,,
,Move,canvas.Screen,0_3_0_5_0_6,-999,skipped,,196209.79999995232,,,196199.5,,196209.89999997616,2021-10-25T17:10:33.139Z,196258.031,1635181625,full,ni_sequenzen,NI_Sequenzen,7,5,,,,,,,,,,,,
,Move,canvas.Screen,0_3_0_5_0_7,-999,skipped,,196213.29999995232,,,196199.5,,196213.39999997616,2021-10-25T17:10:33.143Z,196258.031,1635181625,full,ni_sequenzen,NI_Sequenzen,8,5,,,,,,,,,,,,
,Move,canvas.Screen,0_3_0_5_0_8,-999,skipped,,196215.89999997616,,,196199.5,,196216,2021-10-25T17:10:33.145Z,196258.031,1635181625,full,ni_sequenzen,NI_Sequenzen,9,5,,,,,,,,,,,,
,Move,canvas.Screen,0_3_0_5_0_9,-999,skipped,,196218.5,,,196199.5,,196218.59999990463,2021-10-25T17:10:33.148Z,196258.031,1635181625,full,ni_sequenzen,NI_Sequenzen,10,5,,,,,,,,,,,,
,Move,canvas.Screen,0_3_0_5_0_10,-999,skipped,,196222,,,196199.5,,196222.09999990463,2021-10-25T17:10:33.152Z,196258.031,1635181625,full,ni_sequenzen,NI_Sequenzen,11,5,,,,,,,,,,,,
,Move,canvas.Screen,0_3_0_5_0_11,-999,skipped,,196224.59999990463,,,196199.5,,196224.69999992847,2021-10-25T17:10:33.154Z,196258.031,1635181625,full,ni_sequenzen,NI_Sequenzen,12,5,,,,,,,,,,,,
,Move,canvas.Screen,0_3_0_5_0_12,-999,skipped,,196227,,,196199.5,,196227,2021-10-25T17:10:33.156Z,196258.031,1635181625,full,ni_sequenzen,NI_Sequenzen,13,5,,,,,,,,,,,,
,Move,canvas.Screen,0_3_0_5_0_13,-999,skipped,,196229.5,,,196199.5,,196229.5,2021-10-25T17:10:33.159Z,196258.031,1635181625,full,ni_sequenzen,NI_Sequenzen,14,5,,,,,,,,,,,,
,Move,canvas.Screen,0_3_0_5_0_14,-999,skipped,,196232.59999990463,,,196199.5,,196232.69999992847,2021-10-25T17:10:33.162Z,196258.031,1635181625,full,ni_sequenzen,NI_Sequenzen,15,5,,,,,,,,,,,,
,Loop,flow.Loop,0_3_0_5_0,-999,completion,,187272.5,187270.008,187287.018,196199.5,8912.481999999989,196232.89999997616,2021-10-25T17:10:33.162Z,196258.031,1635181625,full,ni_sequenzen,NI_Sequenzen,,5,,,,,,,,,,,,
,Feedback,canvas.Screen,0_3_0_5_1,,timeout,,196235.09999990463,196225.598,196258.031,200242.284,4000.585000000021,200243.09999990463,2021-10-25T17:10:37.173Z,200258.616,1635181625,full,ni_sequenzen,NI_Sequenzen,,5,,,,,,,,,,,,
,Trial,flow.Sequence,0_3_0_5,,completion,,187254.79999995232,187270.008,187287.018,200242.284,12955.266000000003,200243.19999992847,2021-10-25T17:10:37.173Z,200275.305,1635181625,full,ni_sequenzen,NI_Sequenzen,,5,,,,,,,,,,,,
,Move,canvas.Screen,0_3_0_6_0_0,right,response,,200259.29999995232,200258.616,200275.305,206671.79999995232,6396.494999952323,206672.79999995232,2021-10-25T17:10:43.602Z,206699.286,1635181625,full,ni_sequenzen,NI_Sequenzen,1,6,,,,,,,,,,,,
,Move,canvas.Screen,0_3_0_6_0_1,down,response,,206676.19999992847,206674.69,206699.286,207027.59999990463,328.3139999046398,207028.5,2021-10-25T17:10:43.958Z,207071.375,1635181625,full,ni_sequenzen,NI_Sequenzen,2,6,,,,,,,,,,,,
,Move,canvas.Screen,0_3_0_6_0_2,right,response,,207031.79999995232,207054.806,207071.375,207737.79999995232,666.4249999523163,207738.69999992847,2021-10-25T17:10:44.668Z,207765.099,1635181625,full,ni_sequenzen,NI_Sequenzen,3,6,,,,,,,,,,,,
,Move,canvas.Screen,0_3_0_6_0_3,down,response,,207742.09999990463,207737.998,207765.099,208047.29999995232,282.20099995232886,208048.09999990463,2021-10-25T17:10:44.978Z,208108.685,1635181625,full,ni_sequenzen,NI_Sequenzen,4,6,,,,,,,,,,,,
,Move,canvas.Screen,0_3_0_6_0_4,-999,skipped,,208051.89999997616,,,208047.29999995232,,208052.09999990463,2021-10-25T17:10:44.982Z,208108.685,1635181625,full,ni_sequenzen,NI_Sequenzen,5,6,,,,,,,,,,,,
,Move,canvas.Screen,0_3_0_6_0_5,-999,skipped,,208056.79999995232,,,208047.29999995232,,208056.89999997616,2021-10-25T17:10:44.986Z,208108.685,1635181625,full,ni_sequenzen,NI_Sequenzen,6,6,,,,,,,,,,,,
,Move,canvas.Screen,0_3_0_6_0_6,-999,skipped,,208060.39999997616,,,208047.29999995232,,208060.5,2021-10-25T17:10:44.990Z,208108.685,1635181625,full,ni_sequenzen,NI_Sequenzen,7,6,,,,,,,,,,,,
,Move,canvas.Screen,0_3_0_6_0_7,-999,skipped,,208064.09999990463,,,208047.29999995232,,208064.19999992847,2021-10-25T17:10:44.994Z,208108.685,1635181625,full,ni_sequenzen,NI_Sequenzen,8,6,,,,,,,,,,,,
,Move,canvas.Screen,0_3_0_6_0_8,-999,skipped,,208066.79999995232,,,208047.29999995232,,208066.89999997616,2021-10-25T17:10:44.996Z,208108.685,1635181625,full,ni_sequenzen,NI_Sequenzen,9,6,,,,,,,,,,,,
,Move,canvas.Screen,0_3_0_6_0_9,-999,skipped,,208069.39999997616,,,208047.29999995232,,208069.39999997616,2021-10-25T17:10:44.999Z,208108.685,1635181625,full,ni_sequenzen,NI_Sequenzen,10,6,,,,,,,,,,,,
,Move,canvas.Screen,0_3_0_6_0_10,-999,skipped,,208072.79999995232,,,208047.29999995232,,208072.89999997616,2021-10-25T17:10:45.002Z,208108.685,1635181625,full,ni_sequenzen,NI_Sequenzen,11,6,,,,,,,,,,,,
,Move,canvas.Screen,0_3_0_6_0_11,-999,skipped,,208075.29999995232,,,208047.29999995232,,208075.39999997616,2021-10-25T17:10:45.005Z,208108.685,1635181625,full,ni_sequenzen,NI_Sequenzen,12,6,,,,,,,,,,,,
,Move,canvas.Screen,0_3_0_6_0_12,-999,skipped,,208077.69999992847,,,208047.29999995232,,208077.79999995232,2021-10-25T17:10:45.007Z,208108.685,1635181625,full,ni_sequenzen,NI_Sequenzen,13,6,,,,,,,,,,,,
,Move,canvas.Screen,0_3_0_6_0_13,-999,skipped,,208080.89999997616,,,208047.29999995232,,208081,2021-10-25T17:10:45.010Z,208108.685,1635181625,full,ni_sequenzen,NI_Sequenzen,14,6,,,,,,,,,,,,
,Move,canvas.Screen,0_3_0_6_0_14,-999,skipped,,208083.39999997616,,,208047.29999995232,,208083.39999997616,2021-10-25T17:10:45.013Z,208108.685,1635181625,full,ni_sequenzen,NI_Sequenzen,15,6,,,,,,,,,,,,
,Loop,flow.Loop,0_3_0_6_0,-999,completion,,200254.79999995232,200258.616,200275.305,208047.29999995232,7771.994999952323,208083.69999992847,2021-10-25T17:10:45.013Z,208108.685,1635181625,full,ni_sequenzen,NI_Sequenzen,,6,,,,,,,,,,,,
,Feedback,canvas.Screen,0_3_0_6_1,,timeout,,208085.69999992847,208081.728,208108.685,212098.452,4006.2540000000154,212099.09999990463,2021-10-25T17:10:49.028Z,212114.939,1635181625,full,ni_sequenzen,NI_Sequenzen,,6,,,,,,,,,,,,
,Trial,flow.Sequence,0_3_0_6,,completion,,200243.59999990463,200258.616,200275.305,212098.452,11823.146999999997,212099.09999990463,2021-10-25T17:10:49.029Z,212148.296,1635181625,full,ni_sequenzen,NI_Sequenzen,,6,,,,,,,,,,,,
,Move,canvas.Screen,0_3_0_7_0_0,right,response,,212127.29999995232,212114.939,212148.296,219548.89999997616,7400.603999976156,219549.69999992847,2021-10-25T17:10:56.480Z,219576.282,1635181625,full,ni_sequenzen,NI_Sequenzen,1,7,,,,,,,,,,,,
,Move,canvas.Screen,0_3_0_7_0_1,down,response,,219553.09999990463,219547.62,219576.282,219821.79999995232,245.51799995230976,219822.69999992847,2021-10-25T17:10:56.753Z,219848.564,1635181625,full,ni_sequenzen,NI_Sequenzen,2,7,,,,,,,,,,,,
,Move,canvas.Screen,0_3_0_7_0_2,right,response,,219825.89999997616,219844.916,219848.564,220091.89999997616,243.3359999761451,220092.79999995232,2021-10-25T17:10:57.023Z,220127.442,1635181625,full,ni_sequenzen,NI_Sequenzen,3,7,,,,,,,,,,,,
,Move,canvas.Screen,0_3_0_7_0_3,down,response,,220104.89999997616,220098.803,220127.442,220377.19999992847,249.75799992846441,220378,2021-10-25T17:10:57.308Z,220435.871,1635181625,full,ni_sequenzen,NI_Sequenzen,4,7,,,,,,,,,,,,
,Move,canvas.Screen,0_3_0_7_0_4,-999,skipped,,220381,,,220377.19999992847,,220381.09999990463,2021-10-25T17:10:57.312Z,220435.871,1635181625,full,ni_sequenzen,NI_Sequenzen,5,7,,,,,,,,,,,,
,Move,canvas.Screen,0_3_0_7_0_5,-999,skipped,,220383.5,,,220377.19999992847,,220383.69999992847,2021-10-25T17:10:57.314Z,220435.871,1635181625,full,ni_sequenzen,NI_Sequenzen,6,7,,,,,,,,,,,,
,Move,canvas.Screen,0_3_0_7_0_6,-999,skipped,,220386,,,220377.19999992847,,220386.09999990463,2021-10-25T17:10:57.317Z,220435.871,1635181625,full,ni_sequenzen,NI_Sequenzen,7,7,,,,,,,,,,,,
,Move,canvas.Screen,0_3_0_7_0_7,-999,skipped,,220389.39999997616,,,220377.19999992847,,220389.59999990463,2021-10-25T17:10:57.320Z,220435.871,1635181625,full,ni_sequenzen,NI_Sequenzen,8,7,,,,,,,,,,,,
,Move,canvas.Screen,0_3_0_7_0_8,-999,skipped,,220392.19999992847,,,220377.19999992847,,220392.29999995232,2021-10-25T17:10:57.323Z,220435.871,1635181625,full,ni_sequenzen,NI_Sequenzen,9,7,,,,,,,,,,,,
,Move,canvas.Screen,0_3_0_7_0_9,-999,skipped,,220394.89999997616,,,220377.19999992847,,220394.89999997616,2021-10-25T17:10:57.325Z,220435.871,1635181625,full,ni_sequenzen,NI_Sequenzen,10,7,,,,,,,,,,,,
,Move,canvas.Screen,0_3_0_7_0_10,-999,skipped,,220399,,,220377.19999992847,,220399.09999990463,2021-10-25T17:10:57.330Z,220435.871,1635181625,full,ni_sequenzen,NI_Sequenzen,11,7,,,,,,,,,,,,
,Move,canvas.Screen,0_3_0_7_0_11,-999,skipped,,220403,,,220377.19999992847,,220403.09999990463,2021-10-25T17:10:57.333Z,220435.871,1635181625,full,ni_sequenzen,NI_Sequenzen,12,7,,,,,,,,,,,,
,Move,canvas.Screen,0_3_0_7_0_12,-999,skipped,,220405.39999997616,,,220377.19999992847,,220405.5,2021-10-25T17:10:57.336Z,220435.871,1635181625,full,ni_sequenzen,NI_Sequenzen,13,7,,,,,,,,,,,,
,Move,canvas.Screen,0_3_0_7_0_13,-999,skipped,,220407.69999992847,,,220377.19999992847,,220407.79999995232,2021-10-25T17:10:57.338Z,220435.871,1635181625,full,ni_sequenzen,NI_Sequenzen,14,7,,,,,,,,,,,,
,Move,canvas.Screen,0_3_0_7_0_14,-999,skipped,,220410.69999992847,,,220377.19999992847,,220410.79999995232,2021-10-25T17:10:57.341Z,220435.871,1635181625,full,ni_sequenzen,NI_Sequenzen,15,7,,,,,,,,,,,,
,Loop,flow.Loop,0_3_0_7_0,-999,completion,,212122.59999990463,212114.939,212148.296,220377.19999992847,8228.903999928472,220411,2021-10-25T17:10:57.341Z,220435.871,1635181625,full,ni_sequenzen,NI_Sequenzen,,7,,,,,,,,,,,,
,Feedback,canvas.Screen,0_3_0_7_1,,timeout,,220412.79999995232,220410.797,220435.871,224423.067,4003.6389999999956,224423.59999990463,2021-10-25T17:11:01.354Z,224439.51,1635181625,full,ni_sequenzen,NI_Sequenzen,,7,,,,,,,,,,,,
,Trial,flow.Sequence,0_3_0_7,,completion,,212099.59999990463,212114.939,212148.296,224423.067,12274.771000000008,224423.79999995232,2021-10-25T17:11:01.354Z,224456.24,1635181625,full,ni_sequenzen,NI_Sequenzen,,7,,,,,,,,,,,,
,Move,canvas.Screen,0_3_0_8_0_0,right,response,,224446.09999990463,224439.51,224456.24,227386,2929.7600000000093,227386.79999995232,2021-10-25T17:11:04.317Z,227413.043,1635181625,full,ni_sequenzen,NI_Sequenzen,1,8,,,,,,,,,,,,
,Move,canvas.Screen,0_3_0_8_0_1,down,response,,227390.09999990463,227389.512,227413.043,227696.19999992847,283.1569999284693,227697,2021-10-25T17:11:04.627Z,227724.154,1635181625,full,ni_sequenzen,NI_Sequenzen,2,8,,,,,,,,,,,,
,Move,canvas.Screen,0_3_0_8_0_2,right,response,,227701.19999992847,227696.388,227724.154,227963.79999995232,239.64599995230674,227964.5,2021-10-25T17:11:04.895Z,227990.789,1635181625,full,ni_sequenzen,NI_Sequenzen,3,8,,,,,,,,,,,,
,Move,canvas.Screen,0_3_0_8_0_3,down,response,,227967.79999995232,227957.466,227990.789,228273.89999997616,283.1109999761684,228274.79999995232,2021-10-25T17:11:05.205Z,228331.061,1635181625,full,ni_sequenzen,NI_Sequenzen,4,8,,,,,,,,,,,,
,Move,canvas.Screen,0_3_0_8_0_4,-999,skipped,,228278,,,228273.89999997616,,228278.29999995232,2021-10-25T17:11:05.209Z,228331.061,1635181625,full,ni_sequenzen,NI_Sequenzen,5,8,,,,,,,,,,,,
,Move,canvas.Screen,0_3_0_8_0_5,-999,skipped,,228280.79999995232,,,228273.89999997616,,228281,2021-10-25T17:11:05.211Z,228331.061,1635181625,full,ni_sequenzen,NI_Sequenzen,6,8,,,,,,,,,,,,
,Move,canvas.Screen,0_3_0_8_0_6,-999,skipped,,228283.5,,,228273.89999997616,,228283.59999990463,2021-10-25T17:11:05.214Z,228331.061,1635181625,full,ni_sequenzen,NI_Sequenzen,7,8,,,,,,,,,,,,
,Move,canvas.Screen,0_3_0_8_0_7,-999,skipped,,228287.89999997616,,,228273.89999997616,,228287.89999997616,2021-10-25T17:11:05.218Z,228331.061,1635181625,full,ni_sequenzen,NI_Sequenzen,8,8,,,,,,,,,,,,
,Move,canvas.Screen,0_3_0_8_0_8,-999,skipped,,228290.39999997616,,,228273.89999997616,,228290.5,2021-10-25T17:11:05.221Z,228331.061,1635181625,full,ni_sequenzen,NI_Sequenzen,9,8,,,,,,,,,,,,
,Move,canvas.Screen,0_3_0_8_0_9,-999,skipped,,228292.89999997616,,,228273.89999997616,,228293,2021-10-25T17:11:05.223Z,228331.061,1635181625,full,ni_sequenzen,NI_Sequenzen,10,8,,,,,,,,,,,,
,Move,canvas.Screen,0_3_0_8_0_10,-999,skipped,,228296,,,228273.89999997616,,228296.09999990463,2021-10-25T17:11:05.226Z,228331.061,1635181625,full,ni_sequenzen,NI_Sequenzen,11,8,,,,,,,,,,,,
