meta,sender,sender_type,sender_id,response,ended_on,instrCount,time_run,time_render,time_show,time_end,duration,time_commit,timestamp,time_switch,openLabId,type,task,project,move,trialN,blockN_Train,blockN,moveCount,currPP,points,movesTrial,visitedFields,diff,reward,Strategie,Zweck,Probleme
[object Object],Screen_1,canvas.Screen,0_0_0_0,cont,response,1,540.5999999940395,539.467,556.085,17614.59999999404,17058.51499999404,17618.5,2021-10-25T21:53:23.744Z,17738.604,1635198780,full,ni_sequenzen,NI_Sequenzen,,,,,,,,,,,,,,
,Screen_2,canvas.Screen,0_0_0_1,cont,response,1,17731,17722.101,17738.604,41587.79999999702,23849.19599999702,41589,2021-10-25T21:53:47.720Z,41687.068,1635198780,full,ni_sequenzen,NI_Sequenzen,,,,,,,,,,,,,,
,Screen_3,canvas.Screen,0_0_0_2,cont,response,1,41670.89999999106,41670.455,41687.068,52151.5,10464.432,52152.29999999702,2021-10-25T21:53:58.283Z,52169.71,1635198780,full,ni_sequenzen,NI_Sequenzen,,,,,,,,,,,,,,
,Screen_4,canvas.Screen,0_0_0_3,cont,response,1,52158.09999999404,52153.121,52169.71,57320.39999999106,5150.68999999106,57321.39999999106,2021-10-25T21:54:03.452Z,57385.991,1635198780,full,ni_sequenzen,NI_Sequenzen,,,,,,,,,,,,,,
,Sequence,flow.Sequence,0_0_0,,completion,1,489.59999999403954,539.467,556.085,57320.39999999106,56764.31499999106,57325.89999999106,2021-10-25T21:54:03.456Z,57385.991,1635198780,full,ni_sequenzen,NI_Sequenzen,,,,,,,,,,,,,,
,Screen_1,canvas.Screen,0_0_1_0,,skipped,2,57326.89999999106,,,57326.89999999106,,57327,2021-10-25T21:54:03.458Z,57385.991,1635198780,full,ni_sequenzen,NI_Sequenzen,,,,,,,,,,,,,,
,Screen_2,canvas.Screen,0_0_1_1,,skipped,2,57327.70000000298,,,57326.89999999106,,57327.79999999702,2021-10-25T21:54:03.458Z,57385.991,1635198780,full,ni_sequenzen,NI_Sequenzen,,,,,,,,,,,,,,
,Screen_3,canvas.Screen,0_0_1_2,,skipped,2,57328.39999999106,,,57326.89999999106,,57328.39999999106,2021-10-25T21:54:03.459Z,57385.991,1635198780,full,ni_sequenzen,NI_Sequenzen,,,,,,,,,,,,,,
,Screen_4,canvas.Screen,0_0_1_3,,skipped,2,57328.79999999702,,,57326.89999999106,,57329,2021-10-25T21:54:03.460Z,57385.991,1635198780,full,ni_sequenzen,NI_Sequenzen,,,,,,,,,,,,,,
,Sequence,flow.Sequence,0_0_1,,completion,2,57326.20000000298,,,57326.89999999106,,57329,2021-10-25T21:54:03.460Z,57385.991,1635198780,full,ni_sequenzen,NI_Sequenzen,,,,,,,,,,,,,,
,Screen_1,canvas.Screen,0_0_2_0,,skipped,3,57329.5,,,57329.5,,57329.59999999404,2021-10-25T21:54:03.460Z,57385.991,1635198780,full,ni_sequenzen,NI_Sequenzen,,,,,,,,,,,,,,
,Screen_2,canvas.Screen,0_0_2_1,,skipped,3,57329.89999999106,,,57329.5,,57329.89999999106,2021-10-25T21:54:03.461Z,57385.991,1635198780,full,ni_sequenzen,NI_Sequenzen,,,,,,,,,,,,,,
,Screen_3,canvas.Screen,0_0_2_2,,skipped,3,57330.39999999106,,,57329.5,,57330.39999999106,2021-10-25T21:54:03.461Z,57385.991,1635198780,full,ni_sequenzen,NI_Sequenzen,,,,,,,,,,,,,,
,Screen_4,canvas.Screen,0_0_2_3,,skipped,3,57330.70000000298,,,57329.5,,57330.79999999702,2021-10-25T21:54:03.461Z,57385.991,1635198780,full,ni_sequenzen,NI_Sequenzen,,,,,,,,,,,,,,
,Sequence,flow.Sequence,0_0_2,,completion,3,57329.20000000298,,,57329.5,,57330.89999999106,2021-10-25T21:54:03.461Z,57385.991,1635198780,full,ni_sequenzen,NI_Sequenzen,,,,,,,,,,,,,,
,Screen_1,canvas.Screen,0_0_3_0,,skipped,4,57331.29999999702,,,57331.29999999702,,57331.39999999106,2021-10-25T21:54:03.462Z,57385.991,1635198780,full,ni_sequenzen,NI_Sequenzen,,,,,,,,,,,,,,
,Screen_2,canvas.Screen,0_0_3_1,,skipped,4,57331.70000000298,,,57331.29999999702,,57331.79999999702,2021-10-25T21:54:03.462Z,57385.991,1635198780,full,ni_sequenzen,NI_Sequenzen,,,,,,,,,,,,,,
,Screen_3,canvas.Screen,0_0_3_2,,skipped,4,57332.09999999404,,,57331.29999999702,,57332.09999999404,2021-10-25T21:54:03.463Z,57385.991,1635198780,full,ni_sequenzen,NI_Sequenzen,,,,,,,,,,,,,,
,Screen_4,canvas.Screen,0_0_3_3,,skipped,4,57332.5,,,57331.29999999702,,57332.5,2021-10-25T21:54:03.463Z,57385.991,1635198780,full,ni_sequenzen,NI_Sequenzen,,,,,,,,,,,,,,
,Sequence,flow.Sequence,0_0_3,,completion,4,57331,,,57331.29999999702,,57332.59999999404,2021-10-25T21:54:03.463Z,57385.991,1635198780,full,ni_sequenzen,NI_Sequenzen,,,,,,,,,,,,,,
,Screen_1,canvas.Screen,0_0_4_0,,skipped,5,57333,,,57333,,57333.09999999404,2021-10-25T21:54:03.464Z,57385.991,1635198780,full,ni_sequenzen,NI_Sequenzen,,,,,,,,,,,,,,
,Screen_2,canvas.Screen,0_0_4_1,,skipped,5,57333.39999999106,,,57333,,57333.79999999702,2021-10-25T21:54:03.464Z,57385.991,1635198780,full,ni_sequenzen,NI_Sequenzen,,,,,,,,,,,,,,
,Screen_3,canvas.Screen,0_0_4_2,,skipped,5,57334.29999999702,,,57333,,57334.5,2021-10-25T21:54:03.465Z,57385.991,1635198780,full,ni_sequenzen,NI_Sequenzen,,,,,,,,,,,,,,
,Screen_4,canvas.Screen,0_0_4_3,,skipped,5,57334.89999999106,,,57333,,57334.89999999106,2021-10-25T21:54:03.465Z,57385.991,1635198780,full,ni_sequenzen,NI_Sequenzen,,,,,,,,,,,,,,
,Sequence,flow.Sequence,0_0_4,,completion,5,57332.70000000298,,,57333,,57335,2021-10-25T21:54:03.466Z,57385.991,1635198780,full,ni_sequenzen,NI_Sequenzen,,,,,,,,,,,,,,
,Screen_1,canvas.Screen,0_0_5_0,,skipped,6,57335.5,,,57335.5,,57335.5,2021-10-25T21:54:03.466Z,57385.991,1635198780,full,ni_sequenzen,NI_Sequenzen,,,,,,,,,,,,,,
,Screen_2,canvas.Screen,0_0_5_1,,skipped,6,57335.89999999106,,,57335.5,,57335.89999999106,2021-10-25T21:54:03.466Z,57385.991,1635198780,full,ni_sequenzen,NI_Sequenzen,,,,,,,,,,,,,,
,Screen_3,canvas.Screen,0_0_5_2,,skipped,6,57336.20000000298,,,57335.5,,57336.29999999702,2021-10-25T21:54:03.467Z,57385.991,1635198780,full,ni_sequenzen,NI_Sequenzen,,,,,,,,,,,,,,
,Screen_4,canvas.Screen,0_0_5_3,,skipped,6,57336.59999999404,,,57335.5,,57336.59999999404,2021-10-25T21:54:03.467Z,57385.991,1635198780,full,ni_sequenzen,NI_Sequenzen,,,,,,,,,,,,,,
,Sequence,flow.Sequence,0_0_5,,completion,6,57335.09999999404,,,57335.5,,57336.70000000298,2021-10-25T21:54:03.467Z,57385.991,1635198780,full,ni_sequenzen,NI_Sequenzen,,,,,,,,,,,,,,
,Screen_1,canvas.Screen,0_0_6_0,,skipped,7,57337.20000000298,,,57337.20000000298,,57337.20000000298,2021-10-25T21:54:03.468Z,57385.991,1635198780,full,ni_sequenzen,NI_Sequenzen,,,,,,,,,,,,,,
,Screen_2,canvas.Screen,0_0_6_1,,skipped,7,57337.5,,,57337.20000000298,,57337.5,2021-10-25T21:54:03.468Z,57385.991,1635198780,full,ni_sequenzen,NI_Sequenzen,,,,,,,,,,,,,,
,Screen_3,canvas.Screen,0_0_6_2,,skipped,7,57337.89999999106,,,57337.20000000298,,57337.89999999106,2021-10-25T21:54:03.469Z,57385.991,1635198780,full,ni_sequenzen,NI_Sequenzen,,,,,,,,,,,,,,
,Screen_4,canvas.Screen,0_0_6_3,,skipped,7,57338.29999999702,,,57337.20000000298,,57338.29999999702,2021-10-25T21:54:03.469Z,57385.991,1635198780,full,ni_sequenzen,NI_Sequenzen,,,,,,,,,,,,,,
,Sequence,flow.Sequence,0_0_6,,completion,7,57336.79999999702,,,57337.20000000298,,57338.29999999702,2021-10-25T21:54:03.469Z,57385.991,1635198780,full,ni_sequenzen,NI_Sequenzen,,,,,,,,,,,,,,
,Screen_1,canvas.Screen,0_0_7_0,,skipped,8,57338.79999999702,,,57338.79999999702,,57338.89999999106,2021-10-25T21:54:03.469Z,57385.991,1635198780,full,ni_sequenzen,NI_Sequenzen,,,,,,,,,,,,,,
,Screen_2,canvas.Screen,0_0_7_1,,skipped,8,57339.20000000298,,,57338.79999999702,,57339.20000000298,2021-10-25T21:54:03.470Z,57385.991,1635198780,full,ni_sequenzen,NI_Sequenzen,,,,,,,,,,,,,,
,Screen_3,canvas.Screen,0_0_7_2,,skipped,8,57339.5,,,57338.79999999702,,57339.5,2021-10-25T21:54:03.470Z,57385.991,1635198780,full,ni_sequenzen,NI_Sequenzen,,,,,,,,,,,,,,
,Screen_4,canvas.Screen,0_0_7_3,,skipped,8,57340.29999999702,,,57338.79999999702,,57340.39999999106,2021-10-25T21:54:03.471Z,57385.991,1635198780,full,ni_sequenzen,NI_Sequenzen,,,,,,,,,,,,,,
,Sequence,flow.Sequence,0_0_7,,completion,8,57338.5,,,57338.79999999702,,57340.5,2021-10-25T21:54:03.471Z,57385.991,1635198780,full,ni_sequenzen,NI_Sequenzen,,,,,,,,,,,,,,
,Screen_1,canvas.Screen,0_0_8_0,,skipped,9,57341,,,57341,,57341,2021-10-25T21:54:03.472Z,57385.991,1635198780,full,ni_sequenzen,NI_Sequenzen,,,,,,,,,,,,,,
,Screen_2,canvas.Screen,0_0_8_1,,skipped,9,57341.29999999702,,,57341,,57341.39999999106,2021-10-25T21:54:03.472Z,57385.991,1635198780,full,ni_sequenzen,NI_Sequenzen,,,,,,,,,,,,,,
,Screen_3,canvas.Screen,0_0_8_2,,skipped,9,57341.70000000298,,,57341,,57341.70000000298,2021-10-25T21:54:03.472Z,57385.991,1635198780,full,ni_sequenzen,NI_Sequenzen,,,,,,,,,,,,,,
,Screen_4,canvas.Screen,0_0_8_3,,skipped,9,57342.09999999404,,,57341,,57342.09999999404,2021-10-25T21:54:03.473Z,57385.991,1635198780,full,ni_sequenzen,NI_Sequenzen,,,,,,,,,,,,,,
,Sequence,flow.Sequence,0_0_8,,completion,9,57340.59999999404,,,57341,,57342.20000000298,2021-10-25T21:54:03.473Z,57385.991,1635198780,full,ni_sequenzen,NI_Sequenzen,,,,,,,,,,,,,,
,Screen_1,canvas.Screen,0_0_9_0,,skipped,10,57342.70000000298,,,57342.70000000298,,57342.70000000298,2021-10-25T21:54:03.473Z,57385.991,1635198780,full,ni_sequenzen,NI_Sequenzen,,,,,,,,,,,,,,
,Screen_2,canvas.Screen,0_0_9_1,,skipped,10,57343.20000000298,,,57342.70000000298,,57343.20000000298,2021-10-25T21:54:03.474Z,57385.991,1635198780,full,ni_sequenzen,NI_Sequenzen,,,,,,,,,,,,,,
,Screen_3,canvas.Screen,0_0_9_2,,skipped,10,57343.70000000298,,,57342.70000000298,,57343.70000000298,2021-10-25T21:54:03.474Z,57385.991,1635198780,full,ni_sequenzen,NI_Sequenzen,,,,,,,,,,,,,,
,Screen_4,canvas.Screen,0_0_9_3,,skipped,10,57344,,,57342.70000000298,,57344,2021-10-25T21:54:03.475Z,57385.991,1635198780,full,ni_sequenzen,NI_Sequenzen,,,,,,,,,,,,,,
,Sequence,flow.Sequence,0_0_9,,completion,10,57342.29999999702,,,57342.70000000298,,57344,2021-10-25T21:54:03.475Z,57385.991,1635198780,full,ni_sequenzen,NI_Sequenzen,,,,,,,,,,,,,,
,Screen_1,canvas.Screen,0_0_10_0,,skipped,11,57344.5,,,57344.5,,57344.5,2021-10-25T21:54:03.475Z,57385.991,1635198780,full,ni_sequenzen,NI_Sequenzen,,,,,,,,,,,,,,
,Screen_2,canvas.Screen,0_0_10_1,,skipped,11,57344.89999999106,,,57344.5,,57344.89999999106,2021-10-25T21:54:03.476Z,57385.991,1635198780,full,ni_sequenzen,NI_Sequenzen,,,,,,,,,,,,,,
,Screen_3,canvas.Screen,0_0_10_2,,skipped,11,57345.29999999702,,,57344.5,,57345.39999999106,2021-10-25T21:54:03.476Z,57385.991,1635198780,full,ni_sequenzen,NI_Sequenzen,,,,,,,,,,,,,,
,Screen_4,canvas.Screen,0_0_10_3,,skipped,11,57345.70000000298,,,57344.5,,57345.70000000298,2021-10-25T21:54:03.476Z,57385.991,1635198780,full,ni_sequenzen,NI_Sequenzen,,,,,,,,,,,,,,
,Sequence,flow.Sequence,0_0_10,,completion,11,57344.20000000298,,,57344.5,,57345.70000000298,2021-10-25T21:54:03.476Z,57385.991,1635198780,full,ni_sequenzen,NI_Sequenzen,,,,,,,,,,,,,,
,Screen_1,canvas.Screen,0_0_11_0,,skipped,12,57348.79999999702,,,57348.79999999702,,57348.79999999702,2021-10-25T21:54:03.479Z,57385.991,1635198780,full,ni_sequenzen,NI_Sequenzen,,,,,,,,,,,,,,
,Screen_2,canvas.Screen,0_0_11_1,,skipped,12,57349.29999999702,,,57348.79999999702,,57349.39999999106,2021-10-25T21:54:03.480Z,57385.991,1635198780,full,ni_sequenzen,NI_Sequenzen,,,,,,,,,,,,,,
,Screen_3,canvas.Screen,0_0_11_2,,skipped,12,57350,,,57348.79999999702,,57350,2021-10-25T21:54:03.481Z,57385.991,1635198780,full,ni_sequenzen,NI_Sequenzen,,,,,,,,,,,,,,
,Screen_4,canvas.Screen,0_0_11_3,,skipped,12,57350.59999999404,,,57348.79999999702,,57350.59999999404,2021-10-25T21:54:03.481Z,57385.991,1635198780,full,ni_sequenzen,NI_Sequenzen,,,,,,,,,,,,,,
,Sequence,flow.Sequence,0_0_11,,completion,12,57346.20000000298,,,57348.79999999702,,57350.70000000298,2021-10-25T21:54:03.481Z,57385.991,1635198780,full,ni_sequenzen,NI_Sequenzen,,,,,,,,,,,,,,
,Screen_1,canvas.Screen,0_0_12_0,,skipped,13,57351.39999999106,,,57351.39999999106,,57351.39999999106,2021-10-25T21:54:03.482Z,57385.991,1635198780,full,ni_sequenzen,NI_Sequenzen,,,,,,,,,,,,,,
,Screen_2,canvas.Screen,0_0_12_1,,skipped,13,57352,,,57351.39999999106,,57352,2021-10-25T21:54:03.483Z,57385.991,1635198780,full,ni_sequenzen,NI_Sequenzen,,,,,,,,,,,,,,
,Screen_3,canvas.Screen,0_0_12_2,,skipped,13,57352.70000000298,,,57351.39999999106,,57352.79999999702,2021-10-25T21:54:03.483Z,57385.991,1635198780,full,ni_sequenzen,NI_Sequenzen,,,,,,,,,,,,,,
,Screen_4,canvas.Screen,0_0_12_3,,skipped,13,57353.09999999404,,,57351.39999999106,,57353.09999999404,2021-10-25T21:54:03.484Z,57385.991,1635198780,full,ni_sequenzen,NI_Sequenzen,,,,,,,,,,,,,,
,Sequence,flow.Sequence,0_0_12,,completion,13,57350.89999999106,,,57351.39999999106,,57353.09999999404,2021-10-25T21:54:03.484Z,57385.991,1635198780,full,ni_sequenzen,NI_Sequenzen,,,,,,,,,,,,,,
,Screen_1,canvas.Screen,0_0_13_0,,skipped,14,57353.59999999404,,,57353.59999999404,,57353.59999999404,2021-10-25T21:54:03.484Z,57385.991,1635198780,full,ni_sequenzen,NI_Sequenzen,,,,,,,,,,,,,,
,Screen_2,canvas.Screen,0_0_13_1,,skipped,14,57354,,,57353.59999999404,,57354.09999999404,2021-10-25T21:54:03.485Z,57385.991,1635198780,full,ni_sequenzen,NI_Sequenzen,,,,,,,,,,,,,,
,Screen_3,canvas.Screen,0_0_13_2,,skipped,14,57354.39999999106,,,57353.59999999404,,57354.39999999106,2021-10-25T21:54:03.485Z,57385.991,1635198780,full,ni_sequenzen,NI_Sequenzen,,,,,,,,,,,,,,
,Screen_4,canvas.Screen,0_0_13_3,,skipped,14,57354.70000000298,,,57353.59999999404,,57354.70000000298,2021-10-25T21:54:03.485Z,57385.991,1635198780,full,ni_sequenzen,NI_Sequenzen,,,,,,,,,,,,,,
,Sequence,flow.Sequence,0_0_13,,completion,14,57353.29999999702,,,57353.59999999404,,57354.79999999702,2021-10-25T21:54:03.485Z,57385.991,1635198780,full,ni_sequenzen,NI_Sequenzen,,,,,,,,,,,,,,
,Screen_1,canvas.Screen,0_0_14_0,,skipped,15,57355.89999999106,,,57355.89999999106,,57356,2021-10-25T21:54:03.487Z,57385.991,1635198780,full,ni_sequenzen,NI_Sequenzen,,,,,,,,,,,,,,
,Screen_2,canvas.Screen,0_0_14_1,,skipped,15,57356.39999999106,,,57355.89999999106,,57356.39999999106,2021-10-25T21:54:03.487Z,57385.991,1635198780,full,ni_sequenzen,NI_Sequenzen,,,,,,,,,,,,,,
,Screen_3,canvas.Screen,0_0_14_2,,skipped,15,57356.79999999702,,,57355.89999999106,,57356.89999999106,2021-10-25T21:54:03.487Z,57385.991,1635198780,full,ni_sequenzen,NI_Sequenzen,,,,,,,,,,,,,,
,Screen_4,canvas.Screen,0_0_14_3,,skipped,15,57357.09999999404,,,57355.89999999106,,57357.09999999404,2021-10-25T21:54:03.488Z,57385.991,1635198780,full,ni_sequenzen,NI_Sequenzen,,,,,,,,,,,,,,
,Sequence,flow.Sequence,0_0_14,,completion,15,57355,,,57355.89999999106,,57357.29999999702,2021-10-25T21:54:03.488Z,57385.991,1635198780,full,ni_sequenzen,NI_Sequenzen,,,,,,,,,,,,,,
,Screen_1,canvas.Screen,0_0_15_0,,skipped,16,57357.70000000298,,,57357.70000000298,,57357.70000000298,2021-10-25T21:54:03.488Z,57385.991,1635198780,full,ni_sequenzen,NI_Sequenzen,,,,,,,,,,,,,,
,Screen_2,canvas.Screen,0_0_15_1,,skipped,16,57358.39999999106,,,57357.70000000298,,57358.39999999106,2021-10-25T21:54:03.489Z,57385.991,1635198780,full,ni_sequenzen,NI_Sequenzen,,,,,,,,,,,,,,
,Screen_3,canvas.Screen,0_0_15_2,,skipped,16,57359.5,,,57357.70000000298,,57359.59999999404,2021-10-25T21:54:03.490Z,57385.991,1635198780,full,ni_sequenzen,NI_Sequenzen,,,,,,,,,,,,,,
,Screen_4,canvas.Screen,0_0_15_3,,skipped,16,57360.20000000298,,,57357.70000000298,,57360.29999999702,2021-10-25T21:54:03.491Z,57385.991,1635198780,full,ni_sequenzen,NI_Sequenzen,,,,,,,,,,,,,,
,Sequence,flow.Sequence,0_0_15,,completion,16,57357.39999999106,,,57357.70000000298,,57360.39999999106,2021-10-25T21:54:03.491Z,57385.991,1635198780,full,ni_sequenzen,NI_Sequenzen,,,,,,,,,,,,,,
,Screen_1,canvas.Screen,0_0_16_0,,skipped,17,57361,,,57361,,57361.09999999404,2021-10-25T21:54:03.492Z,57385.991,1635198780,full,ni_sequenzen,NI_Sequenzen,,,,,,,,,,,,,,
,Screen_2,canvas.Screen,0_0_16_1,,skipped,17,57361.5,,,57361,,57361.5,2021-10-25T21:54:03.492Z,57385.991,1635198780,full,ni_sequenzen,NI_Sequenzen,,,,,,,,,,,,,,
,Screen_3,canvas.Screen,0_0_16_2,,skipped,17,57362,,,57361,,57362,2021-10-25T21:54:03.493Z,57385.991,1635198780,full,ni_sequenzen,NI_Sequenzen,,,,,,,,,,,,,,
,Screen_4,canvas.Screen,0_0_16_3,,skipped,17,57362.39999999106,,,57361,,57362.39999999106,2021-10-25T21:54:03.493Z,57385.991,1635198780,full,ni_sequenzen,NI_Sequenzen,,,,,,,,,,,,,,
,Sequence,flow.Sequence,0_0_16,,completion,17,57360.59999999404,,,57361,,57362.5,2021-10-25T21:54:03.493Z,57385.991,1635198780,full,ni_sequenzen,NI_Sequenzen,,,,,,,,,,,,,,
,Screen_1,canvas.Screen,0_0_17_0,,skipped,18,57363,,,57363,,57363,2021-10-25T21:54:03.494Z,57385.991,1635198780,full,ni_sequenzen,NI_Sequenzen,,,,,,,,,,,,,,
,Screen_2,canvas.Screen,0_0_17_1,,skipped,18,57363.29999999702,,,57363,,57363.39999999106,2021-10-25T21:54:03.494Z,57385.991,1635198780,full,ni_sequenzen,NI_Sequenzen,,,,,,,,,,,,,,
,Screen_3,canvas.Screen,0_0_17_2,,skipped,18,57363.70000000298,,,57363,,57363.79999999702,2021-10-25T21:54:03.494Z,57385.991,1635198780,full,ni_sequenzen,NI_Sequenzen,,,,,,,,,,,,,,
,Screen_4,canvas.Screen,0_0_17_3,,skipped,18,57365.09999999404,,,57363,,57365.09999999404,2021-10-25T21:54:03.496Z,57385.991,1635198780,full,ni_sequenzen,NI_Sequenzen,,,,,,,,,,,,,,
,Sequence,flow.Sequence,0_0_17,,completion,18,57362.59999999404,,,57363,,57365.09999999404,2021-10-25T21:54:03.496Z,57385.991,1635198780,full,ni_sequenzen,NI_Sequenzen,,,,,,,,,,,,,,
,Screen_1,canvas.Screen,0_0_18_0,,skipped,19,57365.70000000298,,,57365.70000000298,,57365.79999999702,2021-10-25T21:54:03.496Z,57385.991,1635198780,full,ni_sequenzen,NI_Sequenzen,,,,,,,,,,,,,,
,Screen_2,canvas.Screen,0_0_18_1,,skipped,19,57366.09999999404,,,57365.70000000298,,57366.20000000298,2021-10-25T21:54:03.497Z,57385.991,1635198780,full,ni_sequenzen,NI_Sequenzen,,,,,,,,,,,,,,
,Screen_3,canvas.Screen,0_0_18_2,,skipped,19,57366.70000000298,,,57365.70000000298,,57366.70000000298,2021-10-25T21:54:03.497Z,57385.991,1635198780,full,ni_sequenzen,NI_Sequenzen,,,,,,,,,,,,,,
,Screen_4,canvas.Screen,0_0_18_3,,skipped,19,57367.09999999404,,,57365.70000000298,,57367.09999999404,2021-10-25T21:54:03.498Z,57385.991,1635198780,full,ni_sequenzen,NI_Sequenzen,,,,,,,,,,,,,,
,Sequence,flow.Sequence,0_0_18,,completion,19,57365.29999999702,,,57365.70000000298,,57367.09999999404,2021-10-25T21:54:03.498Z,57385.991,1635198780,full,ni_sequenzen,NI_Sequenzen,,,,,,,,,,,,,,
,Screen_1,canvas.Screen,0_0_19_0,,skipped,20,57367.70000000298,,,57367.70000000298,,57367.70000000298,2021-10-25T21:54:03.498Z,57385.991,1635198780,full,ni_sequenzen,NI_Sequenzen,,,,,,,,,,,,,,
,Screen_2,canvas.Screen,0_0_19_1,,skipped,20,57368,,,57367.70000000298,,57368,2021-10-25T21:54:03.499Z,57385.991,1635198780,full,ni_sequenzen,NI_Sequenzen,,,,,,,,,,,,,,
,Screen_3,canvas.Screen,0_0_19_2,,skipped,20,57368.39999999106,,,57367.70000000298,,57368.39999999106,2021-10-25T21:54:03.499Z,57385.991,1635198780,full,ni_sequenzen,NI_Sequenzen,,,,,,,,,,,,,,
,Screen_4,canvas.Screen,0_0_19_3,,skipped,20,57368.79999999702,,,57367.70000000298,,57368.79999999702,2021-10-25T21:54:03.499Z,57385.991,1635198780,full,ni_sequenzen,NI_Sequenzen,,,,,,,,,,,,,,
,Sequence,flow.Sequence,0_0_19,,completion,20,57367.39999999106,,,57367.70000000298,,57368.79999999702,2021-10-25T21:54:03.499Z,57385.991,1635198780,full,ni_sequenzen,NI_Sequenzen,,,,,,,,,,,,,,
,Instructions_I,flow.Loop,0_0,,completion,,489,539.467,556.085,57367.70000000298,56811.61500000298,57368.89999999106,2021-10-25T21:54:03.499Z,57385.991,1635198780,full,ni_sequenzen,NI_Sequenzen,,,,,,,,,,,,,,
,Move,canvas.Screen,0_1_0_0,left,response,,57376.09999999404,57369.813,57385.991,58231.29999999702,845.308999997018,58232.09999999404,2021-10-25T21:54:04.363Z,58252.997,1635198780,full,ni_sequenzen,NI_Sequenzen,1,,,,,,,,,,,,,
,Move,canvas.Screen,0_1_0_1,left,response,,58235.20000000298,58219.661,58252.997,58611.09999999404,358.1029999940365,58612,2021-10-25T21:54:04.743Z,58619.237,1635198780,full,ni_sequenzen,NI_Sequenzen,2,,,,,,,,,,,,,
,Move,canvas.Screen,0_1_0_2,right,response,,58615.70000000298,58602.575,58619.237,59108.09999999404,488.86299999403855,59109.09999999404,2021-10-25T21:54:05.240Z,59119.332,1635198780,full,ni_sequenzen,NI_Sequenzen,3,,,,,,,,,,,,,
,Move,canvas.Screen,0_1_0_3,down,response,,59111.39999999106,59102.917,59119.332,61458.59999999404,2339.2679999940374,61459.39999999106,2021-10-25T21:54:07.590Z,61469.278,1635198780,full,ni_sequenzen,NI_Sequenzen,4,,,,,,,,,,,,,
,Move,canvas.Screen,0_1_0_4,down,response,,61462,61452.617,61469.278,61766.29999999702,297.02199999702134,61767,2021-10-25T21:54:07.898Z,61786.146,1635198780,full,ni_sequenzen,NI_Sequenzen,5,,,,,,,,,,,,,
,Move,canvas.Screen,0_1_0_5,down,response,,61769.59999999404,61769.536,61786.146,61983,196.85399999999936,61983.70000000298,2021-10-25T21:54:08.114Z,62002.791,1635198780,full,ni_sequenzen,NI_Sequenzen,6,,,,,,,,,,,,,
,Move,canvas.Screen,0_1_0_6,right,response,,61985.89999999106,61986.08,62002.791,62347.39999999106,344.60899999106186,62348.20000000298,2021-10-25T21:54:08.479Z,62374.856,1635198780,full,ni_sequenzen,NI_Sequenzen,7,,,,,,,,,,,,,
,Move,canvas.Screen,0_1_0_7,right,response,,62350.39999999106,62336.02,62374.856,62571.59999999404,196.74399999403977,62572.20000000298,2021-10-25T21:54:08.703Z,62585.846,1635198780,full,ni_sequenzen,NI_Sequenzen,8,,,,,,,,,,,,,
,Move,canvas.Screen,0_1_0_8,right,response,,62574.79999999702,62569.308,62585.846,62800.29999999702,214.45399999702204,62801.20000000298,2021-10-25T21:54:08.932Z,62819.397,1635198780,full,ni_sequenzen,NI_Sequenzen,9,,,,,,,,,,,,,
,Move,canvas.Screen,0_1_0_9,left,response,,62803.29999999702,62802.559,62819.397,63371.70000000298,552.303000002983,63372.5,2021-10-25T21:54:09.503Z,63385.784,1635198780,full,ni_sequenzen,NI_Sequenzen,10,,,,,,,,,,,,,
,Move,canvas.Screen,0_1_0_10,left,response,,63374.59999999404,63369.062,63385.784,63594.5,208.71600000000035,63595.20000000298,2021-10-25T21:54:09.726Z,63602.408,1635198780,full,ni_sequenzen,NI_Sequenzen,11,,,,,,,,,,,,,
,Move,canvas.Screen,0_1_0_11,down,response,,63597.29999999702,63585.891,63602.408,65469.09999999404,1866.6919999940365,65469.79999999702,2021-10-25T21:54:11.600Z,65485.914,1635198780,full,ni_sequenzen,NI_Sequenzen,12,,,,,,,,,,,,,
,Move,canvas.Screen,0_1_0_12,down,response,,65472.29999999702,65468.593,65485.914,65727.70000000298,241.7860000029832,65728.29999999702,2021-10-25T21:54:11.859Z,65735.573,1635198780,full,ni_sequenzen,NI_Sequenzen,13,,,,,,,,,,,,,
,Move,canvas.Screen,0_1_0_13,down,response,,65730.39999999106,65719.063,65735.573,65963.09999999404,227.52699999403558,65963.89999999106,2021-10-25T21:54:12.094Z,65969.011,1635198780,full,ni_sequenzen,NI_Sequenzen,14,,,,,,,,,,,,,
,Move,canvas.Screen,0_1_0_14,left,response,,65965.89999999106,65952.498,65969.011,66359,389.9890000000014,66359.70000000298,2021-10-25T21:54:12.490Z,66368.763,1635198780,full,ni_sequenzen,NI_Sequenzen,15,,,,,,,,,,,,,
,Move,canvas.Screen,0_1_0_15,left,response,,66361.70000000298,66352.362,66368.763,66649.29999999702,280.5369999970135,66650.09999999404,2021-10-25T21:54:12.781Z,66669.174,1635198780,full,ni_sequenzen,NI_Sequenzen,16,,,,,,,,,,,,,
,Move,canvas.Screen,0_1_0_16,right,response,,66652.70000000298,66652.57,66669.174,67282.70000000298,613.5260000029812,67283.39999999106,2021-10-25T21:54:13.414Z,67302.484,1635198780,full,ni_sequenzen,NI_Sequenzen,17,,,,,,,,,,,,,
,Move,canvas.Screen,0_1_0_17,down,response,,67286,67286.073,67302.484,67825.5,523.0160000000033,67826.29999999702,2021-10-25T21:54:13.957Z,67835.52,1635198780,full,ni_sequenzen,NI_Sequenzen,18,,,,,,,,,,,,,
,Move,canvas.Screen,0_1_0_18,down,response,,67828.39999999106,67819.023,67835.52,68230.09999999404,394.57999999403546,68230.89999999106,2021-10-25T21:54:14.361Z,68235.358,1635198780,full,ni_sequenzen,NI_Sequenzen,19,,,,,,,,,,,,,
,Move,canvas.Screen,0_1_0_19,down,response,,68233,68219.018,68235.358,68429.70000000298,194.34200000298733,68430.5,2021-10-25T21:54:14.561Z,68435.567,1635198780,full,ni_sequenzen,NI_Sequenzen,20,,,,,,,,,,,,,
,Move,canvas.Screen,0_1_0_20,left,response,,68433.09999999404,68418.948,68435.567,68651.79999999702,216.2329999970243,68652.5,2021-10-25T21:54:14.783Z,68668.762,1635198780,full,ni_sequenzen,NI_Sequenzen,21,,,,,,,,,,,,,
,Move,canvas.Screen,0_1_0_21,left,response,,68654.70000000298,68652.379,68668.762,68878,209.23799999999756,68878.59999999404,2021-10-25T21:54:15.009Z,68885.387,1635198780,full,ni_sequenzen,NI_Sequenzen,22,,,,,,,,,,,,,
,Move,canvas.Screen,0_1_0_22,right,response,,68880.79999999702,68868.868,68885.387,69137.70000000298,252.3130000029778,69138.39999999106,2021-10-25T21:54:15.269Z,69152.119,1635198780,full,ni_sequenzen,NI_Sequenzen,23,,,,,,,,,,,,,
,Move,canvas.Screen,0_1_0_23,right,response,,69140.5,69135.535,69152.119,69360.29999999702,208.1809999970137,69361,2021-10-25T21:54:15.492Z,69368.71,1635198780,full,ni_sequenzen,NI_Sequenzen,24,,,,,,,,,,,,,
,Move,canvas.Screen,0_1_0_24,down,response,,69363.39999999106,69352.239,69368.71,69880.39999999106,511.6899999910529,69881.09999999404,2021-10-25T21:54:16.012Z,69885.301,1635198780,full,ni_sequenzen,NI_Sequenzen,25,,,,,,,,,,,,,
,Move,canvas.Screen,0_1_0_25,down,response,,69883.39999999106,69868.66,69885.301,70232.39999999106,347.09899999105255,70233.09999999404,2021-10-25T21:54:16.364Z,70252.204,1635198780,full,ni_sequenzen,NI_Sequenzen,26,,,,,,,,,,,,,
,Move,canvas.Screen,0_1_0_26,left,response,,70235.20000000298,70235.453,70252.204,70715.70000000298,463.4960000029823,70716.39999999106,2021-10-25T21:54:16.847Z,70735.254,1635198780,full,ni_sequenzen,NI_Sequenzen,27,,,,,,,,,,,,,
,Move,canvas.Screen,0_1_0_27,right,response,,70718.59999999404,70718.662,70735.254,71310.79999999702,575.545999997019,71311.59999999404,2021-10-25T21:54:17.442Z,71318.546,1635198780,full,ni_sequenzen,NI_Sequenzen,28,,,,,,,,,,,,,
,Move,canvas.Screen,0_1_0_28,right,response,,71313.89999999106,71301.969,71318.546,71617.89999999106,299.3539999910572,71618.70000000298,2021-10-25T21:54:17.749Z,71635.446,1635198780,full,ni_sequenzen,NI_Sequenzen,29,,,,,,,,,,,,,
,Move,canvas.Screen,0_1_0_29,down,response,,71620.89999999106,71618.762,71635.446,72013,377.5540000000037,72013.70000000298,2021-10-25T21:54:18.144Z,72051.849,1635198780,full,ni_sequenzen,NI_Sequenzen,30,,,,,,,,,,,,,
,Loop,flow.Loop,0_1_0,-999,completion,,57374.39999999106,57369.813,57385.991,72013,14627.008999999998,72014.09999999404,2021-10-25T21:54:18.145Z,72051.849,1635198780,full,ni_sequenzen,NI_Sequenzen,,,,,,,,,,,,,,
,Training_I,flow.Sequence,0_1,,completion,,57369.09999999404,57369.813,57385.991,72013,14627.008999999998,72014.29999999702,2021-10-25T21:54:18.145Z,72051.849,1635198780,full,ni_sequenzen,NI_Sequenzen,,,,,,,,,,,,,,
,Screen_1,canvas.Screen,0_2_0_0,cont,response,1,72043.20000000298,72035.387,72051.849,79522.5,7470.650999999998,79523.29999999702,2021-10-25T21:54:25.654Z,79651.458,1635198780,full,ni_sequenzen,NI_Sequenzen,,,,,,,,,,,,,,
,Screen_2,canvas.Screen,0_2_0_1,cont,response,1,79637.70000000298,79635.235,79651.458,93654.79999999702,14003.341999997021,93655.59999999404,2021-10-25T21:54:39.780Z,93667.226,1635198780,full,ni_sequenzen,NI_Sequenzen,,,,,,,,,,,,,,
,Screen_3,canvas.Screen,0_2_0_2,cont,response,1,93660.59999999404,93650.976,93667.226,116378,22710.774000000005,116378.79999999702,2021-10-25T21:55:02.503Z,116499.101,1635198780,full,ni_sequenzen,NI_Sequenzen,,,,,,,,,,,,,,
,Screen_4,canvas.Screen,0_2_0_3,cont,response,1,116475.39999999106,116482.74,116499.101,126553.09999999404,10053.998999994044,126553.89999999106,2021-10-25T21:55:12.678Z,126565.287,1635198780,full,ni_sequenzen,NI_Sequenzen,,,,,,,,,,,,,,
,Screen_5,canvas.Screen,0_2_0_4,cont,response,1,126557.09999999404,126552.002,126565.287,130744.39999999106,4179.112999991063,130745.20000000298,2021-10-25T21:55:16.870Z,130831.673,1635198780,full,ni_sequenzen,NI_Sequenzen,,,,,,,,,,,,,,
,Screen_6,canvas.Screen,0_2_0_5,cont,response,1,130828,130816.943,130831.673,137469,6637.327000000005,137469.70000000298,2021-10-25T21:55:23.594Z,137584.4,1635198780,full,ni_sequenzen,NI_Sequenzen,,,,,,,,,,,,,,
,Sequence,flow.Sequence,0_2_0,,completion,1,72042.20000000298,72035.387,72051.849,137469,65417.151,137472.20000000298,2021-10-25T21:55:23.597Z,137584.4,1635198780,full,ni_sequenzen,NI_Sequenzen,,,,,,,,,,,,,,
,Screen_1,canvas.Screen,0_2_1_0,,skipped,2,137473.79999999702,,,137473.79999999702,,137473.89999999106,2021-10-25T21:55:23.598Z,137584.4,1635198780,full,ni_sequenzen,NI_Sequenzen,,,,,,,,,,,,,,
,Screen_2,canvas.Screen,0_2_1_1,,skipped,2,137474.39999999106,,,137473.79999999702,,137474.39999999106,2021-10-25T21:55:23.599Z,137584.4,1635198780,full,ni_sequenzen,NI_Sequenzen,,,,,,,,,,,,,,
,Screen_3,canvas.Screen,0_2_1_2,,skipped,2,137474.70000000298,,,137473.79999999702,,137474.79999999702,2021-10-25T21:55:23.599Z,137584.4,1635198780,full,ni_sequenzen,NI_Sequenzen,,,,,,,,,,,,,,
,Screen_4,canvas.Screen,0_2_1_3,,skipped,2,137475.20000000298,,,137473.79999999702,,137475.20000000298,2021-10-25T21:55:23.600Z,137584.4,1635198780,full,ni_sequenzen,NI_Sequenzen,,,,,,,,,,,,,,
,Screen_5,canvas.Screen,0_2_1_4,,skipped,2,137475.59999999404,,,137473.79999999702,,137475.59999999404,2021-10-25T21:55:23.600Z,137584.4,1635198780,full,ni_sequenzen,NI_Sequenzen,,,,,,,,,,,,,,
,Screen_6,canvas.Screen,0_2_1_5,,skipped,2,137476.5,,,137473.79999999702,,137476.5,2021-10-25T21:55:23.601Z,137584.4,1635198780,full,ni_sequenzen,NI_Sequenzen,,,,,,,,,,,,,,
,Sequence,flow.Sequence,0_2_1,,completion,2,137473.20000000298,,,137473.79999999702,,137476.5,2021-10-25T21:55:23.601Z,137584.4,1635198780,full,ni_sequenzen,NI_Sequenzen,,,,,,,,,,,,,,
,Screen_1,canvas.Screen,0_2_2_0,,skipped,3,137477.20000000298,,,137477.20000000298,,137477.20000000298,2021-10-25T21:55:23.602Z,137584.4,1635198780,full,ni_sequenzen,NI_Sequenzen,,,,,,,,,,,,,,
,Screen_2,canvas.Screen,0_2_2_1,,skipped,3,137477.5,,,137477.20000000298,,137477.5,2021-10-25T21:55:23.602Z,137584.4,1635198780,full,ni_sequenzen,NI_Sequenzen,,,,,,,,,,,,,,
,Screen_3,canvas.Screen,0_2_2_2,,skipped,3,137477.89999999106,,,137477.20000000298,,137477.89999999106,2021-10-25T21:55:23.602Z,137584.4,1635198780,full,ni_sequenzen,NI_Sequenzen,,,,,,,,,,,,,,
,Screen_4,canvas.Screen,0_2_2_3,,skipped,3,137478.20000000298,,,137477.20000000298,,137478.29999999702,2021-10-25T21:55:23.603Z,137584.4,1635198780,full,ni_sequenzen,NI_Sequenzen,,,,,,,,,,,,,,
,Screen_5,canvas.Screen,0_2_2_4,,skipped,3,137478.5,,,137477.20000000298,,137478.5,2021-10-25T21:55:23.603Z,137584.4,1635198780,full,ni_sequenzen,NI_Sequenzen,,,,,,,,,,,,,,
,Screen_6,canvas.Screen,0_2_2_5,,skipped,3,137478.79999999702,,,137477.20000000298,,137478.79999999702,2021-10-25T21:55:23.603Z,137584.4,1635198780,full,ni_sequenzen,NI_Sequenzen,,,,,,,,,,,,,,
,Sequence,flow.Sequence,0_2_2,,completion,3,137476.70000000298,,,137477.20000000298,,137478.89999999106,2021-10-25T21:55:23.603Z,137584.4,1635198780,full,ni_sequenzen,NI_Sequenzen,,,,,,,,,,,,,,
,Screen_1,canvas.Screen,0_2_3_0,,skipped,4,137479.29999999702,,,137479.29999999702,,137479.39999999106,2021-10-25T21:55:23.604Z,137584.4,1635198780,full,ni_sequenzen,NI_Sequenzen,,,,,,,,,,,,,,
,Screen_2,canvas.Screen,0_2_3_1,,skipped,4,137479.59999999404,,,137479.29999999702,,137479.70000000298,2021-10-25T21:55:23.604Z,137584.4,1635198780,full,ni_sequenzen,NI_Sequenzen,,,,,,,,,,,,,,
,Screen_3,canvas.Screen,0_2_3_2,,skipped,4,137480,,,137479.29999999702,,137480,2021-10-25T21:55:23.605Z,137584.4,1635198780,full,ni_sequenzen,NI_Sequenzen,,,,,,,,,,,,,,
,Screen_4,canvas.Screen,0_2_3_3,,skipped,4,137480.29999999702,,,137479.29999999702,,137480.39999999106,2021-10-25T21:55:23.605Z,137584.4,1635198780,full,ni_sequenzen,NI_Sequenzen,,,,,,,,,,,,,,
,Screen_5,canvas.Screen,0_2_3_4,,skipped,4,137480.59999999404,,,137479.29999999702,,137480.70000000298,2021-10-25T21:55:23.605Z,137584.4,1635198780,full,ni_sequenzen,NI_Sequenzen,,,,,,,,,,,,,,
,Screen_6,canvas.Screen,0_2_3_5,,skipped,4,137481,,,137479.29999999702,,137481,2021-10-25T21:55:23.606Z,137584.4,1635198780,full,ni_sequenzen,NI_Sequenzen,,,,,,,,,,,,,,
,Sequence,flow.Sequence,0_2_3,,completion,4,137479,,,137479.29999999702,,137481,2021-10-25T21:55:23.606Z,137584.4,1635198780,full,ni_sequenzen,NI_Sequenzen,,,,,,,,,,,,,,
,Screen_1,canvas.Screen,0_2_4_0,,skipped,5,137481.39999999106,,,137481.39999999106,,137481.5,2021-10-25T21:55:23.606Z,137584.4,1635198780,full,ni_sequenzen,NI_Sequenzen,,,,,,,,,,,,,,
,Screen_2,canvas.Screen,0_2_4_1,,skipped,5,137481.70000000298,,,137481.39999999106,,137481.70000000298,2021-10-25T21:55:23.606Z,137584.4,1635198780,full,ni_sequenzen,NI_Sequenzen,,,,,,,,,,,,,,
,Screen_3,canvas.Screen,0_2_4_2,,skipped,5,137482.09999999404,,,137481.39999999106,,137482.09999999404,2021-10-25T21:55:23.607Z,137584.4,1635198780,full,ni_sequenzen,NI_Sequenzen,,,,,,,,,,,,,,
,Screen_4,canvas.Screen,0_2_4_3,,skipped,5,137483.09999999404,,,137481.39999999106,,137483.09999999404,2021-10-25T21:55:23.608Z,137584.4,1635198780,full,ni_sequenzen,NI_Sequenzen,,,,,,,,,,,,,,
,Screen_5,canvas.Screen,0_2_4_4,,skipped,5,137483.59999999404,,,137481.39999999106,,137483.59999999404,2021-10-25T21:55:23.608Z,137584.4,1635198780,full,ni_sequenzen,NI_Sequenzen,,,,,,,,,,,,,,
,Screen_6,canvas.Screen,0_2_4_5,,skipped,5,137483.89999999106,,,137481.39999999106,,137483.89999999106,2021-10-25T21:55:23.609Z,137584.4,1635198780,full,ni_sequenzen,NI_Sequenzen,,,,,,,,,,,,,,
,Sequence,flow.Sequence,0_2_4,,completion,5,137481.09999999404,,,137481.39999999106,,137484,2021-10-25T21:55:23.609Z,137584.4,1635198780,full,ni_sequenzen,NI_Sequenzen,,,,,,,,,,,,,,
,Screen_1,canvas.Screen,0_2_5_0,,skipped,6,137484.39999999106,,,137484.39999999106,,137484.5,2021-10-25T21:55:23.609Z,137584.4,1635198780,full,ni_sequenzen,NI_Sequenzen,,,,,,,,,,,,,,
,Screen_2,canvas.Screen,0_2_5_1,,skipped,6,137484.79999999702,,,137484.39999999106,,137484.79999999702,2021-10-25T21:55:23.609Z,137584.4,1635198780,full,ni_sequenzen,NI_Sequenzen,,,,,,,,,,,,,,
,Screen_3,canvas.Screen,0_2_5_2,,skipped,6,137485.20000000298,,,137484.39999999106,,137485.20000000298,2021-10-25T21:55:23.610Z,137584.4,1635198780,full,ni_sequenzen,NI_Sequenzen,,,,,,,,,,,,,,
,Screen_4,canvas.Screen,0_2_5_3,,skipped,6,137485.5,,,137484.39999999106,,137485.59999999404,2021-10-25T21:55:23.610Z,137584.4,1635198780,full,ni_sequenzen,NI_Sequenzen,,,,,,,,,,,,,,
,Screen_5,canvas.Screen,0_2_5_4,,skipped,6,137485.79999999702,,,137484.39999999106,,137485.79999999702,2021-10-25T21:55:23.610Z,137584.4,1635198780,full,ni_sequenzen,NI_Sequenzen,,,,,,,,,,,,,,
,Screen_6,canvas.Screen,0_2_5_5,,skipped,6,137486.09999999404,,,137484.39999999106,,137486.09999999404,2021-10-25T21:55:23.611Z,137584.4,1635198780,full,ni_sequenzen,NI_Sequenzen,,,,,,,,,,,,,,
,Sequence,flow.Sequence,0_2_5,,completion,6,137484.09999999404,,,137484.39999999106,,137486.20000000298,2021-10-25T21:55:23.611Z,137584.4,1635198780,full,ni_sequenzen,NI_Sequenzen,,,,,,,,,,,,,,
,Screen_1,canvas.Screen,0_2_6_0,,skipped,7,137486.59999999404,,,137486.59999999404,,137486.59999999404,2021-10-25T21:55:23.611Z,137584.4,1635198780,full,ni_sequenzen,NI_Sequenzen,,,,,,,,,,,,,,
,Screen_2,canvas.Screen,0_2_6_1,,skipped,7,137486.89999999106,,,137486.59999999404,,137486.89999999106,2021-10-25T21:55:23.612Z,137584.4,1635198780,full,ni_sequenzen,NI_Sequenzen,,,,,,,,,,,,,,
,Screen_3,canvas.Screen,0_2_6_2,,skipped,7,137487.29999999702,,,137486.59999999404,,137487.39999999106,2021-10-25T21:55:23.612Z,137584.4,1635198780,full,ni_sequenzen,NI_Sequenzen,,,,,,,,,,,,,,
,Screen_4,canvas.Screen,0_2_6_3,,skipped,7,137487.59999999404,,,137486.59999999404,,137487.59999999404,2021-10-25T21:55:23.612Z,137584.4,1635198780,full,ni_sequenzen,NI_Sequenzen,,,,,,,,,,,,,,
,Screen_5,canvas.Screen,0_2_6_4,,skipped,7,137488,,,137486.59999999404,,137488,2021-10-25T21:55:23.613Z,137584.4,1635198780,full,ni_sequenzen,NI_Sequenzen,,,,,,,,,,,,,,
,Screen_6,canvas.Screen,0_2_6_5,,skipped,7,137488.20000000298,,,137486.59999999404,,137488.20000000298,2021-10-25T21:55:23.613Z,137584.4,1635198780,full,ni_sequenzen,NI_Sequenzen,,,,,,,,,,,,,,
,Sequence,flow.Sequence,0_2_6,,completion,7,137486.29999999702,,,137486.59999999404,,137488.29999999702,2021-10-25T21:55:23.613Z,137584.4,1635198780,full,ni_sequenzen,NI_Sequenzen,,,,,,,,,,,,,,
,Screen_1,canvas.Screen,0_2_7_0,,skipped,8,137490,,,137490,,137490,2021-10-25T21:55:23.615Z,137584.4,1635198780,full,ni_sequenzen,NI_Sequenzen,,,,,,,,,,,,,,
,Screen_2,canvas.Screen,0_2_7_1,,skipped,8,137490.29999999702,,,137490,,137490.29999999702,2021-10-25T21:55:23.615Z,137584.4,1635198780,full,ni_sequenzen,NI_Sequenzen,,,,,,,,,,,,,,
,Screen_3,canvas.Screen,0_2_7_2,,skipped,8,137490.59999999404,,,137490,,137490.70000000298,2021-10-25T21:55:23.615Z,137584.4,1635198780,full,ni_sequenzen,NI_Sequenzen,,,,,,,,,,,,,,
,Screen_4,canvas.Screen,0_2_7_3,,skipped,8,137491,,,137490,,137491,2021-10-25T21:55:23.616Z,137584.4,1635198780,full,ni_sequenzen,NI_Sequenzen,,,,,,,,,,,,,,
,Screen_5,canvas.Screen,0_2_7_4,,skipped,8,137491.29999999702,,,137490,,137491.29999999702,2021-10-25T21:55:23.616Z,137584.4,1635198780,full,ni_sequenzen,NI_Sequenzen,,,,,,,,,,,,,,
,Screen_6,canvas.Screen,0_2_7_5,,skipped,8,137491.59999999404,,,137490,,137491.70000000298,2021-10-25T21:55:23.616Z,137584.4,1635198780,full,ni_sequenzen,NI_Sequenzen,,,,,,,,,,,,,,
,Sequence,flow.Sequence,0_2_7,,completion,8,137489.39999999106,,,137490,,137491.70000000298,2021-10-25T21:55:23.616Z,137584.4,1635198780,full,ni_sequenzen,NI_Sequenzen,,,,,,,,,,,,,,
,Screen_1,canvas.Screen,0_2_8_0,,skipped,9,137492.09999999404,,,137492.09999999404,,137492.09999999404,2021-10-25T21:55:23.617Z,137584.4,1635198780,full,ni_sequenzen,NI_Sequenzen,,,,,,,,,,,,,,
,Screen_2,canvas.Screen,0_2_8_1,,skipped,9,137492.5,,,137492.09999999404,,137492.5,2021-10-25T21:55:23.617Z,137584.4,1635198780,full,ni_sequenzen,NI_Sequenzen,,,,,,,,,,,,,,
,Screen_3,canvas.Screen,0_2_8_2,,skipped,9,137492.79999999702,,,137492.09999999404,,137492.79999999702,2021-10-25T21:55:23.617Z,137584.4,1635198780,full,ni_sequenzen,NI_Sequenzen,,,,,,,,,,,,,,
,Screen_4,canvas.Screen,0_2_8_3,,skipped,9,137493.09999999404,,,137492.09999999404,,137493.09999999404,2021-10-25T21:55:23.618Z,137584.4,1635198780,full,ni_sequenzen,NI_Sequenzen,,,,,,,,,,,,,,
,Screen_5,canvas.Screen,0_2_8_4,,skipped,9,137493.39999999106,,,137492.09999999404,,137493.39999999106,2021-10-25T21:55:23.618Z,137584.4,1635198780,full,ni_sequenzen,NI_Sequenzen,,,,,,,,,,,,,,
,Screen_6,canvas.Screen,0_2_8_5,,skipped,9,137493.70000000298,,,137492.09999999404,,137493.70000000298,2021-10-25T21:55:23.618Z,137584.4,1635198780,full,ni_sequenzen,NI_Sequenzen,,,,,,,,,,,,,,
,Sequence,flow.Sequence,0_2_8,,completion,9,137491.79999999702,,,137492.09999999404,,137493.79999999702,2021-10-25T21:55:23.618Z,137584.4,1635198780,full,ni_sequenzen,NI_Sequenzen,,,,,,,,,,,,,,
,Screen_1,canvas.Screen,0_2_9_0,,skipped,10,137494.20000000298,,,137494.20000000298,,137494.29999999702,2021-10-25T21:55:23.619Z,137584.4,1635198780,full,ni_sequenzen,NI_Sequenzen,,,,,,,,,,,,,,
,Screen_2,canvas.Screen,0_2_9_1,,skipped,10,137495.20000000298,,,137494.20000000298,,137495.20000000298,2021-10-25T21:55:23.620Z,137584.4,1635198780,full,ni_sequenzen,NI_Sequenzen,,,,,,,,,,,,,,
,Screen_3,canvas.Screen,0_2_9_2,,skipped,10,137495.70000000298,,,137494.20000000298,,137495.70000000298,2021-10-25T21:55:23.620Z,137584.4,1635198780,full,ni_sequenzen,NI_Sequenzen,,,,,,,,,,,,,,
,Screen_4,canvas.Screen,0_2_9_3,,skipped,10,137496.09999999404,,,137494.20000000298,,137496.09999999404,2021-10-25T21:55:23.621Z,137584.4,1635198780,full,ni_sequenzen,NI_Sequenzen,,,,,,,,,,,,,,
,Screen_5,canvas.Screen,0_2_9_4,,skipped,10,137496.59999999404,,,137494.20000000298,,137496.59999999404,2021-10-25T21:55:23.621Z,137584.4,1635198780,full,ni_sequenzen,NI_Sequenzen,,,,,,,,,,,,,,
,Screen_6,canvas.Screen,0_2_9_5,,skipped,10,137497,,,137494.20000000298,,137497,2021-10-25T21:55:23.622Z,137584.4,1635198780,full,ni_sequenzen,NI_Sequenzen,,,,,,,,,,,,,,
,Sequence,flow.Sequence,0_2_9,,completion,10,137493.89999999106,,,137494.20000000298,,137497,2021-10-25T21:55:23.622Z,137584.4,1635198780,full,ni_sequenzen,NI_Sequenzen,,,,,,,,,,,,,,
,Screen_1,canvas.Screen,0_2_10_0,,skipped,11,137497.59999999404,,,137497.59999999404,,137497.59999999404,2021-10-25T21:55:23.622Z,137584.4,1635198780,full,ni_sequenzen,NI_Sequenzen,,,,,,,,,,,,,,
,Screen_2,canvas.Screen,0_2_10_1,,skipped,11,137498,,,137497.59999999404,,137498,2021-10-25T21:55:23.623Z,137584.4,1635198780,full,ni_sequenzen,NI_Sequenzen,,,,,,,,,,,,,,
,Screen_3,canvas.Screen,0_2_10_2,,skipped,11,137498.39999999106,,,137497.59999999404,,137498.39999999106,2021-10-25T21:55:23.623Z,137584.4,1635198780,full,ni_sequenzen,NI_Sequenzen,,,,,,,,,,,,,,
,Screen_4,canvas.Screen,0_2_10_3,,skipped,11,137498.70000000298,,,137497.59999999404,,137498.70000000298,2021-10-25T21:55:23.623Z,137584.4,1635198780,full,ni_sequenzen,NI_Sequenzen,,,,,,,,,,,,,,
,Screen_5,canvas.Screen,0_2_10_4,,skipped,11,137499,,,137497.59999999404,,137499.09999999404,2021-10-25T21:55:23.624Z,137584.4,1635198780,full,ni_sequenzen,NI_Sequenzen,,,,,,,,,,,,,,
,Screen_6,canvas.Screen,0_2_10_5,,skipped,11,137499.29999999702,,,137497.59999999404,,137499.29999999702,2021-10-25T21:55:23.624Z,137584.4,1635198780,full,ni_sequenzen,NI_Sequenzen,,,,,,,,,,,,,,
,Sequence,flow.Sequence,0_2_10,,completion,11,137497.20000000298,,,137497.59999999404,,137499.39999999106,2021-10-25T21:55:23.624Z,137584.4,1635198780,full,ni_sequenzen,NI_Sequenzen,,,,,,,,,,,,,,
,Screen_1,canvas.Screen,0_2_11_0,,skipped,12,137499.79999999702,,,137499.79999999702,,137499.79999999702,2021-10-25T21:55:23.624Z,137584.4,1635198780,full,ni_sequenzen,NI_Sequenzen,,,,,,,,,,,,,,
,Screen_2,canvas.Screen,0_2_11_1,,skipped,12,137500.20000000298,,,137499.79999999702,,137500.20000000298,2021-10-25T21:55:23.625Z,137584.4,1635198780,full,ni_sequenzen,NI_Sequenzen,,,,,,,,,,,,,,
,Screen_3,canvas.Screen,0_2_11_2,,skipped,12,137500.5,,,137499.79999999702,,137500.5,2021-10-25T21:55:23.625Z,137584.4,1635198780,full,ni_sequenzen,NI_Sequenzen,,,,,,,,,,,,,,
,Screen_4,canvas.Screen,0_2_11_3,,skipped,12,137500.79999999702,,,137499.79999999702,,137500.79999999702,2021-10-25T21:55:23.625Z,137584.4,1635198780,full,ni_sequenzen,NI_Sequenzen,,,,,,,,,,,,,,
,Screen_5,canvas.Screen,0_2_11_4,,skipped,12,137501.09999999404,,,137499.79999999702,,137501.09999999404,2021-10-25T21:55:23.626Z,137584.4,1635198780,full,ni_sequenzen,NI_Sequenzen,,,,,,,,,,,,,,
,Screen_6,canvas.Screen,0_2_11_5,,skipped,12,137502.09999999404,,,137499.79999999702,,137502.20000000298,2021-10-25T21:55:23.627Z,137584.4,1635198780,full,ni_sequenzen,NI_Sequenzen,,,,,,,,,,,,,,
,Sequence,flow.Sequence,0_2_11,,completion,12,137499.5,,,137499.79999999702,,137502.20000000298,2021-10-25T21:55:23.627Z,137584.4,1635198780,full,ni_sequenzen,NI_Sequenzen,,,,,,,,,,,,,,
,Screen_1,canvas.Screen,0_2_12_0,,skipped,13,137502.70000000298,,,137502.70000000298,,137502.70000000298,2021-10-25T21:55:23.627Z,137584.4,1635198780,full,ni_sequenzen,NI_Sequenzen,,,,,,,,,,,,,,
,Screen_2,canvas.Screen,0_2_12_1,,skipped,13,137503,,,137502.70000000298,,137503.09999999404,2021-10-25T21:55:23.628Z,137584.4,1635198780,full,ni_sequenzen,NI_Sequenzen,,,,,,,,,,,,,,
,Screen_3,canvas.Screen,0_2_12_2,,skipped,13,137503.39999999106,,,137502.70000000298,,137503.39999999106,2021-10-25T21:55:23.628Z,137584.4,1635198780,full,ni_sequenzen,NI_Sequenzen,,,,,,,,,,,,,,
,Screen_4,canvas.Screen,0_2_12_3,,skipped,13,137503.70000000298,,,137502.70000000298,,137503.70000000298,2021-10-25T21:55:23.628Z,137584.4,1635198780,full,ni_sequenzen,NI_Sequenzen,,,,,,,,,,,,,,
,Screen_5,canvas.Screen,0_2_12_4,,skipped,13,137504,,,137502.70000000298,,137504,2021-10-25T21:55:23.629Z,137584.4,1635198780,full,ni_sequenzen,NI_Sequenzen,,,,,,,,,,,,,,
,Screen_6,canvas.Screen,0_2_12_5,,skipped,13,137504.29999999702,,,137502.70000000298,,137504.29999999702,2021-10-25T21:55:23.629Z,137584.4,1635198780,full,ni_sequenzen,NI_Sequenzen,,,,,,,,,,,,,,
,Sequence,flow.Sequence,0_2_12,,completion,13,137502.39999999106,,,137502.70000000298,,137504.39999999106,2021-10-25T21:55:23.629Z,137584.4,1635198780,full,ni_sequenzen,NI_Sequenzen,,,,,,,,,,,,,,
,Screen_1,canvas.Screen,0_2_13_0,,skipped,14,137504.79999999702,,,137504.79999999702,,137504.89999999106,2021-10-25T21:55:23.629Z,137584.4,1635198780,full,ni_sequenzen,NI_Sequenzen,,,,,,,,,,,,,,
,Screen_2,canvas.Screen,0_2_13_1,,skipped,14,137505.20000000298,,,137504.79999999702,,137505.20000000298,2021-10-25T21:55:23.630Z,137584.4,1635198780,full,ni_sequenzen,NI_Sequenzen,,,,,,,,,,,,,,
,Screen_3,canvas.Screen,0_2_13_2,,skipped,14,137505.39999999106,,,137504.79999999702,,137505.5,2021-10-25T21:55:23.630Z,137584.4,1635198780,full,ni_sequenzen,NI_Sequenzen,,,,,,,,,,,,,,
,Screen_4,canvas.Screen,0_2_13_3,,skipped,14,137505.79999999702,,,137504.79999999702,,137505.79999999702,2021-10-25T21:55:23.630Z,137584.4,1635198780,full,ni_sequenzen,NI_Sequenzen,,,,,,,,,,,,,,
,Screen_5,canvas.Screen,0_2_13_4,,skipped,14,137506.09999999404,,,137504.79999999702,,137506.09999999404,2021-10-25T21:55:23.631Z,137584.4,1635198780,full,ni_sequenzen,NI_Sequenzen,,,,,,,,,,,,,,
,Screen_6,canvas.Screen,0_2_13_5,,skipped,14,137506.29999999702,,,137504.79999999702,,137506.39999999106,2021-10-25T21:55:23.631Z,137584.4,1635198780,full,ni_sequenzen,NI_Sequenzen,,,,,,,,,,,,,,
,Sequence,flow.Sequence,0_2_13,,completion,14,137504.5,,,137504.79999999702,,137506.39999999106,2021-10-25T21:55:23.631Z,137584.4,1635198780,full,ni_sequenzen,NI_Sequenzen,,,,,,,,,,,,,,
,Screen_1,canvas.Screen,0_2_14_0,,skipped,15,137507.39999999106,,,137507.39999999106,,137507.39999999106,2021-10-25T21:55:23.632Z,137584.4,1635198780,full,ni_sequenzen,NI_Sequenzen,,,,,,,,,,,,,,
,Screen_2,canvas.Screen,0_2_14_1,,skipped,15,137507.79999999702,,,137507.39999999106,,137507.89999999106,2021-10-25T21:55:23.632Z,137584.4,1635198780,full,ni_sequenzen,NI_Sequenzen,,,,,,,,,,,,,,
,Screen_3,canvas.Screen,0_2_14_2,,skipped,15,137508.20000000298,,,137507.39999999106,,137508.20000000298,2021-10-25T21:55:23.633Z,137584.4,1635198780,full,ni_sequenzen,NI_Sequenzen,,,,,,,,,,,,,,
,Screen_4,canvas.Screen,0_2_14_3,,skipped,15,137508.5,,,137507.39999999106,,137508.5,2021-10-25T21:55:23.633Z,137584.4,1635198780,full,ni_sequenzen,NI_Sequenzen,,,,,,,,,,,,,,
,Screen_5,canvas.Screen,0_2_14_4,,skipped,15,137508.89999999106,,,137507.39999999106,,137508.89999999106,2021-10-25T21:55:23.633Z,137584.4,1635198780,full,ni_sequenzen,NI_Sequenzen,,,,,,,,,,,,,,
,Screen_6,canvas.Screen,0_2_14_5,,skipped,15,137509.20000000298,,,137507.39999999106,,137509.20000000298,2021-10-25T21:55:23.634Z,137584.4,1635198780,full,ni_sequenzen,NI_Sequenzen,,,,,,,,,,,,,,
,Sequence,flow.Sequence,0_2_14,,completion,15,137506.5,,,137507.39999999106,,137509.20000000298,2021-10-25T21:55:23.634Z,137584.4,1635198780,full,ni_sequenzen,NI_Sequenzen,,,,,,,,,,,,,,
,Screen_1,canvas.Screen,0_2_15_0,,skipped,16,137509.70000000298,,,137509.70000000298,,137509.70000000298,2021-10-25T21:55:23.634Z,137584.4,1635198780,full,ni_sequenzen,NI_Sequenzen,,,,,,,,,,,,,,
,Screen_2,canvas.Screen,0_2_15_1,,skipped,16,137510,,,137509.70000000298,,137510.09999999404,2021-10-25T21:55:23.635Z,137584.4,1635198780,full,ni_sequenzen,NI_Sequenzen,,,,,,,,,,,,,,
,Screen_3,canvas.Screen,0_2_15_2,,skipped,16,137510.29999999702,,,137509.70000000298,,137510.39999999106,2021-10-25T21:55:23.635Z,137584.4,1635198780,full,ni_sequenzen,NI_Sequenzen,,,,,,,,,,,,,,
,Screen_4,canvas.Screen,0_2_15_3,,skipped,16,137510.70000000298,,,137509.70000000298,,137510.70000000298,2021-10-25T21:55:23.635Z,137584.4,1635198780,full,ni_sequenzen,NI_Sequenzen,,,,,,,,,,,,,,
,Screen_5,canvas.Screen,0_2_15_4,,skipped,16,137511,,,137509.70000000298,,137511,2021-10-25T21:55:23.636Z,137584.4,1635198780,full,ni_sequenzen,NI_Sequenzen,,,,,,,,,,,,,,
,Screen_6,canvas.Screen,0_2_15_5,,skipped,16,137511.20000000298,,,137509.70000000298,,137511.20000000298,2021-10-25T21:55:23.636Z,137584.4,1635198780,full,ni_sequenzen,NI_Sequenzen,,,,,,,,,,,,,,
,Sequence,flow.Sequence,0_2_15,,completion,16,137509.29999999702,,,137509.70000000298,,137511.29999999702,2021-10-25T21:55:23.636Z,137584.4,1635198780,full,ni_sequenzen,NI_Sequenzen,,,,,,,,,,,,,,
,Screen_1,canvas.Screen,0_2_16_0,,skipped,17,137511.70000000298,,,137511.70000000298,,137511.70000000298,2021-10-25T21:55:23.636Z,137584.4,1635198780,full,ni_sequenzen,NI_Sequenzen,,,,,,,,,,,,,,
,Screen_2,canvas.Screen,0_2_16_1,,skipped,17,137512.79999999702,,,137511.70000000298,,137512.89999999106,2021-10-25T21:55:23.637Z,137584.4,1635198780,full,ni_sequenzen,NI_Sequenzen,,,,,,,,,,,,,,
,Screen_3,canvas.Screen,0_2_16_2,,skipped,17,137513.20000000298,,,137511.70000000298,,137513.29999999702,2021-10-25T21:55:23.638Z,137584.4,1635198780,full,ni_sequenzen,NI_Sequenzen,,,,,,,,,,,,,,
,Screen_4,canvas.Screen,0_2_16_3,,skipped,17,137513.59999999404,,,137511.70000000298,,137513.59999999404,2021-10-25T21:55:23.638Z,137584.4,1635198780,full,ni_sequenzen,NI_Sequenzen,,,,,,,,,,,,,,
,Screen_5,canvas.Screen,0_2_16_4,,skipped,17,137513.79999999702,,,137511.70000000298,,137513.89999999106,2021-10-25T21:55:23.638Z,137584.4,1635198780,full,ni_sequenzen,NI_Sequenzen,,,,,,,,,,,,,,
,Screen_6,canvas.Screen,0_2_16_5,,skipped,17,137514.20000000298,,,137511.70000000298,,137514.20000000298,2021-10-25T21:55:23.639Z,137584.4,1635198780,full,ni_sequenzen,NI_Sequenzen,,,,,,,,,,,,,,
,Sequence,flow.Sequence,0_2_16,,completion,17,137511.5,,,137511.70000000298,,137514.29999999702,2021-10-25T21:55:23.639Z,137584.4,1635198780,full,ni_sequenzen,NI_Sequenzen,,,,,,,,,,,,,,
,Screen_1,canvas.Screen,0_2_17_0,,skipped,18,137514.70000000298,,,137514.70000000298,,137514.70000000298,2021-10-25T21:55:23.639Z,137584.4,1635198780,full,ni_sequenzen,NI_Sequenzen,,,,,,,,,,,,,,
,Screen_2,canvas.Screen,0_2_17_1,,skipped,18,137515,,,137514.70000000298,,137515.09999999404,2021-10-25T21:55:23.640Z,137584.4,1635198780,full,ni_sequenzen,NI_Sequenzen,,,,,,,,,,,,,,
,Screen_3,canvas.Screen,0_2_17_2,,skipped,18,137515.39999999106,,,137514.70000000298,,137515.39999999106,2021-10-25T21:55:23.640Z,137584.4,1635198780,full,ni_sequenzen,NI_Sequenzen,,,,,,,,,,,,,,
,Screen_4,canvas.Screen,0_2_17_3,,skipped,18,137515.70000000298,,,137514.70000000298,,137515.70000000298,2021-10-25T21:55:23.640Z,137584.4,1635198780,full,ni_sequenzen,NI_Sequenzen,,,,,,,,,,,,,,
,Screen_5,canvas.Screen,0_2_17_4,,skipped,18,137516,,,137514.70000000298,,137516,2021-10-25T21:55:23.641Z,137584.4,1635198780,full,ni_sequenzen,NI_Sequenzen,,,,,,,,,,,,,,
,Screen_6,canvas.Screen,0_2_17_5,,skipped,18,137516.29999999702,,,137514.70000000298,,137516.39999999106,2021-10-25T21:55:23.641Z,137584.4,1635198780,full,ni_sequenzen,NI_Sequenzen,,,,,,,,,,,,,,
,Sequence,flow.Sequence,0_2_17,,completion,18,137514.39999999106,,,137514.70000000298,,137516.39999999106,2021-10-25T21:55:23.641Z,137584.4,1635198780,full,ni_sequenzen,NI_Sequenzen,,,,,,,,,,,,,,
,Screen_1,canvas.Screen,0_2_18_0,,skipped,19,137516.79999999702,,,137516.79999999702,,137516.79999999702,2021-10-25T21:55:23.641Z,137584.4,1635198780,full,ni_sequenzen,NI_Sequenzen,,,,,,,,,,,,,,
,Screen_2,canvas.Screen,0_2_18_1,,skipped,19,137517.09999999404,,,137516.79999999702,,137517.09999999404,2021-10-25T21:55:23.642Z,137584.4,1635198780,full,ni_sequenzen,NI_Sequenzen,,,,,,,,,,,,,,
,Screen_3,canvas.Screen,0_2_18_2,,skipped,19,137517.39999999106,,,137516.79999999702,,137517.39999999106,2021-10-25T21:55:23.642Z,137584.4,1635198780,full,ni_sequenzen,NI_Sequenzen,,,,,,,,,,,,,,
,Screen_4,canvas.Screen,0_2_18_3,,skipped,19,137518.29999999702,,,137516.79999999702,,137518.39999999106,2021-10-25T21:55:23.643Z,137584.4,1635198780,full,ni_sequenzen,NI_Sequenzen,,,,,,,,,,,,,,
,Screen_5,canvas.Screen,0_2_18_4,,skipped,19,137518.70000000298,,,137516.79999999702,,137518.70000000298,2021-10-25T21:55:23.643Z,137584.4,1635198780,full,ni_sequenzen,NI_Sequenzen,,,,,,,,,,,,,,
,Screen_6,canvas.Screen,0_2_18_5,,skipped,19,137519,,,137516.79999999702,,137519.09999999404,2021-10-25T21:55:23.644Z,137584.4,1635198780,full,ni_sequenzen,NI_Sequenzen,,,,,,,,,,,,,,
,Sequence,flow.Sequence,0_2_18,,completion,19,137516.5,,,137516.79999999702,,137519.09999999404,2021-10-25T21:55:23.644Z,137584.4,1635198780,full,ni_sequenzen,NI_Sequenzen,,,,,,,,,,,,,,
,Screen_1,canvas.Screen,0_2_19_0,,skipped,20,137519.5,,,137519.5,,137519.5,2021-10-25T21:55:23.644Z,137584.4,1635198780,full,ni_sequenzen,NI_Sequenzen,,,,,,,,,,,,,,
,Screen_2,canvas.Screen,0_2_19_1,,skipped,20,137519.89999999106,,,137519.5,,137519.89999999106,2021-10-25T21:55:23.644Z,137584.4,1635198780,full,ni_sequenzen,NI_Sequenzen,,,,,,,,,,,,,,
,Screen_3,canvas.Screen,0_2_19_2,,skipped,20,137520.29999999702,,,137519.5,,137520.29999999702,2021-10-25T21:55:23.645Z,137584.4,1635198780,full,ni_sequenzen,NI_Sequenzen,,,,,,,,,,,,,,
,Screen_4,canvas.Screen,0_2_19_3,,skipped,20,137520.59999999404,,,137519.5,,137520.59999999404,2021-10-25T21:55:23.645Z,137584.4,1635198780,full,ni_sequenzen,NI_Sequenzen,,,,,,,,,,,,,,
,Screen_5,canvas.Screen,0_2_19_4,,skipped,20,137520.89999999106,,,137519.5,,137520.89999999106,2021-10-25T21:55:23.645Z,137584.4,1635198780,full,ni_sequenzen,NI_Sequenzen,,,,,,,,,,,,,,
,Screen_6,canvas.Screen,0_2_19_5,,skipped,20,137521.20000000298,,,137519.5,,137521.20000000298,2021-10-25T21:55:23.646Z,137584.4,1635198780,full,ni_sequenzen,NI_Sequenzen,,,,,,,,,,,,,,
,Sequence,flow.Sequence,0_2_19,,completion,20,137519.20000000298,,,137519.5,,137521.20000000298,2021-10-25T21:55:23.646Z,137584.4,1635198780,full,ni_sequenzen,NI_Sequenzen,,,,,,,,,,,,,,
,Screen_1,canvas.Screen,0_2_20_0,,skipped,21,137521.70000000298,,,137521.70000000298,,137521.70000000298,2021-10-25T21:55:23.646Z,137584.4,1635198780,full,ni_sequenzen,NI_Sequenzen,,,,,,,,,,,,,,
,Screen_2,canvas.Screen,0_2_20_1,,skipped,21,137522,,,137521.70000000298,,137522,2021-10-25T21:55:23.647Z,137584.4,1635198780,full,ni_sequenzen,NI_Sequenzen,,,,,,,,,,,,,,
,Screen_3,canvas.Screen,0_2_20_2,,skipped,21,137522.39999999106,,,137521.70000000298,,137522.39999999106,2021-10-25T21:55:23.647Z,137584.4,1635198780,full,ni_sequenzen,NI_Sequenzen,,,,,,,,,,,,,,
,Screen_4,canvas.Screen,0_2_20_3,,skipped,21,137522.59999999404,,,137521.70000000298,,137522.70000000298,2021-10-25T21:55:23.647Z,137584.4,1635198780,full,ni_sequenzen,NI_Sequenzen,,,,,,,,,,,,,,
,Screen_5,canvas.Screen,0_2_20_4,,skipped,21,137523.79999999702,,,137521.70000000298,,137523.79999999702,2021-10-25T21:55:23.648Z,137584.4,1635198780,full,ni_sequenzen,NI_Sequenzen,,,,,,,,,,,,,,
,Screen_6,canvas.Screen,0_2_20_5,,skipped,21,137524.39999999106,,,137521.70000000298,,137524.5,2021-10-25T21:55:23.649Z,137584.4,1635198780,full,ni_sequenzen,NI_Sequenzen,,,,,,,,,,,,,,
,Sequence,flow.Sequence,0_2_20,,completion,21,137521.39999999106,,,137521.70000000298,,137524.5,2021-10-25T21:55:23.649Z,137584.4,1635198780,full,ni_sequenzen,NI_Sequenzen,,,,,,,,,,,,,,
,Screen_1,canvas.Screen,0_2_21_0,,skipped,22,137524.89999999106,,,137524.89999999106,,137524.89999999106,2021-10-25T21:55:23.650Z,137584.4,1635198780,full,ni_sequenzen,NI_Sequenzen,,,,,,,,,,,,,,
,Screen_2,canvas.Screen,0_2_21_1,,skipped,22,137525.29999999702,,,137524.89999999106,,137525.39999999106,2021-10-25T21:55:23.650Z,137584.4,1635198780,full,ni_sequenzen,NI_Sequenzen,,,,,,,,,,,,,,
,Screen_3,canvas.Screen,0_2_21_2,,skipped,22,137525.59999999404,,,137524.89999999106,,137525.70000000298,2021-10-25T21:55:23.650Z,137584.4,1635198780,full,ni_sequenzen,NI_Sequenzen,,,,,,,,,,,,,,
,Screen_4,canvas.Screen,0_2_21_3,,skipped,22,137525.89999999106,,,137524.89999999106,,137526,2021-10-25T21:55:23.651Z,137584.4,1635198780,full,ni_sequenzen,NI_Sequenzen,,,,,,,,,,,,,,
,Screen_5,canvas.Screen,0_2_21_4,,skipped,22,137526.59999999404,,,137524.89999999106,,137526.59999999404,2021-10-25T21:55:23.651Z,137584.4,1635198780,full,ni_sequenzen,NI_Sequenzen,,,,,,,,,,,,,,
,Screen_6,canvas.Screen,0_2_21_5,,skipped,22,137526.89999999106,,,137524.89999999106,,137527,2021-10-25T21:55:23.652Z,137584.4,1635198780,full,ni_sequenzen,NI_Sequenzen,,,,,,,,,,,,,,
,Sequence,flow.Sequence,0_2_21,,completion,22,137524.59999999404,,,137524.89999999106,,137527,2021-10-25T21:55:23.652Z,137584.4,1635198780,full,ni_sequenzen,NI_Sequenzen,,,,,,,,,,,,,,
,Screen_1,canvas.Screen,0_2_22_0,,skipped,23,137527.39999999106,,,137527.39999999106,,137527.5,2021-10-25T21:55:23.652Z,137584.4,1635198780,full,ni_sequenzen,NI_Sequenzen,,,,,,,,,,,,,,
,Screen_2,canvas.Screen,0_2_22_1,,skipped,23,137527.79999999702,,,137527.39999999106,,137527.79999999702,2021-10-25T21:55:23.652Z,137584.4,1635198780,full,ni_sequenzen,NI_Sequenzen,,,,,,,,,,,,,,
,Screen_3,canvas.Screen,0_2_22_2,,skipped,23,137528.20000000298,,,137527.39999999106,,137528.29999999702,2021-10-25T21:55:23.653Z,137584.4,1635198780,full,ni_sequenzen,NI_Sequenzen,,,,,,,,,,,,,,
,Screen_4,canvas.Screen,0_2_22_3,,skipped,23,137528.59999999404,,,137527.39999999106,,137528.70000000298,2021-10-25T21:55:23.653Z,137584.4,1635198780,full,ni_sequenzen,NI_Sequenzen,,,,,,,,,,,,,,
,Screen_5,canvas.Screen,0_2_22_4,,skipped,23,137529.09999999404,,,137527.39999999106,,137529.09999999404,2021-10-25T21:55:23.654Z,137584.4,1635198780,full,ni_sequenzen,NI_Sequenzen,,,,,,,,,,,,,,
,Screen_6,canvas.Screen,0_2_22_5,,skipped,23,137529.5,,,137527.39999999106,,137529.5,2021-10-25T21:55:23.654Z,137584.4,1635198780,full,ni_sequenzen,NI_Sequenzen,,,,,,,,,,,,,,
,Sequence,flow.Sequence,0_2_22,,completion,23,137527.09999999404,,,137527.39999999106,,137529.5,2021-10-25T21:55:23.654Z,137584.4,1635198780,full,ni_sequenzen,NI_Sequenzen,,,,,,,,,,,,,,
,Screen_1,canvas.Screen,0_2_23_0,,skipped,24,137529.89999999106,,,137529.89999999106,,137529.89999999106,2021-10-25T21:55:23.655Z,137584.4,1635198780,full,ni_sequenzen,NI_Sequenzen,,,,,,,,,,,,,,
,Screen_2,canvas.Screen,0_2_23_1,,skipped,24,137530.29999999702,,,137529.89999999106,,137530.29999999702,2021-10-25T21:55:23.655Z,137584.4,1635198780,full,ni_sequenzen,NI_Sequenzen,,,,,,,,,,,,,,
,Screen_3,canvas.Screen,0_2_23_2,,skipped,24,137531.59999999404,,,137529.89999999106,,137531.59999999404,2021-10-25T21:55:23.656Z,137584.4,1635198780,full,ni_sequenzen,NI_Sequenzen,,,,,,,,,,,,,,
,Screen_4,canvas.Screen,0_2_23_3,,skipped,24,137531.89999999106,,,137529.89999999106,,137532,2021-10-25T21:55:23.657Z,137584.4,1635198780,full,ni_sequenzen,NI_Sequenzen,,,,,,,,,,,,,,
,Screen_5,canvas.Screen,0_2_23_4,,skipped,24,137532.29999999702,,,137529.89999999106,,137532.29999999702,2021-10-25T21:55:23.657Z,137584.4,1635198780,full,ni_sequenzen,NI_Sequenzen,,,,,,,,,,,,,,
,Screen_6,canvas.Screen,0_2_23_5,,skipped,24,137532.59999999404,,,137529.89999999106,,137532.59999999404,2021-10-25T21:55:23.657Z,137584.4,1635198780,full,ni_sequenzen,NI_Sequenzen,,,,,,,,,,,,,,
,Sequence,flow.Sequence,0_2_23,,completion,24,137529.59999999404,,,137529.89999999106,,137532.70000000298,2021-10-25T21:55:23.657Z,137584.4,1635198780,full,ni_sequenzen,NI_Sequenzen,,,,,,,,,,,,,,
,Screen_1,canvas.Screen,0_2_24_0,,skipped,25,137533,,,137533.09999999404,,137533.09999999404,2021-10-25T21:55:23.658Z,137584.4,1635198780,full,ni_sequenzen,NI_Sequenzen,,,,,,,,,,,,,,
,Screen_2,canvas.Screen,0_2_24_1,,skipped,25,137533.5,,,137533.09999999404,,137533.5,2021-10-25T21:55:23.658Z,137584.4,1635198780,full,ni_sequenzen,NI_Sequenzen,,,,,,,,,,,,,,
,Screen_3,canvas.Screen,0_2_24_2,,skipped,25,137533.70000000298,,,137533.09999999404,,137533.70000000298,2021-10-25T21:55:23.658Z,137584.4,1635198780,full,ni_sequenzen,NI_Sequenzen,,,,,,,,,,,,,,
,Screen_4,canvas.Screen,0_2_24_3,,skipped,25,137534.09999999404,,,137533.09999999404,,137534.09999999404,2021-10-25T21:55:23.659Z,137584.4,1635198780,full,ni_sequenzen,NI_Sequenzen,,,,,,,,,,,,,,
,Screen_5,canvas.Screen,0_2_24_4,,skipped,25,137534.39999999106,,,137533.09999999404,,137534.39999999106,2021-10-25T21:55:23.659Z,137584.4,1635198780,full,ni_sequenzen,NI_Sequenzen,,,,,,,,,,,,,,
,Screen_6,canvas.Screen,0_2_24_5,,skipped,25,137534.59999999404,,,137533.09999999404,,137534.70000000298,2021-10-25T21:55:23.659Z,137584.4,1635198780,full,ni_sequenzen,NI_Sequenzen,,,,,,,,,,,,,,
,Sequence,flow.Sequence,0_2_24,,completion,25,137532.79999999702,,,137533.09999999404,,137534.70000000298,2021-10-25T21:55:23.659Z,137584.4,1635198780,full,ni_sequenzen,NI_Sequenzen,,,,,,,,,,,,,,
,Screen_1,canvas.Screen,0_2_25_0,,skipped,26,137535.09999999404,,,137535.09999999404,,137535.09999999404,2021-10-25T21:55:23.660Z,137584.4,1635198780,full,ni_sequenzen,NI_Sequenzen,,,,,,,,,,,,,,
,Screen_2,canvas.Screen,0_2_25_1,,skipped,26,137535.5,,,137535.09999999404,,137535.5,2021-10-25T21:55:23.660Z,137584.4,1635198780,full,ni_sequenzen,NI_Sequenzen,,,,,,,,,,,,,,
,Screen_3,canvas.Screen,0_2_25_2,,skipped,26,137535.79999999702,,,137535.09999999404,,137535.79999999702,2021-10-25T21:55:23.660Z,137584.4,1635198780,full,ni_sequenzen,NI_Sequenzen,,,,,,,,,,,,,,
,Screen_4,canvas.Screen,0_2_25_3,,skipped,26,137536.09999999404,,,137535.09999999404,,137536.09999999404,2021-10-25T21:55:23.661Z,137584.4,1635198780,full,ni_sequenzen,NI_Sequenzen,,,,,,,,,,,,,,
,Screen_5,canvas.Screen,0_2_25_4,,skipped,26,137536.39999999106,,,137535.09999999404,,137536.39999999106,2021-10-25T21:55:23.661Z,137584.4,1635198780,full,ni_sequenzen,NI_Sequenzen,,,,,,,,,,,,,,
,Screen_6,canvas.Screen,0_2_25_5,,skipped,26,137537.89999999106,,,137535.09999999404,,137537.89999999106,2021-10-25T21:55:23.662Z,137584.4,1635198780,full,ni_sequenzen,NI_Sequenzen,,,,,,,,,,,,,,
,Sequence,flow.Sequence,0_2_25,,completion,26,137534.89999999106,,,137535.09999999404,,137537.89999999106,2021-10-25T21:55:23.663Z,137584.4,1635198780,full,ni_sequenzen,NI_Sequenzen,,,,,,,,,,,,,,
,Screen_1,canvas.Screen,0_2_26_0,,skipped,27,137538.39999999106,,,137538.39999999106,,137538.5,2021-10-25T21:55:23.663Z,137584.4,1635198780,full,ni_sequenzen,NI_Sequenzen,,,,,,,,,,,,,,
,Screen_2,canvas.Screen,0_2_26_1,,skipped,27,137538.79999999702,,,137538.39999999106,,137538.79999999702,2021-10-25T21:55:23.663Z,137584.4,1635198780,full,ni_sequenzen,NI_Sequenzen,,,,,,,,,,,,,,
,Screen_3,canvas.Screen,0_2_26_2,,skipped,27,137539.20000000298,,,137538.39999999106,,137539.20000000298,2021-10-25T21:55:23.664Z,137584.4,1635198780,full,ni_sequenzen,NI_Sequenzen,,,,,,,,,,,,,,
,Screen_4,canvas.Screen,0_2_26_3,,skipped,27,137539.59999999404,,,137538.39999999106,,137539.59999999404,2021-10-25T21:55:23.664Z,137584.4,1635198780,full,ni_sequenzen,NI_Sequenzen,,,,,,,,,,,,,,
,Screen_5,canvas.Screen,0_2_26_4,,skipped,27,137539.89999999106,,,137538.39999999106,,137539.89999999106,2021-10-25T21:55:23.665Z,137584.4,1635198780,full,ni_sequenzen,NI_Sequenzen,,,,,,,,,,,,,,
,Screen_6,canvas.Screen,0_2_26_5,,skipped,27,137540.20000000298,,,137538.39999999106,,137540.29999999702,2021-10-25T21:55:23.665Z,137584.4,1635198780,full,ni_sequenzen,NI_Sequenzen,,,,,,,,,,,,,,
,Sequence,flow.Sequence,0_2_26,,completion,27,137538.09999999404,,,137538.39999999106,,137540.29999999702,2021-10-25T21:55:23.665Z,137584.4,1635198780,full,ni_sequenzen,NI_Sequenzen,,,,,,,,,,,,,,
,Screen_1,canvas.Screen,0_2_27_0,,skipped,28,137540.70000000298,,,137540.70000000298,,137540.70000000298,2021-10-25T21:55:23.665Z,137584.4,1635198780,full,ni_sequenzen,NI_Sequenzen,,,,,,,,,,,,,,
,Screen_2,canvas.Screen,0_2_27_1,,skipped,28,137541,,,137540.70000000298,,137541,2021-10-25T21:55:23.666Z,137584.4,1635198780,full,ni_sequenzen,NI_Sequenzen,,,,,,,,,,,,,,
,Screen_3,canvas.Screen,0_2_27_2,,skipped,28,137541.39999999106,,,137540.70000000298,,137541.39999999106,2021-10-25T21:55:23.666Z,137584.4,1635198780,full,ni_sequenzen,NI_Sequenzen,,,,,,,,,,,,,,
,Screen_4,canvas.Screen,0_2_27_3,,skipped,28,137541.70000000298,,,137540.70000000298,,137541.70000000298,2021-10-25T21:55:23.666Z,137584.4,1635198780,full,ni_sequenzen,NI_Sequenzen,,,,,,,,,,,,,,
,Screen_5,canvas.Screen,0_2_27_4,,skipped,28,137542,,,137540.70000000298,,137542,2021-10-25T21:55:23.667Z,137584.4,1635198780,full,ni_sequenzen,NI_Sequenzen,,,,,,,,,,,,,,
,Screen_6,canvas.Screen,0_2_27_5,,skipped,28,137542.20000000298,,,137540.70000000298,,137542.20000000298,2021-10-25T21:55:23.667Z,137584.4,1635198780,full,ni_sequenzen,NI_Sequenzen,,,,,,,,,,,,,,
,Sequence,flow.Sequence,0_2_27,,completion,28,137540.39999999106,,,137540.70000000298,,137542.29999999702,2021-10-25T21:55:23.667Z,137584.4,1635198780,full,ni_sequenzen,NI_Sequenzen,,,,,,,,,,,,,,
,Screen_1,canvas.Screen,0_2_28_0,,skipped,29,137542.70000000298,,,137542.70000000298,,137542.70000000298,2021-10-25T21:55:23.667Z,137584.4,1635198780,full,ni_sequenzen,NI_Sequenzen,,,,,,,,,,,,,,
,Screen_2,canvas.Screen,0_2_28_1,,skipped,29,137543.09999999404,,,137542.70000000298,,137543.09999999404,2021-10-25T21:55:23.668Z,137584.4,1635198780,full,ni_sequenzen,NI_Sequenzen,,,,,,,,,,,,,,
,Screen_3,canvas.Screen,0_2_28_2,,skipped,29,137543.39999999106,,,137542.70000000298,,137543.39999999106,2021-10-25T21:55:23.668Z,137584.4,1635198780,full,ni_sequenzen,NI_Sequenzen,,,,,,,,,,,,,,
,Screen_4,canvas.Screen,0_2_28_3,,skipped,29,137544.39999999106,,,137542.70000000298,,137544.5,2021-10-25T21:55:23.669Z,137584.4,1635198780,full,ni_sequenzen,NI_Sequenzen,,,,,,,,,,,,,,
,Screen_5,canvas.Screen,0_2_28_4,,skipped,29,137544.70000000298,,,137542.70000000298,,137544.79999999702,2021-10-25T21:55:23.669Z,137584.4,1635198780,full,ni_sequenzen,NI_Sequenzen,,,,,,,,,,,,,,
,Screen_6,canvas.Screen,0_2_28_5,,skipped,29,137545.09999999404,,,137542.70000000298,,137545.09999999404,2021-10-25T21:55:23.670Z,137584.4,1635198780,full,ni_sequenzen,NI_Sequenzen,,,,,,,,,,,,,,
,Sequence,flow.Sequence,0_2_28,,completion,29,137542.5,,,137542.70000000298,,137545.09999999404,2021-10-25T21:55:23.670Z,137584.4,1635198780,full,ni_sequenzen,NI_Sequenzen,,,,,,,,,,,,,,
,Screen_1,canvas.Screen,0_2_29_0,,skipped,30,137545.59999999404,,,137545.59999999404,,137545.59999999404,2021-10-25T21:55:23.670Z,137584.4,1635198780,full,ni_sequenzen,NI_Sequenzen,,,,,,,,,,,,,,
,Screen_2,canvas.Screen,0_2_29_1,,skipped,30,137545.89999999106,,,137545.59999999404,,137545.89999999106,2021-10-25T21:55:23.671Z,137584.4,1635198780,full,ni_sequenzen,NI_Sequenzen,,,,,,,,,,,,,,
,Screen_3,canvas.Screen,0_2_29_2,,skipped,30,137546.29999999702,,,137545.59999999404,,137546.29999999702,2021-10-25T21:55:23.671Z,137584.4,1635198780,full,ni_sequenzen,NI_Sequenzen,,,,,,,,,,,,,,
,Screen_4,canvas.Screen,0_2_29_3,,skipped,30,137546.59999999404,,,137545.59999999404,,137546.59999999404,2021-10-25T21:55:23.671Z,137584.4,1635198780,full,ni_sequenzen,NI_Sequenzen,,,,,,,,,,,,,,
,Screen_5,canvas.Screen,0_2_29_4,,skipped,30,137546.89999999106,,,137545.59999999404,,137546.89999999106,2021-10-25T21:55:23.671Z,137584.4,1635198780,full,ni_sequenzen,NI_Sequenzen,,,,,,,,,,,,,,
,Screen_6,canvas.Screen,0_2_29_5,,skipped,30,137547.20000000298,,,137545.59999999404,,137547.20000000298,2021-10-25T21:55:23.672Z,137584.4,1635198780,full,ni_sequenzen,NI_Sequenzen,,,,,,,,,,,,,,
,Sequence,flow.Sequence,0_2_29,,completion,30,137545.29999999702,,,137545.59999999404,,137547.20000000298,2021-10-25T21:55:23.672Z,137584.4,1635198780,full,ni_sequenzen,NI_Sequenzen,,,,,,,,,,,,,,
,Instructions_II,flow.Loop,0_2,,completion,,72041.70000000298,72035.387,72051.849,137545.59999999404,65493.75099999404,137547.29999999702,2021-10-25T21:55:23.672Z,137584.4,1635198780,full,ni_sequenzen,NI_Sequenzen,,,,,,,,,,,,,,
,Move,canvas.Screen,0_3_0_0_0_0,left,response,,137562.79999999702,137547.186,137584.4,140332,2747.600000000006,140332.79999999702,2021-10-25T21:55:26.457Z,140347.844,1635198780,full,ni_sequenzen,NI_Sequenzen,1,0,,,,,,,,,,,,
,Move,canvas.Screen,0_3_0_0_0_1,down,response,,140337.79999999702,140331.867,140347.844,142824.89999999106,2477.0559999910474,142825.70000000298,2021-10-25T21:55:28.950Z,142847.919,1635198780,full,ni_sequenzen,NI_Sequenzen,2,0,,,,,,,,,,,,
,Move,canvas.Screen,0_3_0_0_0_2,down,response,,142829.20000000298,142814.953,142847.919,144133.29999999702,1285.3809999970254,144134,2021-10-25T21:55:30.257Z,144147.435,1635198780,full,ni_sequenzen,NI_Sequenzen,3,0,,,,,,,,,,,,
,Move,canvas.Screen,0_3_0_0_0_3,left,response,,144137.09999999404,144132.292,144147.435,145140.79999999702,993.3649999970221,145141.70000000298,2021-10-25T21:55:31.265Z,145181.068,1635198780,full,ni_sequenzen,NI_Sequenzen,4,0,,,,,,,,,,,,
,Move,canvas.Screen,0_3_0_0_0_4,-999,skipped,,145145.09999999404,,,145140.79999999702,,145145.20000000298,2021-10-25T21:55:31.269Z,145181.068,1635198780,full,ni_sequenzen,NI_Sequenzen,5,0,,,,,,,,,,,,
,Move,canvas.Screen,0_3_0_0_0_5,-999,skipped,,145146.70000000298,,,145140.79999999702,,145146.70000000298,2021-10-25T21:55:31.270Z,145181.068,1635198780,full,ni_sequenzen,NI_Sequenzen,6,0,,,,,,,,,,,,
,Move,canvas.Screen,0_3_0_0_0_6,-999,skipped,,145153.79999999702,,,145140.79999999702,,145154,2021-10-25T21:55:31.278Z,145181.068,1635198780,full,ni_sequenzen,NI_Sequenzen,7,0,,,,,,,,,,,,
,Move,canvas.Screen,0_3_0_0_0_7,-999,skipped,,145155.39999999106,,,145140.79999999702,,145155.39999999106,2021-10-25T21:55:31.279Z,145181.068,1635198780,full,ni_sequenzen,NI_Sequenzen,8,0,,,,,,,,,,,,
,Move,canvas.Screen,0_3_0_0_0_8,-999,skipped,,145156.29999999702,,,145140.79999999702,,145156.29999999702,2021-10-25T21:55:31.280Z,145181.068,1635198780,full,ni_sequenzen,NI_Sequenzen,9,0,,,,,,,,,,,,
,Move,canvas.Screen,0_3_0_0_0_9,-999,skipped,,145157.29999999702,,,145140.79999999702,,145157.39999999106,2021-10-25T21:55:31.281Z,145181.068,1635198780,full,ni_sequenzen,NI_Sequenzen,10,0,,,,,,,,,,,,
,Move,canvas.Screen,0_3_0_0_0_10,-999,skipped,,145158.5,,,145140.79999999702,,145158.59999999404,2021-10-25T21:55:31.282Z,145181.068,1635198780,full,ni_sequenzen,NI_Sequenzen,11,0,,,,,,,,,,,,
,Move,canvas.Screen,0_3_0_0_0_11,-999,skipped,,145159.39999999106,,,145140.79999999702,,145159.39999999106,2021-10-25T21:55:31.283Z,145181.068,1635198780,full,ni_sequenzen,NI_Sequenzen,12,0,,,,,,,,,,,,
,Move,canvas.Screen,0_3_0_0_0_12,-999,skipped,,145160.20000000298,,,145140.79999999702,,145160.29999999702,2021-10-25T21:55:31.284Z,145181.068,1635198780,full,ni_sequenzen,NI_Sequenzen,13,0,,,,,,,,,,,,
,Move,canvas.Screen,0_3_0_0_0_13,-999,skipped,,145161.59999999404,,,145140.79999999702,,145161.59999999404,2021-10-25T21:55:31.285Z,145181.068,1635198780,full,ni_sequenzen,NI_Sequenzen,14,0,,,,,,,,,,,,
,Move,canvas.Screen,0_3_0_0_0_14,-999,skipped,,145162.79999999702,,,145140.79999999702,,145162.89999999106,2021-10-25T21:55:31.286Z,145181.068,1635198780,full,ni_sequenzen,NI_Sequenzen,15,0,,,,,,,,,,,,
,Loop,flow.Loop,0_3_0_0_0,-999,completion,,137560.5,137547.186,137584.4,145140.79999999702,7556.399999997026,145162.89999999106,2021-10-25T21:55:31.286Z,145181.068,1635198780,full,ni_sequenzen,NI_Sequenzen,,0,,,,,,,,,,,,
,Feedback,canvas.Screen,0_3_0_0_1,,timeout,,145164.70000000298,145164.043,145181.068,149164.213,3999.5540000000037,149165.39999999106,2021-10-25T21:55:35.289Z,149180.622,1635198780,full,ni_sequenzen,NI_Sequenzen,,0,,,,,,,,,,,,
,Trial,flow.Sequence,0_3_0_0,,completion,,137555.79999999702,137547.186,137584.4,149164.213,11579.812999999995,149165.5,2021-10-25T21:55:35.289Z,149197.522,1635198780,full,ni_sequenzen,NI_Sequenzen,,0,,,,,,,,,,,,
,Move,canvas.Screen,0_3_0_1_0_0,right,response,,149175.20000000298,149180.622,149197.522,154304.5,5106.978000000003,154305.20000000298,2021-10-25T21:55:40.429Z,154313.618,1635198780,full,ni_sequenzen,NI_Sequenzen,1,1,,,,,,,,,,,,
,Move,canvas.Screen,0_3_0_1_0_1,down,response,,154308.59999999404,154297.87,154313.618,154981.29999999702,667.6819999970321,154982.09999999404,2021-10-25T21:55:41.106Z,154996.922,1635198780,full,ni_sequenzen,NI_Sequenzen,2,1,,,,,,,,,,,,
,Move,canvas.Screen,0_3_0_1_0_2,right,response,,154985.39999999106,154980.701,154996.922,156312.70000000298,1315.7780000029888,156313.39999999106,2021-10-25T21:55:42.437Z,156330.2,1635198780,full,ni_sequenzen,NI_Sequenzen,3,1,,,,,,,,,,,,
,Move,canvas.Screen,0_3_0_1_0_3,down,response,,156317.20000000298,156313.299,156330.2,156977.39999999106,647.1999999910477,156978.20000000298,2021-10-25T21:55:43.102Z,157029.438,1635198780,full,ni_sequenzen,NI_Sequenzen,4,1,,,,,,,,,,,,
,Move,canvas.Screen,0_3_0_1_0_4,-999,skipped,,156981.5,,,156977.39999999106,,156981.59999999404,2021-10-25T21:55:43.105Z,157029.438,1635198780,full,ni_sequenzen,NI_Sequenzen,5,1,,,,,,,,,,,,
,Move,canvas.Screen,0_3_0_1_0_5,-999,skipped,,156983.89999999106,,,156977.39999999106,,156984,2021-10-25T21:55:43.107Z,157029.438,1635198780,full,ni_sequenzen,NI_Sequenzen,6,1,,,,,,,,,,,,
,Move,canvas.Screen,0_3_0_1_0_6,-999,skipped,,156985.09999999404,,,156977.39999999106,,156985.20000000298,2021-10-25T21:55:43.109Z,157029.438,1635198780,full,ni_sequenzen,NI_Sequenzen,7,1,,,,,,,,,,,,
,Move,canvas.Screen,0_3_0_1_0_7,-999,skipped,,156985.89999999106,,,156977.39999999106,,156986,2021-10-25T21:55:43.110Z,157029.438,1635198780,full,ni_sequenzen,NI_Sequenzen,8,1,,,,,,,,,,,,
,Move,canvas.Screen,0_3_0_1_0_8,-999,skipped,,156986.79999999702,,,156977.39999999106,,156986.79999999702,2021-10-25T21:55:43.110Z,157029.438,1635198780,full,ni_sequenzen,NI_Sequenzen,9,1,,,,,,,,,,,,
,Move,canvas.Screen,0_3_0_1_0_9,-999,skipped,,156988.20000000298,,,156977.39999999106,,156988.29999999702,2021-10-25T21:55:43.112Z,157029.438,1635198780,full,ni_sequenzen,NI_Sequenzen,10,1,,,,,,,,,,,,
,Move,canvas.Screen,0_3_0_1_0_10,-999,skipped,,156989,,,156977.39999999106,,156989.09999999404,2021-10-25T21:55:43.113Z,157029.438,1635198780,full,ni_sequenzen,NI_Sequenzen,11,1,,,,,,,,,,,,
,Move,canvas.Screen,0_3_0_1_0_11,-999,skipped,,156990,,,156977.39999999106,,156990,2021-10-25T21:55:43.114Z,157029.438,1635198780,full,ni_sequenzen,NI_Sequenzen,12,1,,,,,,,,,,,,
,Move,canvas.Screen,0_3_0_1_0_12,-999,skipped,,156991.20000000298,,,156977.39999999106,,156991.20000000298,2021-10-25T21:55:43.115Z,157029.438,1635198780,full,ni_sequenzen,NI_Sequenzen,13,1,,,,,,,,,,,,
,Move,canvas.Screen,0_3_0_1_0_13,-999,skipped,,156992.09999999404,,,156977.39999999106,,156992.09999999404,2021-10-25T21:55:43.116Z,157029.438,1635198780,full,ni_sequenzen,NI_Sequenzen,14,1,,,,,,,,,,,,
,Move,canvas.Screen,0_3_0_1_0_14,-999,skipped,,156993,,,156977.39999999106,,156993.09999999404,2021-10-25T21:55:43.117Z,157029.438,1635198780,full,ni_sequenzen,NI_Sequenzen,15,1,,,,,,,,,,,,
,Loop,flow.Loop,0_3_0_1_0,-999,completion,,149173.59999999404,149180.622,149197.522,156977.39999999106,7779.877999991062,156993.09999999404,2021-10-25T21:55:43.117Z,157029.438,1635198780,full,ni_sequenzen,NI_Sequenzen,,1,,,,,,,,,,,,
,Feedback,canvas.Screen,0_3_0_1_1,,timeout,,156994.59999999404,156980.269,157029.438,161013.509,4000.502999999997,161014.59999999404,2021-10-25T21:55:47.138Z,161029.941,1635198780,full,ni_sequenzen,NI_Sequenzen,,1,,,,,,,,,,,,
,Trial,flow.Sequence,0_3_0_1,,completion,,149166,149180.622,149197.522,161013.509,11815.986999999994,161014.70000000298,2021-10-25T21:55:47.138Z,161046.601,1635198780,full,ni_sequenzen,NI_Sequenzen,,1,,,,,,,,,,,,
,Move,canvas.Screen,0_3_0_2_0_0,down,response,,161031.70000000298,161029.941,161046.601,164312.20000000298,3265.599000002985,164312.89999999106,2021-10-25T21:55:50.436Z,164329.933,1635198780,full,ni_sequenzen,NI_Sequenzen,1,2,,,,,,,,,,,,
,Move,canvas.Screen,0_3_0_2_0_1,left,response,,164316.39999999106,164300.805,164329.933,165294.39999999106,964.4669999910693,165295.09999999404,2021-10-25T21:55:51.419Z,165313.198,1635198780,full,ni_sequenzen,NI_Sequenzen,2,2,,,,,,,,,,,,
,Move,canvas.Screen,0_3_0_2_0_2,down,response,,165299,165296.784,165313.198,168577.29999999702,3264.101999997016,168578,2021-10-25T21:55:54.702Z,168596.382,1635198780,full,ni_sequenzen,NI_Sequenzen,3,2,,,,,,,,,,,,
,Move,canvas.Screen,0_3_0_2_0_3,left,response,,168582.5,168576.28,168596.382,169037.70000000298,441.3180000029679,169038.39999999106,2021-10-25T21:55:55.162Z,169079.657,1635198780,full,ni_sequenzen,NI_Sequenzen,4,2,,,,,,,,,,,,
,Move,canvas.Screen,0_3_0_2_0_4,-999,skipped,,169041.29999999702,,,169037.70000000298,,169041.5,2021-10-25T21:55:55.165Z,169079.657,1635198780,full,ni_sequenzen,NI_Sequenzen,5,2,,,,,,,,,,,,
,Move,canvas.Screen,0_3_0_2_0_5,-999,skipped,,169044,,,169037.70000000298,,169044.09999999404,2021-10-25T21:55:55.168Z,169079.657,1635198780,full,ni_sequenzen,NI_Sequenzen,6,2,,,,,,,,,,,,
,Move,canvas.Screen,0_3_0_2_0_6,-999,skipped,,169046.59999999404,,,169037.70000000298,,169046.70000000298,2021-10-25T21:55:55.170Z,169079.657,1635198780,full,ni_sequenzen,NI_Sequenzen,7,2,,,,,,,,,,,,
,Move,canvas.Screen,0_3_0_2_0_7,-999,skipped,,169049.89999999106,,,169037.70000000298,,169050,2021-10-25T21:55:55.174Z,169079.657,1635198780,full,ni_sequenzen,NI_Sequenzen,8,2,,,,,,,,,,,,
,Move,canvas.Screen,0_3_0_2_0_8,-999,skipped,,169052.29999999702,,,169037.70000000298,,169052.29999999702,2021-10-25T21:55:55.176Z,169079.657,1635198780,full,ni_sequenzen,NI_Sequenzen,9,2,,,,,,,,,,,,
,Move,canvas.Screen,0_3_0_2_0_9,-999,skipped,,169054.39999999106,,,169037.70000000298,,169054.5,2021-10-25T21:55:55.178Z,169079.657,1635198780,full,ni_sequenzen,NI_Sequenzen,10,2,,,,,,,,,,,,
,Move,canvas.Screen,0_3_0_2_0_10,-999,skipped,,169056.39999999106,,,169037.70000000298,,169056.39999999106,2021-10-25T21:55:55.180Z,169079.657,1635198780,full,ni_sequenzen,NI_Sequenzen,11,2,,,,,,,,,,,,
,Move,canvas.Screen,0_3_0_2_0_11,-999,skipped,,169057.79999999702,,,169037.70000000298,,169057.79999999702,2021-10-25T21:55:55.181Z,169079.657,1635198780,full,ni_sequenzen,NI_Sequenzen,12,2,,,,,,,,,,,,
,Move,canvas.Screen,0_3_0_2_0_12,-999,skipped,,169058.89999999106,,,169037.70000000298,,169059,2021-10-25T21:55:55.182Z,169079.657,1635198780,full,ni_sequenzen,NI_Sequenzen,13,2,,,,,,,,,,,,
,Move,canvas.Screen,0_3_0_2_0_13,-999,skipped,,169060.29999999702,,,169037.70000000298,,169060.39999999106,2021-10-25T21:55:55.184Z,169079.657,1635198780,full,ni_sequenzen,NI_Sequenzen,14,2,,,,,,,,,,,,
,Move,canvas.Screen,0_3_0_2_0_14,-999,skipped,,169061.09999999404,,,169037.70000000298,,169061.20000000298,2021-10-25T21:55:55.185Z,169079.657,1635198780,full,ni_sequenzen,NI_Sequenzen,15,2,,,,,,,,,,,,
,Loop,flow.Loop,0_3_0_2_0,-999,completion,,161029.89999999106,161029.941,161046.601,169037.70000000298,7991.099000002985,169061.29999999702,2021-10-25T21:55:55.185Z,169079.657,1635198780,full,ni_sequenzen,NI_Sequenzen,,2,,,,,,,,,,,,
,Feedback,canvas.Screen,0_3_0_2_1,,timeout,,169061.89999999106,169062.654,169079.657,173062.547,3999.5629999999946,173063.39999999106,2021-10-25T21:55:59.187Z,173079.22,1635198780,full,ni_sequenzen,NI_Sequenzen,,2,,,,,,,,,,,,
,Trial,flow.Sequence,0_3_0_2,,completion,,161015.09999999404,161029.941,161046.601,173062.547,12015.945999999996,173063.5,2021-10-25T21:55:59.187Z,173096.092,1635198780,full,ni_sequenzen,NI_Sequenzen,,2,,,,,,,,,,,,
,Move,canvas.Screen,0_3_0_3_0_0,down,response,,173079.59999999404,173079.22,173096.092,177311,4214.907999999996,177311.79999999702,2021-10-25T21:56:03.435Z,177328.978,1635198780,full,ni_sequenzen,NI_Sequenzen,1,3,,,,,,,,,,,,
,Move,canvas.Screen,0_3_0_3_0_1,left,response,,177315.09999999404,177314.082,177328.978,177811.29999999702,482.321999997017,177812.09999999404,2021-10-25T21:56:03.936Z,177828.855,1635198780,full,ni_sequenzen,NI_Sequenzen,2,3,,,,,,,,,,,,
,Move,canvas.Screen,0_3_0_3_0_2,down,response,,177815,177812.716,177828.855,178323.29999999702,494.4449999970093,178324.20000000298,2021-10-25T21:56:04.448Z,178350.272,1635198780,full,ni_sequenzen,NI_Sequenzen,3,3,,,,,,,,,,,,
,Move,canvas.Screen,0_3_0_3_0_3,left,response,,178327.20000000298,178312.565,178350.272,178832.79999999702,482.52799999702256,178833.39999999106,2021-10-25T21:56:04.957Z,178862.375,1635198780,full,ni_sequenzen,NI_Sequenzen,4,3,,,,,,,,,,,,
,Move,canvas.Screen,0_3_0_3_0_4,-999,skipped,,178837.09999999404,,,178832.79999999702,,178837.29999999702,2021-10-25T21:56:04.961Z,178862.375,1635198780,full,ni_sequenzen,NI_Sequenzen,5,3,,,,,,,,,,,,
,Move,canvas.Screen,0_3_0_3_0_5,-999,skipped,,178838.70000000298,,,178832.79999999702,,178838.79999999702,2021-10-25T21:56:04.962Z,178862.375,1635198780,full,ni_sequenzen,NI_Sequenzen,6,3,,,,,,,,,,,,
,Move,canvas.Screen,0_3_0_3_0_6,-999,skipped,,178839.59999999404,,,178832.79999999702,,178839.59999999404,2021-10-25T21:56:04.963Z,178862.375,1635198780,full,ni_sequenzen,NI_Sequenzen,7,3,,,,,,,,,,,,
,Move,canvas.Screen,0_3_0_3_0_7,-999,skipped,,178840.89999999106,,,178832.79999999702,,178840.89999999106,2021-10-25T21:56:04.964Z,178862.375,1635198780,full,ni_sequenzen,NI_Sequenzen,8,3,,,,,,,,,,,,
,Move,canvas.Screen,0_3_0_3_0_8,-999,skipped,,178841.70000000298,,,178832.79999999702,,178841.70000000298,2021-10-25T21:56:04.965Z,178862.375,1635198780,full,ni_sequenzen,NI_Sequenzen,9,3,,,,,,,,,,,,
,Move,canvas.Screen,0_3_0_3_0_9,-999,skipped,,178842.5,,,178832.79999999702,,178842.59999999404,2021-10-25T21:56:04.966Z,178862.375,1635198780,full,ni_sequenzen,NI_Sequenzen,10,3,,,,,,,,,,,,
,Move,canvas.Screen,0_3_0_3_0_10,-999,skipped,,178843.59999999404,,,178832.79999999702,,178843.59999999404,2021-10-25T21:56:04.967Z,178862.375,1635198780,full,ni_sequenzen,NI_Sequenzen,11,3,,,,,,,,,,,,
,Move,canvas.Screen,0_3_0_3_0_11,-999,skipped,,178844.5,,,178832.79999999702,,178844.59999999404,2021-10-25T21:56:04.968Z,178862.375,1635198780,full,ni_sequenzen,NI_Sequenzen,12,3,,,,,,,,,,,,
,Move,canvas.Screen,0_3_0_3_0_12,-999,skipped,,178845.39999999106,,,178832.79999999702,,178845.39999999106,2021-10-25T21:56:04.969Z,178862.375,1635198780,full,ni_sequenzen,NI_Sequenzen,13,3,,,,,,,,,,,,
,Move,canvas.Screen,0_3_0_3_0_13,-999,skipped,,178846.20000000298,,,178832.79999999702,,178846.20000000298,2021-10-25T21:56:04.970Z,178862.375,1635198780,full,ni_sequenzen,NI_Sequenzen,14,3,,,,,,,,,,,,
,Move,canvas.Screen,0_3_0_3_0_14,-999,skipped,,178847.29999999702,,,178832.79999999702,,178847.29999999702,2021-10-25T21:56:04.971Z,178862.375,1635198780,full,ni_sequenzen,NI_Sequenzen,15,3,,,,,,,,,,,,
,Loop,flow.Loop,0_3_0_3_0,-999,completion,,173076.89999999106,173079.22,173096.092,178832.79999999702,5736.707999997016,178847.39999999106,2021-10-25T21:56:04.971Z,178862.375,1635198780,full,ni_sequenzen,NI_Sequenzen,,3,,,,,,,,,,,,
,Feedback,canvas.Screen,0_3_0_3_1,,timeout,,178848.09999999404,178845.427,178862.375,182845.269,3999.5530000000144,182846.20000000298,2021-10-25T21:56:08.970Z,182861.928,1635198780,full,ni_sequenzen,NI_Sequenzen,,3,,,,,,,,,,,,
,Trial,flow.Sequence,0_3_0_3,,completion,,173063.89999999106,173079.22,173096.092,182845.269,9749.176999999996,182846.29999999702,2021-10-25T21:56:08.970Z,182878.815,1635198780,full,ni_sequenzen,NI_Sequenzen,,3,,,,,,,,,,,,
,Move,canvas.Screen,0_3_0_4_0_0,right,response,,182864.29999999702,182861.928,182878.815,191688.70000000298,8809.885000002978,191689.5,2021-10-25T21:56:17.813Z,191717.194,1635198780,full,ni_sequenzen,NI_Sequenzen,1,4,,,,,,,,,,,,
,Move,canvas.Screen,0_3_0_4_0_1,down,response,,191693.29999999702,191680.388,191717.194,192489.29999999702,772.1059999970312,192490,2021-10-25T21:56:18.614Z,192511.559,1635198780,full,ni_sequenzen,NI_Sequenzen,2,4,,,,,,,,,,,,
,Move,canvas.Screen,0_3_0_4_0_2,down,response,,192493.5,192478.094,192511.559,194777,2265.4409999999916,194777.70000000298,2021-10-25T21:56:20.901Z,194794.823,1635198780,full,ni_sequenzen,NI_Sequenzen,3,4,,,,,,,,,,,,
,Move,canvas.Screen,0_3_0_4_0_3,right,response,,194781,194777.887,194794.823,195534.20000000298,739.3770000029763,195534.89999999106,2021-10-25T21:56:21.658Z,195561.055,1635198780,full,ni_sequenzen,NI_Sequenzen,4,4,,,,,,,,,,,,
,Move,canvas.Screen,0_3_0_4_0_4,-999,skipped,,195538.5,,,195534.20000000298,,195538.59999999404,2021-10-25T21:56:21.662Z,195561.055,1635198780,full,ni_sequenzen,NI_Sequenzen,5,4,,,,,,,,,,,,
,Move,canvas.Screen,0_3_0_4_0_5,-999,skipped,,195540,,,195534.20000000298,,195540,2021-10-25T21:56:21.664Z,195561.055,1635198780,full,ni_sequenzen,NI_Sequenzen,6,4,,,,,,,,,,,,
,Move,canvas.Screen,0_3_0_4_0_6,-999,skipped,,195540.70000000298,,,195534.20000000298,,195540.70000000298,2021-10-25T21:56:21.664Z,195561.055,1635198780,full,ni_sequenzen,NI_Sequenzen,7,4,,,,,,,,,,,,
,Move,canvas.Screen,0_3_0_4_0_7,-999,skipped,,195541.5,,,195534.20000000298,,195541.59999999404,2021-10-25T21:56:21.665Z,195561.055,1635198780,full,ni_sequenzen,NI_Sequenzen,8,4,,,,,,,,,,,,
,Move,canvas.Screen,0_3_0_4_0_8,-999,skipped,,195542.70000000298,,,195534.20000000298,,195542.79999999702,2021-10-25T21:56:21.666Z,195561.055,1635198780,full,ni_sequenzen,NI_Sequenzen,9,4,,,,,,,,,,,,
,Move,canvas.Screen,0_3_0_4_0_9,-999,skipped,,195543.59999999404,,,195534.20000000298,,195543.59999999404,2021-10-25T21:56:21.667Z,195561.055,1635198780,full,ni_sequenzen,NI_Sequenzen,10,4,,,,,,,,,,,,
,Move,canvas.Screen,0_3_0_4_0_10,-999,skipped,,195544.5,,,195534.20000000298,,195544.5,2021-10-25T21:56:21.668Z,195561.055,1635198780,full,ni_sequenzen,NI_Sequenzen,11,4,,,,,,,,,,,,
,Move,canvas.Screen,0_3_0_4_0_11,-999,skipped,,195546.5,,,195534.20000000298,,195546.5,2021-10-25T21:56:21.670Z,195561.055,1635198780,full,ni_sequenzen,NI_Sequenzen,12,4,,,,,,,,,,,,
,Move,canvas.Screen,0_3_0_4_0_12,-999,skipped,,195547.39999999106,,,195534.20000000298,,195547.5,2021-10-25T21:56:21.671Z,195561.055,1635198780,full,ni_sequenzen,NI_Sequenzen,13,4,,,,,,,,,,,,
,Move,canvas.Screen,0_3_0_4_0_13,-999,skipped,,195548.29999999702,,,195534.20000000298,,195548.39999999106,2021-10-25T21:56:21.672Z,195561.055,1635198780,full,ni_sequenzen,NI_Sequenzen,14,4,,,,,,,,,,,,
,Move,canvas.Screen,0_3_0_4_0_14,-999,skipped,,195549.20000000298,,,195534.20000000298,,195549.20000000298,2021-10-25T21:56:21.673Z,195561.055,1635198780,full,ni_sequenzen,NI_Sequenzen,15,4,,,,,,,,,,,,
,Loop,flow.Loop,0_3_0_4_0,-999,completion,,182862.09999999404,182861.928,182878.815,195534.20000000298,12655.385000002978,195549.20000000298,2021-10-25T21:56:21.673Z,195561.055,1635198780,full,ni_sequenzen,NI_Sequenzen,,4,,,,,,,,,,,,
,Feedback,canvas.Screen,0_3_0_4_1,,timeout,,195550.59999999404,195544.766,195561.055,199545.013,3999.752999999997,199546,2021-10-25T21:56:25.669Z,199560.808,1635198780,full,ni_sequenzen,NI_Sequenzen,,4,,,,,,,,,,,,
,Trial,flow.Sequence,0_3_0_4,,completion,,182846.70000000298,182861.928,182878.815,199545.013,16666.198000000004,199546.09999999404,2021-10-25T21:56:25.670Z,199577.821,1635198780,full,ni_sequenzen,NI_Sequenzen,,4,,,,,,,,,,,,
,Move,canvas.Screen,0_3_0_5_0_0,down,response,,199562.5,199560.808,199577.821,203098.39999999106,3520.578999991063,203099.09999999404,2021-10-25T21:56:29.223Z,203110.815,1635198780,full,ni_sequenzen,NI_Sequenzen,1,5,,,,,,,,,,,,
,Move,canvas.Screen,0_3_0_5_0_1,right,response,,203102,203094.894,203110.815,203821.39999999106,710.584999991057,203822.09999999404,2021-10-25T21:56:29.946Z,203843.917,1635198780,full,ni_sequenzen,NI_Sequenzen,2,5,,,,,,,,,,,,
,Move,canvas.Screen,0_3_0_5_0_2,right,response,,203826.20000000298,203826.737,203843.917,205946.09999999404,2102.182999994053,205946.89999999106,2021-10-25T21:56:32.078Z,205960.676,1635198780,full,ni_sequenzen,NI_Sequenzen,3,5,,,,,,,,,,,,
,Move,canvas.Screen,0_3_0_5_0_3,down,response,,205950.29999999702,205942.653,205960.676,206462.70000000298,502.0240000029735,206463.39999999106,2021-10-25T21:56:32.594Z,206494.12,1635198780,full,ni_sequenzen,NI_Sequenzen,4,5,,,,,,,,,,,,
,Move,canvas.Screen,0_3_0_5_0_4,-999,skipped,,206468.39999999106,,,206462.70000000298,,206468.39999999106,2021-10-25T21:56:32.599Z,206494.12,1635198780,full,ni_sequenzen,NI_Sequenzen,5,5,,,,,,,,,,,,
,Move,canvas.Screen,0_3_0_5_0_5,-999,skipped,,206469.29999999702,,,206462.70000000298,,206469.39999999106,2021-10-25T21:56:32.600Z,206494.12,1635198780,full,ni_sequenzen,NI_Sequenzen,6,5,,,,,,,,,,,,
,Move,canvas.Screen,0_3_0_5_0_6,-999,skipped,,206470.59999999404,,,206462.70000000298,,206470.70000000298,2021-10-25T21:56:32.601Z,206494.12,1635198780,full,ni_sequenzen,NI_Sequenzen,7,5,,,,,,,,,,,,
,Move,canvas.Screen,0_3_0_5_0_7,-999,skipped,,206471.5,,,206462.70000000298,,206471.5,2021-10-25T21:56:32.602Z,206494.12,1635198780,full,ni_sequenzen,NI_Sequenzen,8,5,,,,,,,,,,,,
,Move,canvas.Screen,0_3_0_5_0_8,-999,skipped,,206472.29999999702,,,206462.70000000298,,206472.29999999702,2021-10-25T21:56:32.603Z,206494.12,1635198780,full,ni_sequenzen,NI_Sequenzen,9,5,,,,,,,,,,,,
,Move,canvas.Screen,0_3_0_5_0_9,-999,skipped,,206473.59999999404,,,206462.70000000298,,206473.59999999404,2021-10-25T21:56:32.604Z,206494.12,1635198780,full,ni_sequenzen,NI_Sequenzen,10,5,,,,,,,,,,,,
,Move,canvas.Screen,0_3_0_5_0_10,-999,skipped,,206474.5,,,206462.70000000298,,206474.5,2021-10-25T21:56:32.605Z,206494.12,1635198780,full,ni_sequenzen,NI_Sequenzen,11,5,,,,,,,,,,,,
,Move,canvas.Screen,0_3_0_5_0_11,-999,skipped,,206475.5,,,206462.70000000298,,206475.5,2021-10-25T21:56:32.606Z,206494.12,1635198780,full,ni_sequenzen,NI_Sequenzen,12,5,,,,,,,,,,,,
,Move,canvas.Screen,0_3_0_5_0_12,-999,skipped,,206476.29999999702,,,206462.70000000298,,206476.29999999702,2021-10-25T21:56:32.607Z,206494.12,1635198780,full,ni_sequenzen,NI_Sequenzen,13,5,,,,,,,,,,,,
,Move,canvas.Screen,0_3_0_5_0_13,-999,skipped,,206477.39999999106,,,206462.70000000298,,206477.39999999106,2021-10-25T21:56:32.608Z,206494.12,1635198780,full,ni_sequenzen,NI_Sequenzen,14,5,,,,,,,,,,,,
,Move,canvas.Screen,0_3_0_5_0_14,-999,skipped,,206478.20000000298,,,206462.70000000298,,206478.20000000298,2021-10-25T21:56:32.609Z,206494.12,1635198780,full,ni_sequenzen,NI_Sequenzen,15,5,,,,,,,,,,,,
,Loop,flow.Loop,0_3_0_5_0,-999,completion,,199560,199560.808,199577.821,206462.70000000298,6884.879000002984,206478.29999999702,2021-10-25T21:56:32.609Z,206494.12,1635198780,full,ni_sequenzen,NI_Sequenzen,,5,,,,,,,,,,,,
,Feedback,canvas.Screen,0_3_0_5_1,,timeout,,206479,206477.544,206494.12,210476.928,3999.396000000008,210479.20000000298,2021-10-25T21:56:36.610Z,210493.516,1635198780,full,ni_sequenzen,NI_Sequenzen,,5,,,,,,,,,,,,
,Trial,flow.Sequence,0_3_0_5,,completion,,199546.5,199560.808,199577.821,210476.928,10899.107000000018,210479.39999999106,2021-10-25T21:56:36.610Z,210510.451,1635198780,full,ni_sequenzen,NI_Sequenzen,,5,,,,,,,,,,,,
,Move,canvas.Screen,0_3_0_6_0_0,down,response,,210494.09999999404,210493.516,210510.451,214854.20000000298,4343.749000002979,214855.5,2021-10-25T21:56:40.986Z,214882.12,1635198780,full,ni_sequenzen,NI_Sequenzen,1,6,,,,,,,,,,,,
,Move,canvas.Screen,0_3_0_6_0_1,right,response,,214858.39999999106,214843.212,214882.12,216653,1770.8800000000047,216654.20000000298,2021-10-25T21:56:42.785Z,216659.839,1635198780,full,ni_sequenzen,NI_Sequenzen,2,6,,,,,,,,,,,,
,Move,canvas.Screen,0_3_0_6_0_2,right,response,,216657.79999999702,216643.972,216659.839,218069,1409.1609999999928,218069.70000000298,2021-10-25T21:56:44.200Z,218076.435,1635198780,full,ni_sequenzen,NI_Sequenzen,3,6,,,,,,,,,,,,
,Move,canvas.Screen,0_3_0_6_0_3,down,response,,218072.59999999404,218061.367,218076.435,218725.29999999702,648.8649999970221,218726.09999999404,2021-10-25T21:56:44.857Z,218764.782,1635198780,full,ni_sequenzen,NI_Sequenzen,4,6,,,,,,,,,,,,
,Move,canvas.Screen,0_3_0_6_0_4,-999,skipped,,218730,,,218725.29999999702,,218730.09999999404,2021-10-25T21:56:44.861Z,218764.782,1635198780,full,ni_sequenzen,NI_Sequenzen,5,6,,,,,,,,,,,,
,Move,canvas.Screen,0_3_0_6_0_5,-999,skipped,,218731.70000000298,,,218725.29999999702,,218731.79999999702,2021-10-25T21:56:44.862Z,218764.782,1635198780,full,ni_sequenzen,NI_Sequenzen,6,6,,,,,,,,,,,,
,Move,canvas.Screen,0_3_0_6_0_6,-999,skipped,,218732.5,,,218725.29999999702,,218732.59999999404,2021-10-25T21:56:44.863Z,218764.782,1635198780,full,ni_sequenzen,NI_Sequenzen,7,6,,,,,,,,,,,,
,Move,canvas.Screen,0_3_0_6_0_7,-999,skipped,,218733.79999999702,,,218725.29999999702,,218733.79999999702,2021-10-25T21:56:44.864Z,218764.782,1635198780,full,ni_sequenzen,NI_Sequenzen,8,6,,,,,,,,,,,,
,Move,canvas.Screen,0_3_0_6_0_8,-999,skipped,,218734.59999999404,,,218725.29999999702,,218734.70000000298,2021-10-25T21:56:44.865Z,218764.782,1635198780,full,ni_sequenzen,NI_Sequenzen,9,6,,,,,,,,,,,,
,Move,canvas.Screen,0_3_0_6_0_9,-999,skipped,,218735.39999999106,,,218725.29999999702,,218735.39999999106,2021-10-25T21:56:44.866Z,218764.782,1635198780,full,ni_sequenzen,NI_Sequenzen,10,6,,,,,,,,,,,,
,Move,canvas.Screen,0_3_0_6_0_10,-999,skipped,,218736.09999999404,,,218725.29999999702,,218736.20000000298,2021-10-25T21:56:44.867Z,218764.782,1635198780,full,ni_sequenzen,NI_Sequenzen,11,6,,,,,,,,,,,,
,Move,canvas.Screen,0_3_0_6_0_11,-999,skipped,,218737.39999999106,,,218725.29999999702,,218737.39999999106,2021-10-25T21:56:44.868Z,218764.782,1635198780,full,ni_sequenzen,NI_Sequenzen,12,6,,,,,,,,,,,,
,Move,canvas.Screen,0_3_0_6_0_12,-999,skipped,,218738.29999999702,,,218725.29999999702,,218738.29999999702,2021-10-25T21:56:44.869Z,218764.782,1635198780,full,ni_sequenzen,NI_Sequenzen,13,6,,,,,,,,,,,,
,Move,canvas.Screen,0_3_0_6_0_13,-999,skipped,,218739,,,218725.29999999702,,218739.09999999404,2021-10-25T21:56:44.870Z,218764.782,1635198780,full,ni_sequenzen,NI_Sequenzen,14,6,,,,,,,,,,,,
,Move,canvas.Screen,0_3_0_6_0_14,-999,skipped,,218740.29999999702,,,218725.29999999702,,218740.39999999106,2021-10-25T21:56:44.871Z,218764.782,1635198780,full,ni_sequenzen,NI_Sequenzen,15,6,,,,,,,,,,,,
,Loop,flow.Loop,0_3_0_6_0,-999,completion,,210492.09999999404,210493.516,210510.451,218725.29999999702,8214.848999997019,218740.39999999106,2021-10-25T21:56:44.871Z,218764.782,1635198780,full,ni_sequenzen,NI_Sequenzen,,6,,,,,,,,,,,,
,Feedback,canvas.Screen,0_3_0_6_1,,timeout,,218741.39999999106,218726.501,218764.782,222743.149,3994.664999999979,222744.59999999404,2021-10-25T21:56:48.875Z,222759.447,1635198780,full,ni_sequenzen,NI_Sequenzen,,6,,,,,,,,,,,,
,Trial,flow.Sequence,0_3_0_6,,completion,,210479.70000000298,210493.516,210510.451,222743.149,12232.698000000004,222744.79999999702,2021-10-25T21:56:48.875Z,222776.185,1635198780,full,ni_sequenzen,NI_Sequenzen,,6,,,,,,,,,,,,
,Move,canvas.Screen,0_3_0_7_0_0,down,response,,222762,222759.447,222776.185,223754.70000000298,978.5150000029826,223755.5,2021-10-25T21:56:49.886Z,223776.389,1635198780,full,ni_sequenzen,NI_Sequenzen,1,7,,,,,,,,,,,,
,Move,canvas.Screen,0_3_0_7_0_1,left,response,,223759.5,223759.709,223776.389,224594.70000000298,818.3110000029847,224595.39999999106,2021-10-25T21:56:50.726Z,224609.347,1635198780,full,ni_sequenzen,NI_Sequenzen,2,7,,,,,,,,,,,,
,Move,canvas.Screen,0_3_0_7_0_2,down,response,,224598.29999999702,224593.169,224609.347,225437.5,828.1529999999912,225438.29999999702,2021-10-25T21:56:51.569Z,225443.366,1635198780,full,ni_sequenzen,NI_Sequenzen,3,7,,,,,,,,,,,,
,Move,canvas.Screen,0_3_0_7_0_3,left,response,,225441.5,225426.184,225443.366,225773.89999999106,330.5339999910502,225774.70000000298,2021-10-25T21:56:51.905Z,225792.583,1635198780,full,ni_sequenzen,NI_Sequenzen,4,7,,,,,,,,,,,,
,Move,canvas.Screen,0_3_0_7_0_4,-999,skipped,,225778.20000000298,,,225773.89999999106,,225778.39999999106,2021-10-25T21:56:51.909Z,225792.583,1635198780,full,ni_sequenzen,NI_Sequenzen,5,7,,,,,,,,,,,,
,Move,canvas.Screen,0_3_0_7_0_5,-999,skipped,,225779.29999999702,,,225773.89999999106,,225779.39999999106,2021-10-25T21:56:51.910Z,225792.583,1635198780,full,ni_sequenzen,NI_Sequenzen,6,7,,,,,,,,,,,,
,Move,canvas.Screen,0_3_0_7_0_6,-999,skipped,,225780.5,,,225773.89999999106,,225780.5,2021-10-25T21:56:51.911Z,225792.583,1635198780,full,ni_sequenzen,NI_Sequenzen,7,7,,,,,,,,,,,,
,Move,canvas.Screen,0_3_0_7_0_7,-999,skipped,,225781.39999999106,,,225773.89999999106,,225781.39999999106,2021-10-25T21:56:51.912Z,225792.583,1635198780,full,ni_sequenzen,NI_Sequenzen,8,7,,,,,,,,,,,,
,Move,canvas.Screen,0_3_0_7_0_8,-999,skipped,,225782.39999999106,,,225773.89999999106,,225782.39999999106,2021-10-25T21:56:51.913Z,225792.583,1635198780,full,ni_sequenzen,NI_Sequenzen,9,7,,,,,,,,,,,,
,Move,canvas.Screen,0_3_0_7_0_9,-999,skipped,,225783.70000000298,,,225773.89999999106,,225783.70000000298,2021-10-25T21:56:51.914Z,225792.583,1635198780,full,ni_sequenzen,NI_Sequenzen,10,7,,,,,,,,,,,,
,Move,canvas.Screen,0_3_0_7_0_10,-999,skipped,,225784.70000000298,,,225773.89999999106,,225784.70000000298,2021-10-25T21:56:51.915Z,225792.583,1635198780,full,ni_sequenzen,NI_Sequenzen,11,7,,,,,,,,,,,,
,Move,canvas.Screen,0_3_0_7_0_11,-999,skipped,,225785.5,,,225773.89999999106,,225785.5,2021-10-25T21:56:51.916Z,225792.583,1635198780,full,ni_sequenzen,NI_Sequenzen,12,7,,,,,,,,,,,,
,Move,canvas.Screen,0_3_0_7_0_12,-999,skipped,,225786.20000000298,,,225773.89999999106,,225786.29999999702,2021-10-25T21:56:51.917Z,225792.583,1635198780,full,ni_sequenzen,NI_Sequenzen,13,7,,,,,,,,,,,,
,Move,canvas.Screen,0_3_0_7_0_13,-999,skipped,,225787.39999999106,,,225773.89999999106,,225787.39999999106,2021-10-25T21:56:51.918Z,225792.583,1635198780,full,ni_sequenzen,NI_Sequenzen,14,7,,,,,,,,,,,,
,Move,canvas.Screen,0_3_0_7_0_14,-999,skipped,,225788.20000000298,,,225773.89999999106,,225788.20000000298,2021-10-25T21:56:51.919Z,225792.583,1635198780,full,ni_sequenzen,NI_Sequenzen,15,7,,,,,,,,,,,,
,Loop,flow.Loop,0_3_0_7_0,-999,completion,,222759.20000000298,222759.447,222776.185,225773.89999999106,2997.7149999910616,225788.29999999702,2021-10-25T21:56:51.919Z,225792.583,1635198780,full,ni_sequenzen,NI_Sequenzen,,7,,,,,,,,,,,,
,Feedback,canvas.Screen,0_3_0_7_1,,timeout,,225788.89999999106,225775.998,225792.583,229775.881,3999.782999999996,229777.29999999702,2021-10-25T21:56:55.908Z,229792.366,1635198780,full,ni_sequenzen,NI_Sequenzen,,7,,,,,,,,,,,,
,Trial,flow.Sequence,0_3_0_7,,completion,,222745.09999999404,222759.447,222776.185,229775.881,6999.695999999996,229777.39999999106,2021-10-25T21:56:55.908Z,229809.045,1635198780,full,ni_sequenzen,NI_Sequenzen,,7,,,,,,,,,,,,
,Move,canvas.Screen,0_3_0_8_0_0,down,response,,229791.09999999404,229792.366,229809.045,231251.89999999106,1442.8549999910465,231252.59999999404,2021-10-25T21:56:57.383Z,231259.113,1635198780,full,ni_sequenzen,NI_Sequenzen,1,8,,,,,,,,,,,,
,Move,canvas.Screen,0_3_0_8_0_1,right,response,,231255.59999999404,231244.302,231259.113,231669.29999999702,410.18699999700766,231670.20000000298,2021-10-25T21:56:57.801Z,231675.685,1635198780,full,ni_sequenzen,NI_Sequenzen,2,8,,,,,,,,,,,,
,Move,canvas.Screen,0_3_0_8_0_2,right,response,,231673.5,231659.125,231675.685,232074.70000000298,399.01500000298256,232075.39999999106,2021-10-25T21:56:58.206Z,232092.574,1635198780,full,ni_sequenzen,NI_Sequenzen,3,8,,,,,,,,,,,,
,Move,canvas.Screen,0_3_0_8_0_3,down,response,,232078.20000000298,232075.366,232092.574,232457.70000000298,365.126000002987,232458.39999999106,2021-10-25T21:56:58.589Z,232492.374,1635198780,full,ni_sequenzen,NI_Sequenzen,4,8,,,,,,,,,,,,
,Move,canvas.Screen,0_3_0_8_0_4,-999,skipped,,232461.70000000298,,,232457.70000000298,,232461.89999999106,2021-10-25T21:56:58.593Z,232492.374,1635198780,full,ni_sequenzen,NI_Sequenzen,5,8,,,,,,,,,,,,
,Move,canvas.Screen,0_3_0_8_0_5,-999,skipped,,232464.39999999106,,,232457.70000000298,,232464.59999999404,2021-10-25T21:56:58.595Z,232492.374,1635198780,full,ni_sequenzen,NI_Sequenzen,6,8,,,,,,,,,,,,
,Move,canvas.Screen,0_3_0_8_0_6,-999,skipped,,232467.09999999404,,,232457.70000000298,,232467.20000000298,2021-10-25T21:56:58.598Z,232492.374,1635198780,full,ni_sequenzen,NI_Sequenzen,7,8,,,,,,,,,,,,
,Move,canvas.Screen,0_3_0_8_0_7,-999,skipped,,232470.39999999106,,,232457.70000000298,,232470.59999999404,2021-10-25T21:56:58.601Z,232492.374,1635198780,full,ni_sequenzen,NI_Sequenzen,8,8,,,,,,,,,,,,
,Move,canvas.Screen,0_3_0_8_0_8,-999,skipped,,232473,,,232457.70000000298,,232473.09999999404,2021-10-25T21:56:58.604Z,232492.374,1635198780,full,ni_sequenzen,NI_Sequenzen,9,8,,,,,,,,,,,,
,Move,canvas.Screen,0_3_0_8_0_9,-999,skipped,,232475.5,,,232457.70000000298,,232475.59999999404,2021-10-25T21:56:58.606Z,232492.374,1635198780,full,ni_sequenzen,NI_Sequenzen,10,8,,,,,,,,,,,,
,Move,canvas.Screen,0_3_0_8_0_10,-999,skipped,,232477.79999999702,,,232457.70000000298,,232477.79999999702,2021-10-25T21:56:58.608Z,232492.374,1635198780,full,ni_sequenzen,NI_Sequenzen,11,8,,,,,,,,,,,,
,Move,canvas.Screen,0_3_0_8_0_11,-999,skipped,,232479.09999999404,,,232457.70000000298,,232479.09999999404,2021-10-25T21:56:58.610Z,232492.374,1635198780,full,ni_sequenzen,NI_Sequenzen,12,8,,,,,,,,,,,,
,Move,canvas.Screen,0_3_0_8_0_12,-999,skipped,,232480.29999999702,,,232457.70000000298,,232480.39999999106,2021-10-25T21:56:58.611Z,232492.374,1635198780,full,ni_sequenzen,NI_Sequenzen,13,8,,,,,,,,,,,,
,Move,canvas.Screen,0_3_0_8_0_13,-999,skipped,,232481.29999999702,,,232457.70000000298,,232481.29999999702,2021-10-25T21:56:58.612Z,232492.374,1635198780,full,ni_sequenzen,NI_Sequenzen,14,8,,,,,,,,,,,,
