meta,sender,sender_type,sender_id,response,ended_on,instrCount,time_run,time_render,time_show,time_end,duration,time_commit,timestamp,time_switch,openLabId,type,task,project,move,trialN,blockN_Train,blockN,moveCount,currPP,points,movesTrial,visitedFields,diff,reward,Strategie,Zweck,Probleme
[object Object],Screen_1,canvas.Screen,0_0_0_0,cont,response,1,1044.0999999046326,1040.709,1190.73,7957.199999809265,6766.469999809266,7963.299999952316,2021-10-26T15:04:17.017Z,8124.049,1635260630,full,ni_sequenzen,NI_Sequenzen,,,,,,,,,,,,,,
,Screen_2,canvas.Screen,0_0_0_1,cont,response,1,8097.599999904633,8090.809,8124.049,16412.299999952316,8288.250999952317,16413.39999985695,2021-10-26T15:04:25.467Z,16545.236,1635260630,full,ni_sequenzen,NI_Sequenzen,,,,,,,,,,,,,,
,Screen_3,canvas.Screen,0_0_0_2,cont,response,1,16505.89999985695,16490.427,16545.236,25496.39999985695,8951.163999856948,25497.599999904633,2021-10-26T15:04:34.551Z,25507.233,1635260630,full,ni_sequenzen,NI_Sequenzen,,,,,,,,,,,,,,
,Screen_4,canvas.Screen,0_0_0_3,cont,response,1,25503.89999985695,25490.461,25507.233,29528.89999985695,4021.6669998569487,29530.099999904633,2021-10-26T15:04:38.584Z,29757.25,1635260630,full,ni_sequenzen,NI_Sequenzen,,,,,,,,,,,,,,
,Sequence,flow.Sequence,0_0_0,,completion,1,972.5,1040.709,1190.73,29528.89999985695,28338.16999985695,29535.89999985695,2021-10-26T15:04:38.590Z,29757.25,1635260630,full,ni_sequenzen,NI_Sequenzen,,,,,,,,,,,,,,
,Screen_1,canvas.Screen,0_0_1_0,,skipped,2,29540.39999985695,,,29540.5,,29540.699999809265,2021-10-26T15:04:38.594Z,29757.25,1635260630,full,ni_sequenzen,NI_Sequenzen,,,,,,,,,,,,,,
,Screen_2,canvas.Screen,0_0_1_1,,skipped,2,29542.89999985695,,,29540.5,,29543,2021-10-26T15:04:38.597Z,29757.25,1635260630,full,ni_sequenzen,NI_Sequenzen,,,,,,,,,,,,,,
,Screen_3,canvas.Screen,0_0_1_2,,skipped,2,29545.39999985695,,,29540.5,,29545.599999904633,2021-10-26T15:04:38.599Z,29757.25,1635260630,full,ni_sequenzen,NI_Sequenzen,,,,,,,,,,,,,,
,Screen_4,canvas.Screen,0_0_1_3,,skipped,2,29547.799999952316,,,29540.5,,29548.099999904633,2021-10-26T15:04:38.602Z,29757.25,1635260630,full,ni_sequenzen,NI_Sequenzen,,,,,,,,,,,,,,
,Sequence,flow.Sequence,0_0_1,,completion,2,29537.699999809265,,,29540.5,,29548.5,2021-10-26T15:04:38.602Z,29757.25,1635260630,full,ni_sequenzen,NI_Sequenzen,,,,,,,,,,,,,,
,Screen_1,canvas.Screen,0_0_2_0,,skipped,3,29550.89999985695,,,29550.89999985695,,29551.099999904633,2021-10-26T15:04:38.605Z,29757.25,1635260630,full,ni_sequenzen,NI_Sequenzen,,,,,,,,,,,,,,
,Screen_2,canvas.Screen,0_0_2_1,,skipped,3,29552.699999809265,,,29550.89999985695,,29552.89999985695,2021-10-26T15:04:38.607Z,29757.25,1635260630,full,ni_sequenzen,NI_Sequenzen,,,,,,,,,,,,,,
,Screen_3,canvas.Screen,0_0_2_2,,skipped,3,29555,,,29550.89999985695,,29555.199999809265,2021-10-26T15:04:38.609Z,29757.25,1635260630,full,ni_sequenzen,NI_Sequenzen,,,,,,,,,,,,,,
,Screen_4,canvas.Screen,0_0_2_3,,skipped,3,29557,,,29550.89999985695,,29557,2021-10-26T15:04:38.611Z,29757.25,1635260630,full,ni_sequenzen,NI_Sequenzen,,,,,,,,,,,,,,
,Sequence,flow.Sequence,0_0_2,,completion,3,29549.299999952316,,,29550.89999985695,,29557.299999952316,2021-10-26T15:04:38.611Z,29757.25,1635260630,full,ni_sequenzen,NI_Sequenzen,,,,,,,,,,,,,,
,Screen_1,canvas.Screen,0_0_3_0,,skipped,4,29559.5,,,29559.599999904633,,29559.699999809265,2021-10-26T15:04:38.614Z,29757.25,1635260630,full,ni_sequenzen,NI_Sequenzen,,,,,,,,,,,,,,
,Screen_2,canvas.Screen,0_0_3_1,,skipped,4,29561.39999985695,,,29559.599999904633,,29561.5,2021-10-26T15:04:38.615Z,29757.25,1635260630,full,ni_sequenzen,NI_Sequenzen,,,,,,,,,,,,,,
,Screen_3,canvas.Screen,0_0_3_2,,skipped,4,29563.199999809265,,,29559.599999904633,,29563.39999985695,2021-10-26T15:04:38.617Z,29757.25,1635260630,full,ni_sequenzen,NI_Sequenzen,,,,,,,,,,,,,,
,Screen_4,canvas.Screen,0_0_3_3,,skipped,4,29565.199999809265,,,29559.599999904633,,29565.39999985695,2021-10-26T15:04:38.619Z,29757.25,1635260630,full,ni_sequenzen,NI_Sequenzen,,,,,,,,,,,,,,
,Sequence,flow.Sequence,0_0_3,,completion,4,29558,,,29559.599999904633,,29565.599999904633,2021-10-26T15:04:38.619Z,29757.25,1635260630,full,ni_sequenzen,NI_Sequenzen,,,,,,,,,,,,,,
,Screen_1,canvas.Screen,0_0_4_0,,skipped,5,29567.799999952316,,,29567.799999952316,,29568,2021-10-26T15:04:38.622Z,29757.25,1635260630,full,ni_sequenzen,NI_Sequenzen,,,,,,,,,,,,,,
,Screen_2,canvas.Screen,0_0_4_1,,skipped,5,29571.199999809265,,,29567.799999952316,,29571.39999985695,2021-10-26T15:04:38.625Z,29757.25,1635260630,full,ni_sequenzen,NI_Sequenzen,,,,,,,,,,,,,,
,Screen_3,canvas.Screen,0_0_4_2,,skipped,5,29573.199999809265,,,29567.799999952316,,29573.299999952316,2021-10-26T15:04:38.627Z,29757.25,1635260630,full,ni_sequenzen,NI_Sequenzen,,,,,,,,,,,,,,
,Screen_4,canvas.Screen,0_0_4_3,,skipped,5,29575,,,29567.799999952316,,29575.099999904633,2021-10-26T15:04:38.629Z,29757.25,1635260630,full,ni_sequenzen,NI_Sequenzen,,,,,,,,,,,,,,
,Sequence,flow.Sequence,0_0_4,,completion,5,29566.299999952316,,,29567.799999952316,,29575.39999985695,2021-10-26T15:04:38.629Z,29757.25,1635260630,full,ni_sequenzen,NI_Sequenzen,,,,,,,,,,,,,,
,Screen_1,canvas.Screen,0_0_5_0,,skipped,6,29577.799999952316,,,29577.799999952316,,29578,2021-10-26T15:04:38.632Z,29757.25,1635260630,full,ni_sequenzen,NI_Sequenzen,,,,,,,,,,,,,,
,Screen_2,canvas.Screen,0_0_5_1,,skipped,6,29579.599999904633,,,29577.799999952316,,29579.699999809265,2021-10-26T15:04:38.634Z,29757.25,1635260630,full,ni_sequenzen,NI_Sequenzen,,,,,,,,,,,,,,
,Screen_3,canvas.Screen,0_0_5_2,,skipped,6,29581.699999809265,,,29577.799999952316,,29581.799999952316,2021-10-26T15:04:38.636Z,29757.25,1635260630,full,ni_sequenzen,NI_Sequenzen,,,,,,,,,,,,,,
,Screen_4,canvas.Screen,0_0_5_3,,skipped,6,29583.39999985695,,,29577.799999952316,,29583.599999904633,2021-10-26T15:04:38.637Z,29757.25,1635260630,full,ni_sequenzen,NI_Sequenzen,,,,,,,,,,,,,,
,Sequence,flow.Sequence,0_0_5,,completion,6,29576.099999904633,,,29577.799999952316,,29583.89999985695,2021-10-26T15:04:38.638Z,29757.25,1635260630,full,ni_sequenzen,NI_Sequenzen,,,,,,,,,,,,,,
,Screen_1,canvas.Screen,0_0_6_0,,skipped,7,29586.099999904633,,,29586.099999904633,,29586.199999809265,2021-10-26T15:04:38.640Z,29757.25,1635260630,full,ni_sequenzen,NI_Sequenzen,,,,,,,,,,,,,,
,Screen_2,canvas.Screen,0_0_6_1,,skipped,7,29587.89999985695,,,29586.099999904633,,29588,2021-10-26T15:04:38.642Z,29757.25,1635260630,full,ni_sequenzen,NI_Sequenzen,,,,,,,,,,,,,,
,Screen_3,canvas.Screen,0_0_6_2,,skipped,7,29589.699999809265,,,29586.099999904633,,29589.89999985695,2021-10-26T15:04:38.644Z,29757.25,1635260630,full,ni_sequenzen,NI_Sequenzen,,,,,,,,,,,,,,
,Screen_4,canvas.Screen,0_0_6_3,,skipped,7,29591.599999904633,,,29586.099999904633,,29591.699999809265,2021-10-26T15:04:38.646Z,29757.25,1635260630,full,ni_sequenzen,NI_Sequenzen,,,,,,,,,,,,,,
,Sequence,flow.Sequence,0_0_6,,completion,7,29584.599999904633,,,29586.099999904633,,29592,2021-10-26T15:04:38.646Z,29757.25,1635260630,full,ni_sequenzen,NI_Sequenzen,,,,,,,,,,,,,,
,Screen_1,canvas.Screen,0_0_7_0,,skipped,8,29594.199999809265,,,29594.199999809265,,29594.39999985695,2021-10-26T15:04:38.648Z,29757.25,1635260630,full,ni_sequenzen,NI_Sequenzen,,,,,,,,,,,,,,
,Screen_2,canvas.Screen,0_0_7_1,,skipped,8,29596,,,29594.199999809265,,29596.099999904633,2021-10-26T15:04:38.650Z,29757.25,1635260630,full,ni_sequenzen,NI_Sequenzen,,,,,,,,,,,,,,
,Screen_3,canvas.Screen,0_0_7_2,,skipped,8,29600.099999904633,,,29594.199999809265,,29600.299999952316,2021-10-26T15:04:38.654Z,29757.25,1635260630,full,ni_sequenzen,NI_Sequenzen,,,,,,,,,,,,,,
,Screen_4,canvas.Screen,0_0_7_3,,skipped,8,29602.099999904633,,,29594.199999809265,,29602.299999952316,2021-10-26T15:04:38.656Z,29757.25,1635260630,full,ni_sequenzen,NI_Sequenzen,,,,,,,,,,,,,,
,Sequence,flow.Sequence,0_0_7,,completion,8,29592.699999809265,,,29594.199999809265,,29602.5,2021-10-26T15:04:38.656Z,29757.25,1635260630,full,ni_sequenzen,NI_Sequenzen,,,,,,,,,,,,,,
,Screen_1,canvas.Screen,0_0_8_0,,skipped,9,29604.699999809265,,,29604.699999809265,,29604.89999985695,2021-10-26T15:04:38.659Z,29757.25,1635260630,full,ni_sequenzen,NI_Sequenzen,,,,,,,,,,,,,,
,Screen_2,canvas.Screen,0_0_8_1,,skipped,9,29606.5,,,29604.699999809265,,29606.599999904633,2021-10-26T15:04:38.660Z,29757.25,1635260630,full,ni_sequenzen,NI_Sequenzen,,,,,,,,,,,,,,
,Screen_3,canvas.Screen,0_0_8_2,,skipped,9,29608.299999952316,,,29604.699999809265,,29608.5,2021-10-26T15:04:38.662Z,29757.25,1635260630,full,ni_sequenzen,NI_Sequenzen,,,,,,,,,,,,,,
,Screen_4,canvas.Screen,0_0_8_3,,skipped,9,29610.099999904633,,,29604.699999809265,,29610.299999952316,2021-10-26T15:04:38.664Z,29757.25,1635260630,full,ni_sequenzen,NI_Sequenzen,,,,,,,,,,,,,,
,Sequence,flow.Sequence,0_0_8,,completion,9,29603.199999809265,,,29604.699999809265,,29610.5,2021-10-26T15:04:38.664Z,29757.25,1635260630,full,ni_sequenzen,NI_Sequenzen,,,,,,,,,,,,,,
,Screen_1,canvas.Screen,0_0_9_0,,skipped,10,29613.099999904633,,,29613.099999904633,,29613.299999952316,2021-10-26T15:04:38.667Z,29757.25,1635260630,full,ni_sequenzen,NI_Sequenzen,,,,,,,,,,,,,,
,Screen_2,canvas.Screen,0_0_9_1,,skipped,10,29615,,,29613.099999904633,,29615.199999809265,2021-10-26T15:04:38.669Z,29757.25,1635260630,full,ni_sequenzen,NI_Sequenzen,,,,,,,,,,,,,,
,Screen_3,canvas.Screen,0_0_9_2,,skipped,10,29617.199999809265,,,29613.099999904633,,29617.299999952316,2021-10-26T15:04:38.671Z,29757.25,1635260630,full,ni_sequenzen,NI_Sequenzen,,,,,,,,,,,,,,
,Screen_4,canvas.Screen,0_0_9_3,,skipped,10,29619.199999809265,,,29613.099999904633,,29619.299999952316,2021-10-26T15:04:38.673Z,29757.25,1635260630,full,ni_sequenzen,NI_Sequenzen,,,,,,,,,,,,,,
,Sequence,flow.Sequence,0_0_9,,completion,10,29611.5,,,29613.099999904633,,29619.5,2021-10-26T15:04:38.673Z,29757.25,1635260630,full,ni_sequenzen,NI_Sequenzen,,,,,,,,,,,,,,
,Screen_1,canvas.Screen,0_0_10_0,,skipped,11,29622,,,29622,,29622.099999904633,2021-10-26T15:04:38.676Z,29757.25,1635260630,full,ni_sequenzen,NI_Sequenzen,,,,,,,,,,,,,,
,Screen_2,canvas.Screen,0_0_10_1,,skipped,11,29623.799999952316,,,29622,,29623.89999985695,2021-10-26T15:04:38.678Z,29757.25,1635260630,full,ni_sequenzen,NI_Sequenzen,,,,,,,,,,,,,,
,Screen_3,canvas.Screen,0_0_10_2,,skipped,11,29625.5,,,29622,,29625.699999809265,2021-10-26T15:04:38.679Z,29757.25,1635260630,full,ni_sequenzen,NI_Sequenzen,,,,,,,,,,,,,,
,Screen_4,canvas.Screen,0_0_10_3,,skipped,11,29629.199999809265,,,29622,,29629.299999952316,2021-10-26T15:04:38.683Z,29757.25,1635260630,full,ni_sequenzen,NI_Sequenzen,,,,,,,,,,,,,,
,Sequence,flow.Sequence,0_0_10,,completion,11,29620.39999985695,,,29622,,29629.599999904633,2021-10-26T15:04:38.683Z,29757.25,1635260630,full,ni_sequenzen,NI_Sequenzen,,,,,,,,,,,,,,
,Screen_1,canvas.Screen,0_0_11_0,,skipped,12,29635.699999809265,,,29635.799999952316,,29635.89999985695,2021-10-26T15:04:38.690Z,29757.25,1635260630,full,ni_sequenzen,NI_Sequenzen,,,,,,,,,,,,,,
,Screen_2,canvas.Screen,0_0_11_1,,skipped,12,29637.699999809265,,,29635.799999952316,,29637.89999985695,2021-10-26T15:04:38.692Z,29757.25,1635260630,full,ni_sequenzen,NI_Sequenzen,,,,,,,,,,,,,,
,Screen_3,canvas.Screen,0_0_11_2,,skipped,12,29639.89999985695,,,29635.799999952316,,29640.099999904633,2021-10-26T15:04:38.694Z,29757.25,1635260630,full,ni_sequenzen,NI_Sequenzen,,,,,,,,,,,,,,
,Screen_4,canvas.Screen,0_0_11_3,,skipped,12,29641.799999952316,,,29635.799999952316,,29642,2021-10-26T15:04:38.696Z,29757.25,1635260630,full,ni_sequenzen,NI_Sequenzen,,,,,,,,,,,,,,
,Sequence,flow.Sequence,0_0_11,,completion,12,29631.699999809265,,,29635.799999952316,,29642.199999809265,2021-10-26T15:04:38.696Z,29757.25,1635260630,full,ni_sequenzen,NI_Sequenzen,,,,,,,,,,,,,,
,Screen_1,canvas.Screen,0_0_12_0,,skipped,13,29644.599999904633,,,29644.599999904633,,29644.699999809265,2021-10-26T15:04:38.699Z,29757.25,1635260630,full,ni_sequenzen,NI_Sequenzen,,,,,,,,,,,,,,
,Screen_2,canvas.Screen,0_0_12_1,,skipped,13,29646.39999985695,,,29644.599999904633,,29646.5,2021-10-26T15:04:38.700Z,29757.25,1635260630,full,ni_sequenzen,NI_Sequenzen,,,,,,,,,,,,,,
,Screen_3,canvas.Screen,0_0_12_2,,skipped,13,29648.199999809265,,,29644.599999904633,,29648.299999952316,2021-10-26T15:04:38.702Z,29757.25,1635260630,full,ni_sequenzen,NI_Sequenzen,,,,,,,,,,,,,,
,Screen_4,canvas.Screen,0_0_12_3,,skipped,13,29650.599999904633,,,29644.599999904633,,29650.699999809265,2021-10-26T15:04:38.704Z,29757.25,1635260630,full,ni_sequenzen,NI_Sequenzen,,,,,,,,,,,,,,
,Sequence,flow.Sequence,0_0_12,,completion,13,29643,,,29644.599999904633,,29651,2021-10-26T15:04:38.705Z,29757.25,1635260630,full,ni_sequenzen,NI_Sequenzen,,,,,,,,,,,,,,
,Screen_1,canvas.Screen,0_0_13_0,,skipped,14,29653.299999952316,,,29653.299999952316,,29653.39999985695,2021-10-26T15:04:38.707Z,29757.25,1635260630,full,ni_sequenzen,NI_Sequenzen,,,,,,,,,,,,,,
,Screen_2,canvas.Screen,0_0_13_1,,skipped,14,29655,,,29653.299999952316,,29655.099999904633,2021-10-26T15:04:38.709Z,29757.25,1635260630,full,ni_sequenzen,NI_Sequenzen,,,,,,,,,,,,,,
,Screen_3,canvas.Screen,0_0_13_2,,skipped,14,29656.799999952316,,,29653.299999952316,,29656.89999985695,2021-10-26T15:04:38.711Z,29757.25,1635260630,full,ni_sequenzen,NI_Sequenzen,,,,,,,,,,,,,,
,Screen_4,canvas.Screen,0_0_13_3,,skipped,14,29658.599999904633,,,29653.299999952316,,29658.699999809265,2021-10-26T15:04:38.712Z,29757.25,1635260630,full,ni_sequenzen,NI_Sequenzen,,,,,,,,,,,,,,
,Sequence,flow.Sequence,0_0_13,,completion,14,29651.699999809265,,,29653.299999952316,,29658.89999985695,2021-10-26T15:04:38.713Z,29757.25,1635260630,full,ni_sequenzen,NI_Sequenzen,,,,,,,,,,,,,,
,Screen_1,canvas.Screen,0_0_14_0,,skipped,15,29662.699999809265,,,29662.799999952316,,29662.89999985695,2021-10-26T15:04:38.717Z,29757.25,1635260630,full,ni_sequenzen,NI_Sequenzen,,,,,,,,,,,,,,
,Screen_2,canvas.Screen,0_0_14_1,,skipped,15,29664.599999904633,,,29662.799999952316,,29664.799999952316,2021-10-26T15:04:38.719Z,29757.25,1635260630,full,ni_sequenzen,NI_Sequenzen,,,,,,,,,,,,,,
,Screen_3,canvas.Screen,0_0_14_2,,skipped,15,29666.39999985695,,,29662.799999952316,,29666.5,2021-10-26T15:04:38.720Z,29757.25,1635260630,full,ni_sequenzen,NI_Sequenzen,,,,,,,,,,,,,,
,Screen_4,canvas.Screen,0_0_14_3,,skipped,15,29668.199999809265,,,29662.799999952316,,29668.299999952316,2021-10-26T15:04:38.722Z,29757.25,1635260630,full,ni_sequenzen,NI_Sequenzen,,,,,,,,,,,,,,
,Sequence,flow.Sequence,0_0_14,,completion,15,29659.599999904633,,,29662.799999952316,,29668.799999952316,2021-10-26T15:04:38.723Z,29757.25,1635260630,full,ni_sequenzen,NI_Sequenzen,,,,,,,,,,,,,,
,Screen_1,canvas.Screen,0_0_15_0,,skipped,16,29671,,,29671,,29671.199999809265,2021-10-26T15:04:38.725Z,29757.25,1635260630,full,ni_sequenzen,NI_Sequenzen,,,,,,,,,,,,,,
,Screen_2,canvas.Screen,0_0_15_1,,skipped,16,29673.699999809265,,,29671,,29673.799999952316,2021-10-26T15:04:38.728Z,29757.25,1635260630,full,ni_sequenzen,NI_Sequenzen,,,,,,,,,,,,,,
,Screen_3,canvas.Screen,0_0_15_2,,skipped,16,29677.799999952316,,,29671,,29678,2021-10-26T15:04:38.732Z,29757.25,1635260630,full,ni_sequenzen,NI_Sequenzen,,,,,,,,,,,,,,
,Screen_4,canvas.Screen,0_0_15_3,,skipped,16,29679.799999952316,,,29671,,29679.89999985695,2021-10-26T15:04:38.734Z,29757.25,1635260630,full,ni_sequenzen,NI_Sequenzen,,,,,,,,,,,,,,
,Sequence,flow.Sequence,0_0_15,,completion,16,29669.5,,,29671,,29680.299999952316,2021-10-26T15:04:38.734Z,29757.25,1635260630,full,ni_sequenzen,NI_Sequenzen,,,,,,,,,,,,,,
,Screen_1,canvas.Screen,0_0_16_0,,skipped,17,29682.699999809265,,,29682.699999809265,,29682.89999985695,2021-10-26T15:04:38.737Z,29757.25,1635260630,full,ni_sequenzen,NI_Sequenzen,,,,,,,,,,,,,,
,Screen_2,canvas.Screen,0_0_16_1,,skipped,17,29684.39999985695,,,29682.699999809265,,29684.599999904633,2021-10-26T15:04:38.738Z,29757.25,1635260630,full,ni_sequenzen,NI_Sequenzen,,,,,,,,,,,,,,
,Screen_3,canvas.Screen,0_0_16_2,,skipped,17,29686.099999904633,,,29682.699999809265,,29686.299999952316,2021-10-26T15:04:38.740Z,29757.25,1635260630,full,ni_sequenzen,NI_Sequenzen,,,,,,,,,,,,,,
,Screen_4,canvas.Screen,0_0_16_3,,skipped,17,29688,,,29682.699999809265,,29688.099999904633,2021-10-26T15:04:38.742Z,29757.25,1635260630,full,ni_sequenzen,NI_Sequenzen,,,,,,,,,,,,,,
,Sequence,flow.Sequence,0_0_16,,completion,17,29681,,,29682.699999809265,,29688.299999952316,2021-10-26T15:04:38.742Z,29757.25,1635260630,full,ni_sequenzen,NI_Sequenzen,,,,,,,,,,,,,,
,Screen_1,canvas.Screen,0_0_17_0,,skipped,18,29690.5,,,29690.5,,29690.699999809265,2021-10-26T15:04:38.744Z,29757.25,1635260630,full,ni_sequenzen,NI_Sequenzen,,,,,,,,,,,,,,
,Screen_2,canvas.Screen,0_0_17_1,,skipped,18,29692.199999809265,,,29690.5,,29692.299999952316,2021-10-26T15:04:38.746Z,29757.25,1635260630,full,ni_sequenzen,NI_Sequenzen,,,,,,,,,,,,,,
,Screen_3,canvas.Screen,0_0_17_2,,skipped,18,29693.89999985695,,,29690.5,,29695.799999952316,2021-10-26T15:04:38.750Z,29757.25,1635260630,full,ni_sequenzen,NI_Sequenzen,,,,,,,,,,,,,,
,Screen_4,canvas.Screen,0_0_17_3,,skipped,18,29697.699999809265,,,29690.5,,29697.799999952316,2021-10-26T15:04:38.752Z,29757.25,1635260630,full,ni_sequenzen,NI_Sequenzen,,,,,,,,,,,,,,
,Sequence,flow.Sequence,0_0_17,,completion,18,29689,,,29690.5,,29698,2021-10-26T15:04:38.752Z,29757.25,1635260630,full,ni_sequenzen,NI_Sequenzen,,,,,,,,,,,,,,
,Screen_1,canvas.Screen,0_0_18_0,,skipped,19,29700.699999809265,,,29700.699999809265,,29700.89999985695,2021-10-26T15:04:38.755Z,29757.25,1635260630,full,ni_sequenzen,NI_Sequenzen,,,,,,,,,,,,,,
,Screen_2,canvas.Screen,0_0_18_1,,skipped,19,29702.299999952316,,,29700.699999809265,,29702.5,2021-10-26T15:04:38.756Z,29757.25,1635260630,full,ni_sequenzen,NI_Sequenzen,,,,,,,,,,,,,,
,Screen_3,canvas.Screen,0_0_18_2,,skipped,19,29704,,,29700.699999809265,,29704.099999904633,2021-10-26T15:04:38.758Z,29757.25,1635260630,full,ni_sequenzen,NI_Sequenzen,,,,,,,,,,,,,,
,Screen_4,canvas.Screen,0_0_18_3,,skipped,19,29705.599999904633,,,29700.699999809265,,29705.799999952316,2021-10-26T15:04:38.760Z,29757.25,1635260630,full,ni_sequenzen,NI_Sequenzen,,,,,,,,,,,,,,
,Sequence,flow.Sequence,0_0_18,,completion,19,29698.699999809265,,,29700.699999809265,,29706,2021-10-26T15:04:38.760Z,29757.25,1635260630,full,ni_sequenzen,NI_Sequenzen,,,,,,,,,,,,,,
,Screen_1,canvas.Screen,0_0_19_0,,skipped,20,29708.099999904633,,,29708.099999904633,,29708.199999809265,2021-10-26T15:04:38.762Z,29757.25,1635260630,full,ni_sequenzen,NI_Sequenzen,,,,,,,,,,,,,,
,Screen_2,canvas.Screen,0_0_19_1,,skipped,20,29709.699999809265,,,29708.099999904633,,29709.699999809265,2021-10-26T15:04:38.764Z,29757.25,1635260630,full,ni_sequenzen,NI_Sequenzen,,,,,,,,,,,,,,
,Screen_3,canvas.Screen,0_0_19_2,,skipped,20,29711.299999952316,,,29708.099999904633,,29711.39999985695,2021-10-26T15:04:38.765Z,29757.25,1635260630,full,ni_sequenzen,NI_Sequenzen,,,,,,,,,,,,,,
,Screen_4,canvas.Screen,0_0_19_3,,skipped,20,29713,,,29708.099999904633,,29713.099999904633,2021-10-26T15:04:38.767Z,29757.25,1635260630,full,ni_sequenzen,NI_Sequenzen,,,,,,,,,,,,,,
,Sequence,flow.Sequence,0_0_19,,completion,20,29706.699999809265,,,29708.099999904633,,29713.39999985695,2021-10-26T15:04:38.767Z,29757.25,1635260630,full,ni_sequenzen,NI_Sequenzen,,,,,,,,,,,,,,
,Instructions_I,flow.Loop,0_0,,completion,,970.7999999523163,1040.709,1190.73,29708.099999904633,28517.369999904633,29713.699999809265,2021-10-26T15:04:38.767Z,29757.25,1635260630,full,ni_sequenzen,NI_Sequenzen,,,,,,,,,,,,,,
,Move,canvas.Screen,0_1_0_0,left,response,,29743.099999904633,29740.557,29757.25,31275.5,1518.25,31276.599999904633,2021-10-26T15:04:40.330Z,31290.562,1635260630,full,ni_sequenzen,NI_Sequenzen,1,,,,,,,,,,,,,
,Move,canvas.Screen,0_1_0_1,down,response,,31282.099999904633,31273.999,31290.562,32264.699999809265,974.1379998092634,32266.199999809265,2021-10-26T15:04:41.319Z,32290.529,1635260630,full,ni_sequenzen,NI_Sequenzen,2,,,,,,,,,,,,,
,Move,canvas.Screen,0_1_0_2,down,response,,32273.099999904633,32257.409,32290.529,32636.799999952316,346.27099995231765,32638.39999985695,2021-10-26T15:04:41.692Z,32657.259,1635260630,full,ni_sequenzen,NI_Sequenzen,3,,,,,,,,,,,,,
,Move,canvas.Screen,0_1_0_3,right,response,,32643.099999904633,32640.724,32657.259,33157.299999952316,500.0409999523181,33158.39999985695,2021-10-26T15:04:42.212Z,33173.949,1635260630,full,ni_sequenzen,NI_Sequenzen,4,,,,,,,,,,,,,
,Move,canvas.Screen,0_1_0_4,right,response,,33162.39999985695,33157.445,33173.949,35536.799999952316,2362.8509999523158,35537.699999809265,2021-10-26T15:04:44.591Z,35557.174,1635260630,full,ni_sequenzen,NI_Sequenzen,5,,,,,,,,,,,,,
,Move,canvas.Screen,0_1_0_5,down,response,,35541.39999985695,35540.7,35557.174,35920.5,363.32600000000093,35921.699999809265,2021-10-26T15:04:44.975Z,35940.66,1635260630,full,ni_sequenzen,NI_Sequenzen,6,,,,,,,,,,,,,
,Move,canvas.Screen,0_1_0_6,down,response,,35926,35924.029,35940.66,38297.799999952316,2357.139999952313,38299,2021-10-26T15:04:47.352Z,38307.178,1635260630,full,ni_sequenzen,NI_Sequenzen,7,,,,,,,,,,,,,
,Move,canvas.Screen,0_1_0_7,left,response,,38302.799999952316,38290.626,38307.178,38477.09999990463,169.92199990463268,38478,2021-10-26T15:04:47.531Z,38490.521,1635260630,full,ni_sequenzen,NI_Sequenzen,8,,,,,,,,,,,,,
,Move,canvas.Screen,0_1_0_8,right,response,,38481.39999985695,38473.958,38490.521,41485.799999952316,2995.2789999523156,41487.199999809265,2021-10-26T15:04:50.540Z,41507.229,1635260630,full,ni_sequenzen,NI_Sequenzen,9,,,,,,,,,,,,,
,Move,canvas.Screen,0_1_0_9,left,response,,41492.299999952316,41490.585,41507.229,42203.299999952316,696.0709999523169,42204.5,2021-10-26T15:04:51.258Z,42223.91,1635260630,full,ni_sequenzen,NI_Sequenzen,10,,,,,,,,,,,,,
,Move,canvas.Screen,0_1_0_10,down,response,,42209.39999985695,42207.358,42223.91,42867.39999985695,643.4899998569454,42868.5,2021-10-26T15:04:51.922Z,42891.324,1635260630,full,ni_sequenzen,NI_Sequenzen,11,,,,,,,,,,,,,
,Move,canvas.Screen,0_1_0_11,right,response,,42872.799999952316,42857.384,42891.324,43203.299999952316,311.97599995231576,43204.699999809265,2021-10-26T15:04:52.258Z,43223.942,1635260630,full,ni_sequenzen,NI_Sequenzen,12,,,,,,,,,,,,,
,Move,canvas.Screen,0_1_0_12,left,response,,43209.799999952316,43207.398,43223.942,43466.799999952316,242.85799995231355,43468,2021-10-26T15:04:52.521Z,43505.078,1635260630,full,ni_sequenzen,NI_Sequenzen,13,,,,,,,,,,,,,
,Move,canvas.Screen,0_1_0_13,left,response,,43472.699999809265,43457.393,43505.078,43784.699999809265,279.6219998092638,43785.799999952316,2021-10-26T15:04:52.839Z,43823.976,1635260630,full,ni_sequenzen,NI_Sequenzen,14,,,,,,,,,,,,,
,Move,canvas.Screen,0_1_0_14,down,response,,43790.09999990463,43807.237,43823.976,45064.199999809265,1240.2239998092628,45065.5,2021-10-26T15:04:54.119Z,45073.828,1635260630,full,ni_sequenzen,NI_Sequenzen,15,,,,,,,,,,,,,
,Move,canvas.Screen,0_1_0_15,down,response,,45070.39999985695,45057.301,45073.828,45484.39999985695,410.5719998569475,45485.59999990463,2021-10-26T15:04:54.539Z,45507.346,1635260630,full,ni_sequenzen,NI_Sequenzen,16,,,,,,,,,,,,,
,Move,canvas.Screen,0_1_0_16,left,response,,45489.799999952316,45474.021,45507.346,45861,353.65400000000227,45862.09999990463,2021-10-26T15:04:54.915Z,45873.842,1635260630,full,ni_sequenzen,NI_Sequenzen,17,,,,,,,,,,,,,
,Move,canvas.Screen,0_1_0_17,down,response,,45866.299999952316,45857.369,45873.842,47430.09999990463,1556.2579999046357,47431.199999809265,2021-10-26T15:04:56.484Z,47440.606,1635260630,full,ni_sequenzen,NI_Sequenzen,18,,,,,,,,,,,,,
,Move,canvas.Screen,0_1_0_18,down,response,,47435.09999990463,47423.975,47440.606,47636.89999985695,196.29399985694909,47637.699999809265,2021-10-26T15:04:56.691Z,47657.211,1635260630,full,ni_sequenzen,NI_Sequenzen,19,,,,,,,,,,,,,
,Move,canvas.Screen,0_1_0_19,right,response,,47640.39999985695,47640.504,47657.211,48419.5,762.288999999997,48420.699999809265,2021-10-26T15:04:57.474Z,48440.479,1635260630,full,ni_sequenzen,NI_Sequenzen,20,,,,,,,,,,,,,
,Move,canvas.Screen,0_1_0_20,right,response,,48424.699999809265,48423.98,48440.479,49291.39999985695,850.9209998569495,49292.59999990463,2021-10-26T15:04:58.346Z,49307.398,1635260630,full,ni_sequenzen,NI_Sequenzen,21,,,,,,,,,,,,,
,Move,canvas.Screen,0_1_0_21,down,response,,49297.699999809265,49290.671,49307.398,50192,884.601999999999,50193.199999809265,2021-10-26T15:04:59.246Z,50207.183,1635260630,full,ni_sequenzen,NI_Sequenzen,22,,,,,,,,,,,,,
,Move,canvas.Screen,0_1_0_22,left,response,,50197.59999990463,50190.541,50207.183,50474.09999990463,266.9169999046353,50475.299999952316,2021-10-26T15:04:59.529Z,50490.472,1635260630,full,ni_sequenzen,NI_Sequenzen,23,,,,,,,,,,,,,
,Move,canvas.Screen,0_1_0_23,down,response,,50479.59999990463,50473.981,50490.472,50990.89999985695,500.4279998569473,50991.89999985695,2021-10-26T15:05:00.045Z,51007.199,1635260630,full,ni_sequenzen,NI_Sequenzen,24,,,,,,,,,,,,,
,Move,canvas.Screen,0_1_0_24,down,response,,50995.799999952316,50990.689,51007.199,51543.699999809265,536.5009998092646,51544.89999985695,2021-10-26T15:05:00.598Z,51557.189,1635260630,full,ni_sequenzen,NI_Sequenzen,25,,,,,,,,,,,,,
,Move,canvas.Screen,0_1_0_25,left,response,,51549.299999952316,51540.656,51557.189,52052.39999985695,495.21099985695037,52053.5,2021-10-26T15:05:01.107Z,52073.848,1635260630,full,ni_sequenzen,NI_Sequenzen,26,,,,,,,,,,,,,
,Move,canvas.Screen,0_1_0_26,left,response,,52057.89999985695,52057.335,52073.848,52374.09999990463,300.25199990463443,52375.199999809265,2021-10-26T15:05:01.428Z,52390.462,1635260630,full,ni_sequenzen,NI_Sequenzen,27,,,,,,,,,,,,,
,Move,canvas.Screen,0_1_0_27,left,response,,52380.5,52373.989,52390.462,53559.199999809265,1168.7379998092656,53560.09999990463,2021-10-26T15:05:02.613Z,53573.875,1635260630,full,ni_sequenzen,NI_Sequenzen,28,,,,,,,,,,,,,
,Move,canvas.Screen,0_1_0_28,down,response,,53563.5,53557.306,53573.875,54762.299999952316,1188.4249999523163,54763.5,2021-10-26T15:05:03.817Z,54773.767,1635260630,full,ni_sequenzen,NI_Sequenzen,29,,,,,,,,,,,,,
,Move,canvas.Screen,0_1_0_29,down,response,,54767.199999809265,54757.241,54773.767,54929.699999809265,155.9329998092653,54931,2021-10-26T15:05:03.984Z,55077.817,1635260630,full,ni_sequenzen,NI_Sequenzen,30,,,,,,,,,,,,,
,Loop,flow.Loop,0_1_0,-999,completion,,29736.89999985695,29740.557,29757.25,54929.699999809265,25172.449999809265,54931.39999985695,2021-10-26T15:05:03.985Z,55077.817,1635260630,full,ni_sequenzen,NI_Sequenzen,,,,,,,,,,,,,,
,Training_I,flow.Sequence,0_1,,completion,,29714.299999952316,29740.557,29757.25,54929.699999809265,25172.449999809265,54931.699999809265,2021-10-26T15:05:03.985Z,55077.817,1635260630,full,ni_sequenzen,NI_Sequenzen,,,,,,,,,,,,,,
,Screen_1,canvas.Screen,0_2_0_0,cont,response,1,55055.59999990463,55040.602,55077.817,62298.39999985695,7220.582999856946,62299.699999809265,2021-10-26T15:05:11.353Z,62440.439,1635260630,full,ni_sequenzen,NI_Sequenzen,,,,,,,,,,,,,,
,Screen_2,canvas.Screen,0_2_0_1,cont,response,1,62437.59999990463,62423.573,62440.439,68543.39999985695,6102.96099985695,68544.59999990463,2021-10-26T15:05:17.598Z,68573.714,1635260630,full,ni_sequenzen,NI_Sequenzen,,,,,,,,,,,,,,
,Screen_3,canvas.Screen,0_2_0_2,cont,response,1,68552.69999980927,68540.392,68573.714,75408.19999980927,6834.485999809258,75409.29999995232,2021-10-26T15:05:24.462Z,75507.023,1635260630,full,ni_sequenzen,NI_Sequenzen,,,,,,,,,,,,,,
,Screen_4,canvas.Screen,0_2_0_3,cont,response,1,75504.89999985695,75490.374,75507.023,86405.09999990463,10898.076999904632,86406.19999980927,2021-10-26T15:05:35.459Z,86423.735,1635260630,full,ni_sequenzen,NI_Sequenzen,,,,,,,,,,,,,,
,Screen_5,canvas.Screen,0_2_0_4,cont,response,1,86412,86406.747,86423.735,88889.69999980927,2465.9649998092646,88890.69999980927,2021-10-26T15:05:37.944Z,89006.926,1635260630,full,ni_sequenzen,NI_Sequenzen,,,,,,,,,,,,,,
,Screen_6,canvas.Screen,0_2_0_5,cont,response,1,88986.39999985695,88973.71,89006.926,93263.5,4256.573999999993,93264.5,2021-10-26T15:05:42.318Z,93673.58,1635260630,full,ni_sequenzen,NI_Sequenzen,,,,,,,,,,,,,,
,Sequence,flow.Sequence,0_2_0,,completion,1,55053,55040.602,55077.817,93263.5,38185.683,93267.89999985695,2021-10-26T15:05:42.322Z,93673.58,1635260630,full,ni_sequenzen,NI_Sequenzen,,,,,,,,,,,,,,
,Screen_1,canvas.Screen,0_2_1_0,,skipped,2,93274.29999995232,,,93274.29999995232,,93274.5,2021-10-26T15:05:42.328Z,93673.58,1635260630,full,ni_sequenzen,NI_Sequenzen,,,,,,,,,,,,,,
,Screen_2,canvas.Screen,0_2_1_1,,skipped,2,93276.59999990463,,,93274.29999995232,,93276.69999980927,2021-10-26T15:05:42.330Z,93673.58,1635260630,full,ni_sequenzen,NI_Sequenzen,,,,,,,,,,,,,,
,Screen_3,canvas.Screen,0_2_1_2,,skipped,2,93278.69999980927,,,93274.29999995232,,93278.89999985695,2021-10-26T15:05:42.333Z,93673.58,1635260630,full,ni_sequenzen,NI_Sequenzen,,,,,,,,,,,,,,
,Screen_4,canvas.Screen,0_2_1_3,,skipped,2,93280.89999985695,,,93274.29999995232,,93281,2021-10-26T15:05:42.335Z,93673.58,1635260630,full,ni_sequenzen,NI_Sequenzen,,,,,,,,,,,,,,
,Screen_5,canvas.Screen,0_2_1_4,,skipped,2,93282.69999980927,,,93274.29999995232,,93282.89999985695,2021-10-26T15:05:42.337Z,93673.58,1635260630,full,ni_sequenzen,NI_Sequenzen,,,,,,,,,,,,,,
,Screen_6,canvas.Screen,0_2_1_5,,skipped,2,93284.79999995232,,,93274.29999995232,,93284.89999985695,2021-10-26T15:05:42.339Z,93673.58,1635260630,full,ni_sequenzen,NI_Sequenzen,,,,,,,,,,,,,,
,Sequence,flow.Sequence,0_2_1,,completion,2,93271.89999985695,,,93274.29999995232,,93285.19999980927,2021-10-26T15:05:42.339Z,93673.58,1635260630,full,ni_sequenzen,NI_Sequenzen,,,,,,,,,,,,,,
,Screen_1,canvas.Screen,0_2_2_0,,skipped,3,93287.29999995232,,,93287.39999985695,,93287.5,2021-10-26T15:05:42.341Z,93673.58,1635260630,full,ni_sequenzen,NI_Sequenzen,,,,,,,,,,,,,,
,Screen_2,canvas.Screen,0_2_2_1,,skipped,3,93288.89999985695,,,93287.39999985695,,93289.09999990463,2021-10-26T15:05:42.343Z,93673.58,1635260630,full,ni_sequenzen,NI_Sequenzen,,,,,,,,,,,,,,
,Screen_3,canvas.Screen,0_2_2_2,,skipped,3,93290.59999990463,,,93287.39999985695,,93290.79999995232,2021-10-26T15:05:42.344Z,93673.58,1635260630,full,ni_sequenzen,NI_Sequenzen,,,,,,,,,,,,,,
,Screen_4,canvas.Screen,0_2_2_3,,skipped,3,93292.19999980927,,,93287.39999985695,,93292.29999995232,2021-10-26T15:05:42.346Z,93673.58,1635260630,full,ni_sequenzen,NI_Sequenzen,,,,,,,,,,,,,,
,Screen_5,canvas.Screen,0_2_2_4,,skipped,3,93295.09999990463,,,93287.39999985695,,93295.19999980927,2021-10-26T15:05:42.349Z,93673.58,1635260630,full,ni_sequenzen,NI_Sequenzen,,,,,,,,,,,,,,
,Screen_6,canvas.Screen,0_2_2_5,,skipped,3,93296.69999980927,,,93287.39999985695,,93296.89999985695,2021-10-26T15:05:42.351Z,93673.58,1635260630,full,ni_sequenzen,NI_Sequenzen,,,,,,,,,,,,,,
,Sequence,flow.Sequence,0_2_2,,completion,3,93285.89999985695,,,93287.39999985695,,93297.09999990463,2021-10-26T15:05:42.351Z,93673.58,1635260630,full,ni_sequenzen,NI_Sequenzen,,,,,,,,,,,,,,
,Screen_1,canvas.Screen,0_2_3_0,,skipped,4,93299.09999990463,,,93299.09999990463,,93299.29999995232,2021-10-26T15:05:42.353Z,93673.58,1635260630,full,ni_sequenzen,NI_Sequenzen,,,,,,,,,,,,,,
,Screen_2,canvas.Screen,0_2_3_1,,skipped,4,93300.89999985695,,,93299.09999990463,,93301.09999990463,2021-10-26T15:05:42.355Z,93673.58,1635260630,full,ni_sequenzen,NI_Sequenzen,,,,,,,,,,,,,,
,Screen_3,canvas.Screen,0_2_3_2,,skipped,4,93302.59999990463,,,93299.09999990463,,93302.69999980927,2021-10-26T15:05:42.356Z,93673.58,1635260630,full,ni_sequenzen,NI_Sequenzen,,,,,,,,,,,,,,
,Screen_4,canvas.Screen,0_2_3_3,,skipped,4,93304.09999990463,,,93299.09999990463,,93304.29999995232,2021-10-26T15:05:42.358Z,93673.58,1635260630,full,ni_sequenzen,NI_Sequenzen,,,,,,,,,,,,,,
,Screen_5,canvas.Screen,0_2_3_4,,skipped,4,93305.69999980927,,,93299.09999990463,,93305.79999995232,2021-10-26T15:05:42.360Z,93673.58,1635260630,full,ni_sequenzen,NI_Sequenzen,,,,,,,,,,,,,,
,Screen_6,canvas.Screen,0_2_3_5,,skipped,4,93307.29999995232,,,93299.09999990463,,93307.5,2021-10-26T15:05:42.361Z,93673.58,1635260630,full,ni_sequenzen,NI_Sequenzen,,,,,,,,,,,,,,
,Sequence,flow.Sequence,0_2_3,,completion,4,93297.79999995232,,,93299.09999990463,,93307.69999980927,2021-10-26T15:05:42.361Z,93673.58,1635260630,full,ni_sequenzen,NI_Sequenzen,,,,,,,,,,,,,,
,Screen_1,canvas.Screen,0_2_4_0,,skipped,5,93309.79999995232,,,93309.79999995232,,93309.89999985695,2021-10-26T15:05:42.364Z,93673.58,1635260630,full,ni_sequenzen,NI_Sequenzen,,,,,,,,,,,,,,
,Screen_2,canvas.Screen,0_2_4_1,,skipped,5,93311.39999985695,,,93309.79999995232,,93311.5,2021-10-26T15:05:42.365Z,93673.58,1635260630,full,ni_sequenzen,NI_Sequenzen,,,,,,,,,,,,,,
,Screen_3,canvas.Screen,0_2_4_2,,skipped,5,93313,,,93309.79999995232,,93313.09999990463,2021-10-26T15:05:42.367Z,93673.58,1635260630,full,ni_sequenzen,NI_Sequenzen,,,,,,,,,,,,,,
,Screen_4,canvas.Screen,0_2_4_3,,skipped,5,93314.5,,,93309.79999995232,,93314.59999990463,2021-10-26T15:05:42.368Z,93673.58,1635260630,full,ni_sequenzen,NI_Sequenzen,,,,,,,,,,,,,,
,Screen_5,canvas.Screen,0_2_4_4,,skipped,5,93316.19999980927,,,93309.79999995232,,93316.19999980927,2021-10-26T15:05:42.370Z,93673.58,1635260630,full,ni_sequenzen,NI_Sequenzen,,,,,,,,,,,,,,
,Screen_6,canvas.Screen,0_2_4_5,,skipped,5,93319.29999995232,,,93309.79999995232,,93319.39999985695,2021-10-26T15:05:42.373Z,93673.58,1635260630,full,ni_sequenzen,NI_Sequenzen,,,,,,,,,,,,,,
,Sequence,flow.Sequence,0_2_4,,completion,5,93308.29999995232,,,93309.79999995232,,93319.69999980927,2021-10-26T15:05:42.373Z,93673.58,1635260630,full,ni_sequenzen,NI_Sequenzen,,,,,,,,,,,,,,
,Screen_1,canvas.Screen,0_2_5_0,,skipped,6,93321.79999995232,,,93321.79999995232,,93322,2021-10-26T15:05:42.376Z,93673.58,1635260630,full,ni_sequenzen,NI_Sequenzen,,,,,,,,,,,,,,
,Screen_2,canvas.Screen,0_2_5_1,,skipped,6,93323.39999985695,,,93321.79999995232,,93323.59999990463,2021-10-26T15:05:42.377Z,93673.58,1635260630,full,ni_sequenzen,NI_Sequenzen,,,,,,,,,,,,,,
,Screen_3,canvas.Screen,0_2_5_2,,skipped,6,93325,,,93321.79999995232,,93325.19999980927,2021-10-26T15:05:42.379Z,93673.58,1635260630,full,ni_sequenzen,NI_Sequenzen,,,,,,,,,,,,,,
,Screen_4,canvas.Screen,0_2_5_3,,skipped,6,93326.59999990463,,,93321.79999995232,,93326.69999980927,2021-10-26T15:05:42.380Z,93673.58,1635260630,full,ni_sequenzen,NI_Sequenzen,,,,,,,,,,,,,,
,Screen_5,canvas.Screen,0_2_5_4,,skipped,6,93328.19999980927,,,93321.79999995232,,93328.29999995232,2021-10-26T15:05:42.382Z,93673.58,1635260630,full,ni_sequenzen,NI_Sequenzen,,,,,,,,,,,,,,
,Screen_6,canvas.Screen,0_2_5_5,,skipped,6,93329.79999995232,,,93321.79999995232,,93330,2021-10-26T15:05:42.384Z,93673.58,1635260630,full,ni_sequenzen,NI_Sequenzen,,,,,,,,,,,,,,
,Sequence,flow.Sequence,0_2_5,,completion,6,93320.39999985695,,,93321.79999995232,,93330.19999980927,2021-10-26T15:05:42.384Z,93673.58,1635260630,full,ni_sequenzen,NI_Sequenzen,,,,,,,,,,,,,,
,Screen_1,canvas.Screen,0_2_6_0,,skipped,7,93332.19999980927,,,93332.29999995232,,93332.39999985695,2021-10-26T15:05:42.386Z,93673.58,1635260630,full,ni_sequenzen,NI_Sequenzen,,,,,,,,,,,,,,
,Screen_2,canvas.Screen,0_2_6_1,,skipped,7,93333.79999995232,,,93332.29999995232,,93334,2021-10-26T15:05:42.388Z,93673.58,1635260630,full,ni_sequenzen,NI_Sequenzen,,,,,,,,,,,,,,
,Screen_3,canvas.Screen,0_2_6_2,,skipped,7,93335.39999985695,,,93332.29999995232,,93335.5,2021-10-26T15:05:42.389Z,93673.58,1635260630,full,ni_sequenzen,NI_Sequenzen,,,,,,,,,,,,,,
,Screen_4,canvas.Screen,0_2_6_3,,skipped,7,93336.89999985695,,,93332.29999995232,,93337.09999990463,2021-10-26T15:05:42.391Z,93673.58,1635260630,full,ni_sequenzen,NI_Sequenzen,,,,,,,,,,,,,,
,Screen_5,canvas.Screen,0_2_6_4,,skipped,7,93338.5,,,93332.29999995232,,93338.69999980927,2021-10-26T15:05:42.392Z,93673.58,1635260630,full,ni_sequenzen,NI_Sequenzen,,,,,,,,,,,,,,
,Screen_6,canvas.Screen,0_2_6_5,,skipped,7,93340.09999990463,,,93332.29999995232,,93340.19999980927,2021-10-26T15:05:42.394Z,93673.58,1635260630,full,ni_sequenzen,NI_Sequenzen,,,,,,,,,,,,,,
,Sequence,flow.Sequence,0_2_6,,completion,7,93330.79999995232,,,93332.29999995232,,93340.5,2021-10-26T15:05:42.394Z,93673.58,1635260630,full,ni_sequenzen,NI_Sequenzen,,,,,,,,,,,,,,
,Screen_1,canvas.Screen,0_2_7_0,,skipped,8,93343.89999985695,,,93344,,93344.19999980927,2021-10-26T15:05:42.398Z,93673.58,1635260630,full,ni_sequenzen,NI_Sequenzen,,,,,,,,,,,,,,
,Screen_2,canvas.Screen,0_2_7_1,,skipped,8,93345.79999995232,,,93344,,93345.89999985695,2021-10-26T15:05:42.400Z,93673.58,1635260630,full,ni_sequenzen,NI_Sequenzen,,,,,,,,,,,,,,
,Screen_3,canvas.Screen,0_2_7_2,,skipped,8,93347.39999985695,,,93344,,93347.5,2021-10-26T15:05:42.401Z,93673.58,1635260630,full,ni_sequenzen,NI_Sequenzen,,,,,,,,,,,,,,
,Screen_4,canvas.Screen,0_2_7_3,,skipped,8,93348.89999985695,,,93344,,93349,2021-10-26T15:05:42.403Z,93673.58,1635260630,full,ni_sequenzen,NI_Sequenzen,,,,,,,,,,,,,,
,Screen_5,canvas.Screen,0_2_7_4,,skipped,8,93350.5,,,93344,,93350.59999990463,2021-10-26T15:05:42.404Z,93673.58,1635260630,full,ni_sequenzen,NI_Sequenzen,,,,,,,,,,,,,,
,Screen_6,canvas.Screen,0_2_7_5,,skipped,8,93352,,,93344,,93352.09999990463,2021-10-26T15:05:42.406Z,93673.58,1635260630,full,ni_sequenzen,NI_Sequenzen,,,,,,,,,,,,,,
,Sequence,flow.Sequence,0_2_7,,completion,8,93341.09999990463,,,93344,,93352.39999985695,2021-10-26T15:05:42.406Z,93673.58,1635260630,full,ni_sequenzen,NI_Sequenzen,,,,,,,,,,,,,,
,Screen_1,canvas.Screen,0_2_8_0,,skipped,9,93354.5,,,93354.5,,93354.69999980927,2021-10-26T15:05:42.408Z,93673.58,1635260630,full,ni_sequenzen,NI_Sequenzen,,,,,,,,,,,,,,
,Screen_2,canvas.Screen,0_2_8_1,,skipped,9,93356.09999990463,,,93354.5,,93356.19999980927,2021-10-26T15:05:42.410Z,93673.58,1635260630,full,ni_sequenzen,NI_Sequenzen,,,,,,,,,,,,,,
,Screen_3,canvas.Screen,0_2_8_2,,skipped,9,93357.69999980927,,,93354.5,,93357.79999995232,2021-10-26T15:05:42.411Z,93673.58,1635260630,full,ni_sequenzen,NI_Sequenzen,,,,,,,,,,,,,,
,Screen_4,canvas.Screen,0_2_8_3,,skipped,9,93359.29999995232,,,93354.5,,93359.29999995232,2021-10-26T15:05:42.413Z,93673.58,1635260630,full,ni_sequenzen,NI_Sequenzen,,,,,,,,,,,,,,
,Screen_5,canvas.Screen,0_2_8_4,,skipped,9,93360.89999985695,,,93354.5,,93361,2021-10-26T15:05:42.415Z,93673.58,1635260630,full,ni_sequenzen,NI_Sequenzen,,,,,,,,,,,,,,
,Screen_6,canvas.Screen,0_2_8_5,,skipped,9,93362.39999985695,,,93354.5,,93362.5,2021-10-26T15:05:42.416Z,93673.58,1635260630,full,ni_sequenzen,NI_Sequenzen,,,,,,,,,,,,,,
,Sequence,flow.Sequence,0_2_8,,completion,9,93353.09999990463,,,93354.5,,93362.79999995232,2021-10-26T15:05:42.416Z,93673.58,1635260630,full,ni_sequenzen,NI_Sequenzen,,,,,,,,,,,,,,
,Screen_1,canvas.Screen,0_2_9_0,,skipped,10,93365.29999995232,,,93365.39999985695,,93365.39999985695,2021-10-26T15:05:42.419Z,93673.58,1635260630,full,ni_sequenzen,NI_Sequenzen,,,,,,,,,,,,,,
,Screen_2,canvas.Screen,0_2_9_1,,skipped,10,93367,,,93365.39999985695,,93367.09999990463,2021-10-26T15:05:42.421Z,93673.58,1635260630,full,ni_sequenzen,NI_Sequenzen,,,,,,,,,,,,,,
,Screen_3,canvas.Screen,0_2_9_2,,skipped,10,93370.19999980927,,,93365.39999985695,,93370.29999995232,2021-10-26T15:05:42.424Z,93673.58,1635260630,full,ni_sequenzen,NI_Sequenzen,,,,,,,,,,,,,,
,Screen_4,canvas.Screen,0_2_9_3,,skipped,10,93371.89999985695,,,93365.39999985695,,93372,2021-10-26T15:05:42.426Z,93673.58,1635260630,full,ni_sequenzen,NI_Sequenzen,,,,,,,,,,,,,,
,Screen_5,canvas.Screen,0_2_9_4,,skipped,10,93374.19999980927,,,93365.39999985695,,93374.39999985695,2021-10-26T15:05:42.428Z,93673.58,1635260630,full,ni_sequenzen,NI_Sequenzen,,,,,,,,,,,,,,
,Screen_6,canvas.Screen,0_2_9_5,,skipped,10,93376.09999990463,,,93365.39999985695,,93376.39999985695,2021-10-26T15:05:42.430Z,93673.58,1635260630,full,ni_sequenzen,NI_Sequenzen,,,,,,,,,,,,,,
,Sequence,flow.Sequence,0_2_9,,completion,10,93363.69999980927,,,93365.39999985695,,93376.69999980927,2021-10-26T15:05:42.430Z,93673.58,1635260630,full,ni_sequenzen,NI_Sequenzen,,,,,,,,,,,,,,
,Screen_1,canvas.Screen,0_2_10_0,,skipped,11,93378.89999985695,,,93378.89999985695,,93379,2021-10-26T15:05:42.433Z,93673.58,1635260630,full,ni_sequenzen,NI_Sequenzen,,,,,,,,,,,,,,
,Screen_2,canvas.Screen,0_2_10_1,,skipped,11,93380.5,,,93378.89999985695,,93380.69999980927,2021-10-26T15:05:42.434Z,93673.58,1635260630,full,ni_sequenzen,NI_Sequenzen,,,,,,,,,,,,,,
,Screen_3,canvas.Screen,0_2_10_2,,skipped,11,93382.09999990463,,,93378.89999985695,,93382.19999980927,2021-10-26T15:05:42.436Z,93673.58,1635260630,full,ni_sequenzen,NI_Sequenzen,,,,,,,,,,,,,,
,Screen_4,canvas.Screen,0_2_10_3,,skipped,11,93383.59999990463,,,93378.89999985695,,93383.69999980927,2021-10-26T15:05:42.437Z,93673.58,1635260630,full,ni_sequenzen,NI_Sequenzen,,,,,,,,,,,,,,
,Screen_5,canvas.Screen,0_2_10_4,,skipped,11,93385.19999980927,,,93378.89999985695,,93385.29999995232,2021-10-26T15:05:42.439Z,93673.58,1635260630,full,ni_sequenzen,NI_Sequenzen,,,,,,,,,,,,,,
,Screen_6,canvas.Screen,0_2_10_5,,skipped,11,93387,,,93378.89999985695,,93387.19999980927,2021-10-26T15:05:42.441Z,93673.58,1635260630,full,ni_sequenzen,NI_Sequenzen,,,,,,,,,,,,,,
,Sequence,flow.Sequence,0_2_10,,completion,11,93377.39999985695,,,93378.89999985695,,93387.39999985695,2021-10-26T15:05:42.441Z,93673.58,1635260630,full,ni_sequenzen,NI_Sequenzen,,,,,,,,,,,,,,
,Screen_1,canvas.Screen,0_2_11_0,,skipped,12,93389.39999985695,,,93389.39999985695,,93389.59999990463,2021-10-26T15:05:42.443Z,93673.58,1635260630,full,ni_sequenzen,NI_Sequenzen,,,,,,,,,,,,,,
,Screen_2,canvas.Screen,0_2_11_1,,skipped,12,93391,,,93389.39999985695,,93391.09999990463,2021-10-26T15:05:42.445Z,93673.58,1635260630,full,ni_sequenzen,NI_Sequenzen,,,,,,,,,,,,,,
,Screen_3,canvas.Screen,0_2_11_2,,skipped,12,93392.59999990463,,,93389.39999985695,,93392.69999980927,2021-10-26T15:05:42.446Z,93673.58,1635260630,full,ni_sequenzen,NI_Sequenzen,,,,,,,,,,,,,,
,Screen_4,canvas.Screen,0_2_11_3,,skipped,12,93394.09999990463,,,93389.39999985695,,93394.29999995232,2021-10-26T15:05:42.448Z,93673.58,1635260630,full,ni_sequenzen,NI_Sequenzen,,,,,,,,,,,,,,
,Screen_5,canvas.Screen,0_2_11_4,,skipped,12,93395.79999995232,,,93389.39999985695,,93395.89999985695,2021-10-26T15:05:42.450Z,93673.58,1635260630,full,ni_sequenzen,NI_Sequenzen,,,,,,,,,,,,,,
,Screen_6,canvas.Screen,0_2_11_5,,skipped,12,93398.69999980927,,,93389.39999985695,,93398.79999995232,2021-10-26T15:05:42.453Z,93673.58,1635260630,full,ni_sequenzen,NI_Sequenzen,,,,,,,,,,,,,,
,Sequence,flow.Sequence,0_2_11,,completion,12,93388.09999990463,,,93389.39999985695,,93399.09999990463,2021-10-26T15:05:42.453Z,93673.58,1635260630,full,ni_sequenzen,NI_Sequenzen,,,,,,,,,,,,,,
,Screen_1,canvas.Screen,0_2_12_0,,skipped,13,93401.29999995232,,,93401.29999995232,,93401.39999985695,2021-10-26T15:05:42.455Z,93673.58,1635260630,full,ni_sequenzen,NI_Sequenzen,,,,,,,,,,,,,,
,Screen_2,canvas.Screen,0_2_12_1,,skipped,13,93402.89999985695,,,93401.29999995232,,93403,2021-10-26T15:05:42.457Z,93673.58,1635260630,full,ni_sequenzen,NI_Sequenzen,,,,,,,,,,,,,,
,Screen_3,canvas.Screen,0_2_12_2,,skipped,13,93404.39999985695,,,93401.29999995232,,93404.59999990463,2021-10-26T15:05:42.458Z,93673.58,1635260630,full,ni_sequenzen,NI_Sequenzen,,,,,,,,,,,,,,
,Screen_4,canvas.Screen,0_2_12_3,,skipped,13,93406,,,93401.29999995232,,93406.19999980927,2021-10-26T15:05:42.460Z,93673.58,1635260630,full,ni_sequenzen,NI_Sequenzen,,,,,,,,,,,,,,
,Screen_5,canvas.Screen,0_2_12_4,,skipped,13,93407.69999980927,,,93401.29999995232,,93407.69999980927,2021-10-26T15:05:42.461Z,93673.58,1635260630,full,ni_sequenzen,NI_Sequenzen,,,,,,,,,,,,,,
,Screen_6,canvas.Screen,0_2_12_5,,skipped,13,93409.19999980927,,,93401.29999995232,,93409.29999995232,2021-10-26T15:05:42.463Z,93673.58,1635260630,full,ni_sequenzen,NI_Sequenzen,,,,,,,,,,,,,,
,Sequence,flow.Sequence,0_2_12,,completion,13,93399.79999995232,,,93401.29999995232,,93409.5,2021-10-26T15:05:42.463Z,93673.58,1635260630,full,ni_sequenzen,NI_Sequenzen,,,,,,,,,,,,,,
,Screen_1,canvas.Screen,0_2_13_0,,skipped,14,93411.5,,,93411.5,,93411.69999980927,2021-10-26T15:05:42.465Z,93673.58,1635260630,full,ni_sequenzen,NI_Sequenzen,,,,,,,,,,,,,,
,Screen_2,canvas.Screen,0_2_13_1,,skipped,14,93413.09999990463,,,93411.5,,93413.19999980927,2021-10-26T15:05:42.467Z,93673.58,1635260630,full,ni_sequenzen,NI_Sequenzen,,,,,,,,,,,,,,
,Screen_3,canvas.Screen,0_2_13_2,,skipped,14,93415.29999995232,,,93411.5,,93415.59999990463,2021-10-26T15:05:42.469Z,93673.58,1635260630,full,ni_sequenzen,NI_Sequenzen,,,,,,,,,,,,,,
,Screen_4,canvas.Screen,0_2_13_3,,skipped,14,93417.19999980927,,,93411.5,,93417.39999985695,2021-10-26T15:05:42.471Z,93673.58,1635260630,full,ni_sequenzen,NI_Sequenzen,,,,,,,,,,,,,,
,Screen_5,canvas.Screen,0_2_13_4,,skipped,14,93418.79999995232,,,93411.5,,93418.89999985695,2021-10-26T15:05:42.473Z,93673.58,1635260630,full,ni_sequenzen,NI_Sequenzen,,,,,,,,,,,,,,
,Screen_6,canvas.Screen,0_2_13_5,,skipped,14,93420.39999985695,,,93411.5,,93420.5,2021-10-26T15:05:42.474Z,93673.58,1635260630,full,ni_sequenzen,NI_Sequenzen,,,,,,,,,,,,,,
,Sequence,flow.Sequence,0_2_13,,completion,14,93410.19999980927,,,93411.5,,93420.79999995232,2021-10-26T15:05:42.474Z,93673.58,1635260630,full,ni_sequenzen,NI_Sequenzen,,,,,,,,,,,,,,
,Screen_1,canvas.Screen,0_2_14_0,,skipped,15,93424,,,93424,,93424.19999980927,2021-10-26T15:05:42.478Z,93673.58,1635260630,full,ni_sequenzen,NI_Sequenzen,,,,,,,,,,,,,,
,Screen_2,canvas.Screen,0_2_14_1,,skipped,15,93425.79999995232,,,93424,,93426,2021-10-26T15:05:42.480Z,93673.58,1635260630,full,ni_sequenzen,NI_Sequenzen,,,,,,,,,,,,,,
,Screen_3,canvas.Screen,0_2_14_2,,skipped,15,93427.39999985695,,,93424,,93427.5,2021-10-26T15:05:42.481Z,93673.58,1635260630,full,ni_sequenzen,NI_Sequenzen,,,,,,,,,,,,,,
,Screen_4,canvas.Screen,0_2_14_3,,skipped,15,93429,,,93424,,93429.09999990463,2021-10-26T15:05:42.483Z,93673.58,1635260630,full,ni_sequenzen,NI_Sequenzen,,,,,,,,,,,,,,
,Screen_5,canvas.Screen,0_2_14_4,,skipped,15,93430.59999990463,,,93424,,93430.69999980927,2021-10-26T15:05:42.484Z,93673.58,1635260630,full,ni_sequenzen,NI_Sequenzen,,,,,,,,,,,,,,
,Screen_6,canvas.Screen,0_2_14_5,,skipped,15,93432.29999995232,,,93424,,93432.5,2021-10-26T15:05:42.486Z,93673.58,1635260630,full,ni_sequenzen,NI_Sequenzen,,,,,,,,,,,,,,
,Sequence,flow.Sequence,0_2_14,,completion,15,93421.39999985695,,,93424,,93432.69999980927,2021-10-26T15:05:42.486Z,93673.58,1635260630,full,ni_sequenzen,NI_Sequenzen,,,,,,,,,,,,,,
,Screen_1,canvas.Screen,0_2_15_0,,skipped,16,93434.79999995232,,,93434.79999995232,,93434.89999985695,2021-10-26T15:05:42.489Z,93673.58,1635260630,full,ni_sequenzen,NI_Sequenzen,,,,,,,,,,,,,,
,Screen_2,canvas.Screen,0_2_15_1,,skipped,16,93436.39999985695,,,93434.79999995232,,93436.5,2021-10-26T15:05:42.490Z,93673.58,1635260630,full,ni_sequenzen,NI_Sequenzen,,,,,,,,,,,,,,
,Screen_3,canvas.Screen,0_2_15_2,,skipped,16,93437.89999985695,,,93434.79999995232,,93438.09999990463,2021-10-26T15:05:42.492Z,93673.58,1635260630,full,ni_sequenzen,NI_Sequenzen,,,,,,,,,,,,,,
,Screen_4,canvas.Screen,0_2_15_3,,skipped,16,93439.59999990463,,,93434.79999995232,,93439.59999990463,2021-10-26T15:05:42.493Z,93673.58,1635260630,full,ni_sequenzen,NI_Sequenzen,,,,,,,,,,,,,,
,Screen_5,canvas.Screen,0_2_15_4,,skipped,16,93441.09999990463,,,93434.79999995232,,93441.19999980927,2021-10-26T15:05:42.495Z,93673.58,1635260630,full,ni_sequenzen,NI_Sequenzen,,,,,,,,,,,,,,
,Screen_6,canvas.Screen,0_2_15_5,,skipped,16,93442.69999980927,,,93434.79999995232,,93442.79999995232,2021-10-26T15:05:42.496Z,93673.58,1635260630,full,ni_sequenzen,NI_Sequenzen,,,,,,,,,,,,,,
,Sequence,flow.Sequence,0_2_15,,completion,16,93433.29999995232,,,93434.79999995232,,93443,2021-10-26T15:05:42.497Z,93673.58,1635260630,full,ni_sequenzen,NI_Sequenzen,,,,,,,,,,,,,,
,Screen_1,canvas.Screen,0_2_16_0,,skipped,17,93444.89999985695,,,93444.89999985695,,93445.09999990463,2021-10-26T15:05:42.499Z,93673.58,1635260630,full,ni_sequenzen,NI_Sequenzen,,,,,,,,,,,,,,
,Screen_2,canvas.Screen,0_2_16_1,,skipped,17,93447.89999985695,,,93444.89999985695,,93448.09999990463,2021-10-26T15:05:42.502Z,93673.58,1635260630,full,ni_sequenzen,NI_Sequenzen,,,,,,,,,,,,,,
,Screen_3,canvas.Screen,0_2_16_2,,skipped,17,93449.69999980927,,,93444.89999985695,,93449.89999985695,2021-10-26T15:05:42.504Z,93673.58,1635260630,full,ni_sequenzen,NI_Sequenzen,,,,,,,,,,,,,,
,Screen_4,canvas.Screen,0_2_16_3,,skipped,17,93451.39999985695,,,93444.89999985695,,93451.39999985695,2021-10-26T15:05:42.505Z,93673.58,1635260630,full,ni_sequenzen,NI_Sequenzen,,,,,,,,,,,,,,
,Screen_5,canvas.Screen,0_2_16_4,,skipped,17,93452.89999985695,,,93444.89999985695,,93453,2021-10-26T15:05:42.507Z,93673.58,1635260630,full,ni_sequenzen,NI_Sequenzen,,,,,,,,,,,,,,
,Screen_6,canvas.Screen,0_2_16_5,,skipped,17,93454.39999985695,,,93444.89999985695,,93454.59999990463,2021-10-26T15:05:42.508Z,93673.58,1635260630,full,ni_sequenzen,NI_Sequenzen,,,,,,,,,,,,,,
,Sequence,flow.Sequence,0_2_16,,completion,17,93443.69999980927,,,93444.89999985695,,93454.79999995232,2021-10-26T15:05:42.508Z,93673.58,1635260630,full,ni_sequenzen,NI_Sequenzen,,,,,,,,,,,,,,
,Screen_1,canvas.Screen,0_2_17_0,,skipped,18,93456.79999995232,,,93456.79999995232,,93457,2021-10-26T15:05:42.511Z,93673.58,1635260630,full,ni_sequenzen,NI_Sequenzen,,,,,,,,,,,,,,
,Screen_2,canvas.Screen,0_2_17_1,,skipped,18,93458.29999995232,,,93456.79999995232,,93458.39999985695,2021-10-26T15:05:42.512Z,93673.58,1635260630,full,ni_sequenzen,NI_Sequenzen,,,,,,,,,,,,,,
,Screen_3,canvas.Screen,0_2_17_2,,skipped,18,93459.89999985695,,,93456.79999995232,,93460.09999990463,2021-10-26T15:05:42.514Z,93673.58,1635260630,full,ni_sequenzen,NI_Sequenzen,,,,,,,,,,,,,,
,Screen_4,canvas.Screen,0_2_17_3,,skipped,18,93461.5,,,93456.79999995232,,93461.59999990463,2021-10-26T15:05:42.515Z,93673.58,1635260630,full,ni_sequenzen,NI_Sequenzen,,,,,,,,,,,,,,
,Screen_5,canvas.Screen,0_2_17_4,,skipped,18,93462.89999985695,,,93456.79999995232,,93463.09999990463,2021-10-26T15:05:42.517Z,93673.58,1635260630,full,ni_sequenzen,NI_Sequenzen,,,,,,,,,,,,,,
,Screen_6,canvas.Screen,0_2_17_5,,skipped,18,93464.59999990463,,,93456.79999995232,,93464.69999980927,2021-10-26T15:05:42.518Z,93673.58,1635260630,full,ni_sequenzen,NI_Sequenzen,,,,,,,,,,,,,,
,Sequence,flow.Sequence,0_2_17,,completion,18,93455.5,,,93456.79999995232,,93464.89999985695,2021-10-26T15:05:42.519Z,93673.58,1635260630,full,ni_sequenzen,NI_Sequenzen,,,,,,,,,,,,,,
,Screen_1,canvas.Screen,0_2_18_0,,skipped,19,93466.89999985695,,,93467,,93467,2021-10-26T15:05:42.521Z,93673.58,1635260630,full,ni_sequenzen,NI_Sequenzen,,,,,,,,,,,,,,
,Screen_2,canvas.Screen,0_2_18_1,,skipped,19,93468.5,,,93467,,93468.59999990463,2021-10-26T15:05:42.522Z,93673.58,1635260630,full,ni_sequenzen,NI_Sequenzen,,,,,,,,,,,,,,
,Screen_3,canvas.Screen,0_2_18_2,,skipped,19,93470,,,93467,,93470.19999980927,2021-10-26T15:05:42.524Z,93673.58,1635260630,full,ni_sequenzen,NI_Sequenzen,,,,,,,,,,,,,,
,Screen_4,canvas.Screen,0_2_18_3,,skipped,19,93473,,,93467,,93473.19999980927,2021-10-26T15:05:42.527Z,93673.58,1635260630,full,ni_sequenzen,NI_Sequenzen,,,,,,,,,,,,,,
,Screen_5,canvas.Screen,0_2_18_4,,skipped,19,93474.79999995232,,,93467,,93474.89999985695,2021-10-26T15:05:42.529Z,93673.58,1635260630,full,ni_sequenzen,NI_Sequenzen,,,,,,,,,,,,,,
,Screen_6,canvas.Screen,0_2_18_5,,skipped,19,93476.39999985695,,,93467,,93476.59999990463,2021-10-26T15:05:42.530Z,93673.58,1635260630,full,ni_sequenzen,NI_Sequenzen,,,,,,,,,,,,,,
,Sequence,flow.Sequence,0_2_18,,completion,19,93465.5,,,93467,,93476.69999980927,2021-10-26T15:05:42.530Z,93673.58,1635260630,full,ni_sequenzen,NI_Sequenzen,,,,,,,,,,,,,,
,Screen_1,canvas.Screen,0_2_19_0,,skipped,20,93478.69999980927,,,93478.69999980927,,93478.89999985695,2021-10-26T15:05:42.533Z,93673.58,1635260630,full,ni_sequenzen,NI_Sequenzen,,,,,,,,,,,,,,
,Screen_2,canvas.Screen,0_2_19_1,,skipped,20,93480.29999995232,,,93478.69999980927,,93480.39999985695,2021-10-26T15:05:42.534Z,93673.58,1635260630,full,ni_sequenzen,NI_Sequenzen,,,,,,,,,,,,,,
,Screen_3,canvas.Screen,0_2_19_2,,skipped,20,93481.79999995232,,,93478.69999980927,,93482,2021-10-26T15:05:42.536Z,93673.58,1635260630,full,ni_sequenzen,NI_Sequenzen,,,,,,,,,,,,,,
,Screen_4,canvas.Screen,0_2_19_3,,skipped,20,93483.39999985695,,,93478.69999980927,,93483.59999990463,2021-10-26T15:05:42.537Z,93673.58,1635260630,full,ni_sequenzen,NI_Sequenzen,,,,,,,,,,,,,,
,Screen_5,canvas.Screen,0_2_19_4,,skipped,20,93485,,,93478.69999980927,,93485.09999990463,2021-10-26T15:05:42.539Z,93673.58,1635260630,full,ni_sequenzen,NI_Sequenzen,,,,,,,,,,,,,,
,Screen_6,canvas.Screen,0_2_19_5,,skipped,20,93486.59999990463,,,93478.69999980927,,93486.69999980927,2021-10-26T15:05:42.540Z,93673.58,1635260630,full,ni_sequenzen,NI_Sequenzen,,,,,,,,,,,,,,
,Sequence,flow.Sequence,0_2_19,,completion,20,93477.39999985695,,,93478.69999980927,,93486.89999985695,2021-10-26T15:05:42.541Z,93673.58,1635260630,full,ni_sequenzen,NI_Sequenzen,,,,,,,,,,,,,,
,Screen_1,canvas.Screen,0_2_20_0,,skipped,21,93488.89999985695,,,93488.89999985695,,93489,2021-10-26T15:05:42.543Z,93673.58,1635260630,full,ni_sequenzen,NI_Sequenzen,,,,,,,,,,,,,,
,Screen_2,canvas.Screen,0_2_20_1,,skipped,21,93490.39999985695,,,93488.89999985695,,93490.59999990463,2021-10-26T15:05:42.544Z,93673.58,1635260630,full,ni_sequenzen,NI_Sequenzen,,,,,,,,,,,,,,
,Screen_3,canvas.Screen,0_2_20_2,,skipped,21,93492,,,93488.89999985695,,93492.19999980927,2021-10-26T15:05:42.546Z,93673.58,1635260630,full,ni_sequenzen,NI_Sequenzen,,,,,,,,,,,,,,
,Screen_4,canvas.Screen,0_2_20_3,,skipped,21,93493.59999990463,,,93488.89999985695,,93493.79999995232,2021-10-26T15:05:42.547Z,93673.58,1635260630,full,ni_sequenzen,NI_Sequenzen,,,,,,,,,,,,,,
,Screen_5,canvas.Screen,0_2_20_4,,skipped,21,93496.89999985695,,,93488.89999985695,,93497.09999990463,2021-10-26T15:05:42.551Z,93673.58,1635260630,full,ni_sequenzen,NI_Sequenzen,,,,,,,,,,,,,,
,Screen_6,canvas.Screen,0_2_20_5,,skipped,21,93498.69999980927,,,93488.89999985695,,93498.79999995232,2021-10-26T15:05:42.552Z,93673.58,1635260630,full,ni_sequenzen,NI_Sequenzen,,,,,,,,,,,,,,
,Sequence,flow.Sequence,0_2_20,,completion,21,93487.5,,,93488.89999985695,,93499.09999990463,2021-10-26T15:05:42.553Z,93673.58,1635260630,full,ni_sequenzen,NI_Sequenzen,,,,,,,,,,,,,,
,Screen_1,canvas.Screen,0_2_21_0,,skipped,22,93501.19999980927,,,93501.19999980927,,93501.29999995232,2021-10-26T15:05:42.555Z,93673.58,1635260630,full,ni_sequenzen,NI_Sequenzen,,,,,,,,,,,,,,
,Screen_2,canvas.Screen,0_2_21_1,,skipped,22,93502.69999980927,,,93501.19999980927,,93502.79999995232,2021-10-26T15:05:42.557Z,93673.58,1635260630,full,ni_sequenzen,NI_Sequenzen,,,,,,,,,,,,,,
,Screen_3,canvas.Screen,0_2_21_2,,skipped,22,93504.39999985695,,,93501.19999980927,,93504.5,2021-10-26T15:05:42.558Z,93673.58,1635260630,full,ni_sequenzen,NI_Sequenzen,,,,,,,,,,,,,,
,Screen_4,canvas.Screen,0_2_21_3,,skipped,22,93505.89999985695,,,93501.19999980927,,93506,2021-10-26T15:05:42.560Z,93673.58,1635260630,full,ni_sequenzen,NI_Sequenzen,,,,,,,,,,,,,,
,Screen_5,canvas.Screen,0_2_21_4,,skipped,22,93508.5,,,93501.19999980927,,93508.69999980927,2021-10-26T15:05:42.562Z,93673.58,1635260630,full,ni_sequenzen,NI_Sequenzen,,,,,,,,,,,,,,
,Screen_6,canvas.Screen,0_2_21_5,,skipped,22,93510.19999980927,,,93501.19999980927,,93510.29999995232,2021-10-26T15:05:42.564Z,93673.58,1635260630,full,ni_sequenzen,NI_Sequenzen,,,,,,,,,,,,,,
,Sequence,flow.Sequence,0_2_21,,completion,22,93499.69999980927,,,93501.19999980927,,93510.59999990463,2021-10-26T15:05:42.564Z,93673.58,1635260630,full,ni_sequenzen,NI_Sequenzen,,,,,,,,,,,,,,
,Screen_1,canvas.Screen,0_2_22_0,,skipped,23,93512.59999990463,,,93512.69999980927,,93512.79999995232,2021-10-26T15:05:42.566Z,93673.58,1635260630,full,ni_sequenzen,NI_Sequenzen,,,,,,,,,,,,,,
,Screen_2,canvas.Screen,0_2_22_1,,skipped,23,93514.29999995232,,,93512.69999980927,,93514.39999985695,2021-10-26T15:05:42.568Z,93673.58,1635260630,full,ni_sequenzen,NI_Sequenzen,,,,,,,,,,,,,,
,Screen_3,canvas.Screen,0_2_22_2,,skipped,23,93516.19999980927,,,93512.69999980927,,93516.39999985695,2021-10-26T15:05:42.570Z,93673.58,1635260630,full,ni_sequenzen,NI_Sequenzen,,,,,,,,,,,,,,
,Screen_4,canvas.Screen,0_2_22_3,,skipped,23,93518,,,93512.69999980927,,93518.29999995232,2021-10-26T15:05:42.572Z,93673.58,1635260630,full,ni_sequenzen,NI_Sequenzen,,,,,,,,,,,,,,
,Screen_5,canvas.Screen,0_2_22_4,,skipped,23,93519.69999980927,,,93512.69999980927,,93519.89999985695,2021-10-26T15:05:42.574Z,93673.58,1635260630,full,ni_sequenzen,NI_Sequenzen,,,,,,,,,,,,,,
,Screen_6,canvas.Screen,0_2_22_5,,skipped,23,93521.5,,,93512.69999980927,,93521.69999980927,2021-10-26T15:05:42.575Z,93673.58,1635260630,full,ni_sequenzen,NI_Sequenzen,,,,,,,,,,,,,,
,Sequence,flow.Sequence,0_2_22,,completion,23,93511.19999980927,,,93512.69999980927,,93521.89999985695,2021-10-26T15:05:42.576Z,93673.58,1635260630,full,ni_sequenzen,NI_Sequenzen,,,,,,,,,,,,,,
,Screen_1,canvas.Screen,0_2_23_0,,skipped,24,93524,,,93524.09999990463,,93524.09999990463,2021-10-26T15:05:42.578Z,93673.58,1635260630,full,ni_sequenzen,NI_Sequenzen,,,,,,,,,,,,,,
,Screen_2,canvas.Screen,0_2_23_1,,skipped,24,93525.5,,,93524.09999990463,,93525.79999995232,2021-10-26T15:05:42.579Z,93673.58,1635260630,full,ni_sequenzen,NI_Sequenzen,,,,,,,,,,,,,,
,Screen_3,canvas.Screen,0_2_23_2,,skipped,24,93528.79999995232,,,93524.09999990463,,93528.89999985695,2021-10-26T15:05:42.583Z,93673.58,1635260630,full,ni_sequenzen,NI_Sequenzen,,,,,,,,,,,,,,
,Screen_4,canvas.Screen,0_2_23_3,,skipped,24,93530.29999995232,,,93524.09999990463,,93530.5,2021-10-26T15:05:42.584Z,93673.58,1635260630,full,ni_sequenzen,NI_Sequenzen,,,,,,,,,,,,,,
,Screen_5,canvas.Screen,0_2_23_4,,skipped,24,93531.89999985695,,,93524.09999990463,,93531.89999985695,2021-10-26T15:05:42.586Z,93673.58,1635260630,full,ni_sequenzen,NI_Sequenzen,,,,,,,,,,,,,,
,Screen_6,canvas.Screen,0_2_23_5,,skipped,24,93533.5,,,93524.09999990463,,93533.59999990463,2021-10-26T15:05:42.587Z,93673.58,1635260630,full,ni_sequenzen,NI_Sequenzen,,,,,,,,,,,,,,
,Sequence,flow.Sequence,0_2_23,,completion,24,93522.59999990463,,,93524.09999990463,,93533.89999985695,2021-10-26T15:05:42.587Z,93673.58,1635260630,full,ni_sequenzen,NI_Sequenzen,,,,,,,,,,,,,,
,Screen_1,canvas.Screen,0_2_24_0,,skipped,25,93535.79999995232,,,93535.79999995232,,93536,2021-10-26T15:05:42.590Z,93673.58,1635260630,full,ni_sequenzen,NI_Sequenzen,,,,,,,,,,,,,,
,Screen_2,canvas.Screen,0_2_24_1,,skipped,25,93537.39999985695,,,93535.79999995232,,93537.5,2021-10-26T15:05:42.591Z,93673.58,1635260630,full,ni_sequenzen,NI_Sequenzen,,,,,,,,,,,,,,
,Screen_3,canvas.Screen,0_2_24_2,,skipped,25,93538.89999985695,,,93535.79999995232,,93539.09999990463,2021-10-26T15:05:42.593Z,93673.58,1635260630,full,ni_sequenzen,NI_Sequenzen,,,,,,,,,,,,,,
,Screen_4,canvas.Screen,0_2_24_3,,skipped,25,93540.39999985695,,,93535.79999995232,,93540.59999990463,2021-10-26T15:05:42.594Z,93673.58,1635260630,full,ni_sequenzen,NI_Sequenzen,,,,,,,,,,,,,,
,Screen_5,canvas.Screen,0_2_24_4,,skipped,25,93542,,,93535.79999995232,,93542.09999990463,2021-10-26T15:05:42.596Z,93673.58,1635260630,full,ni_sequenzen,NI_Sequenzen,,,,,,,,,,,,,,
,Screen_6,canvas.Screen,0_2_24_5,,skipped,25,93543.5,,,93535.79999995232,,93543.69999980927,2021-10-26T15:05:42.597Z,93673.58,1635260630,full,ni_sequenzen,NI_Sequenzen,,,,,,,,,,,,,,
,Sequence,flow.Sequence,0_2_24,,completion,25,93534.39999985695,,,93535.79999995232,,93543.89999985695,2021-10-26T15:05:42.598Z,93673.58,1635260630,full,ni_sequenzen,NI_Sequenzen,,,,,,,,,,,,,,
,Screen_1,canvas.Screen,0_2_25_0,,skipped,26,93545.89999985695,,,93545.89999985695,,93546.09999990463,2021-10-26T15:05:42.600Z,93673.58,1635260630,full,ni_sequenzen,NI_Sequenzen,,,,,,,,,,,,,,
,Screen_2,canvas.Screen,0_2_25_1,,skipped,26,93547.39999985695,,,93545.89999985695,,93547.59999990463,2021-10-26T15:05:42.601Z,93673.58,1635260630,full,ni_sequenzen,NI_Sequenzen,,,,,,,,,,,,,,
,Screen_3,canvas.Screen,0_2_25_2,,skipped,26,93549,,,93545.89999985695,,93549.09999990463,2021-10-26T15:05:42.603Z,93673.58,1635260630,full,ni_sequenzen,NI_Sequenzen,,,,,,,,,,,,,,
,Screen_4,canvas.Screen,0_2_25_3,,skipped,26,93550.5,,,93545.89999985695,,93550.69999980927,2021-10-26T15:05:42.604Z,93673.58,1635260630,full,ni_sequenzen,NI_Sequenzen,,,,,,,,,,,,,,
,Screen_5,canvas.Screen,0_2_25_4,,skipped,26,93552.09999990463,,,93545.89999985695,,93552.19999980927,2021-10-26T15:05:42.606Z,93673.58,1635260630,full,ni_sequenzen,NI_Sequenzen,,,,,,,,,,,,,,
,Screen_6,canvas.Screen,0_2_25_5,,skipped,26,93555.19999980927,,,93545.89999985695,,93555.29999995232,2021-10-26T15:05:42.609Z,93673.58,1635260630,full,ni_sequenzen,NI_Sequenzen,,,,,,,,,,,,,,
,Sequence,flow.Sequence,0_2_25,,completion,26,93544.5,,,93545.89999985695,,93555.59999990463,2021-10-26T15:05:42.609Z,93673.58,1635260630,full,ni_sequenzen,NI_Sequenzen,,,,,,,,,,,,,,
,Screen_1,canvas.Screen,0_2_26_0,,skipped,27,93557.69999980927,,,93557.69999980927,,93557.79999995232,2021-10-26T15:05:42.611Z,93673.58,1635260630,full,ni_sequenzen,NI_Sequenzen,,,,,,,,,,,,,,
,Screen_2,canvas.Screen,0_2_26_1,,skipped,27,93559.19999980927,,,93557.69999980927,,93559.59999990463,2021-10-26T15:05:42.613Z,93673.58,1635260630,full,ni_sequenzen,NI_Sequenzen,,,,,,,,,,,,,,
,Screen_3,canvas.Screen,0_2_26_2,,skipped,27,93561.29999995232,,,93557.69999980927,,93561.5,2021-10-26T15:05:42.615Z,93673.58,1635260630,full,ni_sequenzen,NI_Sequenzen,,,,,,,,,,,,,,
,Screen_4,canvas.Screen,0_2_26_3,,skipped,27,93562.89999985695,,,93557.69999980927,,93563,2021-10-26T15:05:42.617Z,93673.58,1635260630,full,ni_sequenzen,NI_Sequenzen,,,,,,,,,,,,,,
,Screen_5,canvas.Screen,0_2_26_4,,skipped,27,93564.5,,,93557.69999980927,,93564.59999990463,2021-10-26T15:05:42.618Z,93673.58,1635260630,full,ni_sequenzen,NI_Sequenzen,,,,,,,,,,,,,,
,Screen_6,canvas.Screen,0_2_26_5,,skipped,27,93566,,,93557.69999980927,,93566.19999980927,2021-10-26T15:05:42.620Z,93673.58,1635260630,full,ni_sequenzen,NI_Sequenzen,,,,,,,,,,,,,,
,Sequence,flow.Sequence,0_2_26,,completion,27,93556.19999980927,,,93557.69999980927,,93566.39999985695,2021-10-26T15:05:42.620Z,93673.58,1635260630,full,ni_sequenzen,NI_Sequenzen,,,,,,,,,,,,,,
,Screen_1,canvas.Screen,0_2_27_0,,skipped,28,93568.29999995232,,,93568.29999995232,,93568.59999990463,2021-10-26T15:05:42.622Z,93673.58,1635260630,full,ni_sequenzen,NI_Sequenzen,,,,,,,,,,,,,,
,Screen_2,canvas.Screen,0_2_27_1,,skipped,28,93570,,,93568.29999995232,,93570.09999990463,2021-10-26T15:05:42.624Z,93673.58,1635260630,full,ni_sequenzen,NI_Sequenzen,,,,,,,,,,,,,,
,Screen_3,canvas.Screen,0_2_27_2,,skipped,28,93571.5,,,93568.29999995232,,93571.69999980927,2021-10-26T15:05:42.625Z,93673.58,1635260630,full,ni_sequenzen,NI_Sequenzen,,,,,,,,,,,,,,
,Screen_4,canvas.Screen,0_2_27_3,,skipped,28,93573,,,93568.29999995232,,93573.09999990463,2021-10-26T15:05:42.627Z,93673.58,1635260630,full,ni_sequenzen,NI_Sequenzen,,,,,,,,,,,,,,
,Screen_5,canvas.Screen,0_2_27_4,,skipped,28,93574.59999990463,,,93568.29999995232,,93574.69999980927,2021-10-26T15:05:42.628Z,93673.58,1635260630,full,ni_sequenzen,NI_Sequenzen,,,,,,,,,,,,,,
,Screen_6,canvas.Screen,0_2_27_5,,skipped,28,93576.09999990463,,,93568.29999995232,,93576.19999980927,2021-10-26T15:05:42.630Z,93673.58,1635260630,full,ni_sequenzen,NI_Sequenzen,,,,,,,,,,,,,,
,Sequence,flow.Sequence,0_2_27,,completion,28,93567.09999990463,,,93568.29999995232,,93576.39999985695,2021-10-26T15:05:42.630Z,93673.58,1635260630,full,ni_sequenzen,NI_Sequenzen,,,,,,,,,,,,,,
,Screen_1,canvas.Screen,0_2_28_0,,skipped,29,93578.5,,,93578.5,,93578.59999990463,2021-10-26T15:05:42.632Z,93673.58,1635260630,full,ni_sequenzen,NI_Sequenzen,,,,,,,,,,,,,,
,Screen_2,canvas.Screen,0_2_28_1,,skipped,29,93580,,,93578.5,,93580.09999990463,2021-10-26T15:05:42.634Z,93673.58,1635260630,full,ni_sequenzen,NI_Sequenzen,,,,,,,,,,,,,,
,Screen_3,canvas.Screen,0_2_28_2,,skipped,29,93582.69999980927,,,93578.5,,93582.79999995232,2021-10-26T15:05:42.637Z,93673.58,1635260630,full,ni_sequenzen,NI_Sequenzen,,,,,,,,,,,,,,
,Screen_4,canvas.Screen,0_2_28_3,,skipped,29,93584.19999980927,,,93578.5,,93584.29999995232,2021-10-26T15:05:42.638Z,93673.58,1635260630,full,ni_sequenzen,NI_Sequenzen,,,,,,,,,,,,,,
,Screen_5,canvas.Screen,0_2_28_4,,skipped,29,93585.69999980927,,,93578.5,,93585.79999995232,2021-10-26T15:05:42.640Z,93673.58,1635260630,full,ni_sequenzen,NI_Sequenzen,,,,,,,,,,,,,,
,Screen_6,canvas.Screen,0_2_28_5,,skipped,29,93587.09999990463,,,93578.5,,93587.29999995232,2021-10-26T15:05:42.641Z,93673.58,1635260630,full,ni_sequenzen,NI_Sequenzen,,,,,,,,,,,,,,
,Sequence,flow.Sequence,0_2_28,,completion,29,93577.09999990463,,,93578.5,,93587.5,2021-10-26T15:05:42.641Z,93673.58,1635260630,full,ni_sequenzen,NI_Sequenzen,,,,,,,,,,,,,,
,Screen_1,canvas.Screen,0_2_29_0,,skipped,30,93589.39999985695,,,93589.39999985695,,93589.5,2021-10-26T15:05:42.643Z,93673.58,1635260630,full,ni_sequenzen,NI_Sequenzen,,,,,,,,,,,,,,
,Screen_2,canvas.Screen,0_2_29_1,,skipped,30,93590.79999995232,,,93589.39999985695,,93590.89999985695,2021-10-26T15:05:42.645Z,93673.58,1635260630,full,ni_sequenzen,NI_Sequenzen,,,,,,,,,,,,,,
,Screen_3,canvas.Screen,0_2_29_2,,skipped,30,93592.29999995232,,,93589.39999985695,,93592.5,2021-10-26T15:05:42.646Z,93673.58,1635260630,full,ni_sequenzen,NI_Sequenzen,,,,,,,,,,,,,,
,Screen_4,canvas.Screen,0_2_29_3,,skipped,30,93593.69999980927,,,93589.39999985695,,93593.89999985695,2021-10-26T15:05:42.648Z,93673.58,1635260630,full,ni_sequenzen,NI_Sequenzen,,,,,,,,,,,,,,
,Screen_5,canvas.Screen,0_2_29_4,,skipped,30,93595.19999980927,,,93589.39999985695,,93595.29999995232,2021-10-26T15:05:42.649Z,93673.58,1635260630,full,ni_sequenzen,NI_Sequenzen,,,,,,,,,,,,,,
,Screen_6,canvas.Screen,0_2_29_5,,skipped,30,93596.59999990463,,,93589.39999985695,,93596.69999980927,2021-10-26T15:05:42.650Z,93673.58,1635260630,full,ni_sequenzen,NI_Sequenzen,,,,,,,,,,,,,,
,Sequence,flow.Sequence,0_2_29,,completion,30,93588.09999990463,,,93589.39999985695,,93597,2021-10-26T15:05:42.651Z,93673.58,1635260630,full,ni_sequenzen,NI_Sequenzen,,,,,,,,,,,,,,
,Instructions_II,flow.Loop,0_2,,completion,,55051.89999985695,55040.602,55077.817,93589.39999985695,38511.582999856946,93597,2021-10-26T15:05:42.651Z,93673.58,1635260630,full,ni_sequenzen,NI_Sequenzen,,,,,,,,,,,,,,
,Move,canvas.Screen,0_3_0_0_0_0,down,response,,93662.5,93656.844,93673.58,97671.19999980927,3997.6199998092634,97672.19999980927,2021-10-26T15:05:46.726Z,97690.254,1635260630,full,ni_sequenzen,NI_Sequenzen,1,0,,,,,,,,,,,,
,Move,canvas.Screen,0_3_0_0_0_1,left,response,,97687.5,97673.467,97690.254,98576.19999980927,885.9459998092643,98577.29999995232,2021-10-26T15:05:47.631Z,98606.936,1635260630,full,ni_sequenzen,NI_Sequenzen,2,0,,,,,,,,,,,,
,Move,canvas.Screen,0_3_0_0_0_2,down,response,,98583.19999980927,98573.57,98606.936,99066.39999985695,459.46399985694734,99067.59999990463,2021-10-26T15:05:48.121Z,99090.257,1635260630,full,ni_sequenzen,NI_Sequenzen,3,0,,,,,,,,,,,,
,Move,canvas.Screen,0_3_0_0_0_3,left,response,,99073.29999995232,99073.758,99090.257,99574.89999985695,484.64299985695106,99576,2021-10-26T15:05:48.630Z,99681.426,1635260630,full,ni_sequenzen,NI_Sequenzen,4,0,,,,,,,,,,,,
,Move,canvas.Screen,0_3_0_0_0_4,-999,skipped,,99582.19999980927,,,99574.89999985695,,99582.5,2021-10-26T15:05:48.636Z,99681.426,1635260630,full,ni_sequenzen,NI_Sequenzen,5,0,,,,,,,,,,,,
,Move,canvas.Screen,0_3_0_0_0_5,-999,skipped,,99588,,,99574.89999985695,,99588.29999995232,2021-10-26T15:05:48.642Z,99681.426,1635260630,full,ni_sequenzen,NI_Sequenzen,6,0,,,,,,,,,,,,
,Move,canvas.Screen,0_3_0_0_0_6,-999,skipped,,99593.09999990463,,,99574.89999985695,,99593.29999995232,2021-10-26T15:05:48.647Z,99681.426,1635260630,full,ni_sequenzen,NI_Sequenzen,7,0,,,,,,,,,,,,
,Move,canvas.Screen,0_3_0_0_0_7,-999,skipped,,99597.59999990463,,,99574.89999985695,,99597.69999980927,2021-10-26T15:05:48.651Z,99681.426,1635260630,full,ni_sequenzen,NI_Sequenzen,8,0,,,,,,,,,,,,
,Move,canvas.Screen,0_3_0_0_0_8,-999,skipped,,99602,,,99574.89999985695,,99602.19999980927,2021-10-26T15:05:48.656Z,99681.426,1635260630,full,ni_sequenzen,NI_Sequenzen,9,0,,,,,,,,,,,,
,Move,canvas.Screen,0_3_0_0_0_9,-999,skipped,,99608.59999990463,,,99574.89999985695,,99608.89999985695,2021-10-26T15:05:48.662Z,99681.426,1635260630,full,ni_sequenzen,NI_Sequenzen,10,0,,,,,,,,,,,,
,Move,canvas.Screen,0_3_0_0_0_10,-999,skipped,,99612.59999990463,,,99574.89999985695,,99612.79999995232,2021-10-26T15:05:48.666Z,99681.426,1635260630,full,ni_sequenzen,NI_Sequenzen,11,0,,,,,,,,,,,,
,Move,canvas.Screen,0_3_0_0_0_11,-999,skipped,,99618.19999980927,,,99574.89999985695,,99618.29999995232,2021-10-26T15:05:48.672Z,99681.426,1635260630,full,ni_sequenzen,NI_Sequenzen,12,0,,,,,,,,,,,,
,Move,canvas.Screen,0_3_0_0_0_12,-999,skipped,,99625.09999990463,,,99574.89999985695,,99625.19999980927,2021-10-26T15:05:48.679Z,99681.426,1635260630,full,ni_sequenzen,NI_Sequenzen,13,0,,,,,,,,,,,,
,Move,canvas.Screen,0_3_0_0_0_13,-999,skipped,,99629.5,,,99574.89999985695,,99629.69999980927,2021-10-26T15:05:48.683Z,99681.426,1635260630,full,ni_sequenzen,NI_Sequenzen,14,0,,,,,,,,,,,,
,Move,canvas.Screen,0_3_0_0_0_14,-999,skipped,,99634.89999985695,,,99574.89999985695,,99635.09999990463,2021-10-26T15:05:48.689Z,99681.426,1635260630,full,ni_sequenzen,NI_Sequenzen,15,0,,,,,,,,,,,,
,Loop,flow.Loop,0_3_0_0_0,-999,completion,,93654.09999990463,93656.844,93673.58,99574.89999985695,5901.319999856947,99635.39999985695,2021-10-26T15:05:48.689Z,99681.426,1635260630,full,ni_sequenzen,NI_Sequenzen,,0,,,,,,,,,,,,
,Feedback,canvas.Screen,0_3_0_0_1,,timeout,,99639.19999980927,99623.518,99681.426,103657.097,4008.779999999999,103658.79999995232,2021-10-26T15:05:52.712Z,103690.206,1635260630,full,ni_sequenzen,NI_Sequenzen,,0,,,,,,,,,,,,
,Trial,flow.Sequence,0_3_0_0,,completion,,93627.79999995232,93656.844,93673.58,103657.097,9983.516999999993,103659.09999990463,2021-10-26T15:05:52.713Z,103706.96,1635260630,full,ni_sequenzen,NI_Sequenzen,,0,,,,,,,,,,,,
,Move,canvas.Screen,0_3_0_1_0_0,right,response,,103692.89999985695,103690.206,103706.96,107549.79999995232,3842.83999995231,107550.79999995232,2021-10-26T15:05:56.604Z,107573.672,1635260630,full,ni_sequenzen,NI_Sequenzen,1,1,,,,,,,,,,,,
,Move,canvas.Screen,0_3_0_1_0_1,down,response,,107556.29999995232,107540.241,107573.672,108057.5,483.82799999999406,108058.5,2021-10-26T15:05:57.112Z,108090.189,1635260630,full,ni_sequenzen,NI_Sequenzen,2,1,,,,,,,,,,,,
,Move,canvas.Screen,0_3_0_1_0_2,right,response,,108065.5,108057.102,108090.189,108655.39999985695,565.2109998569504,108656.69999980927,2021-10-26T15:05:57.710Z,108673.6,1635260630,full,ni_sequenzen,NI_Sequenzen,3,1,,,,,,,,,,,,
,Move,canvas.Screen,0_3_0_1_0_3,down,response,,108663.39999985695,108657.045,108673.6,109041.39999985695,367.79999985694303,109042.59999990463,2021-10-26T15:05:58.096Z,109106.833,1635260630,full,ni_sequenzen,NI_Sequenzen,4,1,,,,,,,,,,,,
,Move,canvas.Screen,0_3_0_1_0_4,-999,skipped,,109048.79999995232,,,109041.39999985695,,109049.19999980927,2021-10-26T15:05:58.103Z,109106.833,1635260630,full,ni_sequenzen,NI_Sequenzen,5,1,,,,,,,,,,,,
,Move,canvas.Screen,0_3_0_1_0_5,-999,skipped,,109054.5,,,109041.39999985695,,109054.69999980927,2021-10-26T15:05:58.108Z,109106.833,1635260630,full,ni_sequenzen,NI_Sequenzen,6,1,,,,,,,,,,,,
,Move,canvas.Screen,0_3_0_1_0_6,-999,skipped,,109060.69999980927,,,109041.39999985695,,109060.89999985695,2021-10-26T15:05:58.115Z,109106.833,1635260630,full,ni_sequenzen,NI_Sequenzen,7,1,,,,,,,,,,,,
,Move,canvas.Screen,0_3_0_1_0_7,-999,skipped,,109065.39999985695,,,109041.39999985695,,109065.59999990463,2021-10-26T15:05:58.119Z,109106.833,1635260630,full,ni_sequenzen,NI_Sequenzen,8,1,,,,,,,,,,,,
,Move,canvas.Screen,0_3_0_1_0_8,-999,skipped,,109069.79999995232,,,109041.39999985695,,109069.89999985695,2021-10-26T15:05:58.124Z,109106.833,1635260630,full,ni_sequenzen,NI_Sequenzen,9,1,,,,,,,,,,,,
,Move,canvas.Screen,0_3_0_1_0_9,-999,skipped,,109076.79999995232,,,109041.39999985695,,109077.09999990463,2021-10-26T15:05:58.131Z,109106.833,1635260630,full,ni_sequenzen,NI_Sequenzen,10,1,,,,,,,,,,,,
,Move,canvas.Screen,0_3_0_1_0_10,-999,skipped,,109081.69999980927,,,109041.39999985695,,109081.79999995232,2021-10-26T15:05:58.136Z,109106.833,1635260630,full,ni_sequenzen,NI_Sequenzen,11,1,,,,,,,,,,,,
,Move,canvas.Screen,0_3_0_1_0_11,-999,skipped,,109085.89999985695,,,109041.39999985695,,109086.09999990463,2021-10-26T15:05:58.140Z,109106.833,1635260630,full,ni_sequenzen,NI_Sequenzen,12,1,,,,,,,,,,,,
,Move,canvas.Screen,0_3_0_1_0_12,-999,skipped,,109090.29999995232,,,109041.39999985695,,109090.39999985695,2021-10-26T15:05:58.144Z,109106.833,1635260630,full,ni_sequenzen,NI_Sequenzen,13,1,,,,,,,,,,,,
,Move,canvas.Screen,0_3_0_1_0_13,-999,skipped,,109096.09999990463,,,109041.39999985695,,109096.29999995232,2021-10-26T15:05:58.150Z,109106.833,1635260630,full,ni_sequenzen,NI_Sequenzen,14,1,,,,,,,,,,,,
,Move,canvas.Screen,0_3_0_1_0_14,-999,skipped,,109100.59999990463,,,109041.39999985695,,109100.79999995232,2021-10-26T15:05:58.154Z,109106.833,1635260630,full,ni_sequenzen,NI_Sequenzen,15,1,,,,,,,,,,,,
,Loop,flow.Loop,0_3_0_1_0,-999,completion,,103686.59999990463,103690.206,103706.96,109041.39999985695,5334.439999856942,109101.09999990463,2021-10-26T15:05:58.155Z,109106.833,1635260630,full,ni_sequenzen,NI_Sequenzen,,1,,,,,,,,,,,,
,Feedback,canvas.Screen,0_3_0_1_1,,timeout,,109104.69999980927,109090.379,109106.833,113090.404,4016.6630000000005,113091.59999990463,2021-10-26T15:06:02.145Z,113123.496,1635260630,full,ni_sequenzen,NI_Sequenzen,,1,,,,,,,,,,,,
,Trial,flow.Sequence,0_3_0_1,,completion,,103659.79999995232,103690.206,103706.96,113090.404,9383.443999999989,113091.89999985695,2021-10-26T15:06:02.146Z,113156.831,1635260630,full,ni_sequenzen,NI_Sequenzen,,1,,,,,,,,,,,,
,Move,canvas.Screen,0_3_0_2_0_0,right,response,,113128.69999980927,113123.496,113156.831,117641.39999985695,4484.568999856943,117642.69999980927,2021-10-26T15:06:06.696Z,117656.778,1635260630,full,ni_sequenzen,NI_Sequenzen,1,2,,,,,,,,,,,,
,Move,canvas.Screen,0_3_0_2_0_1,down,response,,117648.09999990463,117640.156,117656.778,117973.59999990463,316.82199990462686,117974.59999990463,2021-10-26T15:06:07.028Z,117990.14,1635260630,full,ni_sequenzen,NI_Sequenzen,2,2,,,,,,,,,,,,
,Move,canvas.Screen,0_3_0_2_0_2,right,response,,117980.89999985695,117973.638,117990.14,118276.39999985695,286.25999985694943,118277.5,2021-10-26T15:06:07.331Z,118306.804,1635260630,full,ni_sequenzen,NI_Sequenzen,3,2,,,,,,,,,,,,
,Move,canvas.Screen,0_3_0_2_0_3,down,response,,118282.89999985695,118273.626,118306.804,118604.5,297.6959999999963,118605.69999980927,2021-10-26T15:06:07.659Z,118673.442,1635260630,full,ni_sequenzen,NI_Sequenzen,4,2,,,,,,,,,,,,
,Move,canvas.Screen,0_3_0_2_0_4,-999,skipped,,118612.5,,,118604.5,,118612.79999995232,2021-10-26T15:06:07.666Z,118673.442,1635260630,full,ni_sequenzen,NI_Sequenzen,5,2,,,,,,,,,,,,
,Move,canvas.Screen,0_3_0_2_0_5,-999,skipped,,118619.39999985695,,,118604.5,,118619.69999980927,2021-10-26T15:06:07.673Z,118673.442,1635260630,full,ni_sequenzen,NI_Sequenzen,6,2,,,,,,,,,,,,
,Move,canvas.Screen,0_3_0_2_0_6,-999,skipped,,118624.59999990463,,,118604.5,,118624.79999995232,2021-10-26T15:06:07.678Z,118673.442,1635260630,full,ni_sequenzen,NI_Sequenzen,7,2,,,,,,,,,,,,
,Move,canvas.Screen,0_3_0_2_0_7,-999,skipped,,118630.69999980927,,,118604.5,,118630.89999985695,2021-10-26T15:06:07.685Z,118673.442,1635260630,full,ni_sequenzen,NI_Sequenzen,8,2,,,,,,,,,,,,
,Move,canvas.Screen,0_3_0_2_0_8,-999,skipped,,118635.39999985695,,,118604.5,,118635.59999990463,2021-10-26T15:06:07.689Z,118673.442,1635260630,full,ni_sequenzen,NI_Sequenzen,9,2,,,,,,,,,,,,
,Move,canvas.Screen,0_3_0_2_0_9,-999,skipped,,118639.69999980927,,,118604.5,,118639.89999985695,2021-10-26T15:06:07.694Z,118673.442,1635260630,full,ni_sequenzen,NI_Sequenzen,10,2,,,,,,,,,,,,
,Move,canvas.Screen,0_3_0_2_0_10,-999,skipped,,118645.09999990463,,,118604.5,,118645.29999995232,2021-10-26T15:06:07.699Z,118673.442,1635260630,full,ni_sequenzen,NI_Sequenzen,11,2,,,,,,,,,,,,
,Move,canvas.Screen,0_3_0_2_0_11,-999,skipped,,118649.5,,,118604.5,,118649.69999980927,2021-10-26T15:06:07.703Z,118673.442,1635260630,full,ni_sequenzen,NI_Sequenzen,12,2,,,,,,,,,,,,
,Move,canvas.Screen,0_3_0_2_0_12,-999,skipped,,118653.89999985695,,,118604.5,,118654.09999990463,2021-10-26T15:06:07.708Z,118673.442,1635260630,full,ni_sequenzen,NI_Sequenzen,13,2,,,,,,,,,,,,
,Move,canvas.Screen,0_3_0_2_0_13,-999,skipped,,118658.09999990463,,,118604.5,,118658.29999995232,2021-10-26T15:06:07.712Z,118673.442,1635260630,full,ni_sequenzen,NI_Sequenzen,14,2,,,,,,,,,,,,
,Move,canvas.Screen,0_3_0_2_0_14,-999,skipped,,118663.59999990463,,,118604.5,,118663.69999980927,2021-10-26T15:06:07.717Z,118673.442,1635260630,full,ni_sequenzen,NI_Sequenzen,15,2,,,,,,,,,,,,
,Loop,flow.Loop,0_3_0_2_0,-999,completion,,113122.89999985695,113123.496,113156.831,118604.5,5447.668999999994,118664,2021-10-26T15:06:07.718Z,118673.442,1635260630,full,ni_sequenzen,NI_Sequenzen,,2,,,,,,,,,,,,
,Feedback,canvas.Screen,0_3_0_2_1,,timeout,,118667.19999980927,118656.975,118673.442,122656.818,4016.6770000000106,122657.89999985695,2021-10-26T15:06:11.712Z,122690.119,1635260630,full,ni_sequenzen,NI_Sequenzen,,2,,,,,,,,,,,,
,Trial,flow.Sequence,0_3_0_2,,completion,,113092.5,113123.496,113156.831,122656.818,9499.986999999994,122658.19999980927,2021-10-26T15:06:11.712Z,122706.77,1635260630,full,ni_sequenzen,NI_Sequenzen,,2,,,,,,,,,,,,
,Move,canvas.Screen,0_3_0_3_0_0,right,response,,122691.09999990463,122690.119,122706.77,131332.19999980927,8625.429999809261,131333.09999990463,2021-10-26T15:06:20.387Z,131356.713,1635260630,full,ni_sequenzen,NI_Sequenzen,1,3,,,,,,,,,,,,
,Move,canvas.Screen,0_3_0_3_0_1,down,response,,131337.79999995232,131323.257,131356.713,131808.19999980927,451.4869998092763,131809.29999995232,2021-10-26T15:06:20.863Z,131823.4,1635260630,full,ni_sequenzen,NI_Sequenzen,2,3,,,,,,,,,,,,
,Move,canvas.Screen,0_3_0_3_0_2,right,response,,131815.89999985695,131806.939,131823.4,132146.79999995232,323.3999999523221,132147.89999985695,2021-10-26T15:06:21.202Z,132173.443,1635260630,full,ni_sequenzen,NI_Sequenzen,3,3,,,,,,,,,,,,
,Move,canvas.Screen,0_3_0_3_0_3,down,response,,132153.29999995232,132140.233,132173.443,132554.39999985695,380.95699985694955,132555.59999990463,2021-10-26T15:06:21.609Z,132623.44,1635260630,full,ni_sequenzen,NI_Sequenzen,4,3,,,,,,,,,,,,
,Move,canvas.Screen,0_3_0_3_0_4,-999,skipped,,132561.79999995232,,,132554.39999985695,,132562,2021-10-26T15:06:21.616Z,132623.44,1635260630,full,ni_sequenzen,NI_Sequenzen,5,3,,,,,,,,,,,,
,Move,canvas.Screen,0_3_0_3_0_5,-999,skipped,,132566.79999995232,,,132554.39999985695,,132567,2021-10-26T15:06:21.621Z,132623.44,1635260630,full,ni_sequenzen,NI_Sequenzen,6,3,,,,,,,,,,,,
,Move,canvas.Screen,0_3_0_3_0_6,-999,skipped,,132571.5,,,132554.39999985695,,132571.59999990463,2021-10-26T15:06:21.625Z,132623.44,1635260630,full,ni_sequenzen,NI_Sequenzen,7,3,,,,,,,,,,,,
,Move,canvas.Screen,0_3_0_3_0_7,-999,skipped,,132577.19999980927,,,132554.39999985695,,132577.29999995232,2021-10-26T15:06:21.631Z,132623.44,1635260630,full,ni_sequenzen,NI_Sequenzen,8,3,,,,,,,,,,,,
,Move,canvas.Screen,0_3_0_3_0_8,-999,skipped,,132581.39999985695,,,132554.39999985695,,132581.69999980927,2021-10-26T15:06:21.635Z,132623.44,1635260630,full,ni_sequenzen,NI_Sequenzen,9,3,,,,,,,,,,,,
,Move,canvas.Screen,0_3_0_3_0_9,-999,skipped,,132585.69999980927,,,132554.39999985695,,132585.79999995232,2021-10-26T15:06:21.639Z,132623.44,1635260630,full,ni_sequenzen,NI_Sequenzen,10,3,,,,,,,,,,,,
,Move,canvas.Screen,0_3_0_3_0_10,-999,skipped,,132591.09999990463,,,132554.39999985695,,132591.19999980927,2021-10-26T15:06:21.645Z,132623.44,1635260630,full,ni_sequenzen,NI_Sequenzen,11,3,,,,,,,,,,,,
,Move,canvas.Screen,0_3_0_3_0_11,-999,skipped,,132595.39999985695,,,132554.39999985695,,132595.5,2021-10-26T15:06:21.649Z,132623.44,1635260630,full,ni_sequenzen,NI_Sequenzen,12,3,,,,,,,,,,,,
,Move,canvas.Screen,0_3_0_3_0_12,-999,skipped,,132599.29999995232,,,132554.39999985695,,132599.39999985695,2021-10-26T15:06:21.653Z,132623.44,1635260630,full,ni_sequenzen,NI_Sequenzen,13,3,,,,,,,,,,,,
,Move,canvas.Screen,0_3_0_3_0_13,-999,skipped,,132603.09999990463,,,132554.39999985695,,132603.19999980927,2021-10-26T15:06:21.657Z,132623.44,1635260630,full,ni_sequenzen,NI_Sequenzen,14,3,,,,,,,,,,,,
,Move,canvas.Screen,0_3_0_3_0_14,-999,skipped,,132608.39999985695,,,132554.39999985695,,132608.59999990463,2021-10-26T15:06:21.662Z,132623.44,1635260630,full,ni_sequenzen,NI_Sequenzen,15,3,,,,,,,,,,,,
,Loop,flow.Loop,0_3_0_3_0,-999,completion,,122685.79999995232,122690.119,122706.77,132554.39999985695,9847.629999856945,132608.79999995232,2021-10-26T15:06:21.663Z,132623.44,1635260630,full,ni_sequenzen,NI_Sequenzen,,3,,,,,,,,,,,,
,Feedback,canvas.Screen,0_3_0_3_1,,timeout,,132612,132606.921,132623.44,136606.934,4016.6050000000105,136608,2021-10-26T15:06:25.662Z,136640.045,1635260630,full,ni_sequenzen,NI_Sequenzen,,3,,,,,,,,,,,,
,Trial,flow.Sequence,0_3_0_3,,completion,,122658.79999995232,122690.119,122706.77,136606.934,13900.164000000004,136608.39999985695,2021-10-26T15:06:25.662Z,136656.77,1635260630,full,ni_sequenzen,NI_Sequenzen,,3,,,,,,,,,,,,
,Move,canvas.Screen,0_3_0_4_0_0,right,response,,136641.5,136640.045,136656.77,146547.59999990463,9890.829999904643,146548.5,2021-10-26T15:06:35.602Z,146573.319,1635260630,full,ni_sequenzen,NI_Sequenzen,1,4,,,,,,,,,,,,
,Move,canvas.Screen,0_3_0_4_0_1,down,response,,146552.89999985695,146539.728,146573.319,146811.69999980927,238.38099980927655,146812.79999995232,2021-10-26T15:06:35.867Z,146823.327,1635260630,full,ni_sequenzen,NI_Sequenzen,2,4,,,,,,,,,,,,
,Move,canvas.Screen,0_3_0_4_0_2,right,response,,146819.09999990463,146806.991,146823.327,147061.39999985695,238.07299985695863,147062.59999990463,2021-10-26T15:06:36.116Z,147090.014,1635260630,full,ni_sequenzen,NI_Sequenzen,3,4,,,,,,,,,,,,
,Move,canvas.Screen,0_3_0_4_0_3,down,response,,147068.09999990463,147056.834,147090.014,147307,216.98600000000442,147308.29999995232,2021-10-26T15:06:36.362Z,147373.297,1635260630,full,ni_sequenzen,NI_Sequenzen,4,4,,,,,,,,,,,,
,Move,canvas.Screen,0_3_0_4_0_4,-999,skipped,,147314.5,,,147307,,147314.89999985695,2021-10-26T15:06:36.369Z,147373.297,1635260630,full,ni_sequenzen,NI_Sequenzen,5,4,,,,,,,,,,,,
,Move,canvas.Screen,0_3_0_4_0_5,-999,skipped,,147320,,,147307,,147320.19999980927,2021-10-26T15:06:36.374Z,147373.297,1635260630,full,ni_sequenzen,NI_Sequenzen,6,4,,,,,,,,,,,,
,Move,canvas.Screen,0_3_0_4_0_6,-999,skipped,,147324.69999980927,,,147307,,147324.79999995232,2021-10-26T15:06:36.378Z,147373.297,1635260630,full,ni_sequenzen,NI_Sequenzen,7,4,,,,,,,,,,,,
,Move,canvas.Screen,0_3_0_4_0_7,-999,skipped,,147330.39999985695,,,147307,,147330.59999990463,2021-10-26T15:06:36.384Z,147373.297,1635260630,full,ni_sequenzen,NI_Sequenzen,8,4,,,,,,,,,,,,
,Move,canvas.Screen,0_3_0_4_0_8,-999,skipped,,147334.59999990463,,,147307,,147334.79999995232,2021-10-26T15:06:36.388Z,147373.297,1635260630,full,ni_sequenzen,NI_Sequenzen,9,4,,,,,,,,,,,,
,Move,canvas.Screen,0_3_0_4_0_9,-999,skipped,,147338.69999980927,,,147307,,147338.89999985695,2021-10-26T15:06:36.393Z,147373.297,1635260630,full,ni_sequenzen,NI_Sequenzen,10,4,,,,,,,,,,,,
,Move,canvas.Screen,0_3_0_4_0_10,-999,skipped,,147344.89999985695,,,147307,,147345,2021-10-26T15:06:36.399Z,147373.297,1635260630,full,ni_sequenzen,NI_Sequenzen,11,4,,,,,,,,,,,,
,Move,canvas.Screen,0_3_0_4_0_11,-999,skipped,,147349.89999985695,,,147307,,147350.09999990463,2021-10-26T15:06:36.404Z,147373.297,1635260630,full,ni_sequenzen,NI_Sequenzen,12,4,,,,,,,,,,,,
,Move,canvas.Screen,0_3_0_4_0_12,-999,skipped,,147354.5,,,147307,,147354.59999990463,2021-10-26T15:06:36.408Z,147373.297,1635260630,full,ni_sequenzen,NI_Sequenzen,13,4,,,,,,,,,,,,
,Move,canvas.Screen,0_3_0_4_0_13,-999,skipped,,147358.59999990463,,,147307,,147358.69999980927,2021-10-26T15:06:36.412Z,147373.297,1635260630,full,ni_sequenzen,NI_Sequenzen,14,4,,,,,,,,,,,,
,Move,canvas.Screen,0_3_0_4_0_14,-999,skipped,,147363.79999995232,,,147307,,147363.89999985695,2021-10-26T15:06:36.418Z,147373.297,1635260630,full,ni_sequenzen,NI_Sequenzen,15,4,,,,,,,,,,,,
,Loop,flow.Loop,0_3_0_4_0,-999,completion,,136635.79999995232,136640.045,136656.77,147307,10650.23000000001,147364.29999995232,2021-10-26T15:06:36.418Z,147373.297,1635260630,full,ni_sequenzen,NI_Sequenzen,,4,,,,,,,,,,,,
,Feedback,canvas.Screen,0_3_0_4_1,,timeout,,147367.39999985695,147356.832,147373.297,151356.861,4000.0109999999986,151357.89999985695,2021-10-26T15:06:40.412Z,151373.308,1635260630,full,ni_sequenzen,NI_Sequenzen,,4,,,,,,,,,,,,
,Trial,flow.Sequence,0_3_0_4,,completion,,136609,136640.045,136656.77,151356.861,14700.091000000015,151358.19999980927,2021-10-26T15:06:40.412Z,151390.022,1635260630,full,ni_sequenzen,NI_Sequenzen,,4,,,,,,,,,,,,
,Move,canvas.Screen,0_3_0_5_0_0,down,response,,151389.69999980927,151373.308,151390.022,152623.89999985695,1233.8779998569516,152625.09999990463,2021-10-26T15:06:41.678Z,152656.627,1635260630,full,ni_sequenzen,NI_Sequenzen,1,5,,,,,,,,,,,,
,Move,canvas.Screen,0_3_0_5_0_1,left,response,,152630.59999990463,152623.32,152656.627,154097,1440.3729999999923,154098.09999990463,2021-10-26T15:06:43.151Z,154106.642,1635260630,full,ni_sequenzen,NI_Sequenzen,2,5,,,,,,,,,,,,
,Move,canvas.Screen,0_3_0_5_0_2,down,response,,154104,154090.124,154106.642,154515.39999985695,408.7579998569563,154516.5,2021-10-26T15:06:43.569Z,154548.12,1635260630,full,ni_sequenzen,NI_Sequenzen,3,5,,,,,,,,,,,,
,Move,canvas.Screen,0_3_0_5_0_3,left,response,,154522,154506.881,154548.12,154945.29999995232,397.17999995232094,154946.39999985695,2021-10-26T15:06:43.999Z,155023.28,1635260630,full,ni_sequenzen,NI_Sequenzen,4,5,,,,,,,,,,,,
,Move,canvas.Screen,0_3_0_5_0_4,-999,skipped,,154953.69999980927,,,154945.29999995232,,154954,2021-10-26T15:06:44.007Z,155023.28,1635260630,full,ni_sequenzen,NI_Sequenzen,5,5,,,,,,,,,,,,
,Move,canvas.Screen,0_3_0_5_0_5,-999,skipped,,154959.29999995232,,,154945.29999995232,,154959.5,2021-10-26T15:06:44.012Z,155023.28,1635260630,full,ni_sequenzen,NI_Sequenzen,6,5,,,,,,,,,,,,
,Move,canvas.Screen,0_3_0_5_0_6,-999,skipped,,154963.39999985695,,,154945.29999995232,,154963.69999980927,2021-10-26T15:06:44.017Z,155023.28,1635260630,full,ni_sequenzen,NI_Sequenzen,7,5,,,,,,,,,,,,
,Move,canvas.Screen,0_3_0_5_0_7,-999,skipped,,154968.5,,,154945.29999995232,,154968.59999990463,2021-10-26T15:06:44.021Z,155023.28,1635260630,full,ni_sequenzen,NI_Sequenzen,8,5,,,,,,,,,,,,
,Move,canvas.Screen,0_3_0_5_0_8,-999,skipped,,154975.79999995232,,,154945.29999995232,,154976,2021-10-26T15:06:44.029Z,155023.28,1635260630,full,ni_sequenzen,NI_Sequenzen,9,5,,,,,,,,,,,,
,Move,canvas.Screen,0_3_0_5_0_9,-999,skipped,,154980.59999990463,,,154945.29999995232,,154980.79999995232,2021-10-26T15:06:44.034Z,155023.28,1635260630,full,ni_sequenzen,NI_Sequenzen,10,5,,,,,,,,,,,,
,Move,canvas.Screen,0_3_0_5_0_10,-999,skipped,,154984.79999995232,,,154945.29999995232,,154985,2021-10-26T15:06:44.038Z,155023.28,1635260630,full,ni_sequenzen,NI_Sequenzen,11,5,,,,,,,,,,,,
,Move,canvas.Screen,0_3_0_5_0_11,-999,skipped,,154989,,,154945.29999995232,,154989.19999980927,2021-10-26T15:06:44.042Z,155023.28,1635260630,full,ni_sequenzen,NI_Sequenzen,12,5,,,,,,,,,,,,
,Move,canvas.Screen,0_3_0_5_0_12,-999,skipped,,154994.69999980927,,,154945.29999995232,,154994.89999985695,2021-10-26T15:06:44.048Z,155023.28,1635260630,full,ni_sequenzen,NI_Sequenzen,13,5,,,,,,,,,,,,
,Move,canvas.Screen,0_3_0_5_0_13,-999,skipped,,154999.09999990463,,,154945.29999995232,,154999.19999980927,2021-10-26T15:06:44.052Z,155023.28,1635260630,full,ni_sequenzen,NI_Sequenzen,14,5,,,,,,,,,,,,
,Move,canvas.Screen,0_3_0_5_0_14,-999,skipped,,155003.29999995232,,,154945.29999995232,,155003.5,2021-10-26T15:06:44.056Z,155023.28,1635260630,full,ni_sequenzen,NI_Sequenzen,15,5,,,,,,,,,,,,
,Loop,flow.Loop,0_3_0_5_0,-999,completion,,151384.39999985695,151373.308,151390.022,154945.29999995232,3555.277999952319,155003.69999980927,2021-10-26T15:06:44.057Z,155023.28,1635260630,full,ni_sequenzen,NI_Sequenzen,,5,,,,,,,,,,,,
,Feedback,canvas.Screen,0_3_0_5_1,,timeout,,155007.29999995232,155006.783,155023.28,159006.788,4016.655999999988,159007.89999985695,2021-10-26T15:06:48.061Z,159039.936,1635260630,full,ni_sequenzen,NI_Sequenzen,,5,,,,,,,,,,,,
,Trial,flow.Sequence,0_3_0_5,,completion,,151358.79999995232,151373.308,151390.022,159006.788,7616.766000000003,159008.19999980927,2021-10-26T15:06:48.061Z,159056.6,1635260630,full,ni_sequenzen,NI_Sequenzen,,5,,,,,,,,,,,,
,Move,canvas.Screen,0_3_0_6_0_0,right,response,,159045.5,159039.936,159056.6,161572.69999980927,2516.0999998092593,161580.89999985695,2021-10-26T15:06:50.634Z,161606.655,1635260630,full,ni_sequenzen,NI_Sequenzen,1,6,,,,,,,,,,,,
,Move,canvas.Screen,0_3_0_6_0_1,down,response,,161589.59999990463,161590.003,161606.655,161936.79999995232,330.14499995231745,161937.79999995232,2021-10-26T15:06:50.991Z,161973.242,1635260630,full,ni_sequenzen,NI_Sequenzen,2,6,,,,,,,,,,,,
,Move,canvas.Screen,0_3_0_6_0_2,right,response,,161943.5,161940.065,161973.242,162253,279.75800000000163,162254.29999995232,2021-10-26T15:06:51.307Z,162273.31,1635260630,full,ni_sequenzen,NI_Sequenzen,3,6,,,,,,,,,,,,
,Move,canvas.Screen,0_3_0_6_0_3,down,response,,162260.69999980927,162256.572,162273.31,162598.79999995232,325.4899999523186,162599.89999985695,2021-10-26T15:06:51.653Z,162689.882,1635260630,full,ni_sequenzen,NI_Sequenzen,4,6,,,,,,,,,,,,
,Move,canvas.Screen,0_3_0_6_0_4,-999,skipped,,162630.59999990463,,,162598.79999995232,,162630.89999985695,2021-10-26T15:06:51.684Z,162689.882,1635260630,full,ni_sequenzen,NI_Sequenzen,5,6,,,,,,,,,,,,
,Move,canvas.Screen,0_3_0_6_0_5,-999,skipped,,162637.19999980927,,,162598.79999995232,,162637.39999985695,2021-10-26T15:06:51.690Z,162689.882,1635260630,full,ni_sequenzen,NI_Sequenzen,6,6,,,,,,,,,,,,
,Move,canvas.Screen,0_3_0_6_0_6,-999,skipped,,162642.19999980927,,,162598.79999995232,,162642.39999985695,2021-10-26T15:06:51.695Z,162689.882,1635260630,full,ni_sequenzen,NI_Sequenzen,7,6,,,,,,,,,,,,
,Move,canvas.Screen,0_3_0_6_0_7,-999,skipped,,162647.69999980927,,,162598.79999995232,,162648,2021-10-26T15:06:51.701Z,162689.882,1635260630,full,ni_sequenzen,NI_Sequenzen,8,6,,,,,,,,,,,,
,Move,canvas.Screen,0_3_0_6_0_8,-999,skipped,,162652.19999980927,,,162598.79999995232,,162652.29999995232,2021-10-26T15:06:51.705Z,162689.882,1635260630,full,ni_sequenzen,NI_Sequenzen,9,6,,,,,,,,,,,,
,Move,canvas.Screen,0_3_0_6_0_9,-999,skipped,,162656.39999985695,,,162598.79999995232,,162656.59999990463,2021-10-26T15:06:51.709Z,162689.882,1635260630,full,ni_sequenzen,NI_Sequenzen,10,6,,,,,,,,,,,,
,Move,canvas.Screen,0_3_0_6_0_10,-999,skipped,,162661.39999985695,,,162598.79999995232,,162661.69999980927,2021-10-26T15:06:51.715Z,162689.882,1635260630,full,ni_sequenzen,NI_Sequenzen,11,6,,,,,,,,,,,,
,Move,canvas.Screen,0_3_0_6_0_11,-999,skipped,,162665.59999990463,,,162598.79999995232,,162665.69999980927,2021-10-26T15:06:51.719Z,162689.882,1635260630,full,ni_sequenzen,NI_Sequenzen,12,6,,,,,,,,,,,,
,Move,canvas.Screen,0_3_0_6_0_12,-999,skipped,,162669.5,,,162598.79999995232,,162669.59999990463,2021-10-26T15:06:51.722Z,162689.882,1635260630,full,ni_sequenzen,NI_Sequenzen,13,6,,,,,,,,,,,,
,Move,canvas.Screen,0_3_0_6_0_13,-999,skipped,,162673.19999980927,,,162598.79999995232,,162673.39999985695,2021-10-26T15:06:51.726Z,162689.882,1635260630,full,ni_sequenzen,NI_Sequenzen,14,6,,,,,,,,,,,,
,Move,canvas.Screen,0_3_0_6_0_14,-999,skipped,,162678.39999985695,,,162598.79999995232,,162678.59999990463,2021-10-26T15:06:51.731Z,162689.882,1635260630,full,ni_sequenzen,NI_Sequenzen,15,6,,,,,,,,,,,,
,Loop,flow.Loop,0_3_0_6_0,-999,completion,,159034.79999995232,159039.936,159056.6,162598.79999995232,3542.1999999523105,162678.89999985695,2021-10-26T15:06:51.732Z,162689.882,1635260630,full,ni_sequenzen,NI_Sequenzen,,6,,,,,,,,,,,,
,Feedback,canvas.Screen,0_3_0_6_1,,timeout,,162682.79999995232,162673.467,162689.882,166673.457,4000.0169999999925,166674.5,2021-10-26T15:06:55.727Z,166689.899,1635260630,full,ni_sequenzen,NI_Sequenzen,,6,,,,,,,,,,,,
,Trial,flow.Sequence,0_3_0_6,,completion,,159008.89999985695,159039.936,159056.6,166673.457,7616.856999999989,166674.79999995232,2021-10-26T15:06:55.728Z,166739.878,1635260630,full,ni_sequenzen,NI_Sequenzen,,6,,,,,,,,,,,,
,Move,canvas.Screen,0_3_0_7_0_0,right,response,,166706.19999980927,166689.899,166739.878,170168.89999985695,3429.021999856952,170170.09999990463,2021-10-26T15:06:59.223Z,170189.896,1635260630,full,ni_sequenzen,NI_Sequenzen,1,7,,,,,,,,,,,,
,Move,canvas.Screen,0_3_0_7_0_1,down,response,,170176.89999985695,170173.195,170189.896,170382.59999990463,192.70399990462465,170383.59999990463,2021-10-26T15:06:59.437Z,170406.667,1635260630,full,ni_sequenzen,NI_Sequenzen,2,7,,,,,,,,,,,,
,Move,canvas.Screen,0_3_0_7_0_2,right,response,,170390.5,170390.054,170406.667,170599.59999990463,192.93299990464584,170600.59999990463,2021-10-26T15:06:59.654Z,170629.932,1635260630,full,ni_sequenzen,NI_Sequenzen,3,7,,,,,,,,,,,,
,Move,canvas.Screen,0_3_0_7_0_3,down,response,,170605.69999980927,170590.04,170629.932,170806.19999980927,176.26799980926444,170807.39999985695,2021-10-26T15:06:59.860Z,170873.203,1635260630,full,ni_sequenzen,NI_Sequenzen,4,7,,,,,,,,,,,,
,Move,canvas.Screen,0_3_0_7_0_4,-999,skipped,,170813.5,,,170806.19999980927,,170813.79999995232,2021-10-26T15:06:59.867Z,170873.203,1635260630,full,ni_sequenzen,NI_Sequenzen,5,7,,,,,,,,,,,,
,Move,canvas.Screen,0_3_0_7_0_5,-999,skipped,,170818.79999995232,,,170806.19999980927,,170819,2021-10-26T15:06:59.872Z,170873.203,1635260630,full,ni_sequenzen,NI_Sequenzen,6,7,,,,,,,,,,,,
,Move,canvas.Screen,0_3_0_7_0_6,-999,skipped,,170823.39999985695,,,170806.19999980927,,170823.5,2021-10-26T15:06:59.876Z,170873.203,1635260630,full,ni_sequenzen,NI_Sequenzen,7,7,,,,,,,,,,,,
,Move,canvas.Screen,0_3_0_7_0_7,-999,skipped,,170828.69999980927,,,170806.19999980927,,170828.89999985695,2021-10-26T15:06:59.882Z,170873.203,1635260630,full,ni_sequenzen,NI_Sequenzen,8,7,,,,,,,,,,,,
,Move,canvas.Screen,0_3_0_7_0_8,-999,skipped,,170833,,,170806.19999980927,,170833.19999980927,2021-10-26T15:06:59.886Z,170873.203,1635260630,full,ni_sequenzen,NI_Sequenzen,9,7,,,,,,,,,,,,
,Move,canvas.Screen,0_3_0_7_0_9,-999,skipped,,170837.09999990463,,,170806.19999980927,,170837.29999995232,2021-10-26T15:06:59.890Z,170873.203,1635260630,full,ni_sequenzen,NI_Sequenzen,10,7,,,,,,,,,,,,
,Move,canvas.Screen,0_3_0_7_0_10,-999,skipped,,170842.19999980927,,,170806.19999980927,,170842.29999995232,2021-10-26T15:06:59.895Z,170873.203,1635260630,full,ni_sequenzen,NI_Sequenzen,11,7,,,,,,,,,,,,
,Move,canvas.Screen,0_3_0_7_0_11,-999,skipped,,170847.19999980927,,,170806.19999980927,,170847.29999995232,2021-10-26T15:06:59.900Z,170873.203,1635260630,full,ni_sequenzen,NI_Sequenzen,12,7,,,,,,,,,,,,
,Move,canvas.Screen,0_3_0_7_0_12,-999,skipped,,170851.5,,,170806.19999980927,,170851.69999980927,2021-10-26T15:06:59.905Z,170873.203,1635260630,full,ni_sequenzen,NI_Sequenzen,13,7,,,,,,,,,,,,
,Move,canvas.Screen,0_3_0_7_0_13,-999,skipped,,170855.5,,,170806.19999980927,,170855.79999995232,2021-10-26T15:06:59.909Z,170873.203,1635260630,full,ni_sequenzen,NI_Sequenzen,14,7,,,,,,,,,,,,
,Move,canvas.Screen,0_3_0_7_0_14,-999,skipped,,170860.59999990463,,,170806.19999980927,,170860.79999995232,2021-10-26T15:06:59.914Z,170873.203,1635260630,full,ni_sequenzen,NI_Sequenzen,15,7,,,,,,,,,,,,
,Loop,flow.Loop,0_3_0_7_0,-999,completion,,166700.89999985695,166689.899,166739.878,170806.19999980927,4066.321999809268,170861.09999990463,2021-10-26T15:06:59.914Z,170873.203,1635260630,full,ni_sequenzen,NI_Sequenzen,,7,,,,,,,,,,,,
,Feedback,canvas.Screen,0_3_0_7_1,,timeout,,170864.19999980927,170856.68,170873.203,174856.762,3999.9890000000014,174858,2021-10-26T15:07:03.911Z,174873.192,1635260630,full,ni_sequenzen,NI_Sequenzen,,7,,,,,,,,,,,,
,Trial,flow.Sequence,0_3_0_7,,completion,,166675.29999995232,166689.899,166739.878,174856.762,8116.883999999991,174858.29999995232,2021-10-26T15:07:03.911Z,174889.881,1635260630,full,ni_sequenzen,NI_Sequenzen,,7,,,,,,,,,,,,
,Move,canvas.Screen,0_3_0_8_0_0,right,response,,174889.69999980927,174873.192,174889.881,180157.69999980927,5267.818999809271,180158.89999985695,2021-10-26T15:07:09.212Z,180173.166,1635260630,full,ni_sequenzen,NI_Sequenzen,1,8,,,,,,,,,,,,
,Move,canvas.Screen,0_3_0_8_0_1,down,response,,180164.39999985695,180156.549,180173.166,180538.69999980927,365.5339998092677,180539.59999990463,2021-10-26T15:07:09.592Z,180556.514,1635260630,full,ni_sequenzen,NI_Sequenzen,2,8,,,,,,,,,,,,
,Move,canvas.Screen,0_3_0_8_0_2,right,response,,180544.59999990463,180539.997,180556.514,180857,300.4860000000044,180858.09999990463,2021-10-26T15:07:09.911Z,180889.807,1635260630,full,ni_sequenzen,NI_Sequenzen,3,8,,,,,,,,,,,,
,Move,canvas.Screen,0_3_0_8_0_3,down,response,,180863,180856.664,180889.807,181199.5,309.6929999999993,181200.69999980927,2021-10-26T15:07:10.254Z,181273.308,1635260630,full,ni_sequenzen,NI_Sequenzen,4,8,,,,,,,,,,,,
,Move,canvas.Screen,0_3_0_8_0_4,-999,skipped,,181207,,,181199.5,,181207.29999995232,2021-10-26T15:07:10.260Z,181273.308,1635260630,full,ni_sequenzen,NI_Sequenzen,5,8,,,,,,,,,,,,
,Move,canvas.Screen,0_3_0_8_0_5,-999,skipped,,181211.89999985695,,,181199.5,,181212,2021-10-26T15:07:10.265Z,181273.308,1635260630,full,ni_sequenzen,NI_Sequenzen,6,8,,,,,,,,,,,,
,Move,canvas.Screen,0_3_0_8_0_6,-999,skipped,,181216.59999990463,,,181199.5,,181216.79999995232,2021-10-26T15:07:10.270Z,181273.308,1635260630,full,ni_sequenzen,NI_Sequenzen,7,8,,,,,,,,,,,,
,Move,canvas.Screen,0_3_0_8_0_7,-999,skipped,,181222.09999990463,,,181199.5,,181222.29999995232,2021-10-26T15:07:10.275Z,181273.308,1635260630,full,ni_sequenzen,NI_Sequenzen,8,8,,,,,,,,,,,,
,Move,canvas.Screen,0_3_0_8_0_8,-999,skipped,,181226.29999995232,,,181199.5,,181226.5,2021-10-26T15:07:10.279Z,181273.308,1635260630,full,ni_sequenzen,NI_Sequenzen,9,8,,,,,,,,,,,,
,Move,canvas.Screen,0_3_0_8_0_9,-999,skipped,,181231.5,,,181199.5,,181231.69999980927,2021-10-26T15:07:10.285Z,181273.308,1635260630,full,ni_sequenzen,NI_Sequenzen,10,8,,,,,,,,,,,,
,Move,canvas.Screen,0_3_0_8_0_10,-999,skipped,,181237,,,181199.5,,181237.19999980927,2021-10-26T15:07:10.290Z,181273.308,1635260630,full,ni_sequenzen,NI_Sequenzen,11,8,,,,,,,,,,,,
,Move,canvas.Screen,0_3_0_8_0_11,-999,skipped,,181241.19999980927,,,181199.5,,181241.39999985695,2021-10-26T15:07:10.294Z,181273.308,1635260630,full,ni_sequenzen,NI_Sequenzen,12,8,,,,,,,,,,,,
,Move,canvas.Screen,0_3_0_8_0_12,-999,skipped,,181245.09999990463,,,181199.5,,181245.29999995232,2021-10-26T15:07:10.298Z,181273.308,1635260630,full,ni_sequenzen,NI_Sequenzen,13,8,,,,,,,,,,,,
,Move,canvas.Screen,0_3_0_8_0_13,-999,skipped,,181249.19999980927,,,181199.5,,181249.29999995232,2021-10-26T15:07:10.302Z,181273.308,1635260630,full,ni_sequenzen,NI_Sequenzen,14,8,,,,,,,,,,,,
,Move,canvas.Screen,0_3_0_8_0_14,-999,skipped,,181254,,,181199.5,,181254.19999980927,2021-10-26T15:07:10.307Z,181273.308,1635260630,full,ni_sequenzen,NI_Sequenzen,15,8,,,,,,,,,,,,
,Loop,flow.Loop,0_3_0_8_0,-999,completion,,174884.69999980927,174873.192,174889.881,181199.5,6309.619000000006,181254.39999985695,2021-10-26T15:07:10.307Z,181273.308,1635260630,full,ni_sequenzen,NI_Sequenzen,,8,,,,,,,,,,,,
,Feedback,canvas.Screen,0_3_0_8_1,,timeout,,181257.59999990463,181256.552,181273.308,185256.708,4016.4990000000107,185257.89999985695,2021-10-26T15:07:14.311Z,185289.807,1635260630,full,ni_sequenzen,NI_Sequenzen,,8,,,,,,,,,,,,
,Trial,flow.Sequence,0_3_0_8,,completion,,174858.89999985695,174873.192,174889.881,185256.708,10366.82700000002,185258.19999980927,2021-10-26T15:07:14.311Z,185306.519,1635260630,full,ni_sequenzen,NI_Sequenzen,,8,,,,,,,,,,,,
,Move,canvas.Screen,0_3_0_9_0_0,down,response,,185291.59999990463,185289.807,185306.519,187128,1821.4809999999998,187128.89999985695,2021-10-26T15:07:16.182Z,187156.452,1635260630,full,ni_sequenzen,NI_Sequenzen,1,9,,,,,,,,,,,,
