meta,sender,sender_type,sender_id,response,ended_on,instrCount,time_run,time_render,time_show,time_end,duration,time_commit,timestamp,time_switch,openLabId,type,task,project,move,trialN,blockN_Train,blockN,moveCount,currPP,points,movesTrial,visitedFields,diff,reward,Strategie,Zweck,Probleme
[object Object],Screen_1,canvas.Screen,0_0_0_0,cont,response,1,408.5,400.264,433.527,2955.2000000476837,2521.6730000476837,2956.8000000715256,2021-10-25T19:13:09.952Z,3065.19,1635188870,full,ni_sequenzen,NI_Sequenzen,,,,,,,,,,,,,,
,Screen_2,canvas.Screen,0_0_0_1,cont,response,1,3051.2000000476837,3048.794,3065.19,21004.100000023842,17938.910000023843,21006,2021-10-25T19:13:28.001Z,21037.159,1635188870,full,ni_sequenzen,NI_Sequenzen,,,,,,,,,,,,,,
,Screen_3,canvas.Screen,0_0_0_2,cont,response,1,21032.5,21020.934,21037.159,41031.800000071526,19994.641000071526,41033.300000071526,2021-10-25T19:13:48.033Z,41041.124,1635188870,full,ni_sequenzen,NI_Sequenzen,,,,,,,,,,,,,,
,Screen_4,canvas.Screen,0_0_0_3,cont,response,1,41038.10000002384,41032.725,41041.124,49724.800000071526,8683.676000071522,49725.60000002384,2021-10-25T19:13:56.726Z,49902.124,1635188870,full,ni_sequenzen,NI_Sequenzen,,,,,,,,,,,,,,
,Sequence,flow.Sequence,0_0_0,,completion,1,388.2000000476837,400.264,433.527,49724.800000071526,49291.273000071524,49729.5,2021-10-25T19:13:56.729Z,49902.124,1635188870,full,ni_sequenzen,NI_Sequenzen,,,,,,,,,,,,,,
,Screen_1,canvas.Screen,0_0_1_0,,skipped,2,49732.200000047684,,,49732.200000047684,,49732.200000047684,2021-10-25T19:13:56.732Z,49902.124,1635188870,full,ni_sequenzen,NI_Sequenzen,,,,,,,,,,,,,,
,Screen_2,canvas.Screen,0_0_1_1,,skipped,2,49733.90000009537,,,49732.200000047684,,49734,2021-10-25T19:13:56.734Z,49902.124,1635188870,full,ni_sequenzen,NI_Sequenzen,,,,,,,,,,,,,,
,Screen_3,canvas.Screen,0_0_1_2,,skipped,2,49737,,,49732.200000047684,,49737.200000047684,2021-10-25T19:13:56.737Z,49902.124,1635188870,full,ni_sequenzen,NI_Sequenzen,,,,,,,,,,,,,,
,Screen_4,canvas.Screen,0_0_1_3,,skipped,2,49739,,,49732.200000047684,,49739.10000002384,2021-10-25T19:13:56.739Z,49902.124,1635188870,full,ni_sequenzen,NI_Sequenzen,,,,,,,,,,,,,,
,Sequence,flow.Sequence,0_0_1,,completion,2,49730.60000002384,,,49732.200000047684,,49739.5,2021-10-25T19:13:56.740Z,49902.124,1635188870,full,ni_sequenzen,NI_Sequenzen,,,,,,,,,,,,,,
,Screen_1,canvas.Screen,0_0_2_0,,skipped,3,49741.5,,,49741.5,,49741.60000002384,2021-10-25T19:13:56.742Z,49902.124,1635188870,full,ni_sequenzen,NI_Sequenzen,,,,,,,,,,,,,,
,Screen_2,canvas.Screen,0_0_2_1,,skipped,3,49742.700000047684,,,49741.5,,49742.90000009537,2021-10-25T19:13:56.743Z,49902.124,1635188870,full,ni_sequenzen,NI_Sequenzen,,,,,,,,,,,,,,
,Screen_3,canvas.Screen,0_0_2_2,,skipped,3,49744.300000071526,,,49741.5,,49744.5,2021-10-25T19:13:56.744Z,49902.124,1635188870,full,ni_sequenzen,NI_Sequenzen,,,,,,,,,,,,,,
,Screen_4,canvas.Screen,0_0_2_3,,skipped,3,49745.60000002384,,,49741.5,,49745.700000047684,2021-10-25T19:13:56.746Z,49902.124,1635188870,full,ni_sequenzen,NI_Sequenzen,,,,,,,,,,,,,,
,Sequence,flow.Sequence,0_0_2,,completion,3,49740.200000047684,,,49741.5,,49746,2021-10-25T19:13:56.746Z,49902.124,1635188870,full,ni_sequenzen,NI_Sequenzen,,,,,,,,,,,,,,
,Screen_1,canvas.Screen,0_0_3_0,,skipped,4,49747.5,,,49747.5,,49747.60000002384,2021-10-25T19:13:56.748Z,49902.124,1635188870,full,ni_sequenzen,NI_Sequenzen,,,,,,,,,,,,,,
,Screen_2,canvas.Screen,0_0_3_1,,skipped,4,49749,,,49747.5,,49749,2021-10-25T19:13:56.749Z,49902.124,1635188870,full,ni_sequenzen,NI_Sequenzen,,,,,,,,,,,,,,
,Screen_3,canvas.Screen,0_0_3_2,,skipped,4,49750.60000002384,,,49747.5,,49750.700000047684,2021-10-25T19:13:56.751Z,49902.124,1635188870,full,ni_sequenzen,NI_Sequenzen,,,,,,,,,,,,,,
,Screen_4,canvas.Screen,0_0_3_3,,skipped,4,49753.60000002384,,,49747.5,,49753.800000071526,2021-10-25T19:13:56.754Z,49902.124,1635188870,full,ni_sequenzen,NI_Sequenzen,,,,,,,,,,,,,,
,Sequence,flow.Sequence,0_0_3,,completion,4,49746.5,,,49747.5,,49754,2021-10-25T19:13:56.754Z,49902.124,1635188870,full,ni_sequenzen,NI_Sequenzen,,,,,,,,,,,,,,
,Screen_1,canvas.Screen,0_0_4_0,,skipped,5,49755.800000071526,,,49755.800000071526,,49755.90000009537,2021-10-25T19:13:56.756Z,49902.124,1635188870,full,ni_sequenzen,NI_Sequenzen,,,,,,,,,,,,,,
,Screen_2,canvas.Screen,0_0_4_1,,skipped,5,49757.10000002384,,,49755.800000071526,,49757.10000002384,2021-10-25T19:13:56.757Z,49902.124,1635188870,full,ni_sequenzen,NI_Sequenzen,,,,,,,,,,,,,,
,Screen_3,canvas.Screen,0_0_4_2,,skipped,5,49758.300000071526,,,49755.800000071526,,49758.40000009537,2021-10-25T19:13:56.758Z,49902.124,1635188870,full,ni_sequenzen,NI_Sequenzen,,,,,,,,,,,,,,
,Screen_4,canvas.Screen,0_0_4_3,,skipped,5,49759.800000071526,,,49755.800000071526,,49759.800000071526,2021-10-25T19:13:56.760Z,49902.124,1635188870,full,ni_sequenzen,NI_Sequenzen,,,,,,,,,,,,,,
,Sequence,flow.Sequence,0_0_4,,completion,5,49754.60000002384,,,49755.800000071526,,49760.10000002384,2021-10-25T19:13:56.760Z,49902.124,1635188870,full,ni_sequenzen,NI_Sequenzen,,,,,,,,,,,,,,
,Screen_1,canvas.Screen,0_0_5_0,,skipped,6,49761.60000002384,,,49761.60000002384,,49761.700000047684,2021-10-25T19:13:56.762Z,49902.124,1635188870,full,ni_sequenzen,NI_Sequenzen,,,,,,,,,,,,,,
,Screen_2,canvas.Screen,0_0_5_1,,skipped,6,49763,,,49761.60000002384,,49763.10000002384,2021-10-25T19:13:56.763Z,49902.124,1635188870,full,ni_sequenzen,NI_Sequenzen,,,,,,,,,,,,,,
,Screen_3,canvas.Screen,0_0_5_2,,skipped,6,49764.200000047684,,,49761.60000002384,,49764.300000071526,2021-10-25T19:13:56.764Z,49902.124,1635188870,full,ni_sequenzen,NI_Sequenzen,,,,,,,,,,,,,,
,Screen_4,canvas.Screen,0_0_5_3,,skipped,6,49765.700000047684,,,49761.60000002384,,49765.800000071526,2021-10-25T19:13:56.766Z,49902.124,1635188870,full,ni_sequenzen,NI_Sequenzen,,,,,,,,,,,,,,
,Sequence,flow.Sequence,0_0_5,,completion,6,49760.60000002384,,,49761.60000002384,,49765.90000009537,2021-10-25T19:13:56.766Z,49902.124,1635188870,full,ni_sequenzen,NI_Sequenzen,,,,,,,,,,,,,,
,Screen_1,canvas.Screen,0_0_6_0,,skipped,7,49767.60000002384,,,49767.60000002384,,49767.700000047684,2021-10-25T19:13:56.768Z,49902.124,1635188870,full,ni_sequenzen,NI_Sequenzen,,,,,,,,,,,,,,
,Screen_2,canvas.Screen,0_0_6_1,,skipped,7,49768.90000009537,,,49767.60000002384,,49768.90000009537,2021-10-25T19:13:56.769Z,49902.124,1635188870,full,ni_sequenzen,NI_Sequenzen,,,,,,,,,,,,,,
,Screen_3,canvas.Screen,0_0_6_2,,skipped,7,49770.40000009537,,,49767.60000002384,,49770.5,2021-10-25T19:13:56.770Z,49902.124,1635188870,full,ni_sequenzen,NI_Sequenzen,,,,,,,,,,,,,,
,Screen_4,canvas.Screen,0_0_6_3,,skipped,7,49771.60000002384,,,49767.60000002384,,49771.700000047684,2021-10-25T19:13:56.772Z,49902.124,1635188870,full,ni_sequenzen,NI_Sequenzen,,,,,,,,,,,,,,
,Sequence,flow.Sequence,0_0_6,,completion,7,49766.5,,,49767.60000002384,,49771.90000009537,2021-10-25T19:13:56.772Z,49902.124,1635188870,full,ni_sequenzen,NI_Sequenzen,,,,,,,,,,,,,,
,Screen_1,canvas.Screen,0_0_7_0,,skipped,8,49774.60000002384,,,49774.700000047684,,49774.800000071526,2021-10-25T19:13:56.775Z,49902.124,1635188870,full,ni_sequenzen,NI_Sequenzen,,,,,,,,,,,,,,
,Screen_2,canvas.Screen,0_0_7_1,,skipped,8,49775.800000071526,,,49774.700000047684,,49776,2021-10-25T19:13:56.776Z,49902.124,1635188870,full,ni_sequenzen,NI_Sequenzen,,,,,,,,,,,,,,
,Screen_3,canvas.Screen,0_0_7_2,,skipped,8,49777.200000047684,,,49774.700000047684,,49777.200000047684,2021-10-25T19:13:56.777Z,49902.124,1635188870,full,ni_sequenzen,NI_Sequenzen,,,,,,,,,,,,,,
,Screen_4,canvas.Screen,0_0_7_3,,skipped,8,49778.40000009537,,,49774.700000047684,,49778.5,2021-10-25T19:13:56.778Z,49902.124,1635188870,full,ni_sequenzen,NI_Sequenzen,,,,,,,,,,,,,,
,Sequence,flow.Sequence,0_0_7,,completion,8,49773.5,,,49774.700000047684,,49778.60000002384,2021-10-25T19:13:56.779Z,49902.124,1635188870,full,ni_sequenzen,NI_Sequenzen,,,,,,,,,,,,,,
,Screen_1,canvas.Screen,0_0_8_0,,skipped,9,49780.200000047684,,,49780.200000047684,,49780.300000071526,2021-10-25T19:13:56.780Z,49902.124,1635188870,full,ni_sequenzen,NI_Sequenzen,,,,,,,,,,,,,,
,Screen_2,canvas.Screen,0_0_8_1,,skipped,9,49781.40000009537,,,49780.200000047684,,49781.40000009537,2021-10-25T19:13:56.781Z,49902.124,1635188870,full,ni_sequenzen,NI_Sequenzen,,,,,,,,,,,,,,
,Screen_3,canvas.Screen,0_0_8_2,,skipped,9,49782.700000047684,,,49780.200000047684,,49782.90000009537,2021-10-25T19:13:56.783Z,49902.124,1635188870,full,ni_sequenzen,NI_Sequenzen,,,,,,,,,,,,,,
,Screen_4,canvas.Screen,0_0_8_3,,skipped,9,49784.200000047684,,,49780.200000047684,,49784.300000071526,2021-10-25T19:13:56.784Z,49902.124,1635188870,full,ni_sequenzen,NI_Sequenzen,,,,,,,,,,,,,,
,Sequence,flow.Sequence,0_0_8,,completion,9,49779.10000002384,,,49780.200000047684,,49784.5,2021-10-25T19:13:56.785Z,49902.124,1635188870,full,ni_sequenzen,NI_Sequenzen,,,,,,,,,,,,,,
,Screen_1,canvas.Screen,0_0_9_0,,skipped,10,49786.5,,,49786.5,,49786.700000047684,2021-10-25T19:13:56.787Z,49902.124,1635188870,full,ni_sequenzen,NI_Sequenzen,,,,,,,,,,,,,,
,Screen_2,canvas.Screen,0_0_9_1,,skipped,10,49788,,,49786.5,,49788.200000047684,2021-10-25T19:13:56.788Z,49902.124,1635188870,full,ni_sequenzen,NI_Sequenzen,,,,,,,,,,,,,,
,Screen_3,canvas.Screen,0_0_9_2,,skipped,10,49789.40000009537,,,49786.5,,49789.40000009537,2021-10-25T19:13:56.789Z,49902.124,1635188870,full,ni_sequenzen,NI_Sequenzen,,,,,,,,,,,,,,
,Screen_4,canvas.Screen,0_0_9_3,,skipped,10,49790.800000071526,,,49786.5,,49790.90000009537,2021-10-25T19:13:56.791Z,49902.124,1635188870,full,ni_sequenzen,NI_Sequenzen,,,,,,,,,,,,,,
,Sequence,flow.Sequence,0_0_9,,completion,10,49785.300000071526,,,49786.5,,49791.10000002384,2021-10-25T19:13:56.791Z,49902.124,1635188870,full,ni_sequenzen,NI_Sequenzen,,,,,,,,,,,,,,
,Screen_1,canvas.Screen,0_0_10_0,,skipped,11,49792.800000071526,,,49792.800000071526,,49792.90000009537,2021-10-25T19:13:56.793Z,49902.124,1635188870,full,ni_sequenzen,NI_Sequenzen,,,,,,,,,,,,,,
,Screen_2,canvas.Screen,0_0_10_1,,skipped,11,49795.300000071526,,,49792.800000071526,,49795.40000009537,2021-10-25T19:13:56.795Z,49902.124,1635188870,full,ni_sequenzen,NI_Sequenzen,,,,,,,,,,,,,,
,Screen_3,canvas.Screen,0_0_10_2,,skipped,11,49796.60000002384,,,49792.800000071526,,49796.800000071526,2021-10-25T19:13:56.797Z,49902.124,1635188870,full,ni_sequenzen,NI_Sequenzen,,,,,,,,,,,,,,
,Screen_4,canvas.Screen,0_0_10_3,,skipped,11,49797.90000009537,,,49792.800000071526,,49798,2021-10-25T19:13:56.798Z,49902.124,1635188870,full,ni_sequenzen,NI_Sequenzen,,,,,,,,,,,,,,
,Sequence,flow.Sequence,0_0_10,,completion,11,49791.60000002384,,,49792.800000071526,,49798.300000071526,2021-10-25T19:13:56.798Z,49902.124,1635188870,full,ni_sequenzen,NI_Sequenzen,,,,,,,,,,,,,,
,Screen_1,canvas.Screen,0_0_11_0,,skipped,12,49802.60000002384,,,49802.700000047684,,49802.90000009537,2021-10-25T19:13:56.803Z,49902.124,1635188870,full,ni_sequenzen,NI_Sequenzen,,,,,,,,,,,,,,
,Screen_2,canvas.Screen,0_0_11_1,,skipped,12,49805.300000071526,,,49802.700000047684,,49805.40000009537,2021-10-25T19:13:56.805Z,49902.124,1635188870,full,ni_sequenzen,NI_Sequenzen,,,,,,,,,,,,,,
,Screen_3,canvas.Screen,0_0_11_2,,skipped,12,49807,,,49802.700000047684,,49807.10000002384,2021-10-25T19:13:56.807Z,49902.124,1635188870,full,ni_sequenzen,NI_Sequenzen,,,,,,,,,,,,,,
,Screen_4,canvas.Screen,0_0_11_3,,skipped,12,49808.40000009537,,,49802.700000047684,,49808.5,2021-10-25T19:13:56.809Z,49902.124,1635188870,full,ni_sequenzen,NI_Sequenzen,,,,,,,,,,,,,,
,Sequence,flow.Sequence,0_0_11,,completion,12,49800,,,49802.700000047684,,49808.700000047684,2021-10-25T19:13:56.809Z,49902.124,1635188870,full,ni_sequenzen,NI_Sequenzen,,,,,,,,,,,,,,
,Screen_1,canvas.Screen,0_0_12_0,,skipped,13,49810.300000071526,,,49810.300000071526,,49810.40000009537,2021-10-25T19:13:56.810Z,49902.124,1635188870,full,ni_sequenzen,NI_Sequenzen,,,,,,,,,,,,,,
,Screen_2,canvas.Screen,0_0_12_1,,skipped,13,49811.5,,,49810.300000071526,,49811.60000002384,2021-10-25T19:13:56.812Z,49902.124,1635188870,full,ni_sequenzen,NI_Sequenzen,,,,,,,,,,,,,,
,Screen_3,canvas.Screen,0_0_12_2,,skipped,13,49822.90000009537,,,49810.300000071526,,49823.10000002384,2021-10-25T19:13:56.823Z,49902.124,1635188870,full,ni_sequenzen,NI_Sequenzen,,,,,,,,,,,,,,
,Screen_4,canvas.Screen,0_0_12_3,,skipped,13,49824.60000002384,,,49810.300000071526,,49824.60000002384,2021-10-25T19:13:56.825Z,49902.124,1635188870,full,ni_sequenzen,NI_Sequenzen,,,,,,,,,,,,,,
,Sequence,flow.Sequence,0_0_12,,completion,13,49809.200000047684,,,49810.300000071526,,49824.800000071526,2021-10-25T19:13:56.825Z,49902.124,1635188870,full,ni_sequenzen,NI_Sequenzen,,,,,,,,,,,,,,
,Screen_1,canvas.Screen,0_0_13_0,,skipped,14,49826.40000009537,,,49826.40000009537,,49826.5,2021-10-25T19:13:56.826Z,49902.124,1635188870,full,ni_sequenzen,NI_Sequenzen,,,,,,,,,,,,,,
,Screen_2,canvas.Screen,0_0_13_1,,skipped,14,49827.60000002384,,,49826.40000009537,,49827.700000047684,2021-10-25T19:13:56.828Z,49902.124,1635188870,full,ni_sequenzen,NI_Sequenzen,,,,,,,,,,,,,,
,Screen_3,canvas.Screen,0_0_13_2,,skipped,14,49828.800000071526,,,49826.40000009537,,49829,2021-10-25T19:13:56.829Z,49902.124,1635188870,full,ni_sequenzen,NI_Sequenzen,,,,,,,,,,,,,,
,Screen_4,canvas.Screen,0_0_13_3,,skipped,14,49830.200000047684,,,49826.40000009537,,49830.300000071526,2021-10-25T19:13:56.830Z,49902.124,1635188870,full,ni_sequenzen,NI_Sequenzen,,,,,,,,,,,,,,
,Sequence,flow.Sequence,0_0_13,,completion,14,49825.300000071526,,,49826.40000009537,,49830.5,2021-10-25T19:13:56.830Z,49902.124,1635188870,full,ni_sequenzen,NI_Sequenzen,,,,,,,,,,,,,,
,Screen_1,canvas.Screen,0_0_14_0,,skipped,15,49832.10000002384,,,49832.10000002384,,49832.300000071526,2021-10-25T19:13:56.832Z,49902.124,1635188870,full,ni_sequenzen,NI_Sequenzen,,,,,,,,,,,,,,
,Screen_2,canvas.Screen,0_0_14_1,,skipped,15,49833.40000009537,,,49832.10000002384,,49833.40000009537,2021-10-25T19:13:56.833Z,49902.124,1635188870,full,ni_sequenzen,NI_Sequenzen,,,,,,,,,,,,,,
,Screen_3,canvas.Screen,0_0_14_2,,skipped,15,49834.5,,,49832.10000002384,,49834.5,2021-10-25T19:13:56.835Z,49902.124,1635188870,full,ni_sequenzen,NI_Sequenzen,,,,,,,,,,,,,,
,Screen_4,canvas.Screen,0_0_14_3,,skipped,15,49836.10000002384,,,49832.10000002384,,49836.200000047684,2021-10-25T19:13:56.836Z,49902.124,1635188870,full,ni_sequenzen,NI_Sequenzen,,,,,,,,,,,,,,
,Sequence,flow.Sequence,0_0_14,,completion,15,49831,,,49832.10000002384,,49836.300000071526,2021-10-25T19:13:56.836Z,49902.124,1635188870,full,ni_sequenzen,NI_Sequenzen,,,,,,,,,,,,,,
,Screen_1,canvas.Screen,0_0_15_0,,skipped,16,49837.800000071526,,,49837.800000071526,,49838,2021-10-25T19:13:56.838Z,49902.124,1635188870,full,ni_sequenzen,NI_Sequenzen,,,,,,,,,,,,,,
,Screen_2,canvas.Screen,0_0_15_1,,skipped,16,49839.90000009537,,,49837.800000071526,,49839.90000009537,2021-10-25T19:13:56.840Z,49902.124,1635188870,full,ni_sequenzen,NI_Sequenzen,,,,,,,,,,,,,,
,Screen_3,canvas.Screen,0_0_15_2,,skipped,16,49842.90000009537,,,49837.800000071526,,49843,2021-10-25T19:13:56.843Z,49902.124,1635188870,full,ni_sequenzen,NI_Sequenzen,,,,,,,,,,,,,,
,Screen_4,canvas.Screen,0_0_15_3,,skipped,16,49844.60000002384,,,49837.800000071526,,49844.700000047684,2021-10-25T19:13:56.845Z,49902.124,1635188870,full,ni_sequenzen,NI_Sequenzen,,,,,,,,,,,,,,
,Sequence,flow.Sequence,0_0_15,,completion,16,49836.800000071526,,,49837.800000071526,,49844.90000009537,2021-10-25T19:13:56.845Z,49902.124,1635188870,full,ni_sequenzen,NI_Sequenzen,,,,,,,,,,,,,,
,Screen_1,canvas.Screen,0_0_16_0,,skipped,17,49847.800000071526,,,49847.800000071526,,49847.90000009537,2021-10-25T19:13:56.848Z,49902.124,1635188870,full,ni_sequenzen,NI_Sequenzen,,,,,,,,,,,,,,
,Screen_2,canvas.Screen,0_0_16_1,,skipped,17,49849.300000071526,,,49847.800000071526,,49849.40000009537,2021-10-25T19:13:56.849Z,49902.124,1635188870,full,ni_sequenzen,NI_Sequenzen,,,,,,,,,,,,,,
,Screen_3,canvas.Screen,0_0_16_2,,skipped,17,49850.60000002384,,,49847.800000071526,,49850.60000002384,2021-10-25T19:13:56.851Z,49902.124,1635188870,full,ni_sequenzen,NI_Sequenzen,,,,,,,,,,,,,,
,Screen_4,canvas.Screen,0_0_16_3,,skipped,17,49851.800000071526,,,49847.800000071526,,49851.90000009537,2021-10-25T19:13:56.852Z,49902.124,1635188870,full,ni_sequenzen,NI_Sequenzen,,,,,,,,,,,,,,
,Sequence,flow.Sequence,0_0_16,,completion,17,49845.700000047684,,,49847.800000071526,,49852.10000002384,2021-10-25T19:13:56.852Z,49902.124,1635188870,full,ni_sequenzen,NI_Sequenzen,,,,,,,,,,,,,,
,Screen_1,canvas.Screen,0_0_17_0,,skipped,18,49854.10000002384,,,49854.10000002384,,49854.200000047684,2021-10-25T19:13:56.854Z,49902.124,1635188870,full,ni_sequenzen,NI_Sequenzen,,,,,,,,,,,,,,
,Screen_2,canvas.Screen,0_0_17_1,,skipped,18,49855.5,,,49854.10000002384,,49855.60000002384,2021-10-25T19:13:56.856Z,49902.124,1635188870,full,ni_sequenzen,NI_Sequenzen,,,,,,,,,,,,,,
,Screen_3,canvas.Screen,0_0_17_2,,skipped,18,49856.700000047684,,,49854.10000002384,,49856.800000071526,2021-10-25T19:13:56.857Z,49902.124,1635188870,full,ni_sequenzen,NI_Sequenzen,,,,,,,,,,,,,,
,Screen_4,canvas.Screen,0_0_17_3,,skipped,18,49858.60000002384,,,49854.10000002384,,49858.700000047684,2021-10-25T19:13:56.859Z,49902.124,1635188870,full,ni_sequenzen,NI_Sequenzen,,,,,,,,,,,,,,
,Sequence,flow.Sequence,0_0_17,,completion,18,49852.700000047684,,,49854.10000002384,,49858.800000071526,2021-10-25T19:13:56.859Z,49902.124,1635188870,full,ni_sequenzen,NI_Sequenzen,,,,,,,,,,,,,,
,Screen_1,canvas.Screen,0_0_18_0,,skipped,19,49860.40000009537,,,49860.40000009537,,49860.40000009537,2021-10-25T19:13:56.860Z,49902.124,1635188870,full,ni_sequenzen,NI_Sequenzen,,,,,,,,,,,,,,
,Screen_2,canvas.Screen,0_0_18_1,,skipped,19,49861.40000009537,,,49860.40000009537,,49861.60000002384,2021-10-25T19:13:56.862Z,49902.124,1635188870,full,ni_sequenzen,NI_Sequenzen,,,,,,,,,,,,,,
,Screen_3,canvas.Screen,0_0_18_2,,skipped,19,49862.700000047684,,,49860.40000009537,,49862.800000071526,2021-10-25T19:13:56.863Z,49902.124,1635188870,full,ni_sequenzen,NI_Sequenzen,,,,,,,,,,,,,,
,Screen_4,canvas.Screen,0_0_18_3,,skipped,19,49863.90000009537,,,49860.40000009537,,49864,2021-10-25T19:13:56.864Z,49902.124,1635188870,full,ni_sequenzen,NI_Sequenzen,,,,,,,,,,,,,,
,Sequence,flow.Sequence,0_0_18,,completion,19,49859.40000009537,,,49860.40000009537,,49864.300000071526,2021-10-25T19:13:56.864Z,49902.124,1635188870,full,ni_sequenzen,NI_Sequenzen,,,,,,,,,,,,,,
,Screen_1,canvas.Screen,0_0_19_0,,skipped,20,49865.800000071526,,,49865.800000071526,,49865.90000009537,2021-10-25T19:13:56.866Z,49902.124,1635188870,full,ni_sequenzen,NI_Sequenzen,,,,,,,,,,,,,,
,Screen_2,canvas.Screen,0_0_19_1,,skipped,20,49866.90000009537,,,49865.800000071526,,49867,2021-10-25T19:13:56.867Z,49902.124,1635188870,full,ni_sequenzen,NI_Sequenzen,,,,,,,,,,,,,,
,Screen_3,canvas.Screen,0_0_19_2,,skipped,20,49869.700000047684,,,49865.800000071526,,49869.90000009537,2021-10-25T19:13:56.870Z,49902.124,1635188870,full,ni_sequenzen,NI_Sequenzen,,,,,,,,,,,,,,
,Screen_4,canvas.Screen,0_0_19_3,,skipped,20,49871.200000047684,,,49865.800000071526,,49871.300000071526,2021-10-25T19:13:56.871Z,49902.124,1635188870,full,ni_sequenzen,NI_Sequenzen,,,,,,,,,,,,,,
,Sequence,flow.Sequence,0_0_19,,completion,20,49864.800000071526,,,49865.800000071526,,49871.5,2021-10-25T19:13:56.871Z,49902.124,1635188870,full,ni_sequenzen,NI_Sequenzen,,,,,,,,,,,,,,
,Instructions_I,flow.Loop,0_0,,completion,,387.10000002384186,400.264,433.527,49865.800000071526,49432.273000071524,49871.700000047684,2021-10-25T19:13:56.872Z,49902.124,1635188870,full,ni_sequenzen,NI_Sequenzen,,,,,,,,,,,,,,
,Move,canvas.Screen,0_1_0_0,down,response,,49893.700000047684,49890.711,49902.124,51153.10000002384,1250.9760000238384,51154.800000071526,2021-10-25T19:13:58.155Z,51167.977,1635188870,full,ni_sequenzen,NI_Sequenzen,1,,,,,,,,,,,,,
,Move,canvas.Screen,0_1_0_1,left,response,,51158.200000047684,51152.166,51167.977,52857.60000002384,1689.623000023843,52858.60000002384,2021-10-25T19:13:59.859Z,52867.298,1635188870,full,ni_sequenzen,NI_Sequenzen,2,,,,,,,,,,,,,
,Move,canvas.Screen,0_1_0_2,right,response,,52862.5,52851.559,52867.298,54071.700000047684,1204.4020000476812,54072.60000002384,2021-10-25T19:14:01.073Z,54082.853,1635188870,full,ni_sequenzen,NI_Sequenzen,3,,,,,,,,,,,,,
,Move,canvas.Screen,0_1_0_3,down,response,,54074.90000009537,54066.842,54082.853,54590.800000071526,507.9470000715228,54591.700000047684,2021-10-25T19:14:01.592Z,54599.16,1635188870,full,ni_sequenzen,NI_Sequenzen,4,,,,,,,,,,,,,
,Move,canvas.Screen,0_1_0_4,down,response,,54594.800000071526,54582.77,54599.16,55048.300000071526,449.1400000715221,55050.300000071526,2021-10-25T19:14:02.050Z,55065.472,1635188870,full,ni_sequenzen,NI_Sequenzen,5,,,,,,,,,,,,,
,Move,canvas.Screen,0_1_0_5,down,response,,55053.10000002384,55049.143,55065.472,55525.200000047684,459.72800004768214,55526.10000002384,2021-10-25T19:14:02.526Z,55531.934,1635188870,full,ni_sequenzen,NI_Sequenzen,6,,,,,,,,,,,,,
,Move,canvas.Screen,0_1_0_6,down,response,,55528.800000071526,55515.954,55531.934,55878.300000071526,346.36600007152447,55879.90000009537,2021-10-25T19:14:02.880Z,55898.353,1635188870,full,ni_sequenzen,NI_Sequenzen,7,,,,,,,,,,,,,
,Move,canvas.Screen,0_1_0_7,right,response,,55883.10000002384,55881.939,55898.353,58039.700000047684,2141.347000047681,58040.300000071526,2021-10-25T19:14:05.040Z,58046.967,1635188870,full,ni_sequenzen,NI_Sequenzen,8,,,,,,,,,,,,,
,Move,canvas.Screen,0_1_0_8,left,response,,58042.200000047684,58031.498,58046.967,59123.5,1076.533000000003,59124.40000009537,2021-10-25T19:14:06.124Z,59129.596,1635188870,full,ni_sequenzen,NI_Sequenzen,9,,,,,,,,,,,,,
,Move,canvas.Screen,0_1_0_9,right,response,,59126.200000047684,59113.706,59129.596,59849.5,719.9040000000023,59850.40000009537,2021-10-25T19:14:06.850Z,59862.414,1635188870,full,ni_sequenzen,NI_Sequenzen,10,,,,,,,,,,,,,
,Move,canvas.Screen,0_1_0_10,left,response,,59852.800000071526,59846.215,59862.414,60104.40000009537,241.9860000953704,60105.300000071526,2021-10-25T19:14:07.105Z,60112.373,1635188870,full,ni_sequenzen,NI_Sequenzen,11,,,,,,,,,,,,,
,Move,canvas.Screen,0_1_0_11,down,response,,60107.800000071526,60096.161,60112.373,61082.40000009537,970.0270000953678,61083.90000009537,2021-10-25T19:14:08.084Z,61095.081,1635188870,full,ni_sequenzen,NI_Sequenzen,12,,,,,,,,,,,,,
,Move,canvas.Screen,0_1_0_12,down,response,,61087.10000002384,61079.13,61095.081,61309.700000047684,214.6190000476854,61310.60000002384,2021-10-25T19:14:08.311Z,61328.359,1635188870,full,ni_sequenzen,NI_Sequenzen,13,,,,,,,,,,,,,
,Move,canvas.Screen,0_1_0_13,down,response,,61313.90000009537,61312.084,61328.359,61506.800000071526,178.44100007152883,61507.800000071526,2021-10-25T19:14:08.508Z,61529.008,1635188870,full,ni_sequenzen,NI_Sequenzen,14,,,,,,,,,,,,,
,Move,canvas.Screen,0_1_0_14,down,response,,61510.200000047684,61494.871,61529.008,61673.200000047684,144.1920000476821,61674,2021-10-25T19:14:08.674Z,61678.004,1635188870,full,ni_sequenzen,NI_Sequenzen,15,,,,,,,,,,,,,
,Move,canvas.Screen,0_1_0_15,down,response,,61676.40000009537,61661.445,61678.004,61866.5,188.49599999999919,61867.300000071526,2021-10-25T19:14:08.867Z,61877.84,1635188870,full,ni_sequenzen,NI_Sequenzen,16,,,,,,,,,,,,,
,Move,canvas.Screen,0_1_0_16,down,response,,61870,61861.5,61877.84,62078,200.1600000000035,62078.90000009537,2021-10-25T19:14:09.079Z,62094.679,1635188870,full,ni_sequenzen,NI_Sequenzen,17,,,,,,,,,,,,,
,Move,canvas.Screen,0_1_0_17,left,response,,62081.10000002384,62077.909,62094.679,65579.90000009537,3485.221000095371,65580.70000004768,2021-10-25T19:14:12.581Z,65592.165,1635188870,full,ni_sequenzen,NI_Sequenzen,18,,,,,,,,,,,,,
,Move,canvas.Screen,0_1_0_18,left,response,,65583.30000007153,65576.873,65592.165,65931.30000007153,339.135000071532,65933.80000007153,2021-10-25T19:14:12.934Z,65958.689,1635188870,full,ni_sequenzen,NI_Sequenzen,19,,,,,,,,,,,,,
,Move,canvas.Screen,0_1_0_19,right,response,,65936.80000007153,65925.46,65958.689,66866.10000002384,907.4110000238434,66870.70000004768,2021-10-25T19:14:13.871Z,66892.234,1635188870,full,ni_sequenzen,NI_Sequenzen,20,,,,,,,,,,,,,
,Move,canvas.Screen,0_1_0_20,right,response,,66873.90000009537,66858.89,66892.234,67108.60000002384,216.36600002384512,67109.40000009537,2021-10-25T19:14:14.109Z,67124.47,1635188870,full,ni_sequenzen,NI_Sequenzen,21,,,,,,,,,,,,,
,Move,canvas.Screen,0_1_0_21,right,response,,67112,67108.043,67124.47,67335,210.52999999999884,67335.80000007153,2021-10-25T19:14:14.336Z,67341.085,1635188870,full,ni_sequenzen,NI_Sequenzen,22,,,,,,,,,,,,,
,Move,canvas.Screen,0_1_0_22,down,response,,67338.30000007153,67324.479,67341.085,68518.5,1177.4149999999936,68519.10000002384,2021-10-25T19:14:15.519Z,68523.615,1635188870,full,ni_sequenzen,NI_Sequenzen,23,,,,,,,,,,,,,
,Move,canvas.Screen,0_1_0_23,right,response,,68520.70000004768,68507.682,68523.615,69040.40000009537,516.7850000953622,69042.20000004768,2021-10-25T19:14:16.042Z,69056.652,1635188870,full,ni_sequenzen,NI_Sequenzen,24,,,,,,,,,,,,,
,Move,canvas.Screen,0_1_0_24,down,response,,69045.40000009537,69040.233,69056.652,69507.90000009537,451.24800009536557,69508.80000007153,2021-10-25T19:14:16.509Z,69522.964,1635188870,full,ni_sequenzen,NI_Sequenzen,25,,,,,,,,,,,,,
,Move,canvas.Screen,0_1_0_25,down,response,,69511.60000002384,69507.044,69522.964,69814.80000007153,291.83600007151836,69815.60000002384,2021-10-25T19:14:16.816Z,69822.753,1635188870,full,ni_sequenzen,NI_Sequenzen,26,,,,,,,,,,,,,
,Move,canvas.Screen,0_1_0_26,down,response,,69818,69806.488,69822.753,70082.90000009537,260.14700009537046,70083.70000004768,2021-10-25T19:14:17.084Z,70089.303,1635188870,full,ni_sequenzen,NI_Sequenzen,27,,,,,,,,,,,,,
,Move,canvas.Screen,0_1_0_27,left,response,,70085.80000007153,70073.101,70089.303,70954.20000004768,864.8970000476838,70955.10000002384,2021-10-25T19:14:17.955Z,70972.065,1635188870,full,ni_sequenzen,NI_Sequenzen,28,,,,,,,,,,,,,
,Move,canvas.Screen,0_1_0_28,right,response,,70958.10000002384,70955.994,70972.065,71500.20000004768,528.1350000476814,71502.40000009537,2021-10-25T19:14:18.502Z,71538.688,1635188870,full,ni_sequenzen,NI_Sequenzen,29,,,,,,,,,,,,,
,Move,canvas.Screen,0_1_0_29,down,response,,71504.90000009537,71521.753,71538.688,71832.10000002384,293.4120000238472,71833,2021-10-25T19:14:18.833Z,71904.736,1635188870,full,ni_sequenzen,NI_Sequenzen,30,,,,,,,,,,,,,
,Loop,flow.Loop,0_1_0,-999,completion,,49890.40000009537,49890.711,49902.124,71832.10000002384,21929.97600002384,71833.20000004768,2021-10-25T19:14:18.833Z,71904.736,1635188870,full,ni_sequenzen,NI_Sequenzen,,,,,,,,,,,,,,
,Training_I,flow.Sequence,0_1,,completion,,49872.300000071526,49890.711,49902.124,71832.10000002384,21929.97600002384,71833.30000007153,2021-10-25T19:14:18.833Z,71904.736,1635188870,full,ni_sequenzen,NI_Sequenzen,,,,,,,,,,,,,,
,Screen_1,canvas.Screen,0_2_0_0,cont,response,1,71898.5,71888.311,71904.736,86198.80000007153,14294.064000071521,86201.90000009537,2021-10-25T19:14:33.197Z,86279.013,1635188870,full,ni_sequenzen,NI_Sequenzen,,,,,,,,,,,,,,
,Screen_2,canvas.Screen,0_2_0_1,cont,response,1,86260.10000002384,86247.843,86279.013,99434.40000009537,13155.387000095361,99435.40000009537,2021-10-25T19:14:46.431Z,99454.016,1635188870,full,ni_sequenzen,NI_Sequenzen,,,,,,,,,,,,,,
,Screen_3,canvas.Screen,0_2_0_2,cont,response,1,99439.20000004768,99428.586,99454.016,113769.5,14315.483999999997,113770.5,2021-10-25T19:15:00.766Z,117459.298,1635188870,full,ni_sequenzen,NI_Sequenzen,,,,,,,,,,,,,,
,Screen_4,canvas.Screen,0_2_0_3,cont,response,1,117453.40000009537,117442.57,117459.298,163563.60000002384,46104.30200002385,163566.70000004768,2021-10-25T19:15:50.565Z,163580.183,1635188870,full,ni_sequenzen,NI_Sequenzen,,,,,,,,,,,,,,
,Screen_5,canvas.Screen,0_2_0_4,cont,response,1,163571,163555.923,163580.183,168502.90000009537,4922.717000095377,168504.40000009537,2021-10-25T19:15:55.503Z,168560.062,1635188870,full,ni_sequenzen,NI_Sequenzen,,,,,,,,,,,,,,
,Screen_6,canvas.Screen,0_2_0_5,cont,response,1,168539.10000002384,168529.683,168560.062,181452.30000007153,12892.23800007152,181455.20000004768,2021-10-25T19:16:08.454Z,181685.002,1635188870,full,ni_sequenzen,NI_Sequenzen,,,,,,,,,,,,,,
,Sequence,flow.Sequence,0_2_0,,completion,1,71897.10000002384,71888.311,71904.736,181452.30000007153,109547.56400007152,181457.5,2021-10-25T19:16:08.456Z,181685.002,1635188870,full,ni_sequenzen,NI_Sequenzen,,,,,,,,,,,,,,
,Screen_1,canvas.Screen,0_2_1_0,,skipped,2,181462.90000009537,,,181462.90000009537,,181463,2021-10-25T19:16:08.462Z,181685.002,1635188870,full,ni_sequenzen,NI_Sequenzen,,,,,,,,,,,,,,
,Screen_2,canvas.Screen,0_2_1_1,,skipped,2,181464.5,,,181462.90000009537,,181464.60000002384,2021-10-25T19:16:08.463Z,181685.002,1635188870,full,ni_sequenzen,NI_Sequenzen,,,,,,,,,,,,,,
,Screen_3,canvas.Screen,0_2_1_2,,skipped,2,181465.90000009537,,,181462.90000009537,,181466,2021-10-25T19:16:08.465Z,181685.002,1635188870,full,ni_sequenzen,NI_Sequenzen,,,,,,,,,,,,,,
,Screen_4,canvas.Screen,0_2_1_3,,skipped,2,181467.30000007153,,,181462.90000009537,,181467.40000009537,2021-10-25T19:16:08.466Z,181685.002,1635188870,full,ni_sequenzen,NI_Sequenzen,,,,,,,,,,,,,,
,Screen_5,canvas.Screen,0_2_1_4,,skipped,2,181469.10000002384,,,181462.90000009537,,181469.20000004768,2021-10-25T19:16:08.468Z,181685.002,1635188870,full,ni_sequenzen,NI_Sequenzen,,,,,,,,,,,,,,
,Screen_6,canvas.Screen,0_2_1_5,,skipped,2,181470.70000004768,,,181462.90000009537,,181470.80000007153,2021-10-25T19:16:08.469Z,181685.002,1635188870,full,ni_sequenzen,NI_Sequenzen,,,,,,,,,,,,,,
,Sequence,flow.Sequence,0_2_1,,completion,2,181460.70000004768,,,181462.90000009537,,181471,2021-10-25T19:16:08.469Z,181685.002,1635188870,full,ni_sequenzen,NI_Sequenzen,,,,,,,,,,,,,,
,Screen_1,canvas.Screen,0_2_2_0,,skipped,3,181473.20000004768,,,181473.20000004768,,181473.30000007153,2021-10-25T19:16:08.472Z,181685.002,1635188870,full,ni_sequenzen,NI_Sequenzen,,,,,,,,,,,,,,
,Screen_2,canvas.Screen,0_2_2_1,,skipped,3,181474.40000009537,,,181473.20000004768,,181474.5,2021-10-25T19:16:08.473Z,181685.002,1635188870,full,ni_sequenzen,NI_Sequenzen,,,,,,,,,,,,,,
,Screen_3,canvas.Screen,0_2_2_2,,skipped,3,181476.10000002384,,,181473.20000004768,,181476.10000002384,2021-10-25T19:16:08.475Z,181685.002,1635188870,full,ni_sequenzen,NI_Sequenzen,,,,,,,,,,,,,,
,Screen_4,canvas.Screen,0_2_2_3,,skipped,3,181477.20000004768,,,181473.20000004768,,181477.30000007153,2021-10-25T19:16:08.476Z,181685.002,1635188870,full,ni_sequenzen,NI_Sequenzen,,,,,,,,,,,,,,
,Screen_5,canvas.Screen,0_2_2_4,,skipped,3,181478.40000009537,,,181473.20000004768,,181478.40000009537,2021-10-25T19:16:08.477Z,181685.002,1635188870,full,ni_sequenzen,NI_Sequenzen,,,,,,,,,,,,,,
,Screen_6,canvas.Screen,0_2_2_5,,skipped,3,181480.60000002384,,,181473.20000004768,,181480.80000007153,2021-10-25T19:16:08.479Z,181685.002,1635188870,full,ni_sequenzen,NI_Sequenzen,,,,,,,,,,,,,,
,Sequence,flow.Sequence,0_2_2,,completion,3,181471.90000009537,,,181473.20000004768,,181480.90000009537,2021-10-25T19:16:08.479Z,181685.002,1635188870,full,ni_sequenzen,NI_Sequenzen,,,,,,,,,,,,,,
,Screen_1,canvas.Screen,0_2_3_0,,skipped,4,181482.80000007153,,,181482.80000007153,,181482.90000009537,2021-10-25T19:16:08.481Z,181685.002,1635188870,full,ni_sequenzen,NI_Sequenzen,,,,,,,,,,,,,,
,Screen_2,canvas.Screen,0_2_3_1,,skipped,4,181484,,,181482.80000007153,,181484,2021-10-25T19:16:08.483Z,181685.002,1635188870,full,ni_sequenzen,NI_Sequenzen,,,,,,,,,,,,,,
,Screen_3,canvas.Screen,0_2_3_2,,skipped,4,181485.10000002384,,,181482.80000007153,,181485.20000004768,2021-10-25T19:16:08.484Z,181685.002,1635188870,full,ni_sequenzen,NI_Sequenzen,,,,,,,,,,,,,,
,Screen_4,canvas.Screen,0_2_3_3,,skipped,4,181486.40000009537,,,181482.80000007153,,181486.5,2021-10-25T19:16:08.485Z,181685.002,1635188870,full,ni_sequenzen,NI_Sequenzen,,,,,,,,,,,,,,
,Screen_5,canvas.Screen,0_2_3_4,,skipped,4,181487.5,,,181482.80000007153,,181487.60000002384,2021-10-25T19:16:08.486Z,181685.002,1635188870,full,ni_sequenzen,NI_Sequenzen,,,,,,,,,,,,,,
,Screen_6,canvas.Screen,0_2_3_5,,skipped,4,181488.80000007153,,,181482.80000007153,,181488.90000009537,2021-10-25T19:16:08.487Z,181685.002,1635188870,full,ni_sequenzen,NI_Sequenzen,,,,,,,,,,,,,,
,Sequence,flow.Sequence,0_2_3,,completion,4,181481.40000009537,,,181482.80000007153,,181489.10000002384,2021-10-25T19:16:08.488Z,181685.002,1635188870,full,ni_sequenzen,NI_Sequenzen,,,,,,,,,,,,,,
,Screen_1,canvas.Screen,0_2_4_0,,skipped,5,181490.60000002384,,,181490.60000002384,,181490.70000004768,2021-10-25T19:16:08.489Z,181685.002,1635188870,full,ni_sequenzen,NI_Sequenzen,,,,,,,,,,,,,,
,Screen_2,canvas.Screen,0_2_4_1,,skipped,5,181491.80000007153,,,181490.60000002384,,181491.80000007153,2021-10-25T19:16:08.490Z,181685.002,1635188870,full,ni_sequenzen,NI_Sequenzen,,,,,,,,,,,,,,
,Screen_3,canvas.Screen,0_2_4_2,,skipped,5,181492.80000007153,,,181490.60000002384,,181492.90000009537,2021-10-25T19:16:08.491Z,181685.002,1635188870,full,ni_sequenzen,NI_Sequenzen,,,,,,,,,,,,,,
,Screen_4,canvas.Screen,0_2_4_3,,skipped,5,181493.90000009537,,,181490.60000002384,,181493.90000009537,2021-10-25T19:16:08.492Z,181685.002,1635188870,full,ni_sequenzen,NI_Sequenzen,,,,,,,,,,,,,,
,Screen_5,canvas.Screen,0_2_4_4,,skipped,5,181495,,,181490.60000002384,,181495,2021-10-25T19:16:08.494Z,181685.002,1635188870,full,ni_sequenzen,NI_Sequenzen,,,,,,,,,,,,,,
,Screen_6,canvas.Screen,0_2_4_5,,skipped,5,181496,,,181490.60000002384,,181496.10000002384,2021-10-25T19:16:08.495Z,181685.002,1635188870,full,ni_sequenzen,NI_Sequenzen,,,,,,,,,,,,,,
,Sequence,flow.Sequence,0_2_4,,completion,5,181489.60000002384,,,181490.60000002384,,181496.20000004768,2021-10-25T19:16:08.495Z,181685.002,1635188870,full,ni_sequenzen,NI_Sequenzen,,,,,,,,,,,,,,
,Screen_1,canvas.Screen,0_2_5_0,,skipped,6,181498.80000007153,,,181498.80000007153,,181498.90000009537,2021-10-25T19:16:08.497Z,181685.002,1635188870,full,ni_sequenzen,NI_Sequenzen,,,,,,,,,,,,,,
,Screen_2,canvas.Screen,0_2_5_1,,skipped,6,181500.10000002384,,,181498.80000007153,,181500.20000004768,2021-10-25T19:16:08.499Z,181685.002,1635188870,full,ni_sequenzen,NI_Sequenzen,,,,,,,,,,,,,,
,Screen_3,canvas.Screen,0_2_5_2,,skipped,6,181501.20000004768,,,181498.80000007153,,181501.30000007153,2021-10-25T19:16:08.500Z,181685.002,1635188870,full,ni_sequenzen,NI_Sequenzen,,,,,,,,,,,,,,
,Screen_4,canvas.Screen,0_2_5_3,,skipped,6,181502.70000004768,,,181498.80000007153,,181502.90000009537,2021-10-25T19:16:08.501Z,181685.002,1635188870,full,ni_sequenzen,NI_Sequenzen,,,,,,,,,,,,,,
,Screen_5,canvas.Screen,0_2_5_4,,skipped,6,181504,,,181498.80000007153,,181504.10000002384,2021-10-25T19:16:08.503Z,181685.002,1635188870,full,ni_sequenzen,NI_Sequenzen,,,,,,,,,,,,,,
,Screen_6,canvas.Screen,0_2_5_5,,skipped,6,181505.20000004768,,,181498.80000007153,,181505.30000007153,2021-10-25T19:16:08.504Z,181685.002,1635188870,full,ni_sequenzen,NI_Sequenzen,,,,,,,,,,,,,,
,Sequence,flow.Sequence,0_2_5,,completion,6,181496.70000004768,,,181498.80000007153,,181505.40000009537,2021-10-25T19:16:08.504Z,181685.002,1635188870,full,ni_sequenzen,NI_Sequenzen,,,,,,,,,,,,,,
,Screen_1,canvas.Screen,0_2_6_0,,skipped,7,181506.90000009537,,,181506.90000009537,,181507,2021-10-25T19:16:08.506Z,181685.002,1635188870,full,ni_sequenzen,NI_Sequenzen,,,,,,,,,,,,,,
,Screen_2,canvas.Screen,0_2_6_1,,skipped,7,181508,,,181506.90000009537,,181508.10000002384,2021-10-25T19:16:08.507Z,181685.002,1635188870,full,ni_sequenzen,NI_Sequenzen,,,,,,,,,,,,,,
,Screen_3,canvas.Screen,0_2_6_2,,skipped,7,181509.10000002384,,,181506.90000009537,,181509.20000004768,2021-10-25T19:16:08.508Z,181685.002,1635188870,full,ni_sequenzen,NI_Sequenzen,,,,,,,,,,,,,,
,Screen_4,canvas.Screen,0_2_6_3,,skipped,7,181510.20000004768,,,181506.90000009537,,181510.20000004768,2021-10-25T19:16:08.509Z,181685.002,1635188870,full,ni_sequenzen,NI_Sequenzen,,,,,,,,,,,,,,
,Screen_5,canvas.Screen,0_2_6_4,,skipped,7,181511.30000007153,,,181506.90000009537,,181511.40000009537,2021-10-25T19:16:08.510Z,181685.002,1635188870,full,ni_sequenzen,NI_Sequenzen,,,,,,,,,,,,,,
,Screen_6,canvas.Screen,0_2_6_5,,skipped,7,181512.30000007153,,,181506.90000009537,,181512.40000009537,2021-10-25T19:16:08.511Z,181685.002,1635188870,full,ni_sequenzen,NI_Sequenzen,,,,,,,,,,,,,,
,Sequence,flow.Sequence,0_2_6,,completion,7,181505.90000009537,,,181506.90000009537,,181512.60000002384,2021-10-25T19:16:08.511Z,181685.002,1635188870,full,ni_sequenzen,NI_Sequenzen,,,,,,,,,,,,,,
,Screen_1,canvas.Screen,0_2_7_0,,skipped,8,181514,,,181514,,181514.10000002384,2021-10-25T19:16:08.513Z,181685.002,1635188870,full,ni_sequenzen,NI_Sequenzen,,,,,,,,,,,,,,
,Screen_2,canvas.Screen,0_2_7_1,,skipped,8,181515.20000004768,,,181514,,181515.30000007153,2021-10-25T19:16:08.514Z,181685.002,1635188870,full,ni_sequenzen,NI_Sequenzen,,,,,,,,,,,,,,
,Screen_3,canvas.Screen,0_2_7_2,,skipped,8,181517.5,,,181514,,181517.60000002384,2021-10-25T19:16:08.516Z,181685.002,1635188870,full,ni_sequenzen,NI_Sequenzen,,,,,,,,,,,,,,
,Screen_4,canvas.Screen,0_2_7_3,,skipped,8,181519,,,181514,,181519.20000004768,2021-10-25T19:16:08.518Z,181685.002,1635188870,full,ni_sequenzen,NI_Sequenzen,,,,,,,,,,,,,,
,Screen_5,canvas.Screen,0_2_7_4,,skipped,8,181520.20000004768,,,181514,,181520.30000007153,2021-10-25T19:16:08.519Z,181685.002,1635188870,full,ni_sequenzen,NI_Sequenzen,,,,,,,,,,,,,,
,Screen_6,canvas.Screen,0_2_7_5,,skipped,8,181521.40000009537,,,181514,,181521.40000009537,2021-10-25T19:16:08.520Z,181685.002,1635188870,full,ni_sequenzen,NI_Sequenzen,,,,,,,,,,,,,,
,Sequence,flow.Sequence,0_2_7,,completion,8,181513.10000002384,,,181514,,181521.70000004768,2021-10-25T19:16:08.520Z,181685.002,1635188870,full,ni_sequenzen,NI_Sequenzen,,,,,,,,,,,,,,
,Screen_1,canvas.Screen,0_2_8_0,,skipped,9,181523.10000002384,,,181523.10000002384,,181523.20000004768,2021-10-25T19:16:08.522Z,181685.002,1635188870,full,ni_sequenzen,NI_Sequenzen,,,,,,,,,,,,,,
,Screen_2,canvas.Screen,0_2_8_1,,skipped,9,181524.20000004768,,,181523.10000002384,,181524.30000007153,2021-10-25T19:16:08.523Z,181685.002,1635188870,full,ni_sequenzen,NI_Sequenzen,,,,,,,,,,,,,,
,Screen_3,canvas.Screen,0_2_8_2,,skipped,9,181525.30000007153,,,181523.10000002384,,181525.40000009537,2021-10-25T19:16:08.524Z,181685.002,1635188870,full,ni_sequenzen,NI_Sequenzen,,,,,,,,,,,,,,
,Screen_4,canvas.Screen,0_2_8_3,,skipped,9,181526.80000007153,,,181523.10000002384,,181526.90000009537,2021-10-25T19:16:08.525Z,181685.002,1635188870,full,ni_sequenzen,NI_Sequenzen,,,,,,,,,,,,,,
,Screen_5,canvas.Screen,0_2_8_4,,skipped,9,181527.70000004768,,,181523.10000002384,,181527.70000004768,2021-10-25T19:16:08.526Z,181685.002,1635188870,full,ni_sequenzen,NI_Sequenzen,,,,,,,,,,,,,,
,Screen_6,canvas.Screen,0_2_8_5,,skipped,9,181528.30000007153,,,181523.10000002384,,181528.30000007153,2021-10-25T19:16:08.527Z,181685.002,1635188870,full,ni_sequenzen,NI_Sequenzen,,,,,,,,,,,,,,
,Sequence,flow.Sequence,0_2_8,,completion,9,181522.10000002384,,,181523.10000002384,,181528.40000009537,2021-10-25T19:16:08.527Z,181685.002,1635188870,full,ni_sequenzen,NI_Sequenzen,,,,,,,,,,,,,,
,Screen_1,canvas.Screen,0_2_9_0,,skipped,10,181529.5,,,181529.60000002384,,181529.60000002384,2021-10-25T19:16:08.528Z,181685.002,1635188870,full,ni_sequenzen,NI_Sequenzen,,,,,,,,,,,,,,
,Screen_2,canvas.Screen,0_2_9_1,,skipped,10,181530.30000007153,,,181529.60000002384,,181530.40000009537,2021-10-25T19:16:08.529Z,181685.002,1635188870,full,ni_sequenzen,NI_Sequenzen,,,,,,,,,,,,,,
,Screen_3,canvas.Screen,0_2_9_2,,skipped,10,181531,,,181529.60000002384,,181531,2021-10-25T19:16:08.530Z,181685.002,1635188870,full,ni_sequenzen,NI_Sequenzen,,,,,,,,,,,,,,
,Screen_4,canvas.Screen,0_2_9_3,,skipped,10,181532.60000002384,,,181529.60000002384,,181532.70000004768,2021-10-25T19:16:08.531Z,181685.002,1635188870,full,ni_sequenzen,NI_Sequenzen,,,,,,,,,,,,,,
,Screen_5,canvas.Screen,0_2_9_4,,skipped,10,181533.80000007153,,,181529.60000002384,,181533.90000009537,2021-10-25T19:16:08.532Z,181685.002,1635188870,full,ni_sequenzen,NI_Sequenzen,,,,,,,,,,,,,,
,Screen_6,canvas.Screen,0_2_9_5,,skipped,10,181534.70000004768,,,181529.60000002384,,181534.80000007153,2021-10-25T19:16:08.533Z,181685.002,1635188870,full,ni_sequenzen,NI_Sequenzen,,,,,,,,,,,,,,
,Sequence,flow.Sequence,0_2_9,,completion,10,181528.80000007153,,,181529.60000002384,,181534.90000009537,2021-10-25T19:16:08.533Z,181685.002,1635188870,full,ni_sequenzen,NI_Sequenzen,,,,,,,,,,,,,,
,Screen_1,canvas.Screen,0_2_10_0,,skipped,11,181536,,,181536,,181536.10000002384,2021-10-25T19:16:08.535Z,181685.002,1635188870,full,ni_sequenzen,NI_Sequenzen,,,,,,,,,,,,,,
,Screen_2,canvas.Screen,0_2_10_1,,skipped,11,181536.90000009537,,,181536,,181537,2021-10-25T19:16:08.536Z,181685.002,1635188870,full,ni_sequenzen,NI_Sequenzen,,,,,,,,,,,,,,
,Screen_3,canvas.Screen,0_2_10_2,,skipped,11,181537.70000004768,,,181536,,181537.70000004768,2021-10-25T19:16:08.536Z,181685.002,1635188870,full,ni_sequenzen,NI_Sequenzen,,,,,,,,,,,,,,
,Screen_4,canvas.Screen,0_2_10_3,,skipped,11,181538.30000007153,,,181536,,181538.40000009537,2021-10-25T19:16:08.537Z,181685.002,1635188870,full,ni_sequenzen,NI_Sequenzen,,,,,,,,,,,,,,
,Screen_5,canvas.Screen,0_2_10_4,,skipped,11,181539,,,181536,,181539,2021-10-25T19:16:08.538Z,181685.002,1635188870,full,ni_sequenzen,NI_Sequenzen,,,,,,,,,,,,,,
,Screen_6,canvas.Screen,0_2_10_5,,skipped,11,181539.60000002384,,,181536,,181539.60000002384,2021-10-25T19:16:08.538Z,181685.002,1635188870,full,ni_sequenzen,NI_Sequenzen,,,,,,,,,,,,,,
,Sequence,flow.Sequence,0_2_10,,completion,11,181535.30000007153,,,181536,,181539.70000004768,2021-10-25T19:16:08.538Z,181685.002,1635188870,full,ni_sequenzen,NI_Sequenzen,,,,,,,,,,,,,,
,Screen_1,canvas.Screen,0_2_11_0,,skipped,12,181540.60000002384,,,181540.60000002384,,181540.70000004768,2021-10-25T19:16:08.539Z,181685.002,1635188870,full,ni_sequenzen,NI_Sequenzen,,,,,,,,,,,,,,
,Screen_2,canvas.Screen,0_2_11_1,,skipped,12,181541.30000007153,,,181540.60000002384,,181541.30000007153,2021-10-25T19:16:08.540Z,181685.002,1635188870,full,ni_sequenzen,NI_Sequenzen,,,,,,,,,,,,,,
,Screen_3,canvas.Screen,0_2_11_2,,skipped,12,181542,,,181540.60000002384,,181542.10000002384,2021-10-25T19:16:08.541Z,181685.002,1635188870,full,ni_sequenzen,NI_Sequenzen,,,,,,,,,,,,,,
,Screen_4,canvas.Screen,0_2_11_3,,skipped,12,181542.60000002384,,,181540.60000002384,,181542.70000004768,2021-10-25T19:16:08.541Z,181685.002,1635188870,full,ni_sequenzen,NI_Sequenzen,,,,,,,,,,,,,,
,Screen_5,canvas.Screen,0_2_11_4,,skipped,12,181543.30000007153,,,181540.60000002384,,181543.30000007153,2021-10-25T19:16:08.542Z,181685.002,1635188870,full,ni_sequenzen,NI_Sequenzen,,,,,,,,,,,,,,
,Screen_6,canvas.Screen,0_2_11_5,,skipped,12,181543.90000009537,,,181540.60000002384,,181543.90000009537,2021-10-25T19:16:08.542Z,181685.002,1635188870,full,ni_sequenzen,NI_Sequenzen,,,,,,,,,,,,,,
,Sequence,flow.Sequence,0_2_11,,completion,12,181540,,,181540.60000002384,,181544,2021-10-25T19:16:08.543Z,181685.002,1635188870,full,ni_sequenzen,NI_Sequenzen,,,,,,,,,,,,,,
,Screen_1,canvas.Screen,0_2_12_0,,skipped,13,181545.80000007153,,,181545.80000007153,,181546,2021-10-25T19:16:08.544Z,181685.002,1635188870,full,ni_sequenzen,NI_Sequenzen,,,,,,,,,,,,,,
,Screen_2,canvas.Screen,0_2_12_1,,skipped,13,181546.70000004768,,,181545.80000007153,,181546.80000007153,2021-10-25T19:16:08.545Z,181685.002,1635188870,full,ni_sequenzen,NI_Sequenzen,,,,,,,,,,,,,,
,Screen_3,canvas.Screen,0_2_12_2,,skipped,13,181547.40000009537,,,181545.80000007153,,181547.40000009537,2021-10-25T19:16:08.546Z,181685.002,1635188870,full,ni_sequenzen,NI_Sequenzen,,,,,,,,,,,,,,
,Screen_4,canvas.Screen,0_2_12_3,,skipped,13,181548,,,181545.80000007153,,181548,2021-10-25T19:16:08.547Z,181685.002,1635188870,full,ni_sequenzen,NI_Sequenzen,,,,,,,,,,,,,,
,Screen_5,canvas.Screen,0_2_12_4,,skipped,13,181548.60000002384,,,181545.80000007153,,181548.70000004768,2021-10-25T19:16:08.547Z,181685.002,1635188870,full,ni_sequenzen,NI_Sequenzen,,,,,,,,,,,,,,
,Screen_6,canvas.Screen,0_2_12_5,,skipped,13,181549.20000004768,,,181545.80000007153,,181549.30000007153,2021-10-25T19:16:08.548Z,181685.002,1635188870,full,ni_sequenzen,NI_Sequenzen,,,,,,,,,,,,,,
,Sequence,flow.Sequence,0_2_12,,completion,13,181544.30000007153,,,181545.80000007153,,181549.30000007153,2021-10-25T19:16:08.548Z,181685.002,1635188870,full,ni_sequenzen,NI_Sequenzen,,,,,,,,,,,,,,
,Screen_1,canvas.Screen,0_2_13_0,,skipped,14,181550.20000004768,,,181550.20000004768,,181550.30000007153,2021-10-25T19:16:08.549Z,181685.002,1635188870,full,ni_sequenzen,NI_Sequenzen,,,,,,,,,,,,,,
,Screen_2,canvas.Screen,0_2_13_1,,skipped,14,181550.90000009537,,,181550.20000004768,,181550.90000009537,2021-10-25T19:16:08.549Z,181685.002,1635188870,full,ni_sequenzen,NI_Sequenzen,,,,,,,,,,,,,,
,Screen_3,canvas.Screen,0_2_13_2,,skipped,14,181551.5,,,181550.20000004768,,181551.60000002384,2021-10-25T19:16:08.550Z,181685.002,1635188870,full,ni_sequenzen,NI_Sequenzen,,,,,,,,,,,,,,
,Screen_4,canvas.Screen,0_2_13_3,,skipped,14,181552.30000007153,,,181550.20000004768,,181552.40000009537,2021-10-25T19:16:08.551Z,181685.002,1635188870,full,ni_sequenzen,NI_Sequenzen,,,,,,,,,,,,,,
,Screen_5,canvas.Screen,0_2_13_4,,skipped,14,181552.90000009537,,,181550.20000004768,,181552.90000009537,2021-10-25T19:16:08.552Z,181685.002,1635188870,full,ni_sequenzen,NI_Sequenzen,,,,,,,,,,,,,,
,Screen_6,canvas.Screen,0_2_13_5,,skipped,14,181553.5,,,181550.20000004768,,181553.60000002384,2021-10-25T19:16:08.552Z,181685.002,1635188870,full,ni_sequenzen,NI_Sequenzen,,,,,,,,,,,,,,
,Sequence,flow.Sequence,0_2_13,,completion,14,181549.60000002384,,,181550.20000004768,,181553.70000004768,2021-10-25T19:16:08.552Z,181685.002,1635188870,full,ni_sequenzen,NI_Sequenzen,,,,,,,,,,,,,,
,Screen_1,canvas.Screen,0_2_14_0,,skipped,15,181554.5,,,181554.5,,181554.60000002384,2021-10-25T19:16:08.553Z,181685.002,1635188870,full,ni_sequenzen,NI_Sequenzen,,,,,,,,,,,,,,
,Screen_2,canvas.Screen,0_2_14_1,,skipped,15,181555.20000004768,,,181554.5,,181555.30000007153,2021-10-25T19:16:08.554Z,181685.002,1635188870,full,ni_sequenzen,NI_Sequenzen,,,,,,,,,,,,,,
,Screen_3,canvas.Screen,0_2_14_2,,skipped,15,181556,,,181554.5,,181556.10000002384,2021-10-25T19:16:08.555Z,181685.002,1635188870,full,ni_sequenzen,NI_Sequenzen,,,,,,,,,,,,,,
,Screen_4,canvas.Screen,0_2_14_3,,skipped,15,181556.60000002384,,,181554.5,,181556.70000004768,2021-10-25T19:16:08.555Z,181685.002,1635188870,full,ni_sequenzen,NI_Sequenzen,,,,,,,,,,,,,,
,Screen_5,canvas.Screen,0_2_14_4,,skipped,15,181558.60000002384,,,181554.5,,181558.60000002384,2021-10-25T19:16:08.557Z,181685.002,1635188870,full,ni_sequenzen,NI_Sequenzen,,,,,,,,,,,,,,
,Screen_6,canvas.Screen,0_2_14_5,,skipped,15,181559.20000004768,,,181554.5,,181559.30000007153,2021-10-25T19:16:08.558Z,181685.002,1635188870,full,ni_sequenzen,NI_Sequenzen,,,,,,,,,,,,,,
,Sequence,flow.Sequence,0_2_14,,completion,15,181554,,,181554.5,,181559.40000009537,2021-10-25T19:16:08.558Z,181685.002,1635188870,full,ni_sequenzen,NI_Sequenzen,,,,,,,,,,,,,,
,Screen_1,canvas.Screen,0_2_15_0,,skipped,16,181560.20000004768,,,181560.20000004768,,181560.30000007153,2021-10-25T19:16:08.559Z,181685.002,1635188870,full,ni_sequenzen,NI_Sequenzen,,,,,,,,,,,,,,
,Screen_2,canvas.Screen,0_2_15_1,,skipped,16,181561,,,181560.20000004768,,181561,2021-10-25T19:16:08.560Z,181685.002,1635188870,full,ni_sequenzen,NI_Sequenzen,,,,,,,,,,,,,,
,Screen_3,canvas.Screen,0_2_15_2,,skipped,16,181561.5,,,181560.20000004768,,181561.60000002384,2021-10-25T19:16:08.560Z,181685.002,1635188870,full,ni_sequenzen,NI_Sequenzen,,,,,,,,,,,,,,
,Screen_4,canvas.Screen,0_2_15_3,,skipped,16,181562.20000004768,,,181560.20000004768,,181562.20000004768,2021-10-25T19:16:08.561Z,181685.002,1635188870,full,ni_sequenzen,NI_Sequenzen,,,,,,,,,,,,,,
,Screen_5,canvas.Screen,0_2_15_4,,skipped,16,181562.80000007153,,,181560.20000004768,,181562.80000007153,2021-10-25T19:16:08.561Z,181685.002,1635188870,full,ni_sequenzen,NI_Sequenzen,,,,,,,,,,,,,,
,Screen_6,canvas.Screen,0_2_15_5,,skipped,16,181563.40000009537,,,181560.20000004768,,181563.40000009537,2021-10-25T19:16:08.562Z,181685.002,1635188870,full,ni_sequenzen,NI_Sequenzen,,,,,,,,,,,,,,
,Sequence,flow.Sequence,0_2_15,,completion,16,181559.70000004768,,,181560.20000004768,,181563.5,2021-10-25T19:16:08.562Z,181685.002,1635188870,full,ni_sequenzen,NI_Sequenzen,,,,,,,,,,,,,,
,Screen_1,canvas.Screen,0_2_16_0,,skipped,17,181564.40000009537,,,181564.40000009537,,181564.40000009537,2021-10-25T19:16:08.563Z,181685.002,1635188870,full,ni_sequenzen,NI_Sequenzen,,,,,,,,,,,,,,
,Screen_2,canvas.Screen,0_2_16_1,,skipped,17,181565,,,181564.40000009537,,181565.10000002384,2021-10-25T19:16:08.564Z,181685.002,1635188870,full,ni_sequenzen,NI_Sequenzen,,,,,,,,,,,,,,
,Screen_3,canvas.Screen,0_2_16_2,,skipped,17,181565.60000002384,,,181564.40000009537,,181565.80000007153,2021-10-25T19:16:08.564Z,181685.002,1635188870,full,ni_sequenzen,NI_Sequenzen,,,,,,,,,,,,,,
,Screen_4,canvas.Screen,0_2_16_3,,skipped,17,181566.30000007153,,,181564.40000009537,,181566.30000007153,2021-10-25T19:16:08.565Z,181685.002,1635188870,full,ni_sequenzen,NI_Sequenzen,,,,,,,,,,,,,,
,Screen_5,canvas.Screen,0_2_16_4,,skipped,17,181566.90000009537,,,181564.40000009537,,181566.90000009537,2021-10-25T19:16:08.565Z,181685.002,1635188870,full,ni_sequenzen,NI_Sequenzen,,,,,,,,,,,,,,
,Screen_6,canvas.Screen,0_2_16_5,,skipped,17,181567.40000009537,,,181564.40000009537,,181567.5,2021-10-25T19:16:08.566Z,181685.002,1635188870,full,ni_sequenzen,NI_Sequenzen,,,,,,,,,,,,,,
,Sequence,flow.Sequence,0_2_16,,completion,17,181563.80000007153,,,181564.40000009537,,181567.60000002384,2021-10-25T19:16:08.566Z,181685.002,1635188870,full,ni_sequenzen,NI_Sequenzen,,,,,,,,,,,,,,
,Screen_1,canvas.Screen,0_2_17_0,,skipped,18,181568.5,,,181568.5,,181568.70000004768,2021-10-25T19:16:08.567Z,181685.002,1635188870,full,ni_sequenzen,NI_Sequenzen,,,,,,,,,,,,,,
,Screen_2,canvas.Screen,0_2_17_1,,skipped,18,181570.5,,,181568.5,,181570.60000002384,2021-10-25T19:16:08.569Z,181685.002,1635188870,full,ni_sequenzen,NI_Sequenzen,,,,,,,,,,,,,,
,Screen_3,canvas.Screen,0_2_17_2,,skipped,18,181571.20000004768,,,181568.5,,181571.20000004768,2021-10-25T19:16:08.570Z,181685.002,1635188870,full,ni_sequenzen,NI_Sequenzen,,,,,,,,,,,,,,
,Screen_4,canvas.Screen,0_2_17_3,,skipped,18,181571.80000007153,,,181568.5,,181571.80000007153,2021-10-25T19:16:08.570Z,181685.002,1635188870,full,ni_sequenzen,NI_Sequenzen,,,,,,,,,,,,,,
,Screen_5,canvas.Screen,0_2_17_4,,skipped,18,181572.40000009537,,,181568.5,,181572.40000009537,2021-10-25T19:16:08.571Z,181685.002,1635188870,full,ni_sequenzen,NI_Sequenzen,,,,,,,,,,,,,,
,Screen_6,canvas.Screen,0_2_17_5,,skipped,18,181573,,,181568.5,,181573,2021-10-25T19:16:08.572Z,181685.002,1635188870,full,ni_sequenzen,NI_Sequenzen,,,,,,,,,,,,,,
,Sequence,flow.Sequence,0_2_17,,completion,18,181567.90000009537,,,181568.5,,181573.10000002384,2021-10-25T19:16:08.572Z,181685.002,1635188870,full,ni_sequenzen,NI_Sequenzen,,,,,,,,,,,,,,
,Screen_1,canvas.Screen,0_2_18_0,,skipped,19,181574,,,181574.10000002384,,181574.10000002384,2021-10-25T19:16:08.573Z,181685.002,1635188870,full,ni_sequenzen,NI_Sequenzen,,,,,,,,,,,,,,
,Screen_2,canvas.Screen,0_2_18_1,,skipped,19,181574.70000004768,,,181574.10000002384,,181574.80000007153,2021-10-25T19:16:08.573Z,181685.002,1635188870,full,ni_sequenzen,NI_Sequenzen,,,,,,,,,,,,,,
,Screen_3,canvas.Screen,0_2_18_2,,skipped,19,181575.30000007153,,,181574.10000002384,,181575.40000009537,2021-10-25T19:16:08.574Z,181685.002,1635188870,full,ni_sequenzen,NI_Sequenzen,,,,,,,,,,,,,,
,Screen_4,canvas.Screen,0_2_18_3,,skipped,19,181575.90000009537,,,181574.10000002384,,181575.90000009537,2021-10-25T19:16:08.574Z,181685.002,1635188870,full,ni_sequenzen,NI_Sequenzen,,,,,,,,,,,,,,
,Screen_5,canvas.Screen,0_2_18_4,,skipped,19,181576.5,,,181574.10000002384,,181576.60000002384,2021-10-25T19:16:08.575Z,181685.002,1635188870,full,ni_sequenzen,NI_Sequenzen,,,,,,,,,,,,,,
,Screen_6,canvas.Screen,0_2_18_5,,skipped,19,181577.10000002384,,,181574.10000002384,,181577.20000004768,2021-10-25T19:16:08.576Z,181685.002,1635188870,full,ni_sequenzen,NI_Sequenzen,,,,,,,,,,,,,,
,Sequence,flow.Sequence,0_2_18,,completion,19,181573.40000009537,,,181574.10000002384,,181577.30000007153,2021-10-25T19:16:08.576Z,181685.002,1635188870,full,ni_sequenzen,NI_Sequenzen,,,,,,,,,,,,,,
,Screen_1,canvas.Screen,0_2_19_0,,skipped,20,181578.10000002384,,,181578.20000004768,,181578.20000004768,2021-10-25T19:16:08.577Z,181685.002,1635188870,full,ni_sequenzen,NI_Sequenzen,,,,,,,,,,,,,,
,Screen_2,canvas.Screen,0_2_19_1,,skipped,20,181578.80000007153,,,181578.20000004768,,181578.80000007153,2021-10-25T19:16:08.577Z,181685.002,1635188870,full,ni_sequenzen,NI_Sequenzen,,,,,,,,,,,,,,
,Screen_3,canvas.Screen,0_2_19_2,,skipped,20,181579.40000009537,,,181578.20000004768,,181579.40000009537,2021-10-25T19:16:08.578Z,181685.002,1635188870,full,ni_sequenzen,NI_Sequenzen,,,,,,,,,,,,,,
,Screen_4,canvas.Screen,0_2_19_3,,skipped,20,181580,,,181578.20000004768,,181580.10000002384,2021-10-25T19:16:08.579Z,181685.002,1635188870,full,ni_sequenzen,NI_Sequenzen,,,,,,,,,,,,,,
,Screen_5,canvas.Screen,0_2_19_4,,skipped,20,181580.60000002384,,,181578.20000004768,,181580.70000004768,2021-10-25T19:16:08.579Z,181685.002,1635188870,full,ni_sequenzen,NI_Sequenzen,,,,,,,,,,,,,,
,Screen_6,canvas.Screen,0_2_19_5,,skipped,20,181582.40000009537,,,181578.20000004768,,181582.5,2021-10-25T19:16:08.581Z,181685.002,1635188870,full,ni_sequenzen,NI_Sequenzen,,,,,,,,,,,,,,
,Sequence,flow.Sequence,0_2_19,,completion,20,181577.5,,,181578.20000004768,,181582.70000004768,2021-10-25T19:16:08.581Z,181685.002,1635188870,full,ni_sequenzen,NI_Sequenzen,,,,,,,,,,,,,,
,Screen_1,canvas.Screen,0_2_20_0,,skipped,21,181583.5,,,181583.5,,181583.60000002384,2021-10-25T19:16:08.582Z,181685.002,1635188870,full,ni_sequenzen,NI_Sequenzen,,,,,,,,,,,,,,
,Screen_2,canvas.Screen,0_2_20_1,,skipped,21,181584.20000004768,,,181583.5,,181584.20000004768,2021-10-25T19:16:08.583Z,181685.002,1635188870,full,ni_sequenzen,NI_Sequenzen,,,,,,,,,,,,,,
,Screen_3,canvas.Screen,0_2_20_2,,skipped,21,181584.80000007153,,,181583.5,,181584.80000007153,2021-10-25T19:16:08.583Z,181685.002,1635188870,full,ni_sequenzen,NI_Sequenzen,,,,,,,,,,,,,,
,Screen_4,canvas.Screen,0_2_20_3,,skipped,21,181585.60000002384,,,181583.5,,181585.60000002384,2021-10-25T19:16:08.584Z,181685.002,1635188870,full,ni_sequenzen,NI_Sequenzen,,,,,,,,,,,,,,
,Screen_5,canvas.Screen,0_2_20_4,,skipped,21,181586.20000004768,,,181583.5,,181586.20000004768,2021-10-25T19:16:08.585Z,181685.002,1635188870,full,ni_sequenzen,NI_Sequenzen,,,,,,,,,,,,,,
,Screen_6,canvas.Screen,0_2_20_5,,skipped,21,181586.80000007153,,,181583.5,,181586.90000009537,2021-10-25T19:16:08.585Z,181685.002,1635188870,full,ni_sequenzen,NI_Sequenzen,,,,,,,,,,,,,,
,Sequence,flow.Sequence,0_2_20,,completion,21,181583,,,181583.5,,181587,2021-10-25T19:16:08.586Z,181685.002,1635188870,full,ni_sequenzen,NI_Sequenzen,,,,,,,,,,,,,,
,Screen_1,canvas.Screen,0_2_21_0,,skipped,22,181587.90000009537,,,181587.90000009537,,181588,2021-10-25T19:16:08.586Z,181685.002,1635188870,full,ni_sequenzen,NI_Sequenzen,,,,,,,,,,,,,,
,Screen_2,canvas.Screen,0_2_21_1,,skipped,22,181588.90000009537,,,181587.90000009537,,181589.10000002384,2021-10-25T19:16:08.588Z,181685.002,1635188870,full,ni_sequenzen,NI_Sequenzen,,,,,,,,,,,,,,
,Screen_3,canvas.Screen,0_2_21_2,,skipped,22,181590.40000009537,,,181587.90000009537,,181590.40000009537,2021-10-25T19:16:08.589Z,181685.002,1635188870,full,ni_sequenzen,NI_Sequenzen,,,,,,,,,,,,,,
,Screen_4,canvas.Screen,0_2_21_3,,skipped,22,181591.5,,,181587.90000009537,,181591.60000002384,2021-10-25T19:16:08.590Z,181685.002,1635188870,full,ni_sequenzen,NI_Sequenzen,,,,,,,,,,,,,,
,Screen_5,canvas.Screen,0_2_21_4,,skipped,22,181593.60000002384,,,181587.90000009537,,181593.80000007153,2021-10-25T19:16:08.592Z,181685.002,1635188870,full,ni_sequenzen,NI_Sequenzen,,,,,,,,,,,,,,
,Screen_6,canvas.Screen,0_2_21_5,,skipped,22,181594.90000009537,,,181587.90000009537,,181595,2021-10-25T19:16:08.594Z,181685.002,1635188870,full,ni_sequenzen,NI_Sequenzen,,,,,,,,,,,,,,
,Sequence,flow.Sequence,0_2_21,,completion,22,181587.30000007153,,,181587.90000009537,,181595.20000004768,2021-10-25T19:16:08.594Z,181685.002,1635188870,full,ni_sequenzen,NI_Sequenzen,,,,,,,,,,,,,,
,Screen_1,canvas.Screen,0_2_22_0,,skipped,23,181596.80000007153,,,181596.80000007153,,181596.80000007153,2021-10-25T19:16:08.595Z,181685.002,1635188870,full,ni_sequenzen,NI_Sequenzen,,,,,,,,,,,,,,
,Screen_2,canvas.Screen,0_2_22_1,,skipped,23,181597.80000007153,,,181596.80000007153,,181598,2021-10-25T19:16:08.596Z,181685.002,1635188870,full,ni_sequenzen,NI_Sequenzen,,,,,,,,,,,,,,
,Screen_3,canvas.Screen,0_2_22_2,,skipped,23,181601.60000002384,,,181596.80000007153,,181601.70000004768,2021-10-25T19:16:08.600Z,181685.002,1635188870,full,ni_sequenzen,NI_Sequenzen,,,,,,,,,,,,,,
,Screen_4,canvas.Screen,0_2_22_3,,skipped,23,181602.60000002384,,,181596.80000007153,,181602.70000004768,2021-10-25T19:16:08.601Z,181685.002,1635188870,full,ni_sequenzen,NI_Sequenzen,,,,,,,,,,,,,,
,Screen_5,canvas.Screen,0_2_22_4,,skipped,23,181603.30000007153,,,181596.80000007153,,181603.40000009537,2021-10-25T19:16:08.602Z,181685.002,1635188870,full,ni_sequenzen,NI_Sequenzen,,,,,,,,,,,,,,
,Screen_6,canvas.Screen,0_2_22_5,,skipped,23,181603.90000009537,,,181596.80000007153,,181604,2021-10-25T19:16:08.603Z,181685.002,1635188870,full,ni_sequenzen,NI_Sequenzen,,,,,,,,,,,,,,
,Sequence,flow.Sequence,0_2_22,,completion,23,181595.70000004768,,,181596.80000007153,,181604.20000004768,2021-10-25T19:16:08.603Z,181685.002,1635188870,full,ni_sequenzen,NI_Sequenzen,,,,,,,,,,,,,,
,Screen_1,canvas.Screen,0_2_23_0,,skipped,24,181605.10000002384,,,181605.10000002384,,181605.20000004768,2021-10-25T19:16:08.604Z,181685.002,1635188870,full,ni_sequenzen,NI_Sequenzen,,,,,,,,,,,,,,
,Screen_2,canvas.Screen,0_2_23_1,,skipped,24,181605.80000007153,,,181605.10000002384,,181605.80000007153,2021-10-25T19:16:08.604Z,181685.002,1635188870,full,ni_sequenzen,NI_Sequenzen,,,,,,,,,,,,,,
,Screen_3,canvas.Screen,0_2_23_2,,skipped,24,181606.30000007153,,,181605.10000002384,,181606.40000009537,2021-10-25T19:16:08.605Z,181685.002,1635188870,full,ni_sequenzen,NI_Sequenzen,,,,,,,,,,,,,,
,Screen_4,canvas.Screen,0_2_23_3,,skipped,24,181607,,,181605.10000002384,,181607,2021-10-25T19:16:08.606Z,181685.002,1635188870,full,ni_sequenzen,NI_Sequenzen,,,,,,,,,,,,,,
,Screen_5,canvas.Screen,0_2_23_4,,skipped,24,181607.5,,,181605.10000002384,,181607.60000002384,2021-10-25T19:16:08.606Z,181685.002,1635188870,full,ni_sequenzen,NI_Sequenzen,,,,,,,,,,,,,,
,Screen_6,canvas.Screen,0_2_23_5,,skipped,24,181608.20000004768,,,181605.10000002384,,181608.30000007153,2021-10-25T19:16:08.607Z,181685.002,1635188870,full,ni_sequenzen,NI_Sequenzen,,,,,,,,,,,,,,
,Sequence,flow.Sequence,0_2_23,,completion,24,181604.5,,,181605.10000002384,,181608.30000007153,2021-10-25T19:16:08.607Z,181685.002,1635188870,full,ni_sequenzen,NI_Sequenzen,,,,,,,,,,,,,,
,Screen_1,canvas.Screen,0_2_24_0,,skipped,25,181609.20000004768,,,181609.20000004768,,181609.20000004768,2021-10-25T19:16:08.608Z,181685.002,1635188870,full,ni_sequenzen,NI_Sequenzen,,,,,,,,,,,,,,
,Screen_2,canvas.Screen,0_2_24_1,,skipped,25,181609.80000007153,,,181609.20000004768,,181609.90000009537,2021-10-25T19:16:08.608Z,181685.002,1635188870,full,ni_sequenzen,NI_Sequenzen,,,,,,,,,,,,,,
,Screen_3,canvas.Screen,0_2_24_2,,skipped,25,181610.5,,,181609.20000004768,,181610.5,2021-10-25T19:16:08.609Z,181685.002,1635188870,full,ni_sequenzen,NI_Sequenzen,,,,,,,,,,,,,,
,Screen_4,canvas.Screen,0_2_24_3,,skipped,25,181611.10000002384,,,181609.20000004768,,181611.10000002384,2021-10-25T19:16:08.610Z,181685.002,1635188870,full,ni_sequenzen,NI_Sequenzen,,,,,,,,,,,,,,
,Screen_5,canvas.Screen,0_2_24_4,,skipped,25,181611.70000004768,,,181609.20000004768,,181611.80000007153,2021-10-25T19:16:08.610Z,181685.002,1635188870,full,ni_sequenzen,NI_Sequenzen,,,,,,,,,,,,,,
,Screen_6,canvas.Screen,0_2_24_5,,skipped,25,181612.40000009537,,,181609.20000004768,,181612.40000009537,2021-10-25T19:16:08.611Z,181685.002,1635188870,full,ni_sequenzen,NI_Sequenzen,,,,,,,,,,,,,,
,Sequence,flow.Sequence,0_2_24,,completion,25,181608.70000004768,,,181609.20000004768,,181612.5,2021-10-25T19:16:08.611Z,181685.002,1635188870,full,ni_sequenzen,NI_Sequenzen,,,,,,,,,,,,,,
,Screen_1,canvas.Screen,0_2_25_0,,skipped,26,181614.80000007153,,,181614.80000007153,,181615,2021-10-25T19:16:08.613Z,181685.002,1635188870,full,ni_sequenzen,NI_Sequenzen,,,,,,,,,,,,,,
,Screen_2,canvas.Screen,0_2_25_1,,skipped,26,181615.90000009537,,,181614.80000007153,,181616,2021-10-25T19:16:08.615Z,181685.002,1635188870,full,ni_sequenzen,NI_Sequenzen,,,,,,,,,,,,,,
,Screen_3,canvas.Screen,0_2_25_2,,skipped,26,181616.90000009537,,,181614.80000007153,,181616.90000009537,2021-10-25T19:16:08.615Z,181685.002,1635188870,full,ni_sequenzen,NI_Sequenzen,,,,,,,,,,,,,,
,Screen_4,canvas.Screen,0_2_25_3,,skipped,26,181617.80000007153,,,181614.80000007153,,181617.90000009537,2021-10-25T19:16:08.616Z,181685.002,1635188870,full,ni_sequenzen,NI_Sequenzen,,,,,,,,,,,,,,
,Screen_5,canvas.Screen,0_2_25_4,,skipped,26,181618.90000009537,,,181614.80000007153,,181618.90000009537,2021-10-25T19:16:08.617Z,181685.002,1635188870,full,ni_sequenzen,NI_Sequenzen,,,,,,,,,,,,,,
,Screen_6,canvas.Screen,0_2_25_5,,skipped,26,181619.60000002384,,,181614.80000007153,,181619.60000002384,2021-10-25T19:16:08.618Z,181685.002,1635188870,full,ni_sequenzen,NI_Sequenzen,,,,,,,,,,,,,,
,Sequence,flow.Sequence,0_2_25,,completion,26,181614,,,181614.80000007153,,181619.70000004768,2021-10-25T19:16:08.618Z,181685.002,1635188870,full,ni_sequenzen,NI_Sequenzen,,,,,,,,,,,,,,
,Screen_1,canvas.Screen,0_2_26_0,,skipped,27,181620.70000004768,,,181620.70000004768,,181620.80000007153,2021-10-25T19:16:08.619Z,181685.002,1635188870,full,ni_sequenzen,NI_Sequenzen,,,,,,,,,,,,,,
,Screen_2,canvas.Screen,0_2_26_1,,skipped,27,181621.40000009537,,,181620.70000004768,,181621.70000004768,2021-10-25T19:16:08.620Z,181685.002,1635188870,full,ni_sequenzen,NI_Sequenzen,,,,,,,,,,,,,,
,Screen_3,canvas.Screen,0_2_26_2,,skipped,27,181622.40000009537,,,181620.70000004768,,181622.5,2021-10-25T19:16:08.621Z,181685.002,1635188870,full,ni_sequenzen,NI_Sequenzen,,,,,,,,,,,,,,
,Screen_4,canvas.Screen,0_2_26_3,,skipped,27,181623.30000007153,,,181620.70000004768,,181623.30000007153,2021-10-25T19:16:08.622Z,181685.002,1635188870,full,ni_sequenzen,NI_Sequenzen,,,,,,,,,,,,,,
,Screen_5,canvas.Screen,0_2_26_4,,skipped,27,181623.90000009537,,,181620.70000004768,,181623.90000009537,2021-10-25T19:16:08.622Z,181685.002,1635188870,full,ni_sequenzen,NI_Sequenzen,,,,,,,,,,,,,,
,Screen_6,canvas.Screen,0_2_26_5,,skipped,27,181624.5,,,181620.70000004768,,181624.60000002384,2021-10-25T19:16:08.623Z,181685.002,1635188870,full,ni_sequenzen,NI_Sequenzen,,,,,,,,,,,,,,
,Sequence,flow.Sequence,0_2_26,,completion,27,181620.10000002384,,,181620.70000004768,,181624.70000004768,2021-10-25T19:16:08.623Z,181685.002,1635188870,full,ni_sequenzen,NI_Sequenzen,,,,,,,,,,,,,,
,Screen_1,canvas.Screen,0_2_27_0,,skipped,28,181625.5,,,181625.5,,181625.60000002384,2021-10-25T19:16:08.624Z,181685.002,1635188870,full,ni_sequenzen,NI_Sequenzen,,,,,,,,,,,,,,
,Screen_2,canvas.Screen,0_2_27_1,,skipped,28,181626.40000009537,,,181625.5,,181626.40000009537,2021-10-25T19:16:08.625Z,181685.002,1635188870,full,ni_sequenzen,NI_Sequenzen,,,,,,,,,,,,,,
,Screen_3,canvas.Screen,0_2_27_2,,skipped,28,181627.10000002384,,,181625.5,,181627.10000002384,2021-10-25T19:16:08.626Z,181685.002,1635188870,full,ni_sequenzen,NI_Sequenzen,,,,,,,,,,,,,,
,Screen_4,canvas.Screen,0_2_27_3,,skipped,28,181629,,,181625.5,,181629.10000002384,2021-10-25T19:16:08.628Z,181685.002,1635188870,full,ni_sequenzen,NI_Sequenzen,,,,,,,,,,,,,,
,Screen_5,canvas.Screen,0_2_27_4,,skipped,28,181629.70000004768,,,181625.5,,181629.80000007153,2021-10-25T19:16:08.628Z,181685.002,1635188870,full,ni_sequenzen,NI_Sequenzen,,,,,,,,,,,,,,
,Screen_6,canvas.Screen,0_2_27_5,,skipped,28,181630.30000007153,,,181625.5,,181630.40000009537,2021-10-25T19:16:08.629Z,181685.002,1635188870,full,ni_sequenzen,NI_Sequenzen,,,,,,,,,,,,,,
,Sequence,flow.Sequence,0_2_27,,completion,28,181625,,,181625.5,,181630.5,2021-10-25T19:16:08.629Z,181685.002,1635188870,full,ni_sequenzen,NI_Sequenzen,,,,,,,,,,,,,,
,Screen_1,canvas.Screen,0_2_28_0,,skipped,29,181631.30000007153,,,181631.30000007153,,181631.40000009537,2021-10-25T19:16:08.630Z,181685.002,1635188870,full,ni_sequenzen,NI_Sequenzen,,,,,,,,,,,,,,
,Screen_2,canvas.Screen,0_2_28_1,,skipped,29,181632,,,181631.30000007153,,181632,2021-10-25T19:16:08.631Z,181685.002,1635188870,full,ni_sequenzen,NI_Sequenzen,,,,,,,,,,,,,,
,Screen_3,canvas.Screen,0_2_28_2,,skipped,29,181632.60000002384,,,181631.30000007153,,181632.60000002384,2021-10-25T19:16:08.631Z,181685.002,1635188870,full,ni_sequenzen,NI_Sequenzen,,,,,,,,,,,,,,
,Screen_4,canvas.Screen,0_2_28_3,,skipped,29,181633.10000002384,,,181631.30000007153,,181633.20000004768,2021-10-25T19:16:08.632Z,181685.002,1635188870,full,ni_sequenzen,NI_Sequenzen,,,,,,,,,,,,,,
,Screen_5,canvas.Screen,0_2_28_4,,skipped,29,181633.70000004768,,,181631.30000007153,,181633.80000007153,2021-10-25T19:16:08.632Z,181685.002,1635188870,full,ni_sequenzen,NI_Sequenzen,,,,,,,,,,,,,,
,Screen_6,canvas.Screen,0_2_28_5,,skipped,29,181634.40000009537,,,181631.30000007153,,181634.40000009537,2021-10-25T19:16:08.633Z,181685.002,1635188870,full,ni_sequenzen,NI_Sequenzen,,,,,,,,,,,,,,
,Sequence,flow.Sequence,0_2_28,,completion,29,181630.80000007153,,,181631.30000007153,,181634.5,2021-10-25T19:16:08.633Z,181685.002,1635188870,full,ni_sequenzen,NI_Sequenzen,,,,,,,,,,,,,,
,Screen_1,canvas.Screen,0_2_29_0,,skipped,30,181635.30000007153,,,181635.30000007153,,181635.5,2021-10-25T19:16:08.634Z,181685.002,1635188870,full,ni_sequenzen,NI_Sequenzen,,,,,,,,,,,,,,
,Screen_2,canvas.Screen,0_2_29_1,,skipped,30,181636.90000009537,,,181635.30000007153,,181636.90000009537,2021-10-25T19:16:08.635Z,181685.002,1635188870,full,ni_sequenzen,NI_Sequenzen,,,,,,,,,,,,,,
,Screen_3,canvas.Screen,0_2_29_2,,skipped,30,181638,,,181635.30000007153,,181638.20000004768,2021-10-25T19:16:08.637Z,181685.002,1635188870,full,ni_sequenzen,NI_Sequenzen,,,,,,,,,,,,,,
,Screen_4,canvas.Screen,0_2_29_3,,skipped,30,181639.20000004768,,,181635.30000007153,,181639.30000007153,2021-10-25T19:16:08.638Z,181685.002,1635188870,full,ni_sequenzen,NI_Sequenzen,,,,,,,,,,,,,,
,Screen_5,canvas.Screen,0_2_29_4,,skipped,30,181640.20000004768,,,181635.30000007153,,181640.40000009537,2021-10-25T19:16:08.639Z,181685.002,1635188870,full,ni_sequenzen,NI_Sequenzen,,,,,,,,,,,,,,
,Screen_6,canvas.Screen,0_2_29_5,,skipped,30,181641.30000007153,,,181635.30000007153,,181641.40000009537,2021-10-25T19:16:08.640Z,181685.002,1635188870,full,ni_sequenzen,NI_Sequenzen,,,,,,,,,,,,,,
,Sequence,flow.Sequence,0_2_29,,completion,30,181634.80000007153,,,181635.30000007153,,181641.60000002384,2021-10-25T19:16:08.640Z,181685.002,1635188870,full,ni_sequenzen,NI_Sequenzen,,,,,,,,,,,,,,
,Instructions_II,flow.Loop,0_2,,completion,,71896.5,71888.311,71904.736,181635.30000007153,109730.56400007152,181641.70000004768,2021-10-25T19:16:08.640Z,181685.002,1635188870,full,ni_sequenzen,NI_Sequenzen,,,,,,,,,,,,,,
,Move,canvas.Screen,0_3_0_0_0_0,right,response,,181674.90000009537,181659.476,181685.002,197068.40000009537,15383.39800009536,197069.70000004768,2021-10-25T19:16:24.068Z,197091.88,1635188870,full,ni_sequenzen,NI_Sequenzen,1,0,,,,,,,,,,,,
,Move,canvas.Screen,0_3_0_0_0_1,down,response,,197080.20000004768,197067.711,197091.88,200700,3608.1199999999953,200701,2021-10-25T19:16:27.700Z,200725.062,1635188870,full,ni_sequenzen,NI_Sequenzen,2,0,,,,,,,,,,,,
,Move,canvas.Screen,0_3_0_0_0_2,down,response,,200705.20000004768,200691.715,200725.062,201611,885.9379999999946,201611.90000009537,2021-10-25T19:16:28.610Z,201622.45,1635188870,full,ni_sequenzen,NI_Sequenzen,3,0,,,,,,,,,,,,
,Move,canvas.Screen,0_3_0_0_0_3,right,response,,201615.30000007153,201606.654,201622.45,203286.5,1664.0499999999884,203288.40000009537,2021-10-25T19:16:30.287Z,203337.981,1635188870,full,ni_sequenzen,NI_Sequenzen,4,0,,,,,,,,,,,,
,Move,canvas.Screen,0_3_0_0_0_4,-999,skipped,,203293,,,203286.5,,203293.20000004768,2021-10-25T19:16:30.292Z,203337.981,1635188870,full,ni_sequenzen,NI_Sequenzen,5,0,,,,,,,,,,,,
,Move,canvas.Screen,0_3_0_0_0_5,-999,skipped,,203296.70000004768,,,203286.5,,203296.80000007153,2021-10-25T19:16:30.295Z,203337.981,1635188870,full,ni_sequenzen,NI_Sequenzen,6,0,,,,,,,,,,,,
,Move,canvas.Screen,0_3_0_0_0_6,-999,skipped,,203300.20000004768,,,203286.5,,203300.30000007153,2021-10-25T19:16:30.299Z,203337.981,1635188870,full,ni_sequenzen,NI_Sequenzen,7,0,,,,,,,,,,,,
,Move,canvas.Screen,0_3_0_0_0_7,-999,skipped,,203305.5,,,203286.5,,203305.70000004768,2021-10-25T19:16:30.304Z,203337.981,1635188870,full,ni_sequenzen,NI_Sequenzen,8,0,,,,,,,,,,,,
,Move,canvas.Screen,0_3_0_0_0_8,-999,skipped,,203308.60000002384,,,203286.5,,203308.70000004768,2021-10-25T19:16:30.307Z,203337.981,1635188870,full,ni_sequenzen,NI_Sequenzen,9,0,,,,,,,,,,,,
,Move,canvas.Screen,0_3_0_0_0_9,-999,skipped,,203311.40000009537,,,203286.5,,203311.5,2021-10-25T19:16:30.310Z,203337.981,1635188870,full,ni_sequenzen,NI_Sequenzen,10,0,,,,,,,,,,,,
,Move,canvas.Screen,0_3_0_0_0_10,-999,skipped,,203315.20000004768,,,203286.5,,203315.40000009537,2021-10-25T19:16:30.314Z,203337.981,1635188870,full,ni_sequenzen,NI_Sequenzen,11,0,,,,,,,,,,,,
,Move,canvas.Screen,0_3_0_0_0_11,-999,skipped,,203318.20000004768,,,203286.5,,203318.30000007153,2021-10-25T19:16:30.317Z,203337.981,1635188870,full,ni_sequenzen,NI_Sequenzen,12,0,,,,,,,,,,,,
,Move,canvas.Screen,0_3_0_0_0_12,-999,skipped,,203322.30000007153,,,203286.5,,203322.40000009537,2021-10-25T19:16:30.321Z,203337.981,1635188870,full,ni_sequenzen,NI_Sequenzen,13,0,,,,,,,,,,,,
,Move,canvas.Screen,0_3_0_0_0_13,-999,skipped,,203327,,,203286.5,,203327.20000004768,2021-10-25T19:16:30.326Z,203337.981,1635188870,full,ni_sequenzen,NI_Sequenzen,14,0,,,,,,,,,,,,
,Move,canvas.Screen,0_3_0_0_0_14,-999,skipped,,203330.80000007153,,,203286.5,,203330.90000009537,2021-10-25T19:16:30.329Z,203337.981,1635188870,full,ni_sequenzen,NI_Sequenzen,15,0,,,,,,,,,,,,
,Loop,flow.Loop,0_3_0_0_0,-999,completion,,181667.90000009537,181659.476,181685.002,203286.5,21601.497999999992,203331.20000004768,2021-10-25T19:16:30.330Z,203337.981,1635188870,full,ni_sequenzen,NI_Sequenzen,,0,,,,,,,,,,,,
,Feedback,canvas.Screen,0_3_0_0_1,,timeout,,203334.60000002384,203322.42,203337.981,207319.054,3997.4290000000037,207320.5,2021-10-25T19:16:34.319Z,207335.41,1635188870,full,ni_sequenzen,NI_Sequenzen,,0,,,,,,,,,,,,
,Trial,flow.Sequence,0_3_0_0,,completion,,181658.30000007153,181659.476,181685.002,207319.054,25634.051999999996,207320.60000002384,2021-10-25T19:16:34.319Z,207352.203,1635188870,full,ni_sequenzen,NI_Sequenzen,,0,,,,,,,,,,,,
,Move,canvas.Screen,0_3_0_1_0_0,down,response,,207342,207335.41,207352.203,223038.70000004768,15686.497000047675,223039.80000007153,2021-10-25T19:16:50.038Z,223058.877,1635188870,full,ni_sequenzen,NI_Sequenzen,1,1,,,,,,,,,,,,
,Move,canvas.Screen,0_3_0_1_0_1,right,response,,223043.70000004768,223034.694,223058.877,224207.60000002384,1148.7230000238342,224210,2021-10-25T19:16:51.209Z,224224.744,1635188870,full,ni_sequenzen,NI_Sequenzen,2,1,,,,,,,,,,,,
,Move,canvas.Screen,0_3_0_1_0_2,right,response,,224214.40000009537,224209.017,224224.744,225244.60000002384,1019.8560000238358,225245.40000009537,2021-10-25T19:16:52.244Z,225257.315,1635188870,full,ni_sequenzen,NI_Sequenzen,3,1,,,,,,,,,,,,
,Move,canvas.Screen,0_3_0_1_0_3,down,response,,225248.80000007153,225241.313,225257.315,226198.10000002384,940.7850000238395,226198.90000009537,2021-10-25T19:16:53.197Z,226256.745,1635188870,full,ni_sequenzen,NI_Sequenzen,4,1,,,,,,,,,,,,
,Move,canvas.Screen,0_3_0_1_0_4,-999,skipped,,226204.70000004768,,,226198.10000002384,,226204.90000009537,2021-10-25T19:16:53.203Z,226256.745,1635188870,full,ni_sequenzen,NI_Sequenzen,5,1,,,,,,,,,,,,
,Move,canvas.Screen,0_3_0_1_0_5,-999,skipped,,226208.10000002384,,,226198.10000002384,,226208.30000007153,2021-10-25T19:16:53.207Z,226256.745,1635188870,full,ni_sequenzen,NI_Sequenzen,6,1,,,,,,,,,,,,
,Move,canvas.Screen,0_3_0_1_0_6,-999,skipped,,226211,,,226198.10000002384,,226211.20000004768,2021-10-25T19:16:53.210Z,226256.745,1635188870,full,ni_sequenzen,NI_Sequenzen,7,1,,,,,,,,,,,,
,Move,canvas.Screen,0_3_0_1_0_7,-999,skipped,,226214.60000002384,,,226198.10000002384,,226214.70000004768,2021-10-25T19:16:53.213Z,226256.745,1635188870,full,ni_sequenzen,NI_Sequenzen,8,1,,,,,,,,,,,,
,Move,canvas.Screen,0_3_0_1_0_8,-999,skipped,,226217.90000009537,,,226198.10000002384,,226217.90000009537,2021-10-25T19:16:53.216Z,226256.745,1635188870,full,ni_sequenzen,NI_Sequenzen,9,1,,,,,,,,,,,,
,Move,canvas.Screen,0_3_0_1_0_9,-999,skipped,,226221.60000002384,,,226198.10000002384,,226221.80000007153,2021-10-25T19:16:53.220Z,226256.745,1635188870,full,ni_sequenzen,NI_Sequenzen,10,1,,,,,,,,,,,,
,Move,canvas.Screen,0_3_0_1_0_10,-999,skipped,,226226.10000002384,,,226198.10000002384,,226226.30000007153,2021-10-25T19:16:53.225Z,226256.745,1635188870,full,ni_sequenzen,NI_Sequenzen,11,1,,,,,,,,,,,,
,Move,canvas.Screen,0_3_0_1_0_11,-999,skipped,,226229.30000007153,,,226198.10000002384,,226229.40000009537,2021-10-25T19:16:53.228Z,226256.745,1635188870,full,ni_sequenzen,NI_Sequenzen,12,1,,,,,,,,,,,,
,Move,canvas.Screen,0_3_0_1_0_12,-999,skipped,,226232.10000002384,,,226198.10000002384,,226232.20000004768,2021-10-25T19:16:53.231Z,226256.745,1635188870,full,ni_sequenzen,NI_Sequenzen,13,1,,,,,,,,,,,,
,Move,canvas.Screen,0_3_0_1_0_13,-999,skipped,,226233.90000009537,,,226198.10000002384,,226233.90000009537,2021-10-25T19:16:53.232Z,226256.745,1635188870,full,ni_sequenzen,NI_Sequenzen,14,1,,,,,,,,,,,,
,Move,canvas.Screen,0_3_0_1_0_14,-999,skipped,,226236.80000007153,,,226198.10000002384,,226236.90000009537,2021-10-25T19:16:53.235Z,226256.745,1635188870,full,ni_sequenzen,NI_Sequenzen,15,1,,,,,,,,,,,,
,Loop,flow.Loop,0_3_0_1_0,-999,completion,,207337.80000007153,207335.41,207352.203,226198.10000002384,18845.897000023833,226237,2021-10-25T19:16:53.236Z,226256.745,1635188870,full,ni_sequenzen,NI_Sequenzen,,1,,,,,,,,,,,,
,Feedback,canvas.Screen,0_3_0_1_1,,timeout,,226238.70000004768,226224.45,226256.745,230237.8,3997.6290000000154,230238.70000004768,2021-10-25T19:16:57.237Z,230254.374,1635188870,full,ni_sequenzen,NI_Sequenzen,,1,,,,,,,,,,,,
,Trial,flow.Sequence,0_3_0_1,,completion,,207321.10000002384,207335.41,207352.203,230237.8,22885.59699999998,230238.90000009537,2021-10-25T19:16:57.237Z,230270.769,1635188870,full,ni_sequenzen,NI_Sequenzen,,1,,,,,,,,,,,,
,Move,canvas.Screen,0_3_0_2_0_0,down,response,,230259.70000004768,230254.374,230270.769,238490.20000004768,8219.431000047683,238491.40000009537,2021-10-25T19:17:05.490Z,238498.902,1635188870,full,ni_sequenzen,NI_Sequenzen,1,2,,,,,,,,,,,,
,Move,canvas.Screen,0_3_0_2_0_1,right,response,,238495.80000007153,238487.444,238498.902,239075.30000007153,576.3980000715237,239076.10000002384,2021-10-25T19:17:06.075Z,239114.695,1635188870,full,ni_sequenzen,NI_Sequenzen,2,2,,,,,,,,,,,,
,Move,canvas.Screen,0_3_0_2_0_2,right,response,,239080.5,239065.545,239114.695,239810.5,695.804999999993,239811.80000007153,2021-10-25T19:17:06.810Z,239848.023,1635188870,full,ni_sequenzen,NI_Sequenzen,3,2,,,,,,,,,,,,
,Move,canvas.Screen,0_3_0_2_0_3,down,response,,239817.20000004768,239815.212,239848.023,240611.30000007153,763.2770000715391,240612.10000002384,2021-10-25T19:17:07.611Z,240647.507,1635188870,full,ni_sequenzen,NI_Sequenzen,4,2,,,,,,,,,,,,
,Move,canvas.Screen,0_3_0_2_0_4,-999,skipped,,240615.60000002384,,,240611.30000007153,,240615.80000007153,2021-10-25T19:17:07.614Z,240647.507,1635188870,full,ni_sequenzen,NI_Sequenzen,5,2,,,,,,,,,,,,
,Move,canvas.Screen,0_3_0_2_0_5,-999,skipped,,240619.70000004768,,,240611.30000007153,,240619.90000009537,2021-10-25T19:17:07.618Z,240647.507,1635188870,full,ni_sequenzen,NI_Sequenzen,6,2,,,,,,,,,,,,
,Move,canvas.Screen,0_3_0_2_0_6,-999,skipped,,240622.70000004768,,,240611.30000007153,,240622.70000004768,2021-10-25T19:17:07.621Z,240647.507,1635188870,full,ni_sequenzen,NI_Sequenzen,7,2,,,,,,,,,,,,
,Move,canvas.Screen,0_3_0_2_0_7,-999,skipped,,240626.5,,,240611.30000007153,,240626.70000004768,2021-10-25T19:17:07.625Z,240647.507,1635188870,full,ni_sequenzen,NI_Sequenzen,8,2,,,,,,,,,,,,
,Move,canvas.Screen,0_3_0_2_0_8,-999,skipped,,240630.30000007153,,,240611.30000007153,,240630.5,2021-10-25T19:17:07.629Z,240647.507,1635188870,full,ni_sequenzen,NI_Sequenzen,9,2,,,,,,,,,,,,
,Move,canvas.Screen,0_3_0_2_0_9,-999,skipped,,240633.20000004768,,,240611.30000007153,,240633.30000007153,2021-10-25T19:17:07.632Z,240647.507,1635188870,full,ni_sequenzen,NI_Sequenzen,10,2,,,,,,,,,,,,
,Move,canvas.Screen,0_3_0_2_0_10,-999,skipped,,240635.60000002384,,,240611.30000007153,,240635.70000004768,2021-10-25T19:17:07.634Z,240647.507,1635188870,full,ni_sequenzen,NI_Sequenzen,11,2,,,,,,,,,,,,
,Move,canvas.Screen,0_3_0_2_0_11,-999,skipped,,240637.20000004768,,,240611.30000007153,,240637.30000007153,2021-10-25T19:17:07.636Z,240647.507,1635188870,full,ni_sequenzen,NI_Sequenzen,12,2,,,,,,,,,,,,
,Move,canvas.Screen,0_3_0_2_0_12,-999,skipped,,240638.80000007153,,,240611.30000007153,,240638.90000009537,2021-10-25T19:17:07.637Z,240647.507,1635188870,full,ni_sequenzen,NI_Sequenzen,13,2,,,,,,,,,,,,
,Move,canvas.Screen,0_3_0_2_0_13,-999,skipped,,240641,,,240611.30000007153,,240641.20000004768,2021-10-25T19:17:07.640Z,240647.507,1635188870,full,ni_sequenzen,NI_Sequenzen,14,2,,,,,,,,,,,,
,Move,canvas.Screen,0_3_0_2_0_14,-999,skipped,,240642.90000009537,,,240611.30000007153,,240642.90000009537,2021-10-25T19:17:07.641Z,240647.507,1635188870,full,ni_sequenzen,NI_Sequenzen,15,2,,,,,,,,,,,,
,Loop,flow.Loop,0_3_0_2_0,-999,completion,,230256.30000007153,230254.374,230270.769,240611.30000007153,10340.531000071525,240643,2021-10-25T19:17:07.642Z,240647.507,1635188870,full,ni_sequenzen,NI_Sequenzen,,2,,,,,,,,,,,,
,Feedback,canvas.Screen,0_3_0_2_1,,timeout,,240644.30000007153,240631.345,240647.507,244628.658,3997.618999999977,244629.60000002384,2021-10-25T19:17:11.628Z,244645.126,1635188870,full,ni_sequenzen,NI_Sequenzen,,2,,,,,,,,,,,,
,Trial,flow.Sequence,0_3_0_2,,completion,,230239.30000007153,230254.374,230270.769,244628.658,14357.888999999996,244629.80000007153,2021-10-25T19:17:11.628Z,244661.926,1635188870,full,ni_sequenzen,NI_Sequenzen,,2,,,,,,,,,,,,
,Move,canvas.Screen,0_3_0_3_0_0,right,response,,244651.10000002384,244645.126,244661.926,248742.30000007153,4080.374000071519,248743.30000007153,2021-10-25T19:17:15.742Z,248759.082,1635188870,full,ni_sequenzen,NI_Sequenzen,1,3,,,,,,,,,,,,
,Move,canvas.Screen,0_3_0_3_0_1,down,response,,248746.80000007153,248745.144,248759.082,251873.70000004768,3114.618000047689,251874.70000004768,2021-10-25T19:17:18.873Z,251890.46,1635188870,full,ni_sequenzen,NI_Sequenzen,2,3,,,,,,,,,,,,
,Move,canvas.Screen,0_3_0_3_0_2,down,response,,251877.40000009537,251875.554,251890.46,252361.90000009537,471.4400000953756,252362.80000007153,2021-10-25T19:17:19.361Z,252373.52,1635188870,full,ni_sequenzen,NI_Sequenzen,3,3,,,,,,,,,,,,
,Move,canvas.Screen,0_3_0_3_0_3,right,response,,252366.60000002384,252356.981,252373.52,253682.60000002384,1309.0800000238523,253683.60000002384,2021-10-25T19:17:20.682Z,253739.199,1635188870,full,ni_sequenzen,NI_Sequenzen,4,3,,,,,,,,,,,,
,Move,canvas.Screen,0_3_0_3_0_4,-999,skipped,,253687.30000007153,,,253682.60000002384,,253687.40000009537,2021-10-25T19:17:20.686Z,253739.199,1635188870,full,ni_sequenzen,NI_Sequenzen,5,3,,,,,,,,,,,,
,Move,canvas.Screen,0_3_0_3_0_5,-999,skipped,,253691.40000009537,,,253682.60000002384,,253691.60000002384,2021-10-25T19:17:20.690Z,253739.199,1635188870,full,ni_sequenzen,NI_Sequenzen,6,3,,,,,,,,,,,,
,Move,canvas.Screen,0_3_0_3_0_6,-999,skipped,,253694.80000007153,,,253682.60000002384,,253694.90000009537,2021-10-25T19:17:20.694Z,253739.199,1635188870,full,ni_sequenzen,NI_Sequenzen,7,3,,,,,,,,,,,,
,Move,canvas.Screen,0_3_0_3_0_7,-999,skipped,,253699,,,253682.60000002384,,253699.20000004768,2021-10-25T19:17:20.698Z,253739.199,1635188870,full,ni_sequenzen,NI_Sequenzen,8,3,,,,,,,,,,,,
,Move,canvas.Screen,0_3_0_3_0_8,-999,skipped,,253701.90000009537,,,253682.60000002384,,253702,2021-10-25T19:17:20.701Z,253739.199,1635188870,full,ni_sequenzen,NI_Sequenzen,9,3,,,,,,,,,,,,
,Move,canvas.Screen,0_3_0_3_0_9,-999,skipped,,253704.70000004768,,,253682.60000002384,,253704.80000007153,2021-10-25T19:17:20.703Z,253739.199,1635188870,full,ni_sequenzen,NI_Sequenzen,10,3,,,,,,,,,,,,
,Move,canvas.Screen,0_3_0_3_0_10,-999,skipped,,253708.70000004768,,,253682.60000002384,,253708.90000009537,2021-10-25T19:17:20.707Z,253739.199,1635188870,full,ni_sequenzen,NI_Sequenzen,11,3,,,,,,,,,,,,
,Move,canvas.Screen,0_3_0_3_0_11,-999,skipped,,253711.80000007153,,,253682.60000002384,,253711.90000009537,2021-10-25T19:17:20.710Z,253739.199,1635188870,full,ni_sequenzen,NI_Sequenzen,12,3,,,,,,,,,,,,
,Move,canvas.Screen,0_3_0_3_0_12,-999,skipped,,253714.90000009537,,,253682.60000002384,,253715,2021-10-25T19:17:20.714Z,253739.199,1635188870,full,ni_sequenzen,NI_Sequenzen,13,3,,,,,,,,,,,,
,Move,canvas.Screen,0_3_0_3_0_13,-999,skipped,,253718.5,,,253682.60000002384,,253718.70000004768,2021-10-25T19:17:20.717Z,253739.199,1635188870,full,ni_sequenzen,NI_Sequenzen,14,3,,,,,,,,,,,,
,Move,canvas.Screen,0_3_0_3_0_14,-999,skipped,,253722.80000007153,,,253682.60000002384,,253723,2021-10-25T19:17:20.722Z,253739.199,1635188870,full,ni_sequenzen,NI_Sequenzen,15,3,,,,,,,,,,,,
,Loop,flow.Loop,0_3_0_3_0,-999,completion,,244647.80000007153,244645.126,244661.926,253682.60000002384,9020.674000023835,253723.20000004768,2021-10-25T19:17:20.722Z,253739.199,1635188870,full,ni_sequenzen,NI_Sequenzen,,3,,,,,,,,,,,,
,Feedback,canvas.Screen,0_3_0_3_1,,timeout,,253725.60000002384,253723.513,253739.199,257720.337,3997.99000000002,257721.30000007153,2021-10-25T19:17:24.720Z,257737.189,1635188870,full,ni_sequenzen,NI_Sequenzen,,3,,,,,,,,,,,,
,Trial,flow.Sequence,0_3_0_3,,completion,,244630.20000004768,244645.126,244661.926,257720.337,13058.410999999993,257722,2021-10-25T19:17:24.721Z,257753.34,1635188870,full,ni_sequenzen,NI_Sequenzen,,3,,,,,,,,,,,,
,Move,canvas.Screen,0_3_0_4_0_0,left,response,,257744,257737.189,257753.34,263141.5,5388.1600000000035,263144.10000002384,2021-10-25T19:17:30.143Z,263173.885,1635188870,full,ni_sequenzen,NI_Sequenzen,1,4,,,,,,,,,,,,
,Move,canvas.Screen,0_3_0_4_0_1,down,response,,263148.60000002384,263136.525,263173.885,264687.5,1513.6149999999907,264688.40000009537,2021-10-25T19:17:31.687Z,264699.027,1635188870,full,ni_sequenzen,NI_Sequenzen,2,4,,,,,,,,,,,,
,Move,canvas.Screen,0_3_0_4_0_2,down,response,,264693.10000002384,264683.28,264699.027,265319.10000002384,620.07300002384,265320.60000002384,2021-10-25T19:17:32.319Z,265348.516,1635188870,full,ni_sequenzen,NI_Sequenzen,3,4,,,,,,,,,,,,
,Move,canvas.Screen,0_3_0_4_0_3,left,response,,265324.60000002384,265315.538,265348.516,266765.40000009537,1416.8840000953642,266766.3000000715,2021-10-25T19:17:33.765Z,266814.838,1635188870,full,ni_sequenzen,NI_Sequenzen,4,4,,,,,,,,,,,,
,Move,canvas.Screen,0_3_0_4_0_4,-999,skipped,,266769.8000000715,,,266765.40000009537,,266769.90000009537,2021-10-25T19:17:33.768Z,266814.838,1635188870,full,ni_sequenzen,NI_Sequenzen,5,4,,,,,,,,,,,,
,Move,canvas.Screen,0_3_0_4_0_5,-999,skipped,,266772.7000000477,,,266765.40000009537,,266772.8000000715,2021-10-25T19:17:33.771Z,266814.838,1635188870,full,ni_sequenzen,NI_Sequenzen,6,4,,,,,,,,,,,,
,Move,canvas.Screen,0_3_0_4_0_6,-999,skipped,,266775.40000009537,,,266765.40000009537,,266775.5,2021-10-25T19:17:33.774Z,266814.838,1635188870,full,ni_sequenzen,NI_Sequenzen,7,4,,,,,,,,,,,,
,Move,canvas.Screen,0_3_0_4_0_7,-999,skipped,,266779.3000000715,,,266765.40000009537,,266779.3000000715,2021-10-25T19:17:33.778Z,266814.838,1635188870,full,ni_sequenzen,NI_Sequenzen,8,4,,,,,,,,,,,,
,Move,canvas.Screen,0_3_0_4_0_8,-999,skipped,,266782.3000000715,,,266765.40000009537,,266782.40000009537,2021-10-25T19:17:33.781Z,266814.838,1635188870,full,ni_sequenzen,NI_Sequenzen,9,4,,,,,,,,,,,,
,Move,canvas.Screen,0_3_0_4_0_9,-999,skipped,,266785,,,266765.40000009537,,266785.10000002384,2021-10-25T19:17:33.784Z,266814.838,1635188870,full,ni_sequenzen,NI_Sequenzen,10,4,,,,,,,,,,,,
,Move,canvas.Screen,0_3_0_4_0_10,-999,skipped,,266789.5,,,266765.40000009537,,266789.60000002384,2021-10-25T19:17:33.788Z,266814.838,1635188870,full,ni_sequenzen,NI_Sequenzen,11,4,,,,,,,,,,,,
,Move,canvas.Screen,0_3_0_4_0_11,-999,skipped,,266793.5,,,266765.40000009537,,266793.7000000477,2021-10-25T19:17:33.792Z,266814.838,1635188870,full,ni_sequenzen,NI_Sequenzen,12,4,,,,,,,,,,,,
,Move,canvas.Screen,0_3_0_4_0_12,-999,skipped,,266797.2000000477,,,266765.40000009537,,266797.3000000715,2021-10-25T19:17:33.796Z,266814.838,1635188870,full,ni_sequenzen,NI_Sequenzen,13,4,,,,,,,,,,,,
,Move,canvas.Screen,0_3_0_4_0_13,-999,skipped,,266801,,,266765.40000009537,,266801.2000000477,2021-10-25T19:17:33.800Z,266814.838,1635188870,full,ni_sequenzen,NI_Sequenzen,14,4,,,,,,,,,,,,
,Move,canvas.Screen,0_3_0_4_0_14,-999,skipped,,266804,,,266765.40000009537,,266804.10000002384,2021-10-25T19:17:33.803Z,266814.838,1635188870,full,ni_sequenzen,NI_Sequenzen,15,4,,,,,,,,,,,,
,Loop,flow.Loop,0_3_0_4_0,-999,completion,,257740.70000004768,257737.189,257753.34,266765.40000009537,9012.060000095371,266804.3000000715,2021-10-25T19:17:33.803Z,266814.838,1635188870,full,ni_sequenzen,NI_Sequenzen,,4,,,,,,,,,,,,
,Feedback,canvas.Screen,0_3_0_4_1,,timeout,,266806.5,266799.173,266814.838,270795.069,3996.853000000003,270795.90000009537,2021-10-25T19:17:37.794Z,270811.691,1635188870,full,ni_sequenzen,NI_Sequenzen,,4,,,,,,,,,,,,
,Trial,flow.Sequence,0_3_0_4,,completion,,257722.30000007153,257737.189,257753.34,270795.069,13041.729000000021,270796.10000002384,2021-10-25T19:17:37.795Z,270828.317,1635188870,full,ni_sequenzen,NI_Sequenzen,,4,,,,,,,,,,,,
,Move,canvas.Screen,0_3_0_5_0_0,right,response,,270816.5,270811.691,270828.317,281196.40000009537,10368.083000095387,281198.90000009537,2021-10-25T19:17:48.198Z,281221.83,1635188870,full,ni_sequenzen,NI_Sequenzen,1,5,,,,,,,,,,,,
,Move,canvas.Screen,0_3_0_5_0_1,down,response,,281202.90000009537,281195.024,281221.83,282260.8000000715,1038.9700000715093,282261.7000000477,2021-10-25T19:17:49.260Z,282271.161,1635188870,full,ni_sequenzen,NI_Sequenzen,2,5,,,,,,,,,,,,
,Move,canvas.Screen,0_3_0_5_0_2,down,response,,282265.40000009537,282255.024,282271.161,283311.60000002384,1040.43900002382,283313.10000002384,2021-10-25T19:17:50.312Z,283320.43,1635188870,full,ni_sequenzen,NI_Sequenzen,3,5,,,,,,,,,,,,
,Move,canvas.Screen,0_3_0_5_0_3,right,response,,283317.60000002384,283304.81,283320.43,283728.2000000477,407.7700000476907,283729.10000002384,2021-10-25T19:17:50.728Z,283786.84,1635188870,full,ni_sequenzen,NI_Sequenzen,4,5,,,,,,,,,,,,
,Move,canvas.Screen,0_3_0_5_0_4,-999,skipped,,283733.8000000715,,,283728.2000000477,,283734,2021-10-25T19:17:50.733Z,283786.84,1635188870,full,ni_sequenzen,NI_Sequenzen,5,5,,,,,,,,,,,,
,Move,canvas.Screen,0_3_0_5_0_5,-999,skipped,,283738.10000002384,,,283728.2000000477,,283738.40000009537,2021-10-25T19:17:50.737Z,283786.84,1635188870,full,ni_sequenzen,NI_Sequenzen,6,5,,,,,,,,,,,,
,Move,canvas.Screen,0_3_0_5_0_6,-999,skipped,,283741.8000000715,,,283728.2000000477,,283741.90000009537,2021-10-25T19:17:50.740Z,283786.84,1635188870,full,ni_sequenzen,NI_Sequenzen,7,5,,,,,,,,,,,,
,Move,canvas.Screen,0_3_0_5_0_7,-999,skipped,,283744.8000000715,,,283728.2000000477,,283745,2021-10-25T19:17:50.744Z,283786.84,1635188870,full,ni_sequenzen,NI_Sequenzen,8,5,,,,,,,,,,,,
,Move,canvas.Screen,0_3_0_5_0_8,-999,skipped,,283749.60000002384,,,283728.2000000477,,283749.8000000715,2021-10-25T19:17:50.748Z,283786.84,1635188870,full,ni_sequenzen,NI_Sequenzen,9,5,,,,,,,,,,,,
,Move,canvas.Screen,0_3_0_5_0_9,-999,skipped,,283752.90000009537,,,283728.2000000477,,283753,2021-10-25T19:17:50.752Z,283786.84,1635188870,full,ni_sequenzen,NI_Sequenzen,10,5,,,,,,,,,,,,
,Move,canvas.Screen,0_3_0_5_0_10,-999,skipped,,283756.10000002384,,,283728.2000000477,,283756.10000002384,2021-10-25T19:17:50.755Z,283786.84,1635188870,full,ni_sequenzen,NI_Sequenzen,11,5,,,,,,,,,,,,
,Move,canvas.Screen,0_3_0_5_0_11,-999,skipped,,283758.8000000715,,,283728.2000000477,,283758.90000009537,2021-10-25T19:17:50.757Z,283786.84,1635188870,full,ni_sequenzen,NI_Sequenzen,12,5,,,,,,,,,,,,
,Move,canvas.Screen,0_3_0_5_0_12,-999,skipped,,283762.40000009537,,,283728.2000000477,,283762.5,2021-10-25T19:17:50.761Z,283786.84,1635188870,full,ni_sequenzen,NI_Sequenzen,13,5,,,,,,,,,,,,
,Move,canvas.Screen,0_3_0_5_0_13,-999,skipped,,283765.2000000477,,,283728.2000000477,,283765.2000000477,2021-10-25T19:17:50.764Z,283786.84,1635188870,full,ni_sequenzen,NI_Sequenzen,14,5,,,,,,,,,,,,
,Move,canvas.Screen,0_3_0_5_0_14,-999,skipped,,283767.8000000715,,,283728.2000000477,,283767.90000009537,2021-10-25T19:17:50.766Z,283786.84,1635188870,full,ni_sequenzen,NI_Sequenzen,15,5,,,,,,,,,,,,
,Loop,flow.Loop,0_3_0_5_0,-999,completion,,270812.90000009537,270811.691,270828.317,283728.2000000477,12899.883000047703,283768.10000002384,2021-10-25T19:17:50.767Z,283786.84,1635188870,full,ni_sequenzen,NI_Sequenzen,,5,,,,,,,,,,,,
,Feedback,canvas.Screen,0_3_0_5_1,,timeout,,283771.8000000715,283770.441,283786.84,287767.902,3997.4199999999837,287768.90000009537,2021-10-25T19:17:54.770Z,287784.26,1635188870,full,ni_sequenzen,NI_Sequenzen,,5,,,,,,,,,,,,
,Trial,flow.Sequence,0_3_0_5,,completion,,270796.3000000715,270811.691,270828.317,287767.902,16939.58500000002,287769.10000002384,2021-10-25T19:17:54.770Z,287801.196,1635188870,full,ni_sequenzen,NI_Sequenzen,,5,,,,,,,,,,,,
,Move,canvas.Screen,0_3_0_6_0_0,left,response,,287791.40000009537,287784.26,287801.196,290454.2000000477,2653.0040000476874,290455,2021-10-25T19:17:57.456Z,290465.986,1635188870,full,ni_sequenzen,NI_Sequenzen,1,6,,,,,,,,,,,,
,Move,canvas.Screen,0_3_0_6_0_1,right,response,,290458.3000000715,290451.349,290465.986,292279.60000002384,1813.6140000238665,292282.40000009537,2021-10-25T19:17:59.283Z,292298.018,1635188870,full,ni_sequenzen,NI_Sequenzen,2,6,,,,,,,,,,,,
,Move,canvas.Screen,0_3_0_6_0_2,down,response,,292287.7000000477,292282.784,292298.018,294197.7000000477,1899.6820000477019,294199.5,2021-10-25T19:18:01.200Z,294213.512,1635188870,full,ni_sequenzen,NI_Sequenzen,3,6,,,,,,,,,,,,
,Move,canvas.Screen,0_3_0_6_0_3,down,response,,294203.5,294198.056,294213.512,294768,554.4880000000121,294769,2021-10-25T19:18:01.770Z,294779.722,1635188870,full,ni_sequenzen,NI_Sequenzen,4,6,,,,,,,,,,,,
,Move,canvas.Screen,0_3_0_6_0_4,right,response,,294772.8000000715,294763.902,294779.722,297419.8000000715,2640.0780000715167,297420.7000000477,2021-10-25T19:18:04.422Z,297461.382,1635188870,full,ni_sequenzen,NI_Sequenzen,5,6,,,,,,,,,,,,
,Move,canvas.Screen,0_3_0_6_0_5,-999,skipped,,297425.60000002384,,,297419.8000000715,,297425.7000000477,2021-10-25T19:18:04.427Z,297461.382,1635188870,full,ni_sequenzen,NI_Sequenzen,6,6,,,,,,,,,,,,
,Move,canvas.Screen,0_3_0_6_0_6,-999,skipped,,297429.2000000477,,,297419.8000000715,,297429.40000009537,2021-10-25T19:18:04.430Z,297461.382,1635188870,full,ni_sequenzen,NI_Sequenzen,7,6,,,,,,,,,,,,
,Move,canvas.Screen,0_3_0_6_0_7,-999,skipped,,297432.10000002384,,,297419.8000000715,,297432.2000000477,2021-10-25T19:18:04.433Z,297461.382,1635188870,full,ni_sequenzen,NI_Sequenzen,8,6,,,,,,,,,,,,
,Move,canvas.Screen,0_3_0_6_0_8,-999,skipped,,297435.5,,,297419.8000000715,,297435.60000002384,2021-10-25T19:18:04.437Z,297461.382,1635188870,full,ni_sequenzen,NI_Sequenzen,9,6,,,,,,,,,,,,
,Move,canvas.Screen,0_3_0_6_0_9,-999,skipped,,297439.90000009537,,,297419.8000000715,,297440,2021-10-25T19:18:04.441Z,297461.382,1635188870,full,ni_sequenzen,NI_Sequenzen,10,6,,,,,,,,,,,,
,Move,canvas.Screen,0_3_0_6_0_10,-999,skipped,,297442.7000000477,,,297419.8000000715,,297442.8000000715,2021-10-25T19:18:04.444Z,297461.382,1635188870,full,ni_sequenzen,NI_Sequenzen,11,6,,,,,,,,,,,,
,Move,canvas.Screen,0_3_0_6_0_11,-999,skipped,,297445.7000000477,,,297419.8000000715,,297445.8000000715,2021-10-25T19:18:04.447Z,297461.382,1635188870,full,ni_sequenzen,NI_Sequenzen,12,6,,,,,,,,,,,,
,Move,canvas.Screen,0_3_0_6_0_12,-999,skipped,,297449.3000000715,,,297419.8000000715,,297449.40000009537,2021-10-25T19:18:04.450Z,297461.382,1635188870,full,ni_sequenzen,NI_Sequenzen,13,6,,,,,,,,,,,,
,Move,canvas.Screen,0_3_0_6_0_13,-999,skipped,,297452,,,297419.8000000715,,297452.10000002384,2021-10-25T19:18:04.453Z,297461.382,1635188870,full,ni_sequenzen,NI_Sequenzen,14,6,,,,,,,,,,,,
,Move,canvas.Screen,0_3_0_6_0_14,-999,skipped,,297454.8000000715,,,297419.8000000715,,297454.90000009537,2021-10-25T19:18:04.456Z,297461.382,1635188870,full,ni_sequenzen,NI_Sequenzen,15,6,,,,,,,,,,,,
,Loop,flow.Loop,0_3_0_6_0,-999,completion,,287787.2000000477,287784.26,287801.196,297419.8000000715,9618.60400007153,297455,2021-10-25T19:18:04.456Z,297461.382,1635188870,full,ni_sequenzen,NI_Sequenzen,,6,,,,,,,,,,,,
,Feedback,canvas.Screen,0_3_0_6_1,,timeout,,297456.3000000715,297446.391,297461.382,301442.552,3997.503000000026,301443.7000000477,2021-10-25T19:18:08.445Z,301458.885,1635188870,full,ni_sequenzen,NI_Sequenzen,,6,,,,,,,,,,,,
,Trial,flow.Sequence,0_3_0_6,,completion,,287769.5,287784.26,287801.196,301442.552,13641.356000000029,301443.90000009537,2021-10-25T19:18:08.445Z,301475.581,1635188870,full,ni_sequenzen,NI_Sequenzen,,6,,,,,,,,,,,,
,Move,canvas.Screen,0_3_0_7_0_0,left,response,,301466.60000002384,301458.885,301475.581,308330,6854.418999999994,308331.10000002384,2021-10-25T19:18:15.332Z,308337.821,1635188870,full,ni_sequenzen,NI_Sequenzen,1,7,,,,,,,,,,,,
,Move,canvas.Screen,0_3_0_7_0_1,down,response,,308334.2000000477,308325.702,308337.821,309477.10000002384,1139.2790000238456,309478,2021-10-25T19:18:16.479Z,309487.454,1635188870,full,ni_sequenzen,NI_Sequenzen,2,7,,,,,,,,,,,,
,Move,canvas.Screen,0_3_0_7_0_2,down,response,,309482.3000000715,309471.059,309487.454,309843.10000002384,355.64600002381485,309844.60000002384,2021-10-25T19:18:16.846Z,309853.56,1635188870,full,ni_sequenzen,NI_Sequenzen,3,7,,,,,,,,,,,,
,Move,canvas.Screen,0_3_0_7_0_3,left,response,,309850.8000000715,309837.033,309853.56,311361.40000009537,1507.8400000953698,311362.90000009537,2021-10-25T19:18:18.364Z,311419.493,1635188870,full,ni_sequenzen,NI_Sequenzen,4,7,,,,,,,,,,,,
,Move,canvas.Screen,0_3_0_7_0_4,-999,skipped,,311366.90000009537,,,311361.40000009537,,311367,2021-10-25T19:18:18.368Z,311419.493,1635188870,full,ni_sequenzen,NI_Sequenzen,5,7,,,,,,,,,,,,
,Move,canvas.Screen,0_3_0_7_0_5,-999,skipped,,311372.7000000477,,,311361.40000009537,,311372.8000000715,2021-10-25T19:18:18.374Z,311419.493,1635188870,full,ni_sequenzen,NI_Sequenzen,6,7,,,,,,,,,,,,
,Move,canvas.Screen,0_3_0_7_0_6,-999,skipped,,311376.3000000715,,,311361.40000009537,,311376.40000009537,2021-10-25T19:18:18.377Z,311419.493,1635188870,full,ni_sequenzen,NI_Sequenzen,7,7,,,,,,,,,,,,
,Move,canvas.Screen,0_3_0_7_0_7,-999,skipped,,311379.2000000477,,,311361.40000009537,,311379.3000000715,2021-10-25T19:18:18.380Z,311419.493,1635188870,full,ni_sequenzen,NI_Sequenzen,8,7,,,,,,,,,,,,
,Move,canvas.Screen,0_3_0_7_0_8,-999,skipped,,311382.90000009537,,,311361.40000009537,,311383,2021-10-25T19:18:18.384Z,311419.493,1635188870,full,ni_sequenzen,NI_Sequenzen,9,7,,,,,,,,,,,,
,Move,canvas.Screen,0_3_0_7_0_9,-999,skipped,,311385.7000000477,,,311361.40000009537,,311385.7000000477,2021-10-25T19:18:18.387Z,311419.493,1635188870,full,ni_sequenzen,NI_Sequenzen,10,7,,,,,,,,,,,,
,Move,canvas.Screen,0_3_0_7_0_10,-999,skipped,,311388.60000002384,,,311361.40000009537,,311388.7000000477,2021-10-25T19:18:18.390Z,311419.493,1635188870,full,ni_sequenzen,NI_Sequenzen,11,7,,,,,,,,,,,,
,Move,canvas.Screen,0_3_0_7_0_11,-999,skipped,,311392.10000002384,,,311361.40000009537,,311392.3000000715,2021-10-25T19:18:18.393Z,311419.493,1635188870,full,ni_sequenzen,NI_Sequenzen,12,7,,,,,,,,,,,,
,Move,canvas.Screen,0_3_0_7_0_12,-999,skipped,,311396,,,311361.40000009537,,311396.10000002384,2021-10-25T19:18:18.397Z,311419.493,1635188870,full,ni_sequenzen,NI_Sequenzen,13,7,,,,,,,,,,,,
,Move,canvas.Screen,0_3_0_7_0_13,-999,skipped,,311399.40000009537,,,311361.40000009537,,311399.5,2021-10-25T19:18:18.400Z,311419.493,1635188870,full,ni_sequenzen,NI_Sequenzen,14,7,,,,,,,,,,,,
,Move,canvas.Screen,0_3_0_7_0_14,-999,skipped,,311401.2000000477,,,311361.40000009537,,311401.2000000477,2021-10-25T19:18:18.402Z,311419.493,1635188870,full,ni_sequenzen,NI_Sequenzen,15,7,,,,,,,,,,,,
,Loop,flow.Loop,0_3_0_7_0,-999,completion,,301462.7000000477,301458.885,301475.581,311361.40000009537,9885.819000095362,311401.40000009537,2021-10-25T19:18:18.402Z,311419.493,1635188870,full,ni_sequenzen,NI_Sequenzen,,7,,,,,,,,,,,,
,Feedback,canvas.Screen,0_3_0_7_1,,timeout,,311404,311404.088,311419.493,315400.438,3997.3250000000116,315401.3000000715,2021-10-25T19:18:22.402Z,315416.818,1635188870,full,ni_sequenzen,NI_Sequenzen,,7,,,,,,,,,,,,
,Trial,flow.Sequence,0_3_0_7,,completion,,301444.40000009537,301458.885,301475.581,315400.438,13924.857000000018,315401.60000002384,2021-10-25T19:18:22.403Z,315433.365,1635188870,full,ni_sequenzen,NI_Sequenzen,,7,,,,,,,,,,,,
,Move,canvas.Screen,0_3_0_8_0_0,down,response,,315423.5,315416.818,315433.365,317139.8000000715,1706.435000071535,317141.40000009537,2021-10-25T19:18:24.142Z,317148.924,1635188870,full,ni_sequenzen,NI_Sequenzen,1,8,,,,,,,,,,,,
,Move,canvas.Screen,0_3_0_8_0_1,right,response,,317146.10000002384,317133.592,317148.924,317672.60000002384,523.6760000238428,317674.10000002384,2021-10-25T19:18:24.675Z,317681.92,1635188870,full,ni_sequenzen,NI_Sequenzen,2,8,,,,,,,,,,,,
,Move,canvas.Screen,0_3_0_8_0_2,right,response,,317678.10000002384,317665.673,317681.92,318286.5,604.5800000000163,318288,2021-10-25T19:18:25.289Z,318301.65,1635188870,full,ni_sequenzen,NI_Sequenzen,3,8,,,,,,,,,,,,
,Move,canvas.Screen,0_3_0_8_0_3,down,response,,318292.10000002384,318281.985,318301.65,319184.60000002384,882.9500000238186,319185.10000002384,2021-10-25T19:18:26.186Z,319247.529,1635188870,full,ni_sequenzen,NI_Sequenzen,4,8,,,,,,,,,,,,
,Move,canvas.Screen,0_3_0_8_0_4,-999,skipped,,319187.90000009537,,,319184.60000002384,,319188,2021-10-25T19:18:26.189Z,319247.529,1635188870,full,ni_sequenzen,NI_Sequenzen,5,8,,,,,,,,,,,,
,Move,canvas.Screen,0_3_0_8_0_5,-999,skipped,,319189.8000000715,,,319184.60000002384,,319189.90000009537,2021-10-25T19:18:26.191Z,319247.529,1635188870,full,ni_sequenzen,NI_Sequenzen,6,8,,,,,,,,,,,,
,Move,canvas.Screen,0_3_0_8_0_6,-999,skipped,,319191.8000000715,,,319184.60000002384,,319191.90000009537,2021-10-25T19:18:26.193Z,319247.529,1635188870,full,ni_sequenzen,NI_Sequenzen,7,8,,,,,,,,,,,,
,Move,canvas.Screen,0_3_0_8_0_7,-999,skipped,,319194.40000009537,,,319184.60000002384,,319194.5,2021-10-25T19:18:26.196Z,319247.529,1635188870,full,ni_sequenzen,NI_Sequenzen,8,8,,,,,,,,,,,,
,Move,canvas.Screen,0_3_0_8_0_8,-999,skipped,,319196.40000009537,,,319184.60000002384,,319196.5,2021-10-25T19:18:26.197Z,319247.529,1635188870,full,ni_sequenzen,NI_Sequenzen,9,8,,,,,,,,,,,,
,Move,canvas.Screen,0_3_0_8_0_9,-999,skipped,,319213.5,,,319184.60000002384,,319214,2021-10-25T19:18:26.215Z,319247.529,1635188870,full,ni_sequenzen,NI_Sequenzen,10,8,,,,,,,,,,,,
,Move,canvas.Screen,0_3_0_8_0_10,-999,skipped,,319219.10000002384,,,319184.60000002384,,319219.2000000477,2021-10-25T19:18:26.220Z,319247.529,1635188870,full,ni_sequenzen,NI_Sequenzen,11,8,,,,,,,,,,,,
,Move,canvas.Screen,0_3_0_8_0_11,-999,skipped,,319221.90000009537,,,319184.60000002384,,319222,2021-10-25T19:18:26.223Z,319247.529,1635188870,full,ni_sequenzen,NI_Sequenzen,12,8,,,,,,,,,,,,
