meta,sender,sender_type,sender_id,response,ended_on,instrCount,time_run,time_render,time_show,time_end,duration,time_commit,timestamp,time_switch,openLabId,type,task,project,move,trialN,blockN_Train,blockN,moveCount,currPP,points,movesTrial,visitedFields,diff,reward,Strategie,Zweck,Probleme
[object Object],Screen_1,canvas.Screen,0_0_0_0,cont,response,1,700.8999999761581,687.327,720.502,20677.5,19956.998,20684.699999928474,2021-10-26T09:01:45.582Z,20810.091,1635238879,full,ni_sequenzen,NI_Sequenzen,,,,,,,,,,,,,,
,Screen_2,canvas.Screen,0_0_0_1,cont,response,1,20776.199999928474,20793.637,20810.091,31224,10413.909,31225.699999928474,2021-10-26T09:01:56.123Z,31337.987,1635238879,full,ni_sequenzen,NI_Sequenzen,,,,,,,,,,,,,,
,Screen_3,canvas.Screen,0_0_0_2,cont,response,1,31297.599999904633,31287.835,31337.987,45464.59999990463,14126.612999904632,45465.89999997616,2021-10-26T09:02:10.364Z,45513.799,1635238879,full,ni_sequenzen,NI_Sequenzen,,,,,,,,,,,,,,
,Screen_4,canvas.Screen,0_0_0_3,back,response,1,45473.199999928474,45463.123,45513.799,53149.299999952316,7635.500999952317,53150.59999990463,2021-10-26T09:02:18.049Z,53176.522,1635238879,full,ni_sequenzen,NI_Sequenzen,,,,,,,,,,,,,,
,Sequence,flow.Sequence,0_0_0,,completion,1,654.3999999761581,687.327,720.502,53149.299999952316,52428.797999952316,53158.699999928474,2021-10-26T09:02:18.057Z,53176.522,1635238879,full,ni_sequenzen,NI_Sequenzen,,,,,,,,,,,,,,
,Screen_1,canvas.Screen,0_0_1_0,,skipped,2,53165.09999990463,,,53165.09999990463,,53165.39999997616,2021-10-26T09:02:18.063Z,53176.522,1635238879,full,ni_sequenzen,NI_Sequenzen,,,,,,,,,,,,,,
,Screen_2,canvas.Screen,0_0_1_1,,skipped,2,53168.299999952316,,,53165.09999990463,,53168.5,2021-10-26T09:02:18.067Z,53176.522,1635238879,full,ni_sequenzen,NI_Sequenzen,,,,,,,,,,,,,,
,Screen_3,canvas.Screen,0_0_1_2,cont,response,2,53171.699999928474,53159.492,53176.522,55866.5,2689.978000000003,55867.39999997616,2021-10-26T09:02:20.765Z,55875.122,1635238879,full,ni_sequenzen,NI_Sequenzen,,,,,,,,,,,,,,
,Screen_4,canvas.Screen,0_0_1_3,cont,response,2,55871.39999997616,55858.425,55875.122,56162.699999928474,287.5779999284714,56164.299999952316,2021-10-26T09:02:21.062Z,56308.128,1635238879,full,ni_sequenzen,NI_Sequenzen,,,,,,,,,,,,,,
,Sequence,flow.Sequence,0_0_1,,completion,2,53161.59999990463,53159.492,53176.522,56162.699999928474,2986.177999928477,56164.799999952316,2021-10-26T09:02:21.063Z,56308.128,1635238879,full,ni_sequenzen,NI_Sequenzen,,,,,,,,,,,,,,
,Screen_1,canvas.Screen,0_0_2_0,,skipped,3,56171.09999990463,,,56171.199999928474,,56171.39999997616,2021-10-26T09:02:21.069Z,56308.128,1635238879,full,ni_sequenzen,NI_Sequenzen,,,,,,,,,,,,,,
,Screen_2,canvas.Screen,0_0_2_1,,skipped,3,56195.699999928474,,,56171.199999928474,,56195.89999997616,2021-10-26T09:02:21.094Z,56308.128,1635238879,full,ni_sequenzen,NI_Sequenzen,,,,,,,,,,,,,,
,Screen_3,canvas.Screen,0_0_2_2,,skipped,3,56197.199999928474,,,56171.199999928474,,56197.299999952316,2021-10-26T09:02:21.095Z,56308.128,1635238879,full,ni_sequenzen,NI_Sequenzen,,,,,,,,,,,,,,
,Screen_4,canvas.Screen,0_0_2_3,,skipped,3,56199.09999990463,,,56171.199999928474,,56199.199999928474,2021-10-26T09:02:21.097Z,56308.128,1635238879,full,ni_sequenzen,NI_Sequenzen,,,,,,,,,,,,,,
,Sequence,flow.Sequence,0_0_2,,completion,3,56168.59999990463,,,56171.199999928474,,56199.39999997616,2021-10-26T09:02:21.097Z,56308.128,1635238879,full,ni_sequenzen,NI_Sequenzen,,,,,,,,,,,,,,
,Screen_1,canvas.Screen,0_0_3_0,,skipped,4,56201.199999928474,,,56201.299999952316,,56201.299999952316,2021-10-26T09:02:21.099Z,56308.128,1635238879,full,ni_sequenzen,NI_Sequenzen,,,,,,,,,,,,,,
,Screen_2,canvas.Screen,0_0_3_1,,skipped,4,56202.5,,,56201.299999952316,,56202.59999990463,2021-10-26T09:02:21.101Z,56308.128,1635238879,full,ni_sequenzen,NI_Sequenzen,,,,,,,,,,,,,,
,Screen_3,canvas.Screen,0_0_3_2,,skipped,4,56203.799999952316,,,56201.299999952316,,56203.89999997616,2021-10-26T09:02:21.102Z,56308.128,1635238879,full,ni_sequenzen,NI_Sequenzen,,,,,,,,,,,,,,
,Screen_4,canvas.Screen,0_0_3_3,,skipped,4,56205.39999997616,,,56201.299999952316,,56205.59999990463,2021-10-26T09:02:21.104Z,56308.128,1635238879,full,ni_sequenzen,NI_Sequenzen,,,,,,,,,,,,,,
,Sequence,flow.Sequence,0_0_3,,completion,4,56200.09999990463,,,56201.299999952316,,56205.699999928474,2021-10-26T09:02:21.104Z,56308.128,1635238879,full,ni_sequenzen,NI_Sequenzen,,,,,,,,,,,,,,
,Screen_1,canvas.Screen,0_0_4_0,,skipped,5,56207.299999952316,,,56207.299999952316,,56207.5,2021-10-26T09:02:21.105Z,56308.128,1635238879,full,ni_sequenzen,NI_Sequenzen,,,,,,,,,,,,,,
,Screen_2,canvas.Screen,0_0_4_1,,skipped,5,56208.699999928474,,,56207.299999952316,,56208.89999997616,2021-10-26T09:02:21.107Z,56308.128,1635238879,full,ni_sequenzen,NI_Sequenzen,,,,,,,,,,,,,,
,Screen_3,canvas.Screen,0_0_4_2,,skipped,5,56209.89999997616,,,56207.299999952316,,56209.89999997616,2021-10-26T09:02:21.108Z,56308.128,1635238879,full,ni_sequenzen,NI_Sequenzen,,,,,,,,,,,,,,
,Screen_4,canvas.Screen,0_0_4_3,,skipped,5,56210.699999928474,,,56207.299999952316,,56210.699999928474,2021-10-26T09:02:21.109Z,56308.128,1635238879,full,ni_sequenzen,NI_Sequenzen,,,,,,,,,,,,,,
,Sequence,flow.Sequence,0_0_4,,completion,5,56206.199999928474,,,56207.299999952316,,56210.89999997616,2021-10-26T09:02:21.109Z,56308.128,1635238879,full,ni_sequenzen,NI_Sequenzen,,,,,,,,,,,,,,
,Screen_1,canvas.Screen,0_0_5_0,,skipped,6,56211.89999997616,,,56211.89999997616,,56211.89999997616,2021-10-26T09:02:21.110Z,56308.128,1635238879,full,ni_sequenzen,NI_Sequenzen,,,,,,,,,,,,,,
,Screen_2,canvas.Screen,0_0_5_1,,skipped,6,56212.59999990463,,,56211.89999997616,,56212.699999928474,2021-10-26T09:02:21.111Z,56308.128,1635238879,full,ni_sequenzen,NI_Sequenzen,,,,,,,,,,,,,,
,Screen_3,canvas.Screen,0_0_5_2,,skipped,6,56213.39999997616,,,56211.89999997616,,56213.5,2021-10-26T09:02:21.111Z,56308.128,1635238879,full,ni_sequenzen,NI_Sequenzen,,,,,,,,,,,,,,
,Screen_4,canvas.Screen,0_0_5_3,,skipped,6,56215,,,56211.89999997616,,56215.199999928474,2021-10-26T09:02:21.113Z,56308.128,1635238879,full,ni_sequenzen,NI_Sequenzen,,,,,,,,,,,,,,
,Sequence,flow.Sequence,0_0_5,,completion,6,56211.199999928474,,,56211.89999997616,,56215.299999952316,2021-10-26T09:02:21.113Z,56308.128,1635238879,full,ni_sequenzen,NI_Sequenzen,,,,,,,,,,,,,,
,Screen_1,canvas.Screen,0_0_6_0,,skipped,7,56216.39999997616,,,56216.39999997616,,56216.5,2021-10-26T09:02:21.115Z,56308.128,1635238879,full,ni_sequenzen,NI_Sequenzen,,,,,,,,,,,,,,
,Screen_2,canvas.Screen,0_0_6_1,,skipped,7,56217.39999997616,,,56216.39999997616,,56217.39999997616,2021-10-26T09:02:21.115Z,56308.128,1635238879,full,ni_sequenzen,NI_Sequenzen,,,,,,,,,,,,,,
,Screen_3,canvas.Screen,0_0_6_2,,skipped,7,56218.199999928474,,,56216.39999997616,,56218.199999928474,2021-10-26T09:02:21.116Z,56308.128,1635238879,full,ni_sequenzen,NI_Sequenzen,,,,,,,,,,,,,,
,Screen_4,canvas.Screen,0_0_6_3,,skipped,7,56218.89999997616,,,56216.39999997616,,56219.09999990463,2021-10-26T09:02:21.117Z,56308.128,1635238879,full,ni_sequenzen,NI_Sequenzen,,,,,,,,,,,,,,
,Sequence,flow.Sequence,0_0_6,,completion,7,56215.699999928474,,,56216.39999997616,,56219.09999990463,2021-10-26T09:02:21.117Z,56308.128,1635238879,full,ni_sequenzen,NI_Sequenzen,,,,,,,,,,,,,,
,Screen_1,canvas.Screen,0_0_7_0,,skipped,8,56220.199999928474,,,56220.199999928474,,56220.199999928474,2021-10-26T09:02:21.118Z,56308.128,1635238879,full,ni_sequenzen,NI_Sequenzen,,,,,,,,,,,,,,
,Screen_2,canvas.Screen,0_0_7_1,,skipped,8,56220.89999997616,,,56220.199999928474,,56221,2021-10-26T09:02:21.119Z,56308.128,1635238879,full,ni_sequenzen,NI_Sequenzen,,,,,,,,,,,,,,
,Screen_3,canvas.Screen,0_0_7_2,,skipped,8,56221.699999928474,,,56220.199999928474,,56221.799999952316,2021-10-26T09:02:21.120Z,56308.128,1635238879,full,ni_sequenzen,NI_Sequenzen,,,,,,,,,,,,,,
,Screen_4,canvas.Screen,0_0_7_3,,skipped,8,56222.5,,,56220.199999928474,,56222.59999990463,2021-10-26T09:02:21.121Z,56308.128,1635238879,full,ni_sequenzen,NI_Sequenzen,,,,,,,,,,,,,,
,Sequence,flow.Sequence,0_0_7,,completion,8,56219.5,,,56220.199999928474,,56222.699999928474,2021-10-26T09:02:21.121Z,56308.128,1635238879,full,ni_sequenzen,NI_Sequenzen,,,,,,,,,,,,,,
,Screen_1,canvas.Screen,0_0_8_0,,skipped,9,56223.699999928474,,,56223.699999928474,,56223.699999928474,2021-10-26T09:02:21.122Z,56308.128,1635238879,full,ni_sequenzen,NI_Sequenzen,,,,,,,,,,,,,,
,Screen_2,canvas.Screen,0_0_8_1,,skipped,9,56224.39999997616,,,56223.699999928474,,56224.39999997616,2021-10-26T09:02:21.122Z,56308.128,1635238879,full,ni_sequenzen,NI_Sequenzen,,,,,,,,,,,,,,
,Screen_3,canvas.Screen,0_0_8_2,,skipped,9,56225.39999997616,,,56223.699999928474,,56225.59999990463,2021-10-26T09:02:21.124Z,56308.128,1635238879,full,ni_sequenzen,NI_Sequenzen,,,,,,,,,,,,,,
,Screen_4,canvas.Screen,0_0_8_3,,skipped,9,56226.299999952316,,,56223.699999928474,,56226.39999997616,2021-10-26T09:02:21.124Z,56308.128,1635238879,full,ni_sequenzen,NI_Sequenzen,,,,,,,,,,,,,,
,Sequence,flow.Sequence,0_0_8,,completion,9,56222.89999997616,,,56223.699999928474,,56226.59999990463,2021-10-26T09:02:21.125Z,56308.128,1635238879,full,ni_sequenzen,NI_Sequenzen,,,,,,,,,,,,,,
,Screen_1,canvas.Screen,0_0_9_0,,skipped,10,56228.5,,,56228.5,,56228.59999990463,2021-10-26T09:02:21.127Z,56308.128,1635238879,full,ni_sequenzen,NI_Sequenzen,,,,,,,,,,,,,,
,Screen_2,canvas.Screen,0_0_9_1,,skipped,10,56229.5,,,56228.5,,56229.5,2021-10-26T09:02:21.128Z,56308.128,1635238879,full,ni_sequenzen,NI_Sequenzen,,,,,,,,,,,,,,
,Screen_3,canvas.Screen,0_0_9_2,,skipped,10,56230.299999952316,,,56228.5,,56230.299999952316,2021-10-26T09:02:21.128Z,56308.128,1635238879,full,ni_sequenzen,NI_Sequenzen,,,,,,,,,,,,,,
,Screen_4,canvas.Screen,0_0_9_3,,skipped,10,56231,,,56228.5,,56231,2021-10-26T09:02:21.129Z,56308.128,1635238879,full,ni_sequenzen,NI_Sequenzen,,,,,,,,,,,,,,
,Sequence,flow.Sequence,0_0_9,,completion,10,56227,,,56228.5,,56231.199999928474,2021-10-26T09:02:21.129Z,56308.128,1635238879,full,ni_sequenzen,NI_Sequenzen,,,,,,,,,,,,,,
,Screen_1,canvas.Screen,0_0_10_0,,skipped,11,56232.09999990463,,,56232.09999990463,,56232.299999952316,2021-10-26T09:02:21.130Z,56308.128,1635238879,full,ni_sequenzen,NI_Sequenzen,,,,,,,,,,,,,,
,Screen_2,canvas.Screen,0_0_10_1,,skipped,11,56232.89999997616,,,56232.09999990463,,56232.89999997616,2021-10-26T09:02:21.131Z,56308.128,1635238879,full,ni_sequenzen,NI_Sequenzen,,,,,,,,,,,,,,
,Screen_3,canvas.Screen,0_0_10_2,,skipped,11,56234.89999997616,,,56232.09999990463,,56235,2021-10-26T09:02:21.133Z,56308.128,1635238879,full,ni_sequenzen,NI_Sequenzen,,,,,,,,,,,,,,
,Screen_4,canvas.Screen,0_0_10_3,,skipped,11,56235.699999928474,,,56232.09999990463,,56235.699999928474,2021-10-26T09:02:21.134Z,56308.128,1635238879,full,ni_sequenzen,NI_Sequenzen,,,,,,,,,,,,,,
,Sequence,flow.Sequence,0_0_10,,completion,11,56231.5,,,56232.09999990463,,56235.89999997616,2021-10-26T09:02:21.134Z,56308.128,1635238879,full,ni_sequenzen,NI_Sequenzen,,,,,,,,,,,,,,
,Screen_1,canvas.Screen,0_0_11_0,,skipped,12,56237.59999990463,,,56237.59999990463,,56237.699999928474,2021-10-26T09:02:21.136Z,56308.128,1635238879,full,ni_sequenzen,NI_Sequenzen,,,,,,,,,,,,,,
,Screen_2,canvas.Screen,0_0_11_1,,skipped,12,56238.5,,,56237.59999990463,,56238.59999990463,2021-10-26T09:02:21.137Z,56308.128,1635238879,full,ni_sequenzen,NI_Sequenzen,,,,,,,,,,,,,,
,Screen_3,canvas.Screen,0_0_11_2,,skipped,12,56239.59999990463,,,56237.59999990463,,56239.59999990463,2021-10-26T09:02:21.138Z,56308.128,1635238879,full,ni_sequenzen,NI_Sequenzen,,,,,,,,,,,,,,
,Screen_4,canvas.Screen,0_0_11_3,,skipped,12,56241,,,56237.59999990463,,56241,2021-10-26T09:02:21.139Z,56308.128,1635238879,full,ni_sequenzen,NI_Sequenzen,,,,,,,,,,,,,,
,Sequence,flow.Sequence,0_0_11,,completion,12,56236.699999928474,,,56237.59999990463,,56241.199999928474,2021-10-26T09:02:21.139Z,56308.128,1635238879,full,ni_sequenzen,NI_Sequenzen,,,,,,,,,,,,,,
,Screen_1,canvas.Screen,0_0_12_0,,skipped,13,56243.39999997616,,,56243.39999997616,,56243.5,2021-10-26T09:02:21.141Z,56308.128,1635238879,full,ni_sequenzen,NI_Sequenzen,,,,,,,,,,,,,,
,Screen_2,canvas.Screen,0_0_12_1,,skipped,13,56244.59999990463,,,56243.39999997616,,56244.699999928474,2021-10-26T09:02:21.143Z,56308.128,1635238879,full,ni_sequenzen,NI_Sequenzen,,,,,,,,,,,,,,
,Screen_3,canvas.Screen,0_0_12_2,,skipped,13,56246.699999928474,,,56243.39999997616,,56246.799999952316,2021-10-26T09:02:21.145Z,56308.128,1635238879,full,ni_sequenzen,NI_Sequenzen,,,,,,,,,,,,,,
,Screen_4,canvas.Screen,0_0_12_3,,skipped,13,56247.799999952316,,,56243.39999997616,,56247.89999997616,2021-10-26T09:02:21.146Z,56308.128,1635238879,full,ni_sequenzen,NI_Sequenzen,,,,,,,,,,,,,,
,Sequence,flow.Sequence,0_0_12,,completion,13,56242.299999952316,,,56243.39999997616,,56248,2021-10-26T09:02:21.146Z,56308.128,1635238879,full,ni_sequenzen,NI_Sequenzen,,,,,,,,,,,,,,
,Screen_1,canvas.Screen,0_0_13_0,,skipped,14,56249.39999997616,,,56249.5,,56249.5,2021-10-26T09:02:21.147Z,56308.128,1635238879,full,ni_sequenzen,NI_Sequenzen,,,,,,,,,,,,,,
,Screen_2,canvas.Screen,0_0_13_1,,skipped,14,56250.5,,,56249.5,,56250.59999990463,2021-10-26T09:02:21.149Z,56308.128,1635238879,full,ni_sequenzen,NI_Sequenzen,,,,,,,,,,,,,,
,Screen_3,canvas.Screen,0_0_13_2,,skipped,14,56251.699999928474,,,56249.5,,56251.699999928474,2021-10-26T09:02:21.150Z,56308.128,1635238879,full,ni_sequenzen,NI_Sequenzen,,,,,,,,,,,,,,
,Screen_4,canvas.Screen,0_0_13_3,,skipped,14,56252.799999952316,,,56249.5,,56252.89999997616,2021-10-26T09:02:21.151Z,56308.128,1635238879,full,ni_sequenzen,NI_Sequenzen,,,,,,,,,,,,,,
,Sequence,flow.Sequence,0_0_13,,completion,14,56248.5,,,56249.5,,56253.09999990463,2021-10-26T09:02:21.151Z,56308.128,1635238879,full,ni_sequenzen,NI_Sequenzen,,,,,,,,,,,,,,
,Screen_1,canvas.Screen,0_0_14_0,,skipped,15,56254.5,,,56254.5,,56254.59999990463,2021-10-26T09:02:21.153Z,56308.128,1635238879,full,ni_sequenzen,NI_Sequenzen,,,,,,,,,,,,,,
,Screen_2,canvas.Screen,0_0_14_1,,skipped,15,56255.5,,,56254.5,,56255.59999990463,2021-10-26T09:02:21.154Z,56308.128,1635238879,full,ni_sequenzen,NI_Sequenzen,,,,,,,,,,,,,,
,Screen_3,canvas.Screen,0_0_14_2,,skipped,15,56256.699999928474,,,56254.5,,56256.799999952316,2021-10-26T09:02:21.155Z,56308.128,1635238879,full,ni_sequenzen,NI_Sequenzen,,,,,,,,,,,,,,
,Screen_4,canvas.Screen,0_0_14_3,,skipped,15,56259.89999997616,,,56254.5,,56259.89999997616,2021-10-26T09:02:21.158Z,56308.128,1635238879,full,ni_sequenzen,NI_Sequenzen,,,,,,,,,,,,,,
,Sequence,flow.Sequence,0_0_14,,completion,15,56253.5,,,56254.5,,56260.199999928474,2021-10-26T09:02:21.158Z,56308.128,1635238879,full,ni_sequenzen,NI_Sequenzen,,,,,,,,,,,,,,
,Screen_1,canvas.Screen,0_0_15_0,,skipped,16,56261.699999928474,,,56261.699999928474,,56261.799999952316,2021-10-26T09:02:21.160Z,56308.128,1635238879,full,ni_sequenzen,NI_Sequenzen,,,,,,,,,,,,,,
,Screen_2,canvas.Screen,0_0_15_1,,skipped,16,56263.59999990463,,,56261.699999928474,,56263.699999928474,2021-10-26T09:02:21.162Z,56308.128,1635238879,full,ni_sequenzen,NI_Sequenzen,,,,,,,,,,,,,,
,Screen_3,canvas.Screen,0_0_15_2,,skipped,16,56265,,,56261.699999928474,,56265.09999990463,2021-10-26T09:02:21.163Z,56308.128,1635238879,full,ni_sequenzen,NI_Sequenzen,,,,,,,,,,,,,,
,Screen_4,canvas.Screen,0_0_15_3,,skipped,16,56266.299999952316,,,56261.699999928474,,56267.5,2021-10-26T09:02:21.166Z,56308.128,1635238879,full,ni_sequenzen,NI_Sequenzen,,,,,,,,,,,,,,
,Sequence,flow.Sequence,0_0_15,,completion,16,56260.59999990463,,,56261.699999928474,,56267.699999928474,2021-10-26T09:02:21.166Z,56308.128,1635238879,full,ni_sequenzen,NI_Sequenzen,,,,,,,,,,,,,,
,Screen_1,canvas.Screen,0_0_16_0,,skipped,17,56269.199999928474,,,56269.199999928474,,56269.299999952316,2021-10-26T09:02:21.167Z,56308.128,1635238879,full,ni_sequenzen,NI_Sequenzen,,,,,,,,,,,,,,
,Screen_2,canvas.Screen,0_0_16_1,,skipped,17,56270.199999928474,,,56269.199999928474,,56270.39999997616,2021-10-26T09:02:21.168Z,56308.128,1635238879,full,ni_sequenzen,NI_Sequenzen,,,,,,,,,,,,,,
,Screen_3,canvas.Screen,0_0_16_2,,skipped,17,56271.39999997616,,,56269.199999928474,,56271.39999997616,2021-10-26T09:02:21.169Z,56308.128,1635238879,full,ni_sequenzen,NI_Sequenzen,,,,,,,,,,,,,,
,Screen_4,canvas.Screen,0_0_16_3,,skipped,17,56272.699999928474,,,56269.199999928474,,56272.89999997616,2021-10-26T09:02:21.171Z,56308.128,1635238879,full,ni_sequenzen,NI_Sequenzen,,,,,,,,,,,,,,
,Sequence,flow.Sequence,0_0_16,,completion,17,56268.09999990463,,,56269.199999928474,,56273,2021-10-26T09:02:21.171Z,56308.128,1635238879,full,ni_sequenzen,NI_Sequenzen,,,,,,,,,,,,,,
,Screen_1,canvas.Screen,0_0_17_0,,skipped,18,56274.199999928474,,,56274.199999928474,,56274.299999952316,2021-10-26T09:02:21.172Z,56308.128,1635238879,full,ni_sequenzen,NI_Sequenzen,,,,,,,,,,,,,,
,Screen_2,canvas.Screen,0_0_17_1,,skipped,18,56275.5,,,56274.199999928474,,56275.59999990463,2021-10-26T09:02:21.174Z,56308.128,1635238879,full,ni_sequenzen,NI_Sequenzen,,,,,,,,,,,,,,
,Screen_3,canvas.Screen,0_0_17_2,,skipped,18,56276.39999997616,,,56274.199999928474,,56276.39999997616,2021-10-26T09:02:21.174Z,56308.128,1635238879,full,ni_sequenzen,NI_Sequenzen,,,,,,,,,,,,,,
,Screen_4,canvas.Screen,0_0_17_3,,skipped,18,56277.199999928474,,,56274.199999928474,,56277.299999952316,2021-10-26T09:02:21.175Z,56308.128,1635238879,full,ni_sequenzen,NI_Sequenzen,,,,,,,,,,,,,,
,Sequence,flow.Sequence,0_0_17,,completion,18,56273.5,,,56274.199999928474,,56277.299999952316,2021-10-26T09:02:21.175Z,56308.128,1635238879,full,ni_sequenzen,NI_Sequenzen,,,,,,,,,,,,,,
,Screen_1,canvas.Screen,0_0_18_0,,skipped,19,56278.299999952316,,,56278.299999952316,,56278.39999997616,2021-10-26T09:02:21.176Z,56308.128,1635238879,full,ni_sequenzen,NI_Sequenzen,,,,,,,,,,,,,,
,Screen_2,canvas.Screen,0_0_18_1,,skipped,19,56278.89999997616,,,56278.299999952316,,56279,2021-10-26T09:02:21.177Z,56308.128,1635238879,full,ni_sequenzen,NI_Sequenzen,,,,,,,,,,,,,,
,Screen_3,canvas.Screen,0_0_18_2,,skipped,19,56279.699999928474,,,56278.299999952316,,56279.799999952316,2021-10-26T09:02:21.178Z,56308.128,1635238879,full,ni_sequenzen,NI_Sequenzen,,,,,,,,,,,,,,
,Screen_4,canvas.Screen,0_0_18_3,,skipped,19,56280.39999997616,,,56278.299999952316,,56280.39999997616,2021-10-26T09:02:21.178Z,56308.128,1635238879,full,ni_sequenzen,NI_Sequenzen,,,,,,,,,,,,,,
,Sequence,flow.Sequence,0_0_18,,completion,19,56277.59999990463,,,56278.299999952316,,56280.5,2021-10-26T09:02:21.179Z,56308.128,1635238879,full,ni_sequenzen,NI_Sequenzen,,,,,,,,,,,,,,
,Screen_1,canvas.Screen,0_0_19_0,,skipped,20,56281.699999928474,,,56281.699999928474,,56281.699999928474,2021-10-26T09:02:21.180Z,56308.128,1635238879,full,ni_sequenzen,NI_Sequenzen,,,,,,,,,,,,,,
,Screen_2,canvas.Screen,0_0_19_1,,skipped,20,56283,,,56281.699999928474,,56283.89999997616,2021-10-26T09:02:21.182Z,56308.128,1635238879,full,ni_sequenzen,NI_Sequenzen,,,,,,,,,,,,,,
,Screen_3,canvas.Screen,0_0_19_2,,skipped,20,56285,,,56281.699999928474,,56285,2021-10-26T09:02:21.183Z,56308.128,1635238879,full,ni_sequenzen,NI_Sequenzen,,,,,,,,,,,,,,
,Screen_4,canvas.Screen,0_0_19_3,,skipped,20,56286.09999990463,,,56281.699999928474,,56286.09999990463,2021-10-26T09:02:21.184Z,56308.128,1635238879,full,ni_sequenzen,NI_Sequenzen,,,,,,,,,,,,,,
,Sequence,flow.Sequence,0_0_19,,completion,20,56280.799999952316,,,56281.699999928474,,56286.39999997616,2021-10-26T09:02:21.184Z,56308.128,1635238879,full,ni_sequenzen,NI_Sequenzen,,,,,,,,,,,,,,
,Instructions_I,flow.Loop,0_0,,completion,,653.0999999046326,687.327,720.502,56281.699999928474,55561.197999928474,56286.5,2021-10-26T09:02:21.185Z,56308.128,1635238879,full,ni_sequenzen,NI_Sequenzen,,,,,,,,,,,,,,
,Move,canvas.Screen,0_1_0_0,left,response,,56305.59999990463,56291.754,56308.128,57845.39999997616,1537.2719999761612,57846.5,2021-10-26T09:02:22.744Z,57874.006,1635238879,full,ni_sequenzen,NI_Sequenzen,1,,,,,,,,,,,,,
,Move,canvas.Screen,0_1_0_1,right,response,,57854,57840.56,57874.006,58295.59999990463,421.59399990463135,58296.699999928474,2021-10-26T09:02:23.195Z,58307.151,1635238879,full,ni_sequenzen,NI_Sequenzen,2,,,,,,,,,,,,,
,Move,canvas.Screen,0_1_0_2,down,response,,58303.89999997616,58290.51,58307.151,59426.39999997616,1119.2489999761601,59427.39999997616,2021-10-26T09:02:24.325Z,59439.917,1635238879,full,ni_sequenzen,NI_Sequenzen,3,,,,,,,,,,,,,
,Move,canvas.Screen,0_1_0_3,down,response,,59431.299999952316,59423.114,59439.917,59571.89999997616,131.98299997615686,59573,2021-10-26T09:02:24.471Z,59606.431,1635238879,full,ni_sequenzen,NI_Sequenzen,4,,,,,,,,,,,,,
,Move,canvas.Screen,0_1_0_4,down,response,,59578.799999952316,59573.239,59606.431,59723.199999928474,116.76899992847757,59725.699999928474,2021-10-26T09:02:24.624Z,59739.726,1635238879,full,ni_sequenzen,NI_Sequenzen,5,,,,,,,,,,,,,
,Move,canvas.Screen,0_1_0_5,down,response,,59730.699999928474,59723.107,59739.726,59893.199999928474,153.47399992847204,59894.199999928474,2021-10-26T09:02:24.792Z,59906.339,1635238879,full,ni_sequenzen,NI_Sequenzen,6,,,,,,,,,,,,,
,Move,canvas.Screen,0_1_0_6,left,response,,59898.299999952316,59889.66,59906.339,60272.799999952316,366.46099995231634,60274.89999997616,2021-10-26T09:02:25.173Z,60306.096,1635238879,full,ni_sequenzen,NI_Sequenzen,7,,,,,,,,,,,,,
,Move,canvas.Screen,0_1_0_7,left,response,,60278.59999990463,60272.729,60306.096,60630.09999990463,324.00399990463484,60631.5,2021-10-26T09:02:25.530Z,60639.288,1635238879,full,ni_sequenzen,NI_Sequenzen,8,,,,,,,,,,,,,
,Move,canvas.Screen,0_1_0_8,down,response,,60637.59999990463,60622.623,60639.288,61605.299999952316,966.0119999523158,61607.199999928474,2021-10-26T09:02:26.505Z,61622.172,1635238879,full,ni_sequenzen,NI_Sequenzen,9,,,,,,,,,,,,,
,Move,canvas.Screen,0_1_0_9,down,response,,61611,61605.63,61622.172,61871.699999928474,249.52799992847577,61873.799999952316,2021-10-26T09:02:26.772Z,61888.616,1635238879,full,ni_sequenzen,NI_Sequenzen,10,,,,,,,,,,,,,
,Move,canvas.Screen,0_1_0_10,left,response,,61877.799999952316,61872.187,61888.616,62348.199999928474,459.5839999284726,62349.199999928474,2021-10-26T09:02:27.247Z,62375.131,1635238879,full,ni_sequenzen,NI_Sequenzen,11,,,,,,,,,,,,,
,Move,canvas.Screen,0_1_0_11,left,response,,62354,62338.288,62375.131,63545.89999997616,1170.768999976157,63546.89999997616,2021-10-26T09:02:28.445Z,63554.455,1635238879,full,ni_sequenzen,NI_Sequenzen,12,,,,,,,,,,,,,
,Move,canvas.Screen,0_1_0_12,right,response,,63551.09999990463,63537.975,63554.455,63964.89999997616,410.4449999761564,63965.5,2021-10-26T09:02:28.863Z,63987.504,1635238879,full,ni_sequenzen,NI_Sequenzen,13,,,,,,,,,,,,,
,Move,canvas.Screen,0_1_0_13,right,response,,63969.199999928474,63954.403,63987.504,64156.199999928474,168.6959999284736,64157.299999952316,2021-10-26T09:02:29.055Z,64170.778,1635238879,full,ni_sequenzen,NI_Sequenzen,14,,,,,,,,,,,,,
,Move,canvas.Screen,0_1_0_14,down,response,,64161.799999952316,64154.123,64170.778,65511.09999990463,1340.3219999046341,65512.199999928474,2021-10-26T09:02:30.410Z,65520.076,1635238879,full,ni_sequenzen,NI_Sequenzen,15,,,,,,,,,,,,,
,Move,canvas.Screen,0_1_0_15,down,response,,65516.59999990463,65503.56,65520.076,65673.29999995232,153.22399995231535,65674.39999997616,2021-10-26T09:02:30.572Z,65703.294,1635238879,full,ni_sequenzen,NI_Sequenzen,16,,,,,,,,,,,,,
,Move,canvas.Screen,0_1_0_16,right,response,,65678.39999997616,65670.197,65703.294,66294.39999997616,591.1059999761637,66295.69999992847,2021-10-26T09:02:31.194Z,66336.643,1635238879,full,ni_sequenzen,NI_Sequenzen,17,,,,,,,,,,,,,
,Move,canvas.Screen,0_1_0_17,right,response,,66302.39999997616,66319.91,66336.643,66448,111.35700000000361,66449.19999992847,2021-10-26T09:02:31.347Z,66469.529,1635238879,full,ni_sequenzen,NI_Sequenzen,18,,,,,,,,,,,,,
,Move,canvas.Screen,0_1_0_18,down,response,,66454.5,66453.139,66469.529,66757.69999992847,288.17099992847943,66758.69999992847,2021-10-26T09:02:31.657Z,66786.036,1635238879,full,ni_sequenzen,NI_Sequenzen,19,,,,,,,,,,,,,
,Move,canvas.Screen,0_1_0_19,down,response,,66762.59999990463,66752.775,66786.036,66929.59999990463,143.5639999046398,66930.59999990463,2021-10-26T09:02:31.829Z,66955.881,1635238879,full,ni_sequenzen,NI_Sequenzen,20,,,,,,,,,,,,,
,Move,canvas.Screen,0_1_0_20,left,response,,66935.29999995232,66919.477,66955.881,67227.19999992847,271.3189999284805,67228.19999992847,2021-10-26T09:02:32.126Z,67235.868,1635238879,full,ni_sequenzen,NI_Sequenzen,21,,,,,,,,,,,,,
,Move,canvas.Screen,0_1_0_21,left,response,,67232.39999997616,67219.372,67235.868,67462,226.1319999999978,67463.19999992847,2021-10-26T09:02:32.361Z,67485.642,1635238879,full,ni_sequenzen,NI_Sequenzen,22,,,,,,,,,,,,,
,Move,canvas.Screen,0_1_0_22,left,response,,67467.19999992847,67452.603,67485.642,67776.29999995232,290.6579999523092,67777.19999992847,2021-10-26T09:02:32.675Z,67785.512,1635238879,full,ni_sequenzen,NI_Sequenzen,23,,,,,,,,,,,,,
,Move,canvas.Screen,0_1_0_23,down,response,,67781.5,67768.983,67785.512,68078.69999992847,293.187999928472,68079.59999990463,2021-10-26T09:02:32.978Z,68085.346,1635238879,full,ni_sequenzen,NI_Sequenzen,24,,,,,,,,,,,,,
,Move,canvas.Screen,0_1_0_24,down,response,,68083.39999997616,68068.812,68085.346,68287.5,202.153999999995,68289.39999997616,2021-10-26T09:02:33.187Z,68318.548,1635238879,full,ni_sequenzen,NI_Sequenzen,25,,,,,,,,,,,,,
,Move,canvas.Screen,0_1_0_25,right,response,,68293.19999992847,68285.485,68318.548,68515.29999995232,196.75199995232106,68516.5,2021-10-26T09:02:33.415Z,68535.217,1635238879,full,ni_sequenzen,NI_Sequenzen,26,,,,,,,,,,,,,
,Move,canvas.Screen,0_1_0_26,down,response,,68523,68518.475,68535.217,68759.5,224.2829999999958,68760.5,2021-10-26T09:02:33.659Z,68784.994,1635238879,full,ni_sequenzen,NI_Sequenzen,27,,,,,,,,,,,,,
,Move,canvas.Screen,0_1_0_27,down,response,,68764.5,68751.92,68784.994,69932.5,1147.505999999994,69933.59999990463,2021-10-26T09:02:34.832Z,69951.046,1635238879,full,ni_sequenzen,NI_Sequenzen,28,,,,,,,,,,,,,
,Move,canvas.Screen,0_1_0_28,right,response,,69939.5,69934.383,69951.046,70174.39999997616,223.35399997615605,70175.5,2021-10-26T09:02:35.073Z,70184.263,1635238879,full,ni_sequenzen,NI_Sequenzen,29,,,,,,,,,,,,,
,Move,canvas.Screen,0_1_0_29,right,response,,70179.5,70167.868,70184.263,70330.39999997616,146.13699997615186,70331.39999997616,2021-10-26T09:02:35.229Z,70400.761,1635238879,full,ni_sequenzen,NI_Sequenzen,30,,,,,,,,,,,,,
,Loop,flow.Loop,0_1_0,-999,completion,,56303,56291.754,56308.128,70330.39999997616,14022.271999976161,70331.89999997616,2021-10-26T09:02:35.230Z,70400.761,1635238879,full,ni_sequenzen,NI_Sequenzen,,,,,,,,,,,,,,
,Training_I,flow.Sequence,0_1,,completion,,56288.5,56291.754,56308.128,70330.39999997616,14022.271999976161,70332.19999992847,2021-10-26T09:02:35.230Z,70400.761,1635238879,full,ni_sequenzen,NI_Sequenzen,,,,,,,,,,,,,,
,Screen_1,canvas.Screen,0_2_0_0,cont,response,1,70399,70384.371,70400.761,85639.29999995232,15238.538999952318,85640.29999995232,2021-10-26T09:02:50.538Z,85759.507,1635238879,full,ni_sequenzen,NI_Sequenzen,,,,,,,,,,,,,,
,Screen_2,canvas.Screen,0_2_0_1,cont,response,1,85746.09999990463,85742.018,85759.507,101031.5,15271.993000000002,101032,2021-10-26T09:03:05.930Z,101051.424,1635238879,full,ni_sequenzen,NI_Sequenzen,,,,,,,,,,,,,,
,Screen_3,canvas.Screen,0_2_0_2,cont,response,1,101036.5,101033.925,101051.424,121150,20098.576,121151,2021-10-26T09:03:26.049Z,121274.227,1635238879,full,ni_sequenzen,NI_Sequenzen,,,,,,,,,,,,,,
,Screen_4,canvas.Screen,0_2_0_3,cont,response,1,121243,121239.816,121274.227,142012.09999990463,20737.872999904634,142013.19999992847,2021-10-26T09:03:46.911Z,142030.119,1635238879,full,ni_sequenzen,NI_Sequenzen,,,,,,,,,,,,,,
,Screen_5,canvas.Screen,0_2_0_4,cont,response,1,142020.69999992847,142012.264,142030.119,148304.69999992847,6274.580999928468,148305.69999992847,2021-10-26T09:03:53.203Z,148393.464,1635238879,full,ni_sequenzen,NI_Sequenzen,,,,,,,,,,,,,,
,Screen_6,canvas.Screen,0_2_0_5,cont,response,1,148386.39999997616,148376.674,148393.464,153944.19999992847,5550.735999928467,153945.09999990463,2021-10-26T09:03:58.843Z,154171.604,1635238879,full,ni_sequenzen,NI_Sequenzen,,,,,,,,,,,,,,
,Sequence,flow.Sequence,0_2_0,,completion,1,70398,70384.371,70400.761,153944.19999992847,83543.43899992848,153948.59999990463,2021-10-26T09:03:58.846Z,154171.604,1635238879,full,ni_sequenzen,NI_Sequenzen,,,,,,,,,,,,,,
,Screen_1,canvas.Screen,0_2_1_0,,skipped,2,153980.39999997616,,,153980.39999997616,,153980.69999992847,2021-10-26T09:03:58.878Z,154171.604,1635238879,full,ni_sequenzen,NI_Sequenzen,,,,,,,,,,,,,,
,Screen_2,canvas.Screen,0_2_1_1,,skipped,2,153983,,,153980.39999997616,,153983.19999992847,2021-10-26T09:03:58.881Z,154171.604,1635238879,full,ni_sequenzen,NI_Sequenzen,,,,,,,,,,,,,,
,Screen_3,canvas.Screen,0_2_1_2,,skipped,2,153984.79999995232,,,153980.39999997616,,153984.89999997616,2021-10-26T09:03:58.882Z,154171.604,1635238879,full,ni_sequenzen,NI_Sequenzen,,,,,,,,,,,,,,
,Screen_4,canvas.Screen,0_2_1_3,,skipped,2,153986.39999997616,,,153980.39999997616,,153986.59999990463,2021-10-26T09:03:58.884Z,154171.604,1635238879,full,ni_sequenzen,NI_Sequenzen,,,,,,,,,,,,,,
,Screen_5,canvas.Screen,0_2_1_4,,skipped,2,153987.79999995232,,,153980.39999997616,,153987.89999997616,2021-10-26T09:03:58.885Z,154171.604,1635238879,full,ni_sequenzen,NI_Sequenzen,,,,,,,,,,,,,,
,Screen_6,canvas.Screen,0_2_1_5,,skipped,2,153989.29999995232,,,153980.39999997616,,153989.39999997616,2021-10-26T09:03:58.887Z,154171.604,1635238879,full,ni_sequenzen,NI_Sequenzen,,,,,,,,,,,,,,
,Sequence,flow.Sequence,0_2_1,,completion,2,153953.79999995232,,,153980.39999997616,,153989.59999990463,2021-10-26T09:03:58.887Z,154171.604,1635238879,full,ni_sequenzen,NI_Sequenzen,,,,,,,,,,,,,,
,Screen_1,canvas.Screen,0_2_2_0,,skipped,3,153991.59999990463,,,153991.59999990463,,153991.69999992847,2021-10-26T09:03:58.889Z,154171.604,1635238879,full,ni_sequenzen,NI_Sequenzen,,,,,,,,,,,,,,
,Screen_2,canvas.Screen,0_2_2_1,,skipped,3,153992.89999997616,,,153991.59999990463,,153993.09999990463,2021-10-26T09:03:58.891Z,154171.604,1635238879,full,ni_sequenzen,NI_Sequenzen,,,,,,,,,,,,,,
,Screen_3,canvas.Screen,0_2_2_2,,skipped,3,153994.19999992847,,,153991.59999990463,,153994.29999995232,2021-10-26T09:03:58.892Z,154171.604,1635238879,full,ni_sequenzen,NI_Sequenzen,,,,,,,,,,,,,,
,Screen_4,canvas.Screen,0_2_2_3,,skipped,3,153995.09999990463,,,153991.59999990463,,153995.19999992847,2021-10-26T09:03:58.893Z,154171.604,1635238879,full,ni_sequenzen,NI_Sequenzen,,,,,,,,,,,,,,
,Screen_5,canvas.Screen,0_2_2_4,,skipped,3,153995.79999995232,,,153991.59999990463,,153995.79999995232,2021-10-26T09:03:58.893Z,154171.604,1635238879,full,ni_sequenzen,NI_Sequenzen,,,,,,,,,,,,,,
,Screen_6,canvas.Screen,0_2_2_5,,skipped,3,153996.39999997616,,,153991.59999990463,,153996.39999997616,2021-10-26T09:03:58.894Z,154171.604,1635238879,full,ni_sequenzen,NI_Sequenzen,,,,,,,,,,,,,,
,Sequence,flow.Sequence,0_2_2,,completion,3,153990,,,153991.59999990463,,153996.5,2021-10-26T09:03:58.894Z,154171.604,1635238879,full,ni_sequenzen,NI_Sequenzen,,,,,,,,,,,,,,
,Screen_1,canvas.Screen,0_2_3_0,,skipped,4,153997.29999995232,,,153997.29999995232,,153997.29999995232,2021-10-26T09:03:58.895Z,154171.604,1635238879,full,ni_sequenzen,NI_Sequenzen,,,,,,,,,,,,,,
,Screen_2,canvas.Screen,0_2_3_1,,skipped,4,153997.89999997616,,,153997.29999995232,,153997.89999997616,2021-10-26T09:03:58.896Z,154171.604,1635238879,full,ni_sequenzen,NI_Sequenzen,,,,,,,,,,,,,,
,Screen_3,canvas.Screen,0_2_3_2,,skipped,4,153998.59999990463,,,153997.29999995232,,153998.69999992847,2021-10-26T09:03:58.896Z,154171.604,1635238879,full,ni_sequenzen,NI_Sequenzen,,,,,,,,,,,,,,
,Screen_4,canvas.Screen,0_2_3_3,,skipped,4,153999.09999990463,,,153997.29999995232,,153999.19999992847,2021-10-26T09:03:58.897Z,154171.604,1635238879,full,ni_sequenzen,NI_Sequenzen,,,,,,,,,,,,,,
,Screen_5,canvas.Screen,0_2_3_4,,skipped,4,153999.69999992847,,,153997.29999995232,,153999.79999995232,2021-10-26T09:03:58.897Z,154171.604,1635238879,full,ni_sequenzen,NI_Sequenzen,,,,,,,,,,,,,,
,Screen_6,canvas.Screen,0_2_3_5,,skipped,4,154001,,,153997.29999995232,,154001.09999990463,2021-10-26T09:03:58.899Z,154171.604,1635238879,full,ni_sequenzen,NI_Sequenzen,,,,,,,,,,,,,,
,Sequence,flow.Sequence,0_2_3,,completion,4,153996.69999992847,,,153997.29999995232,,154001.19999992847,2021-10-26T09:03:58.899Z,154171.604,1635238879,full,ni_sequenzen,NI_Sequenzen,,,,,,,,,,,,,,
,Screen_1,canvas.Screen,0_2_4_0,,skipped,5,154002,,,154002,,154002.09999990463,2021-10-26T09:03:58.900Z,154171.604,1635238879,full,ni_sequenzen,NI_Sequenzen,,,,,,,,,,,,,,
,Screen_2,canvas.Screen,0_2_4_1,,skipped,5,154002.79999995232,,,154002,,154002.79999995232,2021-10-26T09:03:58.900Z,154171.604,1635238879,full,ni_sequenzen,NI_Sequenzen,,,,,,,,,,,,,,
,Screen_3,canvas.Screen,0_2_4_2,,skipped,5,154003.29999995232,,,154002,,154003.29999995232,2021-10-26T09:03:58.901Z,154171.604,1635238879,full,ni_sequenzen,NI_Sequenzen,,,,,,,,,,,,,,
,Screen_4,canvas.Screen,0_2_4_3,,skipped,5,154003.79999995232,,,154002,,154003.89999997616,2021-10-26T09:03:58.901Z,154171.604,1635238879,full,ni_sequenzen,NI_Sequenzen,,,,,,,,,,,,,,
,Screen_5,canvas.Screen,0_2_4_4,,skipped,5,154004.39999997616,,,154002,,154004.5,2021-10-26T09:03:58.902Z,154171.604,1635238879,full,ni_sequenzen,NI_Sequenzen,,,,,,,,,,,,,,
,Screen_6,canvas.Screen,0_2_4_5,,skipped,5,154005,,,154002,,154005,2021-10-26T09:03:58.903Z,154171.604,1635238879,full,ni_sequenzen,NI_Sequenzen,,,,,,,,,,,,,,
,Sequence,flow.Sequence,0_2_4,,completion,5,154001.39999997616,,,154002,,154005.09999990463,2021-10-26T09:03:58.903Z,154171.604,1635238879,full,ni_sequenzen,NI_Sequenzen,,,,,,,,,,,,,,
,Screen_1,canvas.Screen,0_2_5_0,,skipped,6,154005.89999997616,,,154005.89999997616,,154006,2021-10-26T09:03:58.904Z,154171.604,1635238879,full,ni_sequenzen,NI_Sequenzen,,,,,,,,,,,,,,
,Screen_2,canvas.Screen,0_2_5_1,,skipped,6,154006.5,,,154005.89999997616,,154006.5,2021-10-26T09:03:58.904Z,154171.604,1635238879,full,ni_sequenzen,NI_Sequenzen,,,,,,,,,,,,,,
,Screen_3,canvas.Screen,0_2_5_2,,skipped,6,154007,,,154005.89999997616,,154007.09999990463,2021-10-26T09:03:58.905Z,154171.604,1635238879,full,ni_sequenzen,NI_Sequenzen,,,,,,,,,,,,,,
,Screen_4,canvas.Screen,0_2_5_3,,skipped,6,154008.19999992847,,,154005.89999997616,,154008.29999995232,2021-10-26T09:03:58.906Z,154171.604,1635238879,full,ni_sequenzen,NI_Sequenzen,,,,,,,,,,,,,,
,Screen_5,canvas.Screen,0_2_5_4,,skipped,6,154008.79999995232,,,154005.89999997616,,154008.79999995232,2021-10-26T09:03:58.906Z,154171.604,1635238879,full,ni_sequenzen,NI_Sequenzen,,,,,,,,,,,,,,
,Screen_6,canvas.Screen,0_2_5_5,,skipped,6,154009.29999995232,,,154005.89999997616,,154009.39999997616,2021-10-26T09:03:58.907Z,154171.604,1635238879,full,ni_sequenzen,NI_Sequenzen,,,,,,,,,,,,,,
,Sequence,flow.Sequence,0_2_5,,completion,6,154005.39999997616,,,154005.89999997616,,154009.5,2021-10-26T09:03:58.907Z,154171.604,1635238879,full,ni_sequenzen,NI_Sequenzen,,,,,,,,,,,,,,
,Screen_1,canvas.Screen,0_2_6_0,,skipped,7,154010.39999997616,,,154010.39999997616,,154010.39999997616,2021-10-26T09:03:58.908Z,154171.604,1635238879,full,ni_sequenzen,NI_Sequenzen,,,,,,,,,,,,,,
,Screen_2,canvas.Screen,0_2_6_1,,skipped,7,154010.89999997616,,,154010.39999997616,,154011,2021-10-26T09:03:58.909Z,154171.604,1635238879,full,ni_sequenzen,NI_Sequenzen,,,,,,,,,,,,,,
,Screen_3,canvas.Screen,0_2_6_2,,skipped,7,154012.39999997616,,,154010.39999997616,,154012.39999997616,2021-10-26T09:03:58.910Z,154171.604,1635238879,full,ni_sequenzen,NI_Sequenzen,,,,,,,,,,,,,,
,Screen_4,canvas.Screen,0_2_6_3,,skipped,7,154012.89999997616,,,154010.39999997616,,154013,2021-10-26T09:03:58.911Z,154171.604,1635238879,full,ni_sequenzen,NI_Sequenzen,,,,,,,,,,,,,,
,Screen_5,canvas.Screen,0_2_6_4,,skipped,7,154013.5,,,154010.39999997616,,154013.59999990463,2021-10-26T09:03:58.911Z,154171.604,1635238879,full,ni_sequenzen,NI_Sequenzen,,,,,,,,,,,,,,
,Screen_6,canvas.Screen,0_2_6_5,,skipped,7,154014.09999990463,,,154010.39999997616,,154014.09999990463,2021-10-26T09:03:58.912Z,154171.604,1635238879,full,ni_sequenzen,NI_Sequenzen,,,,,,,,,,,,,,
,Sequence,flow.Sequence,0_2_6,,completion,7,154009.69999992847,,,154010.39999997616,,154014.19999992847,2021-10-26T09:03:58.912Z,154171.604,1635238879,full,ni_sequenzen,NI_Sequenzen,,,,,,,,,,,,,,
,Screen_1,canvas.Screen,0_2_7_0,,skipped,8,154015.09999990463,,,154015.09999990463,,154015.09999990463,2021-10-26T09:03:58.913Z,154171.604,1635238879,full,ni_sequenzen,NI_Sequenzen,,,,,,,,,,,,,,
,Screen_2,canvas.Screen,0_2_7_1,,skipped,8,154015.59999990463,,,154015.09999990463,,154015.69999992847,2021-10-26T09:03:58.913Z,154171.604,1635238879,full,ni_sequenzen,NI_Sequenzen,,,,,,,,,,,,,,
,Screen_3,canvas.Screen,0_2_7_2,,skipped,8,154016.19999992847,,,154015.09999990463,,154016.29999995232,2021-10-26T09:03:58.914Z,154171.604,1635238879,full,ni_sequenzen,NI_Sequenzen,,,,,,,,,,,,,,
,Screen_4,canvas.Screen,0_2_7_3,,skipped,8,154016.79999995232,,,154015.09999990463,,154016.79999995232,2021-10-26T09:03:58.914Z,154171.604,1635238879,full,ni_sequenzen,NI_Sequenzen,,,,,,,,,,,,,,
,Screen_5,canvas.Screen,0_2_7_4,,skipped,8,154017.29999995232,,,154015.09999990463,,154017.39999997616,2021-10-26T09:03:58.915Z,154171.604,1635238879,full,ni_sequenzen,NI_Sequenzen,,,,,,,,,,,,,,
,Screen_6,canvas.Screen,0_2_7_5,,skipped,8,154017.89999997616,,,154015.09999990463,,154017.89999997616,2021-10-26T09:03:58.916Z,154171.604,1635238879,full,ni_sequenzen,NI_Sequenzen,,,,,,,,,,,,,,
,Sequence,flow.Sequence,0_2_7,,completion,8,154014.5,,,154015.09999990463,,154018,2021-10-26T09:03:58.916Z,154171.604,1635238879,full,ni_sequenzen,NI_Sequenzen,,,,,,,,,,,,,,
,Screen_1,canvas.Screen,0_2_8_0,,skipped,9,154018.89999997616,,,154018.89999997616,,154019,2021-10-26T09:03:58.917Z,154171.604,1635238879,full,ni_sequenzen,NI_Sequenzen,,,,,,,,,,,,,,
,Screen_2,canvas.Screen,0_2_8_1,,skipped,9,154019.5,,,154018.89999997616,,154019.5,2021-10-26T09:03:58.917Z,154171.604,1635238879,full,ni_sequenzen,NI_Sequenzen,,,,,,,,,,,,,,
,Screen_3,canvas.Screen,0_2_8_2,,skipped,9,154020,,,154018.89999997616,,154020.09999990463,2021-10-26T09:03:58.918Z,154171.604,1635238879,full,ni_sequenzen,NI_Sequenzen,,,,,,,,,,,,,,
,Screen_4,canvas.Screen,0_2_8_3,,skipped,9,154020.59999990463,,,154018.89999997616,,154020.59999990463,2021-10-26T09:03:58.918Z,154171.604,1635238879,full,ni_sequenzen,NI_Sequenzen,,,,,,,,,,,,,,
,Screen_5,canvas.Screen,0_2_8_4,,skipped,9,154021.19999992847,,,154018.89999997616,,154021.19999992847,2021-10-26T09:03:58.919Z,154171.604,1635238879,full,ni_sequenzen,NI_Sequenzen,,,,,,,,,,,,,,
,Screen_6,canvas.Screen,0_2_8_5,,skipped,9,154021.69999992847,,,154018.89999997616,,154021.69999992847,2021-10-26T09:03:58.919Z,154171.604,1635238879,full,ni_sequenzen,NI_Sequenzen,,,,,,,,,,,,,,
,Sequence,flow.Sequence,0_2_8,,completion,9,154018.29999995232,,,154018.89999997616,,154021.79999995232,2021-10-26T09:03:58.919Z,154171.604,1635238879,full,ni_sequenzen,NI_Sequenzen,,,,,,,,,,,,,,
,Screen_1,canvas.Screen,0_2_9_0,,skipped,10,154023.5,,,154023.5,,154023.59999990463,2021-10-26T09:03:58.921Z,154171.604,1635238879,full,ni_sequenzen,NI_Sequenzen,,,,,,,,,,,,,,
,Screen_2,canvas.Screen,0_2_9_1,,skipped,10,154024.59999990463,,,154023.5,,154024.69999992847,2021-10-26T09:03:58.922Z,154171.604,1635238879,full,ni_sequenzen,NI_Sequenzen,,,,,,,,,,,,,,
,Screen_3,canvas.Screen,0_2_9_2,,skipped,10,154025.29999995232,,,154023.5,,154025.29999995232,2021-10-26T09:03:58.923Z,154171.604,1635238879,full,ni_sequenzen,NI_Sequenzen,,,,,,,,,,,,,,
,Screen_4,canvas.Screen,0_2_9_3,,skipped,10,154025.89999997616,,,154023.5,,154025.89999997616,2021-10-26T09:03:58.923Z,154171.604,1635238879,full,ni_sequenzen,NI_Sequenzen,,,,,,,,,,,,,,
,Screen_5,canvas.Screen,0_2_9_4,,skipped,10,154026.79999995232,,,154023.5,,154026.89999997616,2021-10-26T09:03:58.924Z,154171.604,1635238879,full,ni_sequenzen,NI_Sequenzen,,,,,,,,,,,,,,
,Screen_6,canvas.Screen,0_2_9_5,,skipped,10,154027.39999997616,,,154023.5,,154027.5,2021-10-26T09:03:58.925Z,154171.604,1635238879,full,ni_sequenzen,NI_Sequenzen,,,,,,,,,,,,,,
,Sequence,flow.Sequence,0_2_9,,completion,10,154022.89999997616,,,154023.5,,154027.5,2021-10-26T09:03:58.925Z,154171.604,1635238879,full,ni_sequenzen,NI_Sequenzen,,,,,,,,,,,,,,
,Screen_1,canvas.Screen,0_2_10_0,,skipped,11,154028.59999990463,,,154028.59999990463,,154028.59999990463,2021-10-26T09:03:58.926Z,154171.604,1635238879,full,ni_sequenzen,NI_Sequenzen,,,,,,,,,,,,,,
,Screen_2,canvas.Screen,0_2_10_1,,skipped,11,154029.19999992847,,,154028.59999990463,,154029.19999992847,2021-10-26T09:03:58.927Z,154171.604,1635238879,full,ni_sequenzen,NI_Sequenzen,,,,,,,,,,,,,,
,Screen_3,canvas.Screen,0_2_10_2,,skipped,11,154029.79999995232,,,154028.59999990463,,154029.79999995232,2021-10-26T09:03:58.927Z,154171.604,1635238879,full,ni_sequenzen,NI_Sequenzen,,,,,,,,,,,,,,
,Screen_4,canvas.Screen,0_2_10_3,,skipped,11,154030.39999997616,,,154028.59999990463,,154030.5,2021-10-26T09:03:58.928Z,154171.604,1635238879,full,ni_sequenzen,NI_Sequenzen,,,,,,,,,,,,,,
,Screen_5,canvas.Screen,0_2_10_4,,skipped,11,154030.89999997616,,,154028.59999990463,,154031,2021-10-26T09:03:58.929Z,154171.604,1635238879,full,ni_sequenzen,NI_Sequenzen,,,,,,,,,,,,,,
,Screen_6,canvas.Screen,0_2_10_5,,skipped,11,154031.5,,,154028.59999990463,,154031.5,2021-10-26T09:03:58.929Z,154171.604,1635238879,full,ni_sequenzen,NI_Sequenzen,,,,,,,,,,,,,,
,Sequence,flow.Sequence,0_2_10,,completion,11,154028,,,154028.59999990463,,154031.59999990463,2021-10-26T09:03:58.929Z,154171.604,1635238879,full,ni_sequenzen,NI_Sequenzen,,,,,,,,,,,,,,
,Screen_1,canvas.Screen,0_2_11_0,,skipped,12,154032.5,,,154032.5,,154032.59999990463,2021-10-26T09:03:58.930Z,154171.604,1635238879,full,ni_sequenzen,NI_Sequenzen,,,,,,,,,,,,,,
,Screen_2,canvas.Screen,0_2_11_1,,skipped,12,154033,,,154032.5,,154033.09999990463,2021-10-26T09:03:58.931Z,154171.604,1635238879,full,ni_sequenzen,NI_Sequenzen,,,,,,,,,,,,,,
,Screen_3,canvas.Screen,0_2_11_2,,skipped,12,154033.59999990463,,,154032.5,,154033.69999992847,2021-10-26T09:03:58.931Z,154171.604,1635238879,full,ni_sequenzen,NI_Sequenzen,,,,,,,,,,,,,,
,Screen_4,canvas.Screen,0_2_11_3,,skipped,12,154034.89999997616,,,154032.5,,154035,2021-10-26T09:03:58.933Z,154171.604,1635238879,full,ni_sequenzen,NI_Sequenzen,,,,,,,,,,,,,,
,Screen_5,canvas.Screen,0_2_11_4,,skipped,12,154035.5,,,154032.5,,154035.59999990463,2021-10-26T09:03:58.933Z,154171.604,1635238879,full,ni_sequenzen,NI_Sequenzen,,,,,,,,,,,,,,
,Screen_6,canvas.Screen,0_2_11_5,,skipped,12,154036,,,154032.5,,154036.09999990463,2021-10-26T09:03:58.934Z,154171.604,1635238879,full,ni_sequenzen,NI_Sequenzen,,,,,,,,,,,,,,
,Sequence,flow.Sequence,0_2_11,,completion,12,154031.89999997616,,,154032.5,,154036.19999992847,2021-10-26T09:03:58.934Z,154171.604,1635238879,full,ni_sequenzen,NI_Sequenzen,,,,,,,,,,,,,,
,Screen_1,canvas.Screen,0_2_12_0,,skipped,13,154037,,,154037,,154037,2021-10-26T09:03:58.935Z,154171.604,1635238879,full,ni_sequenzen,NI_Sequenzen,,,,,,,,,,,,,,
,Screen_2,canvas.Screen,0_2_12_1,,skipped,13,154037.59999990463,,,154037,,154037.59999990463,2021-10-26T09:03:58.935Z,154171.604,1635238879,full,ni_sequenzen,NI_Sequenzen,,,,,,,,,,,,,,
,Screen_3,canvas.Screen,0_2_12_2,,skipped,13,154038.09999990463,,,154037,,154038.09999990463,2021-10-26T09:03:58.936Z,154171.604,1635238879,full,ni_sequenzen,NI_Sequenzen,,,,,,,,,,,,,,
,Screen_4,canvas.Screen,0_2_12_3,,skipped,13,154038.69999992847,,,154037,,154038.69999992847,2021-10-26T09:03:58.936Z,154171.604,1635238879,full,ni_sequenzen,NI_Sequenzen,,,,,,,,,,,,,,
,Screen_5,canvas.Screen,0_2_12_4,,skipped,13,154039.19999992847,,,154037,,154039.19999992847,2021-10-26T09:03:58.937Z,154171.604,1635238879,full,ni_sequenzen,NI_Sequenzen,,,,,,,,,,,,,,
,Screen_6,canvas.Screen,0_2_12_5,,skipped,13,154039.69999992847,,,154037,,154039.79999995232,2021-10-26T09:03:58.937Z,154171.604,1635238879,full,ni_sequenzen,NI_Sequenzen,,,,,,,,,,,,,,
,Sequence,flow.Sequence,0_2_12,,completion,13,154036.39999997616,,,154037,,154039.89999997616,2021-10-26T09:03:58.937Z,154171.604,1635238879,full,ni_sequenzen,NI_Sequenzen,,,,,,,,,,,,,,
,Screen_1,canvas.Screen,0_2_13_0,,skipped,14,154041.19999992847,,,154041.19999992847,,154041.29999995232,2021-10-26T09:03:58.939Z,154171.604,1635238879,full,ni_sequenzen,NI_Sequenzen,,,,,,,,,,,,,,
,Screen_2,canvas.Screen,0_2_13_1,,skipped,14,154041.89999997616,,,154041.19999992847,,154042.09999990463,2021-10-26T09:03:58.940Z,154171.604,1635238879,full,ni_sequenzen,NI_Sequenzen,,,,,,,,,,,,,,
,Screen_3,canvas.Screen,0_2_13_2,,skipped,14,154042.59999990463,,,154041.19999992847,,154042.59999990463,2021-10-26T09:03:58.940Z,154171.604,1635238879,full,ni_sequenzen,NI_Sequenzen,,,,,,,,,,,,,,
,Screen_4,canvas.Screen,0_2_13_3,,skipped,14,154043.09999990463,,,154041.19999992847,,154043.09999990463,2021-10-26T09:03:58.941Z,154171.604,1635238879,full,ni_sequenzen,NI_Sequenzen,,,,,,,,,,,,,,
,Screen_5,canvas.Screen,0_2_13_4,,skipped,14,154043.69999992847,,,154041.19999992847,,154043.69999992847,2021-10-26T09:03:58.941Z,154171.604,1635238879,full,ni_sequenzen,NI_Sequenzen,,,,,,,,,,,,,,
,Screen_6,canvas.Screen,0_2_13_5,,skipped,14,154044.29999995232,,,154041.19999992847,,154044.29999995232,2021-10-26T09:03:58.942Z,154171.604,1635238879,full,ni_sequenzen,NI_Sequenzen,,,,,,,,,,,,,,
,Sequence,flow.Sequence,0_2_13,,completion,14,154040.09999990463,,,154041.19999992847,,154044.39999997616,2021-10-26T09:03:58.942Z,154171.604,1635238879,full,ni_sequenzen,NI_Sequenzen,,,,,,,,,,,,,,
,Screen_1,canvas.Screen,0_2_14_0,,skipped,15,154046.19999992847,,,154046.19999992847,,154046.29999995232,2021-10-26T09:03:58.944Z,154171.604,1635238879,full,ni_sequenzen,NI_Sequenzen,,,,,,,,,,,,,,
,Screen_2,canvas.Screen,0_2_14_1,,skipped,15,154046.79999995232,,,154046.19999992847,,154046.79999995232,2021-10-26T09:03:58.944Z,154171.604,1635238879,full,ni_sequenzen,NI_Sequenzen,,,,,,,,,,,,,,
,Screen_3,canvas.Screen,0_2_14_2,,skipped,15,154047.5,,,154046.19999992847,,154047.5,2021-10-26T09:03:58.945Z,154171.604,1635238879,full,ni_sequenzen,NI_Sequenzen,,,,,,,,,,,,,,
,Screen_4,canvas.Screen,0_2_14_3,,skipped,15,154048.09999990463,,,154046.19999992847,,154048.09999990463,2021-10-26T09:03:58.946Z,154171.604,1635238879,full,ni_sequenzen,NI_Sequenzen,,,,,,,,,,,,,,
,Screen_5,canvas.Screen,0_2_14_4,,skipped,15,154048.69999992847,,,154046.19999992847,,154048.69999992847,2021-10-26T09:03:58.946Z,154171.604,1635238879,full,ni_sequenzen,NI_Sequenzen,,,,,,,,,,,,,,
,Screen_6,canvas.Screen,0_2_14_5,,skipped,15,154049.19999992847,,,154046.19999992847,,154049.19999992847,2021-10-26T09:03:58.947Z,154171.604,1635238879,full,ni_sequenzen,NI_Sequenzen,,,,,,,,,,,,,,
,Sequence,flow.Sequence,0_2_14,,completion,15,154044.69999992847,,,154046.19999992847,,154049.39999997616,2021-10-26T09:03:58.947Z,154171.604,1635238879,full,ni_sequenzen,NI_Sequenzen,,,,,,,,,,,,,,
,Screen_1,canvas.Screen,0_2_15_0,,skipped,16,154050.09999990463,,,154050.09999990463,,154050.19999992847,2021-10-26T09:03:58.948Z,154171.604,1635238879,full,ni_sequenzen,NI_Sequenzen,,,,,,,,,,,,,,
,Screen_2,canvas.Screen,0_2_15_1,,skipped,16,154050.69999992847,,,154050.09999990463,,154050.69999992847,2021-10-26T09:03:58.948Z,154171.604,1635238879,full,ni_sequenzen,NI_Sequenzen,,,,,,,,,,,,,,
,Screen_3,canvas.Screen,0_2_15_2,,skipped,16,154051.19999992847,,,154050.09999990463,,154051.29999995232,2021-10-26T09:03:58.949Z,154171.604,1635238879,full,ni_sequenzen,NI_Sequenzen,,,,,,,,,,,,,,
,Screen_4,canvas.Screen,0_2_15_3,,skipped,16,154051.79999995232,,,154050.09999990463,,154051.79999995232,2021-10-26T09:03:58.949Z,154171.604,1635238879,full,ni_sequenzen,NI_Sequenzen,,,,,,,,,,,,,,
,Screen_5,canvas.Screen,0_2_15_4,,skipped,16,154052.29999995232,,,154050.09999990463,,154052.39999997616,2021-10-26T09:03:58.950Z,154171.604,1635238879,full,ni_sequenzen,NI_Sequenzen,,,,,,,,,,,,,,
,Screen_6,canvas.Screen,0_2_15_5,,skipped,16,154052.89999997616,,,154050.09999990463,,154052.89999997616,2021-10-26T09:03:58.950Z,154171.604,1635238879,full,ni_sequenzen,NI_Sequenzen,,,,,,,,,,,,,,
,Sequence,flow.Sequence,0_2_15,,completion,16,154049.59999990463,,,154050.09999990463,,154053,2021-10-26T09:03:58.951Z,154171.604,1635238879,full,ni_sequenzen,NI_Sequenzen,,,,,,,,,,,,,,
,Screen_1,canvas.Screen,0_2_16_0,,skipped,17,154053.79999995232,,,154053.79999995232,,154053.79999995232,2021-10-26T09:03:58.951Z,154171.604,1635238879,full,ni_sequenzen,NI_Sequenzen,,,,,,,,,,,,,,
,Screen_2,canvas.Screen,0_2_16_1,,skipped,17,154055,,,154053.79999995232,,154055.09999990463,2021-10-26T09:03:58.953Z,154171.604,1635238879,full,ni_sequenzen,NI_Sequenzen,,,,,,,,,,,,,,
,Screen_3,canvas.Screen,0_2_16_2,,skipped,17,154055.69999992847,,,154053.79999995232,,154055.79999995232,2021-10-26T09:03:58.953Z,154171.604,1635238879,full,ni_sequenzen,NI_Sequenzen,,,,,,,,,,,,,,
,Screen_4,canvas.Screen,0_2_16_3,,skipped,17,154056.19999992847,,,154053.79999995232,,154056.29999995232,2021-10-26T09:03:58.954Z,154171.604,1635238879,full,ni_sequenzen,NI_Sequenzen,,,,,,,,,,,,,,
,Screen_5,canvas.Screen,0_2_16_4,,skipped,17,154056.79999995232,,,154053.79999995232,,154056.89999997616,2021-10-26T09:03:58.954Z,154171.604,1635238879,full,ni_sequenzen,NI_Sequenzen,,,,,,,,,,,,,,
,Screen_6,canvas.Screen,0_2_16_5,,skipped,17,154057.79999995232,,,154053.79999995232,,154058,2021-10-26T09:03:58.956Z,154171.604,1635238879,full,ni_sequenzen,NI_Sequenzen,,,,,,,,,,,,,,
,Sequence,flow.Sequence,0_2_16,,completion,17,154053.19999992847,,,154053.79999995232,,154058.09999990463,2021-10-26T09:03:58.956Z,154171.604,1635238879,full,ni_sequenzen,NI_Sequenzen,,,,,,,,,,,,,,
,Screen_1,canvas.Screen,0_2_17_0,,skipped,18,154059.09999990463,,,154059.09999990463,,154059.09999990463,2021-10-26T09:03:58.957Z,154171.604,1635238879,full,ni_sequenzen,NI_Sequenzen,,,,,,,,,,,,,,
,Screen_2,canvas.Screen,0_2_17_1,,skipped,18,154059.59999990463,,,154059.09999990463,,154059.69999992847,2021-10-26T09:03:58.957Z,154171.604,1635238879,full,ni_sequenzen,NI_Sequenzen,,,,,,,,,,,,,,
,Screen_3,canvas.Screen,0_2_17_2,,skipped,18,154060.19999992847,,,154059.09999990463,,154060.29999995232,2021-10-26T09:03:58.958Z,154171.604,1635238879,full,ni_sequenzen,NI_Sequenzen,,,,,,,,,,,,,,
,Screen_4,canvas.Screen,0_2_17_3,,skipped,18,154060.79999995232,,,154059.09999990463,,154060.79999995232,2021-10-26T09:03:58.958Z,154171.604,1635238879,full,ni_sequenzen,NI_Sequenzen,,,,,,,,,,,,,,
,Screen_5,canvas.Screen,0_2_17_4,,skipped,18,154061.39999997616,,,154059.09999990463,,154061.39999997616,2021-10-26T09:03:58.959Z,154171.604,1635238879,full,ni_sequenzen,NI_Sequenzen,,,,,,,,,,,,,,
,Screen_6,canvas.Screen,0_2_17_5,,skipped,18,154061.89999997616,,,154059.09999990463,,154062,2021-10-26T09:03:58.960Z,154171.604,1635238879,full,ni_sequenzen,NI_Sequenzen,,,,,,,,,,,,,,
,Sequence,flow.Sequence,0_2_17,,completion,18,154058.39999997616,,,154059.09999990463,,154062.09999990463,2021-10-26T09:03:58.960Z,154171.604,1635238879,full,ni_sequenzen,NI_Sequenzen,,,,,,,,,,,,,,
,Screen_1,canvas.Screen,0_2_18_0,,skipped,19,154062.89999997616,,,154062.89999997616,,154062.89999997616,2021-10-26T09:03:58.960Z,154171.604,1635238879,full,ni_sequenzen,NI_Sequenzen,,,,,,,,,,,,,,
,Screen_2,canvas.Screen,0_2_18_1,,skipped,19,154063.39999997616,,,154062.89999997616,,154063.39999997616,2021-10-26T09:03:58.961Z,154171.604,1635238879,full,ni_sequenzen,NI_Sequenzen,,,,,,,,,,,,,,
,Screen_3,canvas.Screen,0_2_18_2,,skipped,19,154063.89999997616,,,154062.89999997616,,154064,2021-10-26T09:03:58.962Z,154171.604,1635238879,full,ni_sequenzen,NI_Sequenzen,,,,,,,,,,,,,,
,Screen_4,canvas.Screen,0_2_18_3,,skipped,19,154065.09999990463,,,154062.89999997616,,154065.19999992847,2021-10-26T09:03:58.963Z,154171.604,1635238879,full,ni_sequenzen,NI_Sequenzen,,,,,,,,,,,,,,
,Screen_5,canvas.Screen,0_2_18_4,,skipped,19,154065.79999995232,,,154062.89999997616,,154065.89999997616,2021-10-26T09:03:58.963Z,154171.604,1635238879,full,ni_sequenzen,NI_Sequenzen,,,,,,,,,,,,,,
,Screen_6,canvas.Screen,0_2_18_5,,skipped,19,154066.39999997616,,,154062.89999997616,,154066.39999997616,2021-10-26T09:03:58.964Z,154171.604,1635238879,full,ni_sequenzen,NI_Sequenzen,,,,,,,,,,,,,,
,Sequence,flow.Sequence,0_2_18,,completion,19,154062.29999995232,,,154062.89999997616,,154066.5,2021-10-26T09:03:58.964Z,154171.604,1635238879,full,ni_sequenzen,NI_Sequenzen,,,,,,,,,,,,,,
,Screen_1,canvas.Screen,0_2_19_0,,skipped,20,154067.29999995232,,,154067.29999995232,,154067.29999995232,2021-10-26T09:03:58.965Z,154171.604,1635238879,full,ni_sequenzen,NI_Sequenzen,,,,,,,,,,,,,,
,Screen_2,canvas.Screen,0_2_19_1,,skipped,20,154067.89999997616,,,154067.29999995232,,154068,2021-10-26T09:03:58.966Z,154171.604,1635238879,full,ni_sequenzen,NI_Sequenzen,,,,,,,,,,,,,,
,Screen_3,canvas.Screen,0_2_19_2,,skipped,20,154068.5,,,154067.29999995232,,154068.5,2021-10-26T09:03:58.966Z,154171.604,1635238879,full,ni_sequenzen,NI_Sequenzen,,,,,,,,,,,,,,
,Screen_4,canvas.Screen,0_2_19_3,,skipped,20,154069.09999990463,,,154067.29999995232,,154069.09999990463,2021-10-26T09:03:58.967Z,154171.604,1635238879,full,ni_sequenzen,NI_Sequenzen,,,,,,,,,,,,,,
,Screen_5,canvas.Screen,0_2_19_4,,skipped,20,154069.69999992847,,,154067.29999995232,,154069.69999992847,2021-10-26T09:03:58.967Z,154171.604,1635238879,full,ni_sequenzen,NI_Sequenzen,,,,,,,,,,,,,,
,Screen_6,canvas.Screen,0_2_19_5,,skipped,20,154070.19999992847,,,154067.29999995232,,154070.19999992847,2021-10-26T09:03:58.968Z,154171.604,1635238879,full,ni_sequenzen,NI_Sequenzen,,,,,,,,,,,,,,
,Sequence,flow.Sequence,0_2_19,,completion,20,154066.79999995232,,,154067.29999995232,,154070.29999995232,2021-10-26T09:03:58.968Z,154171.604,1635238879,full,ni_sequenzen,NI_Sequenzen,,,,,,,,,,,,,,
,Screen_1,canvas.Screen,0_2_20_0,,skipped,21,154071.09999990463,,,154071.09999990463,,154071.19999992847,2021-10-26T09:03:58.969Z,154171.604,1635238879,full,ni_sequenzen,NI_Sequenzen,,,,,,,,,,,,,,
,Screen_2,canvas.Screen,0_2_20_1,,skipped,21,154071.79999995232,,,154071.09999990463,,154071.79999995232,2021-10-26T09:03:58.969Z,154171.604,1635238879,full,ni_sequenzen,NI_Sequenzen,,,,,,,,,,,,,,
,Screen_3,canvas.Screen,0_2_20_2,,skipped,21,154072.19999992847,,,154071.09999990463,,154072.39999997616,2021-10-26T09:03:58.970Z,154171.604,1635238879,full,ni_sequenzen,NI_Sequenzen,,,,,,,,,,,,,,
,Screen_4,canvas.Screen,0_2_20_3,,skipped,21,154072.79999995232,,,154071.09999990463,,154072.89999997616,2021-10-26T09:03:58.970Z,154171.604,1635238879,full,ni_sequenzen,NI_Sequenzen,,,,,,,,,,,,,,
,Screen_5,canvas.Screen,0_2_20_4,,skipped,21,154074.5,,,154071.09999990463,,154074.5,2021-10-26T09:03:58.972Z,154171.604,1635238879,full,ni_sequenzen,NI_Sequenzen,,,,,,,,,,,,,,
,Screen_6,canvas.Screen,0_2_20_5,,skipped,21,154075.29999995232,,,154071.09999990463,,154075.39999997616,2021-10-26T09:03:58.973Z,154171.604,1635238879,full,ni_sequenzen,NI_Sequenzen,,,,,,,,,,,,,,
,Sequence,flow.Sequence,0_2_20,,completion,21,154070.59999990463,,,154071.09999990463,,154075.39999997616,2021-10-26T09:03:58.973Z,154171.604,1635238879,full,ni_sequenzen,NI_Sequenzen,,,,,,,,,,,,,,
,Screen_1,canvas.Screen,0_2_21_0,,skipped,22,154076.29999995232,,,154076.29999995232,,154076.39999997616,2021-10-26T09:03:58.974Z,154171.604,1635238879,full,ni_sequenzen,NI_Sequenzen,,,,,,,,,,,,,,
,Screen_2,canvas.Screen,0_2_21_1,,skipped,22,154076.89999997616,,,154076.29999995232,,154076.89999997616,2021-10-26T09:03:58.974Z,154171.604,1635238879,full,ni_sequenzen,NI_Sequenzen,,,,,,,,,,,,,,
,Screen_3,canvas.Screen,0_2_21_2,,skipped,22,154077.39999997616,,,154076.29999995232,,154077.5,2021-10-26T09:03:58.975Z,154171.604,1635238879,full,ni_sequenzen,NI_Sequenzen,,,,,,,,,,,,,,
,Screen_4,canvas.Screen,0_2_21_3,,skipped,22,154078.09999990463,,,154076.29999995232,,154078.09999990463,2021-10-26T09:03:58.976Z,154171.604,1635238879,full,ni_sequenzen,NI_Sequenzen,,,,,,,,,,,,,,
,Screen_5,canvas.Screen,0_2_21_4,,skipped,22,154078.5,,,154076.29999995232,,154079.09999990463,2021-10-26T09:03:58.977Z,154171.604,1635238879,full,ni_sequenzen,NI_Sequenzen,,,,,,,,,,,,,,
,Screen_6,canvas.Screen,0_2_21_5,,skipped,22,154079.59999990463,,,154076.29999995232,,154079.69999992847,2021-10-26T09:03:58.977Z,154171.604,1635238879,full,ni_sequenzen,NI_Sequenzen,,,,,,,,,,,,,,
,Sequence,flow.Sequence,0_2_21,,completion,22,154075.69999992847,,,154076.29999995232,,154079.89999997616,2021-10-26T09:03:58.977Z,154171.604,1635238879,full,ni_sequenzen,NI_Sequenzen,,,,,,,,,,,,,,
,Screen_1,canvas.Screen,0_2_22_0,,skipped,23,154080.59999990463,,,154080.59999990463,,154080.79999995232,2021-10-26T09:03:58.978Z,154171.604,1635238879,full,ni_sequenzen,NI_Sequenzen,,,,,,,,,,,,,,
,Screen_2,canvas.Screen,0_2_22_1,,skipped,23,154081.29999995232,,,154080.59999990463,,154081.29999995232,2021-10-26T09:03:58.979Z,154171.604,1635238879,full,ni_sequenzen,NI_Sequenzen,,,,,,,,,,,,,,
,Screen_3,canvas.Screen,0_2_22_2,,skipped,23,154082.09999990463,,,154080.59999990463,,154082.19999992847,2021-10-26T09:03:58.980Z,154171.604,1635238879,full,ni_sequenzen,NI_Sequenzen,,,,,,,,,,,,,,
,Screen_4,canvas.Screen,0_2_22_3,,skipped,23,154082.89999997616,,,154080.59999990463,,154083,2021-10-26T09:03:58.981Z,154171.604,1635238879,full,ni_sequenzen,NI_Sequenzen,,,,,,,,,,,,,,
,Screen_5,canvas.Screen,0_2_22_4,,skipped,23,154083.59999990463,,,154080.59999990463,,154083.69999992847,2021-10-26T09:03:58.981Z,154171.604,1635238879,full,ni_sequenzen,NI_Sequenzen,,,,,,,,,,,,,,
,Screen_6,canvas.Screen,0_2_22_5,,skipped,23,154084.59999990463,,,154080.59999990463,,154084.69999992847,2021-10-26T09:03:58.982Z,154171.604,1635238879,full,ni_sequenzen,NI_Sequenzen,,,,,,,,,,,,,,
,Sequence,flow.Sequence,0_2_22,,completion,23,154080.09999990463,,,154080.59999990463,,154084.79999995232,2021-10-26T09:03:58.982Z,154171.604,1635238879,full,ni_sequenzen,NI_Sequenzen,,,,,,,,,,,,,,
,Screen_1,canvas.Screen,0_2_23_0,,skipped,24,154085.79999995232,,,154085.79999995232,,154085.89999997616,2021-10-26T09:03:58.983Z,154171.604,1635238879,full,ni_sequenzen,NI_Sequenzen,,,,,,,,,,,,,,
,Screen_2,canvas.Screen,0_2_23_1,,skipped,24,154086.5,,,154085.79999995232,,154086.5,2021-10-26T09:03:58.984Z,154171.604,1635238879,full,ni_sequenzen,NI_Sequenzen,,,,,,,,,,,,,,
,Screen_3,canvas.Screen,0_2_23_2,,skipped,24,154087.69999992847,,,154085.79999995232,,154087.79999995232,2021-10-26T09:03:58.985Z,154171.604,1635238879,full,ni_sequenzen,NI_Sequenzen,,,,,,,,,,,,,,
,Screen_4,canvas.Screen,0_2_23_3,,skipped,24,154088.29999995232,,,154085.79999995232,,154088.39999997616,2021-10-26T09:03:58.986Z,154171.604,1635238879,full,ni_sequenzen,NI_Sequenzen,,,,,,,,,,,,,,
,Screen_5,canvas.Screen,0_2_23_4,,skipped,24,154088.79999995232,,,154085.79999995232,,154088.89999997616,2021-10-26T09:03:58.986Z,154171.604,1635238879,full,ni_sequenzen,NI_Sequenzen,,,,,,,,,,,,,,
,Screen_6,canvas.Screen,0_2_23_5,,skipped,24,154089.39999997616,,,154085.79999995232,,154089.39999997616,2021-10-26T09:03:58.987Z,154171.604,1635238879,full,ni_sequenzen,NI_Sequenzen,,,,,,,,,,,,,,
,Sequence,flow.Sequence,0_2_23,,completion,24,154085.09999990463,,,154085.79999995232,,154089.5,2021-10-26T09:03:58.987Z,154171.604,1635238879,full,ni_sequenzen,NI_Sequenzen,,,,,,,,,,,,,,
,Screen_1,canvas.Screen,0_2_24_0,,skipped,25,154090.29999995232,,,154090.39999997616,,154090.39999997616,2021-10-26T09:03:58.988Z,154171.604,1635238879,full,ni_sequenzen,NI_Sequenzen,,,,,,,,,,,,,,
,Screen_2,canvas.Screen,0_2_24_1,,skipped,25,154091.39999997616,,,154090.39999997616,,154091.39999997616,2021-10-26T09:03:58.989Z,154171.604,1635238879,full,ni_sequenzen,NI_Sequenzen,,,,,,,,,,,,,,
,Screen_3,canvas.Screen,0_2_24_2,,skipped,25,154091.89999997616,,,154090.39999997616,,154092,2021-10-26T09:03:58.990Z,154171.604,1635238879,full,ni_sequenzen,NI_Sequenzen,,,,,,,,,,,,,,
,Screen_4,canvas.Screen,0_2_24_3,,skipped,25,154092.59999990463,,,154090.39999997616,,154092.59999990463,2021-10-26T09:03:58.990Z,154171.604,1635238879,full,ni_sequenzen,NI_Sequenzen,,,,,,,,,,,,,,
,Screen_5,canvas.Screen,0_2_24_4,,skipped,25,154093.19999992847,,,154090.39999997616,,154093.29999995232,2021-10-26T09:03:58.991Z,154171.604,1635238879,full,ni_sequenzen,NI_Sequenzen,,,,,,,,,,,,,,
,Screen_6,canvas.Screen,0_2_24_5,,skipped,25,154093.79999995232,,,154090.39999997616,,154093.89999997616,2021-10-26T09:03:58.991Z,154171.604,1635238879,full,ni_sequenzen,NI_Sequenzen,,,,,,,,,,,,,,
,Sequence,flow.Sequence,0_2_24,,completion,25,154089.69999992847,,,154090.39999997616,,154093.89999997616,2021-10-26T09:03:58.991Z,154171.604,1635238879,full,ni_sequenzen,NI_Sequenzen,,,,,,,,,,,,,,
,Screen_1,canvas.Screen,0_2_25_0,,skipped,26,154094.69999992847,,,154094.69999992847,,154094.69999992847,2021-10-26T09:03:58.992Z,154171.604,1635238879,full,ni_sequenzen,NI_Sequenzen,,,,,,,,,,,,,,
,Screen_2,canvas.Screen,0_2_25_1,,skipped,26,154095.19999992847,,,154094.69999992847,,154095.29999995232,2021-10-26T09:03:58.993Z,154171.604,1635238879,full,ni_sequenzen,NI_Sequenzen,,,,,,,,,,,,,,
,Screen_3,canvas.Screen,0_2_25_2,,skipped,26,154095.79999995232,,,154094.69999992847,,154095.79999995232,2021-10-26T09:03:58.993Z,154171.604,1635238879,full,ni_sequenzen,NI_Sequenzen,,,,,,,,,,,,,,
,Screen_4,canvas.Screen,0_2_25_3,,skipped,26,154096.29999995232,,,154094.69999992847,,154096.29999995232,2021-10-26T09:03:58.994Z,154171.604,1635238879,full,ni_sequenzen,NI_Sequenzen,,,,,,,,,,,,,,
,Screen_5,canvas.Screen,0_2_25_4,,skipped,26,154096.79999995232,,,154094.69999992847,,154096.89999997616,2021-10-26T09:03:58.994Z,154171.604,1635238879,full,ni_sequenzen,NI_Sequenzen,,,,,,,,,,,,,,
,Screen_6,canvas.Screen,0_2_25_5,,skipped,26,154098,,,154094.69999992847,,154098,2021-10-26T09:03:58.996Z,154171.604,1635238879,full,ni_sequenzen,NI_Sequenzen,,,,,,,,,,,,,,
,Sequence,flow.Sequence,0_2_25,,completion,26,154094.09999990463,,,154094.69999992847,,154098.09999990463,2021-10-26T09:03:58.996Z,154171.604,1635238879,full,ni_sequenzen,NI_Sequenzen,,,,,,,,,,,,,,
,Screen_1,canvas.Screen,0_2_26_0,,skipped,27,154099.19999992847,,,154099.19999992847,,154099.19999992847,2021-10-26T09:03:58.997Z,154171.604,1635238879,full,ni_sequenzen,NI_Sequenzen,,,,,,,,,,,,,,
,Screen_2,canvas.Screen,0_2_26_1,,skipped,27,154099.79999995232,,,154099.19999992847,,154099.89999997616,2021-10-26T09:03:58.997Z,154171.604,1635238879,full,ni_sequenzen,NI_Sequenzen,,,,,,,,,,,,,,
,Screen_3,canvas.Screen,0_2_26_2,,skipped,27,154100.39999997616,,,154099.19999992847,,154100.39999997616,2021-10-26T09:03:58.998Z,154171.604,1635238879,full,ni_sequenzen,NI_Sequenzen,,,,,,,,,,,,,,
,Screen_4,canvas.Screen,0_2_26_3,,skipped,27,154100.79999995232,,,154099.19999992847,,154100.89999997616,2021-10-26T09:03:58.998Z,154171.604,1635238879,full,ni_sequenzen,NI_Sequenzen,,,,,,,,,,,,,,
,Screen_5,canvas.Screen,0_2_26_4,,skipped,27,154101.39999997616,,,154099.19999992847,,154101.39999997616,2021-10-26T09:03:58.999Z,154171.604,1635238879,full,ni_sequenzen,NI_Sequenzen,,,,,,,,,,,,,,
,Screen_6,canvas.Screen,0_2_26_5,,skipped,27,154101.89999997616,,,154099.19999992847,,154102,2021-10-26T09:03:59.000Z,154171.604,1635238879,full,ni_sequenzen,NI_Sequenzen,,,,,,,,,,,,,,
,Sequence,flow.Sequence,0_2_26,,completion,27,154098.39999997616,,,154099.19999992847,,154102,2021-10-26T09:03:59.000Z,154171.604,1635238879,full,ni_sequenzen,NI_Sequenzen,,,,,,,,,,,,,,
,Screen_1,canvas.Screen,0_2_27_0,,skipped,28,154102.79999995232,,,154102.89999997616,,154102.89999997616,2021-10-26T09:03:59.000Z,154171.604,1635238879,full,ni_sequenzen,NI_Sequenzen,,,,,,,,,,,,,,
,Screen_2,canvas.Screen,0_2_27_1,,skipped,28,154103.39999997616,,,154102.89999997616,,154103.5,2021-10-26T09:03:59.001Z,154171.604,1635238879,full,ni_sequenzen,NI_Sequenzen,,,,,,,,,,,,,,
,Screen_3,canvas.Screen,0_2_27_2,,skipped,28,154103.89999997616,,,154102.89999997616,,154103.89999997616,2021-10-26T09:03:59.002Z,154171.604,1635238879,full,ni_sequenzen,NI_Sequenzen,,,,,,,,,,,,,,
,Screen_4,canvas.Screen,0_2_27_3,,skipped,28,154104.39999997616,,,154102.89999997616,,154104.5,2021-10-26T09:03:59.002Z,154171.604,1635238879,full,ni_sequenzen,NI_Sequenzen,,,,,,,,,,,,,,
,Screen_5,canvas.Screen,0_2_27_4,,skipped,28,154105,,,154102.89999997616,,154105,2021-10-26T09:03:59.003Z,154171.604,1635238879,full,ni_sequenzen,NI_Sequenzen,,,,,,,,,,,,,,
,Screen_6,canvas.Screen,0_2_27_5,,skipped,28,154105.5,,,154102.89999997616,,154105.59999990463,2021-10-26T09:03:59.003Z,154171.604,1635238879,full,ni_sequenzen,NI_Sequenzen,,,,,,,,,,,,,,
,Sequence,flow.Sequence,0_2_27,,completion,28,154102.29999995232,,,154102.89999997616,,154105.69999992847,2021-10-26T09:03:59.003Z,154171.604,1635238879,full,ni_sequenzen,NI_Sequenzen,,,,,,,,,,,,,,
,Screen_1,canvas.Screen,0_2_28_0,,skipped,29,154106.5,,,154106.5,,154106.5,2021-10-26T09:03:59.004Z,154171.604,1635238879,full,ni_sequenzen,NI_Sequenzen,,,,,,,,,,,,,,
,Screen_2,canvas.Screen,0_2_28_1,,skipped,29,154107,,,154106.5,,154107.09999990463,2021-10-26T09:03:59.005Z,154171.604,1635238879,full,ni_sequenzen,NI_Sequenzen,,,,,,,,,,,,,,
,Screen_3,canvas.Screen,0_2_28_2,,skipped,29,154107.89999997616,,,154106.5,,154108,2021-10-26T09:03:59.006Z,154171.604,1635238879,full,ni_sequenzen,NI_Sequenzen,,,,,,,,,,,,,,
,Screen_4,canvas.Screen,0_2_28_3,,skipped,29,154109.29999995232,,,154106.5,,154109.39999997616,2021-10-26T09:03:59.007Z,154171.604,1635238879,full,ni_sequenzen,NI_Sequenzen,,,,,,,,,,,,,,
,Screen_5,canvas.Screen,0_2_28_4,,skipped,29,154109.79999995232,,,154106.5,,154109.89999997616,2021-10-26T09:03:59.007Z,154171.604,1635238879,full,ni_sequenzen,NI_Sequenzen,,,,,,,,,,,,,,
,Screen_6,canvas.Screen,0_2_28_5,,skipped,29,154110.5,,,154106.5,,154110.5,2021-10-26T09:03:59.008Z,154171.604,1635238879,full,ni_sequenzen,NI_Sequenzen,,,,,,,,,,,,,,
,Sequence,flow.Sequence,0_2_28,,completion,29,154105.89999997616,,,154106.5,,154110.59999990463,2021-10-26T09:03:59.008Z,154171.604,1635238879,full,ni_sequenzen,NI_Sequenzen,,,,,,,,,,,,,,
,Screen_1,canvas.Screen,0_2_29_0,,skipped,30,154111.39999997616,,,154111.39999997616,,154111.39999997616,2021-10-26T09:03:59.009Z,154171.604,1635238879,full,ni_sequenzen,NI_Sequenzen,,,,,,,,,,,,,,
,Screen_2,canvas.Screen,0_2_29_1,,skipped,30,154112,,,154111.39999997616,,154112,2021-10-26T09:03:59.010Z,154171.604,1635238879,full,ni_sequenzen,NI_Sequenzen,,,,,,,,,,,,,,
,Screen_3,canvas.Screen,0_2_29_2,,skipped,30,154112.5,,,154111.39999997616,,154112.59999990463,2021-10-26T09:03:59.010Z,154171.604,1635238879,full,ni_sequenzen,NI_Sequenzen,,,,,,,,,,,,,,
,Screen_4,canvas.Screen,0_2_29_3,,skipped,30,154113,,,154111.39999997616,,154113.09999990463,2021-10-26T09:03:59.011Z,154171.604,1635238879,full,ni_sequenzen,NI_Sequenzen,,,,,,,,,,,,,,
,Screen_5,canvas.Screen,0_2_29_4,,skipped,30,154113.59999990463,,,154111.39999997616,,154113.59999990463,2021-10-26T09:03:59.011Z,154171.604,1635238879,full,ni_sequenzen,NI_Sequenzen,,,,,,,,,,,,,,
,Screen_6,canvas.Screen,0_2_29_5,,skipped,30,154114.09999990463,,,154111.39999997616,,154114.19999992847,2021-10-26T09:03:59.012Z,154171.604,1635238879,full,ni_sequenzen,NI_Sequenzen,,,,,,,,,,,,,,
,Sequence,flow.Sequence,0_2_29,,completion,30,154110.79999995232,,,154111.39999997616,,154114.29999995232,2021-10-26T09:03:59.012Z,154171.604,1635238879,full,ni_sequenzen,NI_Sequenzen,,,,,,,,,,,,,,
,Instructions_II,flow.Loop,0_2,,completion,,70397.39999997616,70384.371,70400.761,154111.39999997616,83710.63899997616,154114.39999997616,2021-10-26T09:03:59.012Z,154171.604,1635238879,full,ni_sequenzen,NI_Sequenzen,,,,,,,,,,,,,,
,Move,canvas.Screen,0_3_0_0_0_0,right,response,,154140,154140.192,154171.604,159257.59999990463,5085.9959999046405,159258.89999997616,2021-10-26T09:04:04.156Z,159287.701,1635238879,full,ni_sequenzen,NI_Sequenzen,1,0,,,,,,,,,,,,
,Move,canvas.Screen,0_3_0_0_0_1,down,response,,159275.59999990463,159270.77,159287.701,160742.39999997616,1454.6989999761572,160743.29999995232,2021-10-26T09:04:05.641Z,160787.013,1635238879,full,ni_sequenzen,NI_Sequenzen,2,0,,,,,,,,,,,,
,Move,canvas.Screen,0_3_0_0_0_2,right,response,,160749.69999992847,160736.992,160787.013,161167.69999992847,380.68699992846814,161168.59999990463,2021-10-26T09:04:06.066Z,161187.404,1635238879,full,ni_sequenzen,NI_Sequenzen,3,0,,,,,,,,,,,,
,Move,canvas.Screen,0_3_0_0_0_3,down,response,,161174.79999995232,161170.151,161187.404,161498.5,311.09599999999045,161499.29999995232,2021-10-26T09:04:06.397Z,161569.82,1635238879,full,ni_sequenzen,NI_Sequenzen,4,0,,,,,,,,,,,,
,Move,canvas.Screen,0_3_0_0_0_4,-999,skipped,,161505.69999992847,,,161498.5,,161506,2021-10-26T09:04:06.403Z,161569.82,1635238879,full,ni_sequenzen,NI_Sequenzen,5,0,,,,,,,,,,,,
,Move,canvas.Screen,0_3_0_0_0_5,-999,skipped,,161512.5,,,161498.5,,161512.69999992847,2021-10-26T09:04:06.410Z,161569.82,1635238879,full,ni_sequenzen,NI_Sequenzen,6,0,,,,,,,,,,,,
,Move,canvas.Screen,0_3_0_0_0_6,-999,skipped,,161520.5,,,161498.5,,161520.79999995232,2021-10-26T09:04:06.418Z,161569.82,1635238879,full,ni_sequenzen,NI_Sequenzen,7,0,,,,,,,,,,,,
,Move,canvas.Screen,0_3_0_0_0_7,-999,skipped,,161525.89999997616,,,161498.5,,161526.09999990463,2021-10-26T09:04:06.424Z,161569.82,1635238879,full,ni_sequenzen,NI_Sequenzen,8,0,,,,,,,,,,,,
,Move,canvas.Screen,0_3_0_0_0_8,-999,skipped,,161529.59999990463,,,161498.5,,161529.69999992847,2021-10-26T09:04:06.427Z,161569.82,1635238879,full,ni_sequenzen,NI_Sequenzen,9,0,,,,,,,,,,,,
,Move,canvas.Screen,0_3_0_0_0_9,-999,skipped,,161534.59999990463,,,161498.5,,161534.69999992847,2021-10-26T09:04:06.432Z,161569.82,1635238879,full,ni_sequenzen,NI_Sequenzen,10,0,,,,,,,,,,,,
,Move,canvas.Screen,0_3_0_0_0_10,-999,skipped,,161539.79999995232,,,161498.5,,161540,2021-10-26T09:04:06.438Z,161569.82,1635238879,full,ni_sequenzen,NI_Sequenzen,11,0,,,,,,,,,,,,
,Move,canvas.Screen,0_3_0_0_0_11,-999,skipped,,161544.89999997616,,,161498.5,,161545,2021-10-26T09:04:06.443Z,161569.82,1635238879,full,ni_sequenzen,NI_Sequenzen,12,0,,,,,,,,,,,,
,Move,canvas.Screen,0_3_0_0_0_12,-999,skipped,,161550.39999997616,,,161498.5,,161550.59999990463,2021-10-26T09:04:06.448Z,161569.82,1635238879,full,ni_sequenzen,NI_Sequenzen,13,0,,,,,,,,,,,,
,Move,canvas.Screen,0_3_0_0_0_13,-999,skipped,,161554.79999995232,,,161498.5,,161554.89999997616,2021-10-26T09:04:06.452Z,161569.82,1635238879,full,ni_sequenzen,NI_Sequenzen,14,0,,,,,,,,,,,,
,Move,canvas.Screen,0_3_0_0_0_14,-999,skipped,,161558.29999995232,,,161498.5,,161558.39999997616,2021-10-26T09:04:06.456Z,161569.82,1635238879,full,ni_sequenzen,NI_Sequenzen,15,0,,,,,,,,,,,,
,Loop,flow.Loop,0_3_0_0_0,-999,completion,,154137,154140.192,154171.604,161498.5,7326.896000000008,161558.59999990463,2021-10-26T09:04:06.456Z,161569.82,1635238879,full,ni_sequenzen,NI_Sequenzen,,0,,,,,,,,,,,,
,Feedback,canvas.Screen,0_3_0_0_1,,timeout,,161561,161553.392,161569.82,165551.381,4014.597999999998,165553.59999990463,2021-10-26T09:04:10.451Z,165584.418,1635238879,full,ni_sequenzen,NI_Sequenzen,,0,,,,,,,,,,,,
,Trial,flow.Sequence,0_3_0_0,,completion,,154127.69999992847,154140.192,154171.604,165551.381,11379.777000000002,165553.89999997616,2021-10-26T09:04:10.451Z,165601.073,1635238879,full,ni_sequenzen,NI_Sequenzen,,0,,,,,,,,,,,,
,Move,canvas.Screen,0_3_0_1_0_0,right,response,,165586.39999997616,165584.418,165601.073,168218.69999992847,2617.6269999284705,168219.69999992847,2021-10-26T09:04:13.117Z,168249.685,1635238879,full,ni_sequenzen,NI_Sequenzen,1,1,,,,,,,,,,,,
,Move,canvas.Screen,0_3_0_1_0_1,down,response,,168225.59999990463,168216.233,168249.685,168563.29999995232,313.6149999523186,168564.5,2021-10-26T09:04:13.462Z,168582.983,1635238879,full,ni_sequenzen,NI_Sequenzen,2,1,,,,,,,,,,,,
,Move,canvas.Screen,0_3_0_1_0_2,right,response,,168573.79999995232,168566.259,168582.983,168837.59999990463,254.61699990462512,168838.79999995232,2021-10-26T09:04:13.736Z,168849.469,1635238879,full,ni_sequenzen,NI_Sequenzen,3,1,,,,,,,,,,,,
,Move,canvas.Screen,0_3_0_1_0_3,down,response,,168844.5,168832.71,168849.469,169058.5,209.03099999998813,169059.5,2021-10-26T09:04:13.957Z,169132.586,1635238879,full,ni_sequenzen,NI_Sequenzen,4,1,,,,,,,,,,,,
,Move,canvas.Screen,0_3_0_1_0_4,-999,skipped,,169067.09999990463,,,169058.5,,169067.5,2021-10-26T09:04:13.965Z,169132.586,1635238879,full,ni_sequenzen,NI_Sequenzen,5,1,,,,,,,,,,,,
,Move,canvas.Screen,0_3_0_1_0_5,-999,skipped,,169073.29999995232,,,169058.5,,169073.39999997616,2021-10-26T09:04:13.971Z,169132.586,1635238879,full,ni_sequenzen,NI_Sequenzen,6,1,,,,,,,,,,,,
,Move,canvas.Screen,0_3_0_1_0_6,-999,skipped,,169078.69999992847,,,169058.5,,169079,2021-10-26T09:04:13.976Z,169132.586,1635238879,full,ni_sequenzen,NI_Sequenzen,7,1,,,,,,,,,,,,
,Move,canvas.Screen,0_3_0_1_0_7,-999,skipped,,169084.69999992847,,,169058.5,,169084.79999995232,2021-10-26T09:04:13.982Z,169132.586,1635238879,full,ni_sequenzen,NI_Sequenzen,8,1,,,,,,,,,,,,
,Move,canvas.Screen,0_3_0_1_0_8,-999,skipped,,169089.39999997616,,,169058.5,,169089.5,2021-10-26T09:04:13.987Z,169132.586,1635238879,full,ni_sequenzen,NI_Sequenzen,9,1,,,,,,,,,,,,
,Move,canvas.Screen,0_3_0_1_0_9,-999,skipped,,169094.09999990463,,,169058.5,,169094.29999995232,2021-10-26T09:04:13.992Z,169132.586,1635238879,full,ni_sequenzen,NI_Sequenzen,10,1,,,,,,,,,,,,
,Move,canvas.Screen,0_3_0_1_0_10,-999,skipped,,169098,,,169058.5,,169098.19999992847,2021-10-26T09:04:13.996Z,169132.586,1635238879,full,ni_sequenzen,NI_Sequenzen,11,1,,,,,,,,,,,,
,Move,canvas.Screen,0_3_0_1_0_11,-999,skipped,,169104.5,,,169058.5,,169104.59999990463,2021-10-26T09:04:14.002Z,169132.586,1635238879,full,ni_sequenzen,NI_Sequenzen,12,1,,,,,,,,,,,,
,Move,canvas.Screen,0_3_0_1_0_12,-999,skipped,,169108,,,169058.5,,169108.19999992847,2021-10-26T09:04:14.006Z,169132.586,1635238879,full,ni_sequenzen,NI_Sequenzen,13,1,,,,,,,,,,,,
,Move,canvas.Screen,0_3_0_1_0_13,-999,skipped,,169111.5,,,169058.5,,169111.59999990463,2021-10-26T09:04:14.009Z,169132.586,1635238879,full,ni_sequenzen,NI_Sequenzen,14,1,,,,,,,,,,,,
,Move,canvas.Screen,0_3_0_1_0_14,-999,skipped,,169115,,,169058.5,,169115.19999992847,2021-10-26T09:04:14.013Z,169132.586,1635238879,full,ni_sequenzen,NI_Sequenzen,15,1,,,,,,,,,,,,
,Loop,flow.Loop,0_3_0_1_0,-999,completion,,165580.69999992847,165584.418,165601.073,169058.5,3457.426999999996,169115.29999995232,2021-10-26T09:04:14.013Z,169132.586,1635238879,full,ni_sequenzen,NI_Sequenzen,,1,,,,,,,,,,,,
,Feedback,canvas.Screen,0_3_0_1_1,,timeout,,169118.69999992847,169116.18,169132.586,173114.048,4031.3099999999977,173115.19999992847,2021-10-26T09:04:18.013Z,173163.896,1635238879,full,ni_sequenzen,NI_Sequenzen,,1,,,,,,,,,,,,
,Trial,flow.Sequence,0_3_0_1,,completion,,165554.59999990463,165584.418,165601.073,173114.048,7512.975000000006,173115.5,2021-10-26T09:04:18.013Z,173180.583,1635238879,full,ni_sequenzen,NI_Sequenzen,,1,,,,,,,,,,,,
,Move,canvas.Screen,0_3_0_2_0_0,right,response,,173168.39999997616,173163.896,173180.583,177027.29999995232,3846.716999952303,177028.39999997616,2021-10-26T09:04:21.926Z,177045.136,1635238879,full,ni_sequenzen,NI_Sequenzen,1,2,,,,,,,,,,,,
,Move,canvas.Screen,0_3_0_2_0_1,down,response,,177037.29999995232,177028.304,177045.136,177756.39999997616,711.2639999761595,177757.59999990463,2021-10-26T09:04:22.655Z,177794.704,1635238879,full,ni_sequenzen,NI_Sequenzen,2,2,,,,,,,,,,,,
,Move,canvas.Screen,0_3_0_2_0_2,right,response,,177765.5,177761.695,177794.704,178040.59999990463,245.89599990463466,178041.89999997616,2021-10-26T09:04:22.939Z,178061.269,1635238879,full,ni_sequenzen,NI_Sequenzen,3,2,,,,,,,,,,,,
,Move,canvas.Screen,0_3_0_2_0_3,down,response,,178051,178044.692,178061.269,178294.29999995232,233.03099995231605,178296.19999992847,2021-10-26T09:04:23.194Z,178361.22,1635238879,full,ni_sequenzen,NI_Sequenzen,4,2,,,,,,,,,,,,
,Move,canvas.Screen,0_3_0_2_0_4,-999,skipped,,178303,,,178294.29999995232,,178303.39999997616,2021-10-26T09:04:23.201Z,178361.22,1635238879,full,ni_sequenzen,NI_Sequenzen,5,2,,,,,,,,,,,,
,Move,canvas.Screen,0_3_0_2_0_5,-999,skipped,,178313,,,178294.29999995232,,178313.5,2021-10-26T09:04:23.211Z,178361.22,1635238879,full,ni_sequenzen,NI_Sequenzen,6,2,,,,,,,,,,,,
,Move,canvas.Screen,0_3_0_2_0_6,-999,skipped,,178324.59999990463,,,178294.29999995232,,178324.59999990463,2021-10-26T09:04:23.222Z,178361.22,1635238879,full,ni_sequenzen,NI_Sequenzen,7,2,,,,,,,,,,,,
,Move,canvas.Screen,0_3_0_2_0_7,-999,skipped,,178326.79999995232,,,178294.29999995232,,178327,2021-10-26T09:04:23.225Z,178361.22,1635238879,full,ni_sequenzen,NI_Sequenzen,8,2,,,,,,,,,,,,
,Move,canvas.Screen,0_3_0_2_0_8,-999,skipped,,178329.79999995232,,,178294.29999995232,,178329.79999995232,2021-10-26T09:04:23.227Z,178361.22,1635238879,full,ni_sequenzen,NI_Sequenzen,9,2,,,,,,,,,,,,
,Move,canvas.Screen,0_3_0_2_0_9,-999,skipped,,178332.59999990463,,,178294.29999995232,,178332.79999995232,2021-10-26T09:04:23.230Z,178361.22,1635238879,full,ni_sequenzen,NI_Sequenzen,10,2,,,,,,,,,,,,
,Move,canvas.Screen,0_3_0_2_0_10,-999,skipped,,178334.79999995232,,,178294.29999995232,,178334.89999997616,2021-10-26T09:04:23.232Z,178361.22,1635238879,full,ni_sequenzen,NI_Sequenzen,11,2,,,,,,,,,,,,
,Move,canvas.Screen,0_3_0_2_0_11,-999,skipped,,178337.09999990463,,,178294.29999995232,,178337.19999992847,2021-10-26T09:04:23.235Z,178361.22,1635238879,full,ni_sequenzen,NI_Sequenzen,12,2,,,,,,,,,,,,
,Move,canvas.Screen,0_3_0_2_0_12,-999,skipped,,178339.59999990463,,,178294.29999995232,,178339.69999992847,2021-10-26T09:04:23.237Z,178361.22,1635238879,full,ni_sequenzen,NI_Sequenzen,13,2,,,,,,,,,,,,
,Move,canvas.Screen,0_3_0_2_0_13,-999,skipped,,178342.59999990463,,,178294.29999995232,,178342.79999995232,2021-10-26T09:04:23.240Z,178361.22,1635238879,full,ni_sequenzen,NI_Sequenzen,14,2,,,,,,,,,,,,
,Move,canvas.Screen,0_3_0_2_0_14,-999,skipped,,178345.39999997616,,,178294.29999995232,,178345.5,2021-10-26T09:04:23.243Z,178361.22,1635238879,full,ni_sequenzen,NI_Sequenzen,15,2,,,,,,,,,,,,
,Loop,flow.Loop,0_3_0_2_0,-999,completion,,173162.89999997616,173163.896,173180.583,178294.29999995232,5113.716999952303,178345.59999990463,2021-10-26T09:04:23.243Z,178361.22,1635238879,full,ni_sequenzen,NI_Sequenzen,,2,,,,,,,,,,,,
,Feedback,canvas.Screen,0_3_0_2_1,,timeout,,178347.5,178344.482,178361.22,182342.659,4014.445000000007,182344.19999992847,2021-10-26T09:04:27.242Z,182375.665,1635238879,full,ni_sequenzen,NI_Sequenzen,,2,,,,,,,,,,,,
,Trial,flow.Sequence,0_3_0_2,,completion,,173116.09999990463,173163.896,173180.583,182342.659,9162.076000000001,182344.59999990463,2021-10-26T09:04:27.243Z,182408.982,1635238879,full,ni_sequenzen,NI_Sequenzen,,2,,,,,,,,,,,,
,Move,canvas.Screen,0_3_0_3_0_0,down,response,,182384.19999992847,182375.665,182408.982,186158.19999992847,3749.2179999284854,186160.29999995232,2021-10-26T09:04:31.059Z,186173.767,1635238879,full,ni_sequenzen,NI_Sequenzen,1,3,,,,,,,,,,,,
,Move,canvas.Screen,0_3_0_3_0_1,right,response,,186167.29999995232,186156.879,186173.767,186619.29999995232,445.53299995232373,186620.39999997616,2021-10-26T09:04:31.519Z,186640.123,1635238879,full,ni_sequenzen,NI_Sequenzen,2,3,,,,,,,,,,,,
,Move,canvas.Screen,0_3_0_3_0_2,right,response,,186629.5,186623.639,186640.123,187384.69999992847,744.5769999284821,187386.09999990463,2021-10-26T09:04:32.284Z,187423.007,1635238879,full,ni_sequenzen,NI_Sequenzen,3,3,,,,,,,,,,,,
,Move,canvas.Screen,0_3_0_3_0_3,down,response,,187393.5,187389.941,187423.007,187627,203.99299999998766,187628.29999995232,2021-10-26T09:04:32.527Z,187689.55,1635238879,full,ni_sequenzen,NI_Sequenzen,4,3,,,,,,,,,,,,
,Move,canvas.Screen,0_3_0_3_0_4,-999,skipped,,187634.59999990463,,,187627,,187634.89999997616,2021-10-26T09:04:32.533Z,187689.55,1635238879,full,ni_sequenzen,NI_Sequenzen,5,3,,,,,,,,,,,,
,Move,canvas.Screen,0_3_0_3_0_5,-999,skipped,,187640.5,,,187627,,187640.79999995232,2021-10-26T09:04:32.539Z,187689.55,1635238879,full,ni_sequenzen,NI_Sequenzen,6,3,,,,,,,,,,,,
,Move,canvas.Screen,0_3_0_3_0_6,-999,skipped,,187646.09999990463,,,187627,,187646.29999995232,2021-10-26T09:04:32.545Z,187689.55,1635238879,full,ni_sequenzen,NI_Sequenzen,7,3,,,,,,,,,,,,
,Move,canvas.Screen,0_3_0_3_0_7,-999,skipped,,187652.89999997616,,,187627,,187653.19999992847,2021-10-26T09:04:32.551Z,187689.55,1635238879,full,ni_sequenzen,NI_Sequenzen,8,3,,,,,,,,,,,,
,Move,canvas.Screen,0_3_0_3_0_8,-999,skipped,,187655.69999992847,,,187627,,187655.89999997616,2021-10-26T09:04:32.554Z,187689.55,1635238879,full,ni_sequenzen,NI_Sequenzen,9,3,,,,,,,,,,,,
,Move,canvas.Screen,0_3_0_3_0_9,-999,skipped,,187658.69999992847,,,187627,,187658.89999997616,2021-10-26T09:04:32.557Z,187689.55,1635238879,full,ni_sequenzen,NI_Sequenzen,10,3,,,,,,,,,,,,
,Move,canvas.Screen,0_3_0_3_0_10,-999,skipped,,187662,,,187627,,187662.09999990463,2021-10-26T09:04:32.560Z,187689.55,1635238879,full,ni_sequenzen,NI_Sequenzen,11,3,,,,,,,,,,,,
,Move,canvas.Screen,0_3_0_3_0_11,-999,skipped,,187664.29999995232,,,187627,,187664.39999997616,2021-10-26T09:04:32.563Z,187689.55,1635238879,full,ni_sequenzen,NI_Sequenzen,12,3,,,,,,,,,,,,
,Move,canvas.Screen,0_3_0_3_0_12,-999,skipped,,187666.59999990463,,,187627,,187666.59999990463,2021-10-26T09:04:32.565Z,187689.55,1635238879,full,ni_sequenzen,NI_Sequenzen,13,3,,,,,,,,,,,,
,Move,canvas.Screen,0_3_0_3_0_13,-999,skipped,,187668.79999995232,,,187627,,187669,2021-10-26T09:04:32.567Z,187689.55,1635238879,full,ni_sequenzen,NI_Sequenzen,14,3,,,,,,,,,,,,
,Move,canvas.Screen,0_3_0_3_0_14,-999,skipped,,187671.89999997616,,,187627,,187672,2021-10-26T09:04:32.570Z,187689.55,1635238879,full,ni_sequenzen,NI_Sequenzen,15,3,,,,,,,,,,,,
,Loop,flow.Loop,0_3_0_3_0,-999,completion,,182379.29999995232,182375.665,182408.982,187627,5218.018000000011,187672.09999990463,2021-10-26T09:04:32.570Z,187689.55,1635238879,full,ni_sequenzen,NI_Sequenzen,,3,,,,,,,,,,,,
,Feedback,canvas.Screen,0_3_0_3_1,,timeout,,187675,187672.906,187689.55,191671.077,4014.668000000005,191672.19999992847,2021-10-26T09:04:36.570Z,191704.218,1635238879,full,ni_sequenzen,NI_Sequenzen,,3,,,,,,,,,,,,
,Trial,flow.Sequence,0_3_0_3,,completion,,182345.29999995232,182375.665,182408.982,191671.077,9262.095000000001,191672.59999990463,2021-10-26T09:04:36.571Z,191720.751,1635238879,full,ni_sequenzen,NI_Sequenzen,,3,,,,,,,,,,,,
,Move,canvas.Screen,0_3_0_4_0_0,right,response,,191709.39999997616,191704.218,191720.751,195292.19999992847,3571.448999928485,195293.39999997616,2021-10-26T09:04:40.192Z,195302.313,1635238879,full,ni_sequenzen,NI_Sequenzen,1,4,,,,,,,,,,,,
,Move,canvas.Screen,0_3_0_4_0_1,down,response,,195299,195285.45,195302.313,195650.69999992847,348.3869999284798,195651.59999990463,2021-10-26T09:04:40.550Z,195668.769,1635238879,full,ni_sequenzen,NI_Sequenzen,2,4,,,,,,,,,,,,
,Move,canvas.Screen,0_3_0_4_0_2,right,response,,195657.59999990463,195652.259,195668.769,196271.5,602.7309999999998,196272.39999997616,2021-10-26T09:04:41.171Z,196301.71,1635238879,full,ni_sequenzen,NI_Sequenzen,3,4,,,,,,,,,,,,
,Move,canvas.Screen,0_3_0_4_0_3,down,response,,196278.19999992847,196268.502,196301.71,196538.09999990463,236.38999990464072,196539.19999992847,2021-10-26T09:04:41.437Z,196618.22,1635238879,full,ni_sequenzen,NI_Sequenzen,4,4,,,,,,,,,,,,
,Move,canvas.Screen,0_3_0_4_0_4,-999,skipped,,196544.79999995232,,,196538.09999990463,,196545,2021-10-26T09:04:41.443Z,196618.22,1635238879,full,ni_sequenzen,NI_Sequenzen,5,4,,,,,,,,,,,,
,Move,canvas.Screen,0_3_0_4_0_5,-999,skipped,,196549.5,,,196538.09999990463,,196549.59999990463,2021-10-26T09:04:41.448Z,196618.22,1635238879,full,ni_sequenzen,NI_Sequenzen,6,4,,,,,,,,,,,,
,Move,canvas.Screen,0_3_0_4_0_6,-999,skipped,,196557.19999992847,,,196538.09999990463,,196557.39999997616,2021-10-26T09:04:41.456Z,196618.22,1635238879,full,ni_sequenzen,NI_Sequenzen,7,4,,,,,,,,,,,,
,Move,canvas.Screen,0_3_0_4_0_7,-999,skipped,,196563.79999995232,,,196538.09999990463,,196564,2021-10-26T09:04:41.462Z,196618.22,1635238879,full,ni_sequenzen,NI_Sequenzen,8,4,,,,,,,,,,,,
,Move,canvas.Screen,0_3_0_4_0_8,-999,skipped,,196570.09999990463,,,196538.09999990463,,196570.29999995232,2021-10-26T09:04:41.469Z,196618.22,1635238879,full,ni_sequenzen,NI_Sequenzen,9,4,,,,,,,,,,,,
,Move,canvas.Screen,0_3_0_4_0_9,-999,skipped,,196576.39999997616,,,196538.09999990463,,196576.59999990463,2021-10-26T09:04:41.475Z,196618.22,1635238879,full,ni_sequenzen,NI_Sequenzen,10,4,,,,,,,,,,,,
,Move,canvas.Screen,0_3_0_4_0_10,-999,skipped,,196584.69999992847,,,196538.09999990463,,196585.29999995232,2021-10-26T09:04:41.484Z,196618.22,1635238879,full,ni_sequenzen,NI_Sequenzen,11,4,,,,,,,,,,,,
,Move,canvas.Screen,0_3_0_4_0_11,-999,skipped,,196591.19999992847,,,196538.09999990463,,196591.39999997616,2021-10-26T09:04:41.490Z,196618.22,1635238879,full,ni_sequenzen,NI_Sequenzen,12,4,,,,,,,,,,,,
,Move,canvas.Screen,0_3_0_4_0_12,-999,skipped,,196595.59999990463,,,196538.09999990463,,196595.79999995232,2021-10-26T09:04:41.494Z,196618.22,1635238879,full,ni_sequenzen,NI_Sequenzen,13,4,,,,,,,,,,,,
,Move,canvas.Screen,0_3_0_4_0_13,-999,skipped,,196599.5,,,196538.09999990463,,196599.79999995232,2021-10-26T09:04:41.498Z,196618.22,1635238879,full,ni_sequenzen,NI_Sequenzen,14,4,,,,,,,,,,,,
,Move,canvas.Screen,0_3_0_4_0_14,-999,skipped,,196605,,,196538.09999990463,,196605.09999990463,2021-10-26T09:04:41.503Z,196618.22,1635238879,full,ni_sequenzen,NI_Sequenzen,15,4,,,,,,,,,,,,
,Loop,flow.Loop,0_3_0_4_0,-999,completion,,191707.29999995232,191704.218,191720.751,196538.09999990463,4817.348999904643,196605.39999997616,2021-10-26T09:04:41.504Z,196618.22,1635238879,full,ni_sequenzen,NI_Sequenzen,,4,,,,,,,,,,,,
,Feedback,canvas.Screen,0_3_0_4_1,,timeout,,196608.19999992847,196601.631,196618.22,200599.684,4047.869000000006,200600.69999992847,2021-10-26T09:04:45.499Z,200666.089,1635238879,full,ni_sequenzen,NI_Sequenzen,,4,,,,,,,,,,,,
,Trial,flow.Sequence,0_3_0_4,,completion,,191673.5,191704.218,191720.751,200599.684,8878.93300000002,200601,2021-10-26T09:04:45.499Z,200682.923,1635238879,full,ni_sequenzen,NI_Sequenzen,,4,,,,,,,,,,,,
,Move,canvas.Screen,0_3_0_5_0_0,left,response,,200667.19999992847,200666.089,200682.923,201531.29999995232,848.3769999523065,201533.09999990463,2021-10-26T09:04:46.431Z,201582.37,1635238879,full,ni_sequenzen,NI_Sequenzen,1,5,,,,,,,,,,,,
,Move,canvas.Screen,0_3_0_5_0_1,down,response,,201539.19999992847,201532.402,201582.37,202733.39999997616,1151.0299999761628,202734.89999997616,2021-10-26T09:04:47.633Z,202748.423,1635238879,full,ni_sequenzen,NI_Sequenzen,2,5,,,,,,,,,,,,
,Move,canvas.Screen,0_3_0_5_0_2,down,response,,202741,202731.83,202748.423,203122.89999997616,374.47699997614836,203123.89999997616,2021-10-26T09:04:48.022Z,203152.394,1635238879,full,ni_sequenzen,NI_Sequenzen,3,5,,,,,,,,,,,,
,Move,canvas.Screen,0_3_0_5_0_3,left,response,,203130.59999990463,203115.115,203152.394,204995.69999992847,1843.3059999284742,204997.09999990463,2021-10-26T09:04:49.895Z,205064.164,1635238879,full,ni_sequenzen,NI_Sequenzen,4,5,,,,,,,,,,,,
,Move,canvas.Screen,0_3_0_5_0_4,-999,skipped,,205003.5,,,204995.69999992847,,205003.79999995232,2021-10-26T09:04:49.902Z,205064.164,1635238879,full,ni_sequenzen,NI_Sequenzen,5,5,,,,,,,,,,,,
,Move,canvas.Screen,0_3_0_5_0_5,-999,skipped,,205009.69999992847,,,204995.69999992847,,205010,2021-10-26T09:04:49.908Z,205064.164,1635238879,full,ni_sequenzen,NI_Sequenzen,6,5,,,,,,,,,,,,
,Move,canvas.Screen,0_3_0_5_0_6,-999,skipped,,205016.29999995232,,,204995.69999992847,,205016.5,2021-10-26T09:04:49.915Z,205064.164,1635238879,full,ni_sequenzen,NI_Sequenzen,7,5,,,,,,,,,,,,
,Move,canvas.Screen,0_3_0_5_0_7,-999,skipped,,205023.09999990463,,,204995.69999992847,,205023.29999995232,2021-10-26T09:04:49.922Z,205064.164,1635238879,full,ni_sequenzen,NI_Sequenzen,8,5,,,,,,,,,,,,
,Move,canvas.Screen,0_3_0_5_0_8,-999,skipped,,205026.5,,,204995.69999992847,,205026.59999990463,2021-10-26T09:04:49.925Z,205064.164,1635238879,full,ni_sequenzen,NI_Sequenzen,9,5,,,,,,,,,,,,
,Move,canvas.Screen,0_3_0_5_0_9,-999,skipped,,205029,,,204995.69999992847,,205029.19999992847,2021-10-26T09:04:49.927Z,205064.164,1635238879,full,ni_sequenzen,NI_Sequenzen,10,5,,,,,,,,,,,,
,Move,canvas.Screen,0_3_0_5_0_10,-999,skipped,,205033.29999995232,,,204995.69999992847,,205033.39999997616,2021-10-26T09:04:49.932Z,205064.164,1635238879,full,ni_sequenzen,NI_Sequenzen,11,5,,,,,,,,,,,,
,Move,canvas.Screen,0_3_0_5_0_11,-999,skipped,,205035.89999997616,,,204995.69999992847,,205036,2021-10-26T09:04:49.934Z,205064.164,1635238879,full,ni_sequenzen,NI_Sequenzen,12,5,,,,,,,,,,,,
,Move,canvas.Screen,0_3_0_5_0_12,-999,skipped,,205038.39999997616,,,204995.69999992847,,205038.59999990463,2021-10-26T09:04:49.937Z,205064.164,1635238879,full,ni_sequenzen,NI_Sequenzen,13,5,,,,,,,,,,,,
,Move,canvas.Screen,0_3_0_5_0_13,-999,skipped,,205041.39999997616,,,204995.69999992847,,205041.59999990463,2021-10-26T09:04:49.940Z,205064.164,1635238879,full,ni_sequenzen,NI_Sequenzen,14,5,,,,,,,,,,,,
,Move,canvas.Screen,0_3_0_5_0_14,-999,skipped,,205044.79999995232,,,204995.69999992847,,205044.89999997616,2021-10-26T09:04:49.943Z,205064.164,1635238879,full,ni_sequenzen,NI_Sequenzen,15,5,,,,,,,,,,,,
,Loop,flow.Loop,0_3_0_5_0,-999,completion,,200642.29999995232,200666.089,200682.923,204995.69999992847,4312.776999928465,205045,2021-10-26T09:04:49.943Z,205064.164,1635238879,full,ni_sequenzen,NI_Sequenzen,,5,,,,,,,,,,,,
,Feedback,canvas.Screen,0_3_0_5_1,,timeout,,205047.39999997616,205047.133,205064.164,209045.175,4014.2000000000116,209046.29999995232,2021-10-26T09:04:53.945Z,209078.364,1635238879,full,ni_sequenzen,NI_Sequenzen,,5,,,,,,,,,,,,
,Trial,flow.Sequence,0_3_0_5,,completion,,200601.69999992847,200666.089,200682.923,209045.175,8362.251999999979,209046.59999990463,2021-10-26T09:04:53.945Z,209095.061,1635238879,full,ni_sequenzen,NI_Sequenzen,,5,,,,,,,,,,,,
,Move,canvas.Screen,0_3_0_6_0_0,left,response,,209080.29999995232,209078.364,209095.061,209820.09999990463,725.0389999046456,209821,2021-10-26T09:04:54.719Z,209844.774,1635238879,full,ni_sequenzen,NI_Sequenzen,1,6,,,,,,,,,,,,
,Move,canvas.Screen,0_3_0_6_0_1,down,response,,209827.89999997616,209828.015,209844.774,210507.5,662.7259999999951,210508.5,2021-10-26T09:04:55.407Z,210527.751,1635238879,full,ni_sequenzen,NI_Sequenzen,2,6,,,,,,,,,,,,
,Move,canvas.Screen,0_3_0_6_0_2,down,response,,210515.69999992847,210511.295,210527.751,210936.39999997616,408.64899997616885,210937.39999997616,2021-10-26T09:04:55.836Z,210977.396,1635238879,full,ni_sequenzen,NI_Sequenzen,3,6,,,,,,,,,,,,
,Move,canvas.Screen,0_3_0_6_0_3,left,response,,210946.89999997616,210944.332,210977.396,211966.39999997616,989.0039999761502,211967.5,2021-10-26T09:04:56.866Z,212060.312,1635238879,full,ni_sequenzen,NI_Sequenzen,4,6,,,,,,,,,,,,
,Move,canvas.Screen,0_3_0_6_0_4,-999,skipped,,211973.89999997616,,,211966.39999997616,,211974.19999992847,2021-10-26T09:04:56.872Z,212060.312,1635238879,full,ni_sequenzen,NI_Sequenzen,5,6,,,,,,,,,,,,
,Move,canvas.Screen,0_3_0_6_0_5,-999,skipped,,211983.09999990463,,,211966.39999997616,,211983.29999995232,2021-10-26T09:04:56.882Z,212060.312,1635238879,full,ni_sequenzen,NI_Sequenzen,6,6,,,,,,,,,,,,
,Move,canvas.Screen,0_3_0_6_0_6,-999,skipped,,211988.79999995232,,,211966.39999997616,,211989,2021-10-26T09:04:56.887Z,212060.312,1635238879,full,ni_sequenzen,NI_Sequenzen,7,6,,,,,,,,,,,,
,Move,canvas.Screen,0_3_0_6_0_7,-999,skipped,,211997.79999995232,,,211966.39999997616,,211998.09999990463,2021-10-26T09:04:56.896Z,212060.312,1635238879,full,ni_sequenzen,NI_Sequenzen,8,6,,,,,,,,,,,,
,Move,canvas.Screen,0_3_0_6_0_8,-999,skipped,,212003.09999990463,,,211966.39999997616,,212003.19999992847,2021-10-26T09:04:56.902Z,212060.312,1635238879,full,ni_sequenzen,NI_Sequenzen,9,6,,,,,,,,,,,,
,Move,canvas.Screen,0_3_0_6_0_9,-999,skipped,,212008.09999990463,,,211966.39999997616,,212008.39999997616,2021-10-26T09:04:56.907Z,212060.312,1635238879,full,ni_sequenzen,NI_Sequenzen,10,6,,,,,,,,,,,,
,Move,canvas.Screen,0_3_0_6_0_10,-999,skipped,,212015.89999997616,,,211966.39999997616,,212016.09999990463,2021-10-26T09:04:56.914Z,212060.312,1635238879,full,ni_sequenzen,NI_Sequenzen,11,6,,,,,,,,,,,,
,Move,canvas.Screen,0_3_0_6_0_11,-999,skipped,,212021.09999990463,,,211966.39999997616,,212021.29999995232,2021-10-26T09:04:56.920Z,212060.312,1635238879,full,ni_sequenzen,NI_Sequenzen,12,6,,,,,,,,,,,,
,Move,canvas.Screen,0_3_0_6_0_12,-999,skipped,,212026.39999997616,,,211966.39999997616,,212026.5,2021-10-26T09:04:56.925Z,212060.312,1635238879,full,ni_sequenzen,NI_Sequenzen,13,6,,,,,,,,,,,,
,Move,canvas.Screen,0_3_0_6_0_13,-999,skipped,,212032.89999997616,,,211966.39999997616,,212033.09999990463,2021-10-26T09:04:56.931Z,212060.312,1635238879,full,ni_sequenzen,NI_Sequenzen,14,6,,,,,,,,,,,,
,Move,canvas.Screen,0_3_0_6_0_14,-999,skipped,,212039,,,211966.39999997616,,212039.09999990463,2021-10-26T09:04:56.937Z,212060.312,1635238879,full,ni_sequenzen,NI_Sequenzen,15,6,,,,,,,,,,,,
,Loop,flow.Loop,0_3_0_6_0,-999,completion,,209077.09999990463,209078.364,209095.061,211966.39999997616,2871.338999976171,212039.5,2021-10-26T09:04:56.938Z,212060.312,1635238879,full,ni_sequenzen,NI_Sequenzen,,6,,,,,,,,,,,,
,Feedback,canvas.Screen,0_3_0_6_1,,timeout,,212043.19999992847,212043.546,212060.312,216041.681,4014.415000000008,216042.79999995232,2021-10-26T09:05:00.941Z,216074.727,1635238879,full,ni_sequenzen,NI_Sequenzen,,6,,,,,,,,,,,,
,Trial,flow.Sequence,0_3_0_6,,completion,,209047.39999997616,209078.364,209095.061,216041.681,6946.620000000024,216043.29999995232,2021-10-26T09:05:00.942Z,216091.384,1635238879,full,ni_sequenzen,NI_Sequenzen,,6,,,,,,,,,,,,
,Move,canvas.Screen,0_3_0_7_0_0,right,response,,216079.19999992847,216074.727,216091.384,217587.89999997616,1496.5159999761672,217589.29999995232,2021-10-26T09:05:02.488Z,217607.292,1635238879,full,ni_sequenzen,NI_Sequenzen,1,7,,,,,,,,,,,,
,Move,canvas.Screen,0_3_0_7_0_1,down,response,,217595.29999995232,217590.588,217607.292,217800.5,193.20800000001327,217801.5,2021-10-26T09:05:02.700Z,217839.233,1635238879,full,ni_sequenzen,NI_Sequenzen,2,7,,,,,,,,,,,,
,Move,canvas.Screen,0_3_0_7_0_2,right,response,,217806.39999997616,217790.568,217839.233,218158.29999995232,319.06699995230883,218159.19999992847,2021-10-26T09:05:03.057Z,218190.284,1635238879,full,ni_sequenzen,NI_Sequenzen,3,7,,,,,,,,,,,,
,Move,canvas.Screen,0_3_0_7_0_3,down,response,,218162.29999995232,218157.034,218190.284,218334,143.7159999999858,218335.09999990463,2021-10-26T09:05:03.233Z,218440.292,1635238879,full,ni_sequenzen,NI_Sequenzen,4,7,,,,,,,,,,,,
,Move,canvas.Screen,0_3_0_7_0_4,-999,skipped,,218341,,,218334,,218341.39999997616,2021-10-26T09:05:03.240Z,218440.292,1635238879,full,ni_sequenzen,NI_Sequenzen,5,7,,,,,,,,,,,,
,Move,canvas.Screen,0_3_0_7_0_5,-999,skipped,,218347.19999992847,,,218334,,218347.39999997616,2021-10-26T09:05:03.246Z,218440.292,1635238879,full,ni_sequenzen,NI_Sequenzen,6,7,,,,,,,,,,,,
,Move,canvas.Screen,0_3_0_7_0_6,-999,skipped,,218352.09999990463,,,218334,,218352.19999992847,2021-10-26T09:05:03.251Z,218440.292,1635238879,full,ni_sequenzen,NI_Sequenzen,7,7,,,,,,,,,,,,
,Move,canvas.Screen,0_3_0_7_0_7,-999,skipped,,218360.29999995232,,,218334,,218360.59999990463,2021-10-26T09:05:03.259Z,218440.292,1635238879,full,ni_sequenzen,NI_Sequenzen,8,7,,,,,,,,,,,,
,Move,canvas.Screen,0_3_0_7_0_8,-999,skipped,,218365.59999990463,,,218334,,218365.79999995232,2021-10-26T09:05:03.264Z,218440.292,1635238879,full,ni_sequenzen,NI_Sequenzen,9,7,,,,,,,,,,,,
,Move,canvas.Screen,0_3_0_7_0_9,-999,skipped,,218370.39999997616,,,218334,,218370.59999990463,2021-10-26T09:05:03.269Z,218440.292,1635238879,full,ni_sequenzen,NI_Sequenzen,10,7,,,,,,,,,,,,
,Move,canvas.Screen,0_3_0_7_0_10,-999,skipped,,218379.89999997616,,,218334,,218380.19999992847,2021-10-26T09:05:03.278Z,218440.292,1635238879,full,ni_sequenzen,NI_Sequenzen,11,7,,,,,,,,,,,,
,Move,canvas.Screen,0_3_0_7_0_11,-999,skipped,,218386.79999995232,,,218334,,218387,2021-10-26T09:05:03.285Z,218440.292,1635238879,full,ni_sequenzen,NI_Sequenzen,12,7,,,,,,,,,,,,
,Move,canvas.Screen,0_3_0_7_0_12,-999,skipped,,218393.29999995232,,,218334,,218393.5,2021-10-26T09:05:03.292Z,218440.292,1635238879,full,ni_sequenzen,NI_Sequenzen,13,7,,,,,,,,,,,,
,Move,canvas.Screen,0_3_0_7_0_13,-999,skipped,,218399.09999990463,,,218334,,218399.19999992847,2021-10-26T09:05:03.298Z,218440.292,1635238879,full,ni_sequenzen,NI_Sequenzen,14,7,,,,,,,,,,,,
,Move,canvas.Screen,0_3_0_7_0_14,-999,skipped,,218415.89999997616,,,218334,,218416.09999990463,2021-10-26T09:05:03.314Z,218440.292,1635238879,full,ni_sequenzen,NI_Sequenzen,15,7,,,,,,,,,,,,
,Loop,flow.Loop,0_3_0_7_0,-999,completion,,216075.59999990463,216074.727,216091.384,218334,2242.616000000009,218416.5,2021-10-26T09:05:03.315Z,218440.292,1635238879,full,ni_sequenzen,NI_Sequenzen,,7,,,,,,,,,,,,
,Feedback,canvas.Screen,0_3_0_7_1,,timeout,,218425.79999995232,218423.501,218440.292,222421.562,3997.7660000000033,222422.59999990463,2021-10-26T09:05:07.321Z,222438.058,1635238879,full,ni_sequenzen,NI_Sequenzen,,7,,,,,,,,,,,,
,Trial,flow.Sequence,0_3_0_7,,completion,,216044,216074.727,216091.384,222421.562,6330.178000000014,222422.89999997616,2021-10-26T09:05:07.321Z,222454.85,1635238879,full,ni_sequenzen,NI_Sequenzen,,7,,,,,,,,,,,,
,Move,canvas.Screen,0_3_0_8_0_0,right,response,,222439.69999992847,222438.058,222454.85,225383.09999990463,2928.2499999046267,225384.29999995232,2021-10-26T09:05:10.283Z,225419.887,1635238879,full,ni_sequenzen,NI_Sequenzen,1,8,,,,,,,,,,,,
,Move,canvas.Screen,0_3_0_8_0_1,down,response,,225395,225386.573,225419.887,225562.79999995232,142.9129999523284,225564,2021-10-26T09:05:10.462Z,225586.618,1635238879,full,ni_sequenzen,NI_Sequenzen,2,8,,,,,,,,,,,,
,Move,canvas.Screen,0_3_0_8_0_2,right,response,,225571.19999992847,225569.853,225586.618,225797.39999997616,210.78199997617048,225798.39999997616,2021-10-26T09:05:10.697Z,225852.936,1635238879,full,ni_sequenzen,NI_Sequenzen,3,8,,,,,,,,,,,,
,Move,canvas.Screen,0_3_0_8_0_3,down,response,,225805.29999995232,225803.08,225852.936,225921.29999995232,68.36399995232932,225921.89999997616,2021-10-26T09:05:10.820Z,225953.06,1635238879,full,ni_sequenzen,NI_Sequenzen,4,8,,,,,,,,,,,,
,Move,canvas.Screen,0_3_0_8_0_4,-999,skipped,,225924.39999997616,,,225921.29999995232,,225924.5,2021-10-26T09:05:10.823Z,225953.06,1635238879,full,ni_sequenzen,NI_Sequenzen,5,8,,,,,,,,,,,,
,Move,canvas.Screen,0_3_0_8_0_5,-999,skipped,,225926.09999990463,,,225921.29999995232,,225926.09999990463,2021-10-26T09:05:10.824Z,225953.06,1635238879,full,ni_sequenzen,NI_Sequenzen,6,8,,,,,,,,,,,,
,Move,canvas.Screen,0_3_0_8_0_6,-999,skipped,,225927.59999990463,,,225921.29999995232,,225927.69999992847,2021-10-26T09:05:10.826Z,225953.06,1635238879,full,ni_sequenzen,NI_Sequenzen,7,8,,,,,,,,,,,,
,Move,canvas.Screen,0_3_0_8_0_7,-999,skipped,,225930,,,225921.29999995232,,225930,2021-10-26T09:05:10.828Z,225953.06,1635238879,full,ni_sequenzen,NI_Sequenzen,8,8,,,,,,,,,,,,
,Move,canvas.Screen,0_3_0_8_0_8,-999,skipped,,225932.09999990463,,,225921.29999995232,,225932.19999992847,2021-10-26T09:05:10.830Z,225953.06,1635238879,full,ni_sequenzen,NI_Sequenzen,9,8,,,,,,,,,,,,
,Move,canvas.Screen,0_3_0_8_0_9,-999,skipped,,225934.59999990463,,,225921.29999995232,,225934.59999990463,2021-10-26T09:05:10.833Z,225953.06,1635238879,full,ni_sequenzen,NI_Sequenzen,10,8,,,,,,,,,,,,
,Move,canvas.Screen,0_3_0_8_0_10,-999,skipped,,225937.09999990463,,,225921.29999995232,,225937.19999992847,2021-10-26T09:05:10.835Z,225953.06,1635238879,full,ni_sequenzen,NI_Sequenzen,11,8,,,,,,,,,,,,
,Move,canvas.Screen,0_3_0_8_0_11,-999,skipped,,225938.69999992847,,,225921.29999995232,,225938.69999992847,2021-10-26T09:05:10.837Z,225953.06,1635238879,full,ni_sequenzen,NI_Sequenzen,12,8,,,,,,,,,,,,
,Move,canvas.Screen,0_3_0_8_0_12,-999,skipped,,225940.39999997616,,,225921.29999995232,,225940.39999997616,2021-10-26T09:05:10.839Z,225953.06,1635238879,full,ni_sequenzen,NI_Sequenzen,13,8,,,,,,,,,,,,
,Move,canvas.Screen,0_3_0_8_0_13,-999,skipped,,225941.79999995232,,,225921.29999995232,,225941.79999995232,2021-10-26T09:05:10.840Z,225953.06,1635238879,full,ni_sequenzen,NI_Sequenzen,14,8,,,,,,,,,,,,
