meta,sender,sender_type,sender_id,response,ended_on,instrCount,time_run,time_render,time_show,time_end,duration,time_commit,timestamp,time_switch,openLabId,type,task,project,move,trialN,blockN_Train,blockN,moveCount,currPP,points,movesTrial,visitedFields,diff,reward,Strategie,Zweck,Probleme
[object Object],Screen_1,canvas.Screen,0_0_0_0,cont,response,1,987.5999999642372,1179.688,1246.37,3054680.5999999642,3053434.229999964,3054684.899999976,2021-11-01T16:47:10.472Z,3054755.419,1635782165,full,ni_sequenzen,NI_Sequenzen,,,,,,,,,,,,,,
,Screen_2,canvas.Screen,0_0_0_1,cont,response,1,3054741.0999999642,3054738.755,3054755.419,3093930.0999999642,39174.68099996401,3093930.7999999523,2021-11-01T16:47:49.717Z,3094050.658,1635782165,full,ni_sequenzen,NI_Sequenzen,,,,,,,,,,,,,,
,Screen_3,canvas.Screen,0_0_0_2,cont,response,1,3094040.5999999642,3094033.894,3094050.658,3109202.399999976,15151.741999976337,3109203,2021-11-01T16:48:04.989Z,3109215.595,1635782165,full,ni_sequenzen,NI_Sequenzen,,,,,,,,,,,,,,
,Screen_4,canvas.Screen,0_0_0_3,cont,response,1,3109206.399999976,3109198.314,3109215.595,3113823,4607.404999999795,3113823.5999999642,2021-11-01T16:48:09.610Z,3114064.884,1635782165,full,ni_sequenzen,NI_Sequenzen,,,,,,,,,,,,,,
,Sequence,flow.Sequence,0_0_0,,completion,1,904.0999999642372,1179.688,1246.37,3113823,3112576.63,3113826.5999999642,2021-11-01T16:48:09.613Z,3114064.884,1635782165,full,ni_sequenzen,NI_Sequenzen,,,,,,,,,,,,,,
,Screen_1,canvas.Screen,0_0_1_0,,skipped,2,3113829.2999999523,,,3113829.2999999523,,3113829.5,2021-11-01T16:48:09.616Z,3114064.884,1635782165,full,ni_sequenzen,NI_Sequenzen,,,,,,,,,,,,,,
,Screen_2,canvas.Screen,0_0_1_1,,skipped,2,3113831.0999999642,,,3113829.2999999523,,3113831.199999988,2021-11-01T16:48:09.618Z,3114064.884,1635782165,full,ni_sequenzen,NI_Sequenzen,,,,,,,,,,,,,,
,Screen_3,canvas.Screen,0_0_1_2,,skipped,2,3113833,,,3113829.2999999523,,3113833.0999999642,2021-11-01T16:48:09.619Z,3114064.884,1635782165,full,ni_sequenzen,NI_Sequenzen,,,,,,,,,,,,,,
,Screen_4,canvas.Screen,0_0_1_3,,skipped,2,3113834.5,,,3113829.2999999523,,3113834.899999976,2021-11-01T16:48:09.621Z,3114064.884,1635782165,full,ni_sequenzen,NI_Sequenzen,,,,,,,,,,,,,,
,Sequence,flow.Sequence,0_0_1,,completion,2,3113827.7999999523,,,3113829.2999999523,,3113835.0999999642,2021-11-01T16:48:09.621Z,3114064.884,1635782165,full,ni_sequenzen,NI_Sequenzen,,,,,,,,,,,,,,
,Screen_1,canvas.Screen,0_0_2_0,,skipped,3,3113836.7999999523,,,3113836.899999976,,3113837,2021-11-01T16:48:09.623Z,3114064.884,1635782165,full,ni_sequenzen,NI_Sequenzen,,,,,,,,,,,,,,
,Screen_2,canvas.Screen,0_0_2_1,,skipped,3,3113838.0999999642,,,3113836.899999976,,3113838.199999988,2021-11-01T16:48:09.624Z,3114064.884,1635782165,full,ni_sequenzen,NI_Sequenzen,,,,,,,,,,,,,,
,Screen_3,canvas.Screen,0_0_2_2,,skipped,3,3113839.5,,,3113836.899999976,,3113839.699999988,2021-11-01T16:48:09.626Z,3114064.884,1635782165,full,ni_sequenzen,NI_Sequenzen,,,,,,,,,,,,,,
,Screen_4,canvas.Screen,0_0_2_3,,skipped,3,3113840.7999999523,,,3113836.899999976,,3113840.899999976,2021-11-01T16:48:09.627Z,3114064.884,1635782165,full,ni_sequenzen,NI_Sequenzen,,,,,,,,,,,,,,
,Sequence,flow.Sequence,0_0_2,,completion,3,3113835.699999988,,,3113836.899999976,,3113841.0999999642,2021-11-01T16:48:09.627Z,3114064.884,1635782165,full,ni_sequenzen,NI_Sequenzen,,,,,,,,,,,,,,
,Screen_1,canvas.Screen,0_0_3_0,,skipped,4,3113843.5,,,3113843.5,,3113843.699999988,2021-11-01T16:48:09.630Z,3114064.884,1635782165,full,ni_sequenzen,NI_Sequenzen,,,,,,,,,,,,,,
,Screen_2,canvas.Screen,0_0_3_1,,skipped,4,3113844.899999976,,,3113843.5,,3113845,2021-11-01T16:48:09.631Z,3114064.884,1635782165,full,ni_sequenzen,NI_Sequenzen,,,,,,,,,,,,,,
,Screen_3,canvas.Screen,0_0_3_2,,skipped,4,3113846.5,,,3113843.5,,3113846.5999999642,2021-11-01T16:48:09.633Z,3114064.884,1635782165,full,ni_sequenzen,NI_Sequenzen,,,,,,,,,,,,,,
,Screen_4,canvas.Screen,0_0_3_3,,skipped,4,3113847.7999999523,,,3113843.5,,3113847.899999976,2021-11-01T16:48:09.634Z,3114064.884,1635782165,full,ni_sequenzen,NI_Sequenzen,,,,,,,,,,,,,,
,Sequence,flow.Sequence,0_0_3,,completion,4,3113841.5999999642,,,3113843.5,,3113848,2021-11-01T16:48:09.634Z,3114064.884,1635782165,full,ni_sequenzen,NI_Sequenzen,,,,,,,,,,,,,,
,Screen_1,canvas.Screen,0_0_4_0,,skipped,5,3113849.5,,,3113849.5,,3113849.5,2021-11-01T16:48:09.636Z,3114064.884,1635782165,full,ni_sequenzen,NI_Sequenzen,,,,,,,,,,,,,,
,Screen_2,canvas.Screen,0_0_4_1,,skipped,5,3113850.5999999642,,,3113849.5,,3113850.7999999523,2021-11-01T16:48:09.637Z,3114064.884,1635782165,full,ni_sequenzen,NI_Sequenzen,,,,,,,,,,,,,,
,Screen_3,canvas.Screen,0_0_4_2,,skipped,5,3113865.5999999642,,,3113849.5,,3113865.899999976,2021-11-01T16:48:09.652Z,3114064.884,1635782165,full,ni_sequenzen,NI_Sequenzen,,,,,,,,,,,,,,
,Screen_4,canvas.Screen,0_0_4_3,,skipped,5,3113867.5999999642,,,3113849.5,,3113867.699999988,2021-11-01T16:48:09.654Z,3114064.884,1635782165,full,ni_sequenzen,NI_Sequenzen,,,,,,,,,,,,,,
,Sequence,flow.Sequence,0_0_4,,completion,5,3113848.5,,,3113849.5,,3113867.899999976,2021-11-01T16:48:09.654Z,3114064.884,1635782165,full,ni_sequenzen,NI_Sequenzen,,,,,,,,,,,,,,
,Screen_1,canvas.Screen,0_0_5_0,,skipped,6,3113869.2999999523,,,3113869.2999999523,,3113869.399999976,2021-11-01T16:48:09.656Z,3114064.884,1635782165,full,ni_sequenzen,NI_Sequenzen,,,,,,,,,,,,,,
,Screen_2,canvas.Screen,0_0_5_1,,skipped,6,3113870.5,,,3113869.2999999523,,3113870.5,2021-11-01T16:48:09.657Z,3114064.884,1635782165,full,ni_sequenzen,NI_Sequenzen,,,,,,,,,,,,,,
,Screen_3,canvas.Screen,0_0_5_2,,skipped,6,3113871.699999988,,,3113869.2999999523,,3113871.699999988,2021-11-01T16:48:09.658Z,3114064.884,1635782165,full,ni_sequenzen,NI_Sequenzen,,,,,,,,,,,,,,
,Screen_4,canvas.Screen,0_0_5_3,,skipped,6,3113872.899999976,,,3113869.2999999523,,3113872.899999976,2021-11-01T16:48:09.659Z,3114064.884,1635782165,full,ni_sequenzen,NI_Sequenzen,,,,,,,,,,,,,,
,Sequence,flow.Sequence,0_0_5,,completion,6,3113868.399999976,,,3113869.2999999523,,3113873.0999999642,2021-11-01T16:48:09.659Z,3114064.884,1635782165,full,ni_sequenzen,NI_Sequenzen,,,,,,,,,,,,,,
,Screen_1,canvas.Screen,0_0_6_0,,skipped,7,3113874.5,,,3113874.5,,3113874.5,2021-11-01T16:48:09.661Z,3114064.884,1635782165,full,ni_sequenzen,NI_Sequenzen,,,,,,,,,,,,,,
,Screen_2,canvas.Screen,0_0_6_1,,skipped,7,3113875.5999999642,,,3113874.5,,3113875.699999988,2021-11-01T16:48:09.662Z,3114064.884,1635782165,full,ni_sequenzen,NI_Sequenzen,,,,,,,,,,,,,,
,Screen_3,canvas.Screen,0_0_6_2,,skipped,7,3113876.7999999523,,,3113874.5,,3113876.899999976,2021-11-01T16:48:09.663Z,3114064.884,1635782165,full,ni_sequenzen,NI_Sequenzen,,,,,,,,,,,,,,
,Screen_4,canvas.Screen,0_0_6_3,,skipped,7,3113878,,,3113874.5,,3113878.0999999642,2021-11-01T16:48:09.664Z,3114064.884,1635782165,full,ni_sequenzen,NI_Sequenzen,,,,,,,,,,,,,,
,Sequence,flow.Sequence,0_0_6,,completion,7,3113873.5999999642,,,3113874.5,,3113878.399999976,2021-11-01T16:48:09.665Z,3114064.884,1635782165,full,ni_sequenzen,NI_Sequenzen,,,,,,,,,,,,,,
,Screen_1,canvas.Screen,0_0_7_0,,skipped,8,3113879.699999988,,,3113879.699999988,,3113879.7999999523,2021-11-01T16:48:09.666Z,3114064.884,1635782165,full,ni_sequenzen,NI_Sequenzen,,,,,,,,,,,,,,
,Screen_2,canvas.Screen,0_0_7_1,,skipped,8,3113880.7999999523,,,3113879.699999988,,3113880.899999976,2021-11-01T16:48:09.667Z,3114064.884,1635782165,full,ni_sequenzen,NI_Sequenzen,,,,,,,,,,,,,,
,Screen_3,canvas.Screen,0_0_7_2,,skipped,8,3113882.699999988,,,3113879.699999988,,3113882.7999999523,2021-11-01T16:48:09.669Z,3114064.884,1635782165,full,ni_sequenzen,NI_Sequenzen,,,,,,,,,,,,,,
,Screen_4,canvas.Screen,0_0_7_3,,skipped,8,3113884.199999988,,,3113879.699999988,,3113884.399999976,2021-11-01T16:48:09.671Z,3114064.884,1635782165,full,ni_sequenzen,NI_Sequenzen,,,,,,,,,,,,,,
,Sequence,flow.Sequence,0_0_7,,completion,8,3113878.7999999523,,,3113879.699999988,,3113884.699999988,2021-11-01T16:48:09.671Z,3114064.884,1635782165,full,ni_sequenzen,NI_Sequenzen,,,,,,,,,,,,,,
,Screen_1,canvas.Screen,0_0_8_0,,skipped,9,3113886.0999999642,,,3113886.0999999642,,3113886.199999988,2021-11-01T16:48:09.673Z,3114064.884,1635782165,full,ni_sequenzen,NI_Sequenzen,,,,,,,,,,,,,,
,Screen_2,canvas.Screen,0_0_8_1,,skipped,9,3113888.0999999642,,,3113886.0999999642,,3113888.2999999523,2021-11-01T16:48:09.675Z,3114064.884,1635782165,full,ni_sequenzen,NI_Sequenzen,,,,,,,,,,,,,,
,Screen_3,canvas.Screen,0_0_8_2,,skipped,9,3113889.399999976,,,3113886.0999999642,,3113889.5,2021-11-01T16:48:09.676Z,3114064.884,1635782165,full,ni_sequenzen,NI_Sequenzen,,,,,,,,,,,,,,
,Screen_4,canvas.Screen,0_0_8_3,,skipped,9,3113890.7999999523,,,3113886.0999999642,,3113890.7999999523,2021-11-01T16:48:09.677Z,3114064.884,1635782165,full,ni_sequenzen,NI_Sequenzen,,,,,,,,,,,,,,
,Sequence,flow.Sequence,0_0_8,,completion,9,3113885.199999988,,,3113886.0999999642,,3113891.0999999642,2021-11-01T16:48:09.677Z,3114064.884,1635782165,full,ni_sequenzen,NI_Sequenzen,,,,,,,,,,,,,,
,Screen_1,canvas.Screen,0_0_9_0,,skipped,10,3113892.5,,,3113892.5,,3113892.5999999642,2021-11-01T16:48:09.679Z,3114064.884,1635782165,full,ni_sequenzen,NI_Sequenzen,,,,,,,,,,,,,,
,Screen_2,canvas.Screen,0_0_9_1,,skipped,10,3113893.699999988,,,3113892.5,,3113893.7999999523,2021-11-01T16:48:09.680Z,3114064.884,1635782165,full,ni_sequenzen,NI_Sequenzen,,,,,,,,,,,,,,
,Screen_3,canvas.Screen,0_0_9_2,,skipped,10,3113895,,,3113892.5,,3113895.0999999642,2021-11-01T16:48:09.681Z,3114064.884,1635782165,full,ni_sequenzen,NI_Sequenzen,,,,,,,,,,,,,,
,Screen_4,canvas.Screen,0_0_9_3,,skipped,10,3113896.199999988,,,3113892.5,,3113896.2999999523,2021-11-01T16:48:09.683Z,3114064.884,1635782165,full,ni_sequenzen,NI_Sequenzen,,,,,,,,,,,,,,
,Sequence,flow.Sequence,0_0_9,,completion,10,3113891.5,,,3113892.5,,3113896.5,2021-11-01T16:48:09.683Z,3114064.884,1635782165,full,ni_sequenzen,NI_Sequenzen,,,,,,,,,,,,,,
,Screen_1,canvas.Screen,0_0_10_0,,skipped,11,3113897.899999976,,,3113897.899999976,,3113897.899999976,2021-11-01T16:48:09.684Z,3114064.884,1635782165,full,ni_sequenzen,NI_Sequenzen,,,,,,,,,,,,,,
,Screen_2,canvas.Screen,0_0_10_1,,skipped,11,3113899.0999999642,,,3113897.899999976,,3113899.199999988,2021-11-01T16:48:09.686Z,3114064.884,1635782165,full,ni_sequenzen,NI_Sequenzen,,,,,,,,,,,,,,
,Screen_3,canvas.Screen,0_0_10_2,,skipped,11,3113900.399999976,,,3113897.899999976,,3113900.5,2021-11-01T16:48:09.687Z,3114064.884,1635782165,full,ni_sequenzen,NI_Sequenzen,,,,,,,,,,,,,,
,Screen_4,canvas.Screen,0_0_10_3,,skipped,11,3113901.5999999642,,,3113897.899999976,,3113901.5999999642,2021-11-01T16:48:09.688Z,3114064.884,1635782165,full,ni_sequenzen,NI_Sequenzen,,,,,,,,,,,,,,
,Sequence,flow.Sequence,0_0_10,,completion,11,3113897,,,3113897.899999976,,3113901.7999999523,2021-11-01T16:48:09.688Z,3114064.884,1635782165,full,ni_sequenzen,NI_Sequenzen,,,,,,,,,,,,,,
,Screen_1,canvas.Screen,0_0_11_0,,skipped,12,3113903.199999988,,,3113903.199999988,,3113903.2999999523,2021-11-01T16:48:09.690Z,3114064.884,1635782165,full,ni_sequenzen,NI_Sequenzen,,,,,,,,,,,,,,
,Screen_2,canvas.Screen,0_0_11_1,,skipped,12,3113905.899999976,,,3113903.199999988,,3113906.0999999642,2021-11-01T16:48:09.692Z,3114064.884,1635782165,full,ni_sequenzen,NI_Sequenzen,,,,,,,,,,,,,,
,Screen_3,canvas.Screen,0_0_11_2,,skipped,12,3113909.699999988,,,3113903.199999988,,3113909.899999976,2021-11-01T16:48:09.696Z,3114064.884,1635782165,full,ni_sequenzen,NI_Sequenzen,,,,,,,,,,,,,,
,Screen_4,canvas.Screen,0_0_11_3,,skipped,12,3113911.699999988,,,3113903.199999988,,3113911.7999999523,2021-11-01T16:48:09.698Z,3114064.884,1635782165,full,ni_sequenzen,NI_Sequenzen,,,,,,,,,,,,,,
,Sequence,flow.Sequence,0_0_11,,completion,12,3113902.2999999523,,,3113903.199999988,,3113912.0999999642,2021-11-01T16:48:09.698Z,3114064.884,1635782165,full,ni_sequenzen,NI_Sequenzen,,,,,,,,,,,,,,
,Screen_1,canvas.Screen,0_0_12_0,,skipped,13,3113914.2999999523,,,3113914.399999976,,3113914.399999976,2021-11-01T16:48:09.701Z,3114064.884,1635782165,full,ni_sequenzen,NI_Sequenzen,,,,,,,,,,,,,,
,Screen_2,canvas.Screen,0_0_12_1,,skipped,13,3113916,,,3113914.399999976,,3113916.0999999642,2021-11-01T16:48:09.702Z,3114064.884,1635782165,full,ni_sequenzen,NI_Sequenzen,,,,,,,,,,,,,,
,Screen_3,canvas.Screen,0_0_12_2,,skipped,13,3113917.5,,,3113914.399999976,,3113917.699999988,2021-11-01T16:48:09.704Z,3114064.884,1635782165,full,ni_sequenzen,NI_Sequenzen,,,,,,,,,,,,,,
,Screen_4,canvas.Screen,0_0_12_3,,skipped,13,3113918.7999999523,,,3113914.399999976,,3113918.899999976,2021-11-01T16:48:09.705Z,3114064.884,1635782165,full,ni_sequenzen,NI_Sequenzen,,,,,,,,,,,,,,
,Sequence,flow.Sequence,0_0_12,,completion,13,3113912.7999999523,,,3113914.399999976,,3113919.0999999642,2021-11-01T16:48:09.705Z,3114064.884,1635782165,full,ni_sequenzen,NI_Sequenzen,,,,,,,,,,,,,,
,Screen_1,canvas.Screen,0_0_13_0,,skipped,14,3113920.5,,,3113920.5,,3113920.5999999642,2021-11-01T16:48:09.707Z,3114064.884,1635782165,full,ni_sequenzen,NI_Sequenzen,,,,,,,,,,,,,,
,Screen_2,canvas.Screen,0_0_13_1,,skipped,14,3113921.699999988,,,3113920.5,,3113921.7999999523,2021-11-01T16:48:09.708Z,3114064.884,1635782165,full,ni_sequenzen,NI_Sequenzen,,,,,,,,,,,,,,
,Screen_3,canvas.Screen,0_0_13_2,,skipped,14,3113923,,,3113920.5,,3113923.0999999642,2021-11-01T16:48:09.709Z,3114064.884,1635782165,full,ni_sequenzen,NI_Sequenzen,,,,,,,,,,,,,,
,Screen_4,canvas.Screen,0_0_13_3,,skipped,14,3113924.399999976,,,3113920.5,,3113924.5,2021-11-01T16:48:09.711Z,3114064.884,1635782165,full,ni_sequenzen,NI_Sequenzen,,,,,,,,,,,,,,
,Sequence,flow.Sequence,0_0_13,,completion,14,3113919.5999999642,,,3113920.5,,3113924.699999988,2021-11-01T16:48:09.711Z,3114064.884,1635782165,full,ni_sequenzen,NI_Sequenzen,,,,,,,,,,,,,,
,Screen_1,canvas.Screen,0_0_14_0,,skipped,15,3113926.0999999642,,,3113926.0999999642,,3113926.199999988,2021-11-01T16:48:09.712Z,3114064.884,1635782165,full,ni_sequenzen,NI_Sequenzen,,,,,,,,,,,,,,
,Screen_2,canvas.Screen,0_0_14_1,,skipped,15,3113927.199999988,,,3113926.0999999642,,3113927.2999999523,2021-11-01T16:48:09.714Z,3114064.884,1635782165,full,ni_sequenzen,NI_Sequenzen,,,,,,,,,,,,,,
,Screen_3,canvas.Screen,0_0_14_2,,skipped,15,3113928.399999976,,,3113926.0999999642,,3113928.5,2021-11-01T16:48:09.715Z,3114064.884,1635782165,full,ni_sequenzen,NI_Sequenzen,,,,,,,,,,,,,,
,Screen_4,canvas.Screen,0_0_14_3,,skipped,15,3113929.699999988,,,3113926.0999999642,,3113929.899999976,2021-11-01T16:48:09.716Z,3114064.884,1635782165,full,ni_sequenzen,NI_Sequenzen,,,,,,,,,,,,,,
,Sequence,flow.Sequence,0_0_14,,completion,15,3113925.199999988,,,3113926.0999999642,,3113930.899999976,2021-11-01T16:48:09.717Z,3114064.884,1635782165,full,ni_sequenzen,NI_Sequenzen,,,,,,,,,,,,,,
,Screen_1,canvas.Screen,0_0_15_0,,skipped,16,3113932.5,,,3113932.5,,3113932.5999999642,2021-11-01T16:48:09.719Z,3114064.884,1635782165,full,ni_sequenzen,NI_Sequenzen,,,,,,,,,,,,,,
,Screen_2,canvas.Screen,0_0_15_1,,skipped,16,3113933.5999999642,,,3113932.5,,3113933.699999988,2021-11-01T16:48:09.720Z,3114064.884,1635782165,full,ni_sequenzen,NI_Sequenzen,,,,,,,,,,,,,,
,Screen_3,canvas.Screen,0_0_15_2,,skipped,16,3113934.699999988,,,3113932.5,,3113934.7999999523,2021-11-01T16:48:09.721Z,3114064.884,1635782165,full,ni_sequenzen,NI_Sequenzen,,,,,,,,,,,,,,
,Screen_4,canvas.Screen,0_0_15_3,,skipped,16,3113938.0999999642,,,3113932.5,,3113938.2999999523,2021-11-01T16:48:09.725Z,3114064.884,1635782165,full,ni_sequenzen,NI_Sequenzen,,,,,,,,,,,,,,
,Sequence,flow.Sequence,0_0_15,,completion,16,3113931.399999976,,,3113932.5,,3113938.5999999642,2021-11-01T16:48:09.725Z,3114064.884,1635782165,full,ni_sequenzen,NI_Sequenzen,,,,,,,,,,,,,,
,Screen_1,canvas.Screen,0_0_16_0,,skipped,17,3113940.899999976,,,3113940.899999976,,3113941,2021-11-01T16:48:09.727Z,3114064.884,1635782165,full,ni_sequenzen,NI_Sequenzen,,,,,,,,,,,,,,
,Screen_2,canvas.Screen,0_0_16_1,,skipped,17,3113942.899999976,,,3113940.899999976,,3113942.899999976,2021-11-01T16:48:09.729Z,3114064.884,1635782165,full,ni_sequenzen,NI_Sequenzen,,,,,,,,,,,,,,
,Screen_3,canvas.Screen,0_0_16_2,,skipped,17,3113944.0999999642,,,3113940.899999976,,3113944.0999999642,2021-11-01T16:48:09.730Z,3114064.884,1635782165,full,ni_sequenzen,NI_Sequenzen,,,,,,,,,,,,,,
,Screen_4,canvas.Screen,0_0_16_3,,skipped,17,3113945.399999976,,,3113940.899999976,,3113945.5,2021-11-01T16:48:09.732Z,3114064.884,1635782165,full,ni_sequenzen,NI_Sequenzen,,,,,,,,,,,,,,
,Sequence,flow.Sequence,0_0_16,,completion,17,3113939.2999999523,,,3113940.899999976,,3113945.5999999642,2021-11-01T16:48:09.732Z,3114064.884,1635782165,full,ni_sequenzen,NI_Sequenzen,,,,,,,,,,,,,,
,Screen_1,canvas.Screen,0_0_17_0,,skipped,18,3113947.0999999642,,,3113947.199999988,,3113947.2999999523,2021-11-01T16:48:09.734Z,3114064.884,1635782165,full,ni_sequenzen,NI_Sequenzen,,,,,,,,,,,,,,
,Screen_2,canvas.Screen,0_0_17_1,,skipped,18,3113948.5999999642,,,3113947.199999988,,3113948.7999999523,2021-11-01T16:48:09.735Z,3114064.884,1635782165,full,ni_sequenzen,NI_Sequenzen,,,,,,,,,,,,,,
,Screen_3,canvas.Screen,0_0_17_2,,skipped,18,3113949.7999999523,,,3113947.199999988,,3113949.899999976,2021-11-01T16:48:09.736Z,3114064.884,1635782165,full,ni_sequenzen,NI_Sequenzen,,,,,,,,,,,,,,
,Screen_4,canvas.Screen,0_0_17_3,,skipped,18,3113950.899999976,,,3113947.199999988,,3113951,2021-11-01T16:48:09.737Z,3114064.884,1635782165,full,ni_sequenzen,NI_Sequenzen,,,,,,,,,,,,,,
,Sequence,flow.Sequence,0_0_17,,completion,18,3113946.199999988,,,3113947.199999988,,3113951.0999999642,2021-11-01T16:48:09.737Z,3114064.884,1635782165,full,ni_sequenzen,NI_Sequenzen,,,,,,,,,,,,,,
,Screen_1,canvas.Screen,0_0_18_0,,skipped,19,3113952.5,,,3113952.5,,3113952.5,2021-11-01T16:48:09.739Z,3114064.884,1635782165,full,ni_sequenzen,NI_Sequenzen,,,,,,,,,,,,,,
,Screen_2,canvas.Screen,0_0_18_1,,skipped,19,3113954.5,,,3113952.5,,3113954.5999999642,2021-11-01T16:48:09.741Z,3114064.884,1635782165,full,ni_sequenzen,NI_Sequenzen,,,,,,,,,,,,,,
,Screen_3,canvas.Screen,0_0_18_2,,skipped,19,3113955.699999988,,,3113952.5,,3113955.699999988,2021-11-01T16:48:09.742Z,3114064.884,1635782165,full,ni_sequenzen,NI_Sequenzen,,,,,,,,,,,,,,
,Screen_4,canvas.Screen,0_0_18_3,,skipped,19,3113956.699999988,,,3113952.5,,3113956.7999999523,2021-11-01T16:48:09.743Z,3114064.884,1635782165,full,ni_sequenzen,NI_Sequenzen,,,,,,,,,,,,,,
,Sequence,flow.Sequence,0_0_18,,completion,19,3113951.5999999642,,,3113952.5,,3113956.899999976,2021-11-01T16:48:09.743Z,3114064.884,1635782165,full,ni_sequenzen,NI_Sequenzen,,,,,,,,,,,,,,
,Screen_1,canvas.Screen,0_0_19_0,,skipped,20,3113958.199999988,,,3113958.199999988,,3113958.399999976,2021-11-01T16:48:09.745Z,3114064.884,1635782165,full,ni_sequenzen,NI_Sequenzen,,,,,,,,,,,,,,
,Screen_2,canvas.Screen,0_0_19_1,,skipped,20,3113959.2999999523,,,3113958.199999988,,3113959.399999976,2021-11-01T16:48:09.746Z,3114064.884,1635782165,full,ni_sequenzen,NI_Sequenzen,,,,,,,,,,,,,,
,Screen_3,canvas.Screen,0_0_19_2,,skipped,20,3113960.399999976,,,3113958.199999988,,3113960.5,2021-11-01T16:48:09.747Z,3114064.884,1635782165,full,ni_sequenzen,NI_Sequenzen,,,,,,,,,,,,,,
,Screen_4,canvas.Screen,0_0_19_3,,skipped,20,3113961.5999999642,,,3113958.199999988,,3113961.699999988,2021-11-01T16:48:09.748Z,3114064.884,1635782165,full,ni_sequenzen,NI_Sequenzen,,,,,,,,,,,,,,
,Sequence,flow.Sequence,0_0_19,,completion,20,3113957.399999976,,,3113958.199999988,,3113961.7999999523,2021-11-01T16:48:09.748Z,3114064.884,1635782165,full,ni_sequenzen,NI_Sequenzen,,,,,,,,,,,,,,
,Instructions_I,flow.Loop,0_0,,completion,,902.5999999642372,1179.688,1246.37,3113958.199999988,3112711.829999988,3113962,2021-11-01T16:48:09.748Z,3114064.884,1635782165,full,ni_sequenzen,NI_Sequenzen,,,,,,,,,,,,,,
,Move,canvas.Screen,0_1_0_0,right,response,,3114051.2999999523,3114048.14,3114064.884,3114855.199999988,790.3159999880008,3114855.7999999523,2021-11-01T16:48:10.642Z,3114864.946,1635782165,full,ni_sequenzen,NI_Sequenzen,1,,,,,,,,,,,,,
,Move,canvas.Screen,0_1_0_1,down,response,,3114858.5999999642,3114848.202,3114864.946,3116020.5999999642,1155.653999964241,3116021.0999999642,2021-11-01T16:48:11.807Z,3116031.438,1635782165,full,ni_sequenzen,NI_Sequenzen,2,,,,,,,,,,,,,
,Move,canvas.Screen,0_1_0_2,left,response,,3116024.0999999642,3116014.683,3116031.438,3118208.699999988,2177.261999987997,3118209.199999988,2021-11-01T16:48:13.995Z,3118214.387,1635782165,full,ni_sequenzen,NI_Sequenzen,3,,,,,,,,,,,,,
,Move,canvas.Screen,0_1_0_3,down,response,,3118212.0999999642,3118197.715,3118214.387,3118448.7999999523,234.41299995221198,3118449.199999988,2021-11-01T16:48:14.236Z,3118464.375,1635782165,full,ni_sequenzen,NI_Sequenzen,4,,,,,,,,,,,,,
,Move,canvas.Screen,0_1_0_4,left,response,,3118451.0999999642,3118447.707,3118464.375,3119100.0999999642,635.7249999642372,3119100.699999988,2021-11-01T16:48:14.887Z,3119114.394,1635782165,full,ni_sequenzen,NI_Sequenzen,5,,,,,,,,,,,,,
,Move,canvas.Screen,0_1_0_5,down,response,,3119102.899999976,3119097.719,3119114.394,3119867.2999999523,752.9059999524616,3119867.899999976,2021-11-01T16:48:15.654Z,3119880.951,1635782165,full,ni_sequenzen,NI_Sequenzen,6,,,,,,,,,,,,,
,Move,canvas.Screen,0_1_0_6,down,response,,3119869.699999988,3119864.257,3119880.951,3120181.5,300.5490000001155,3120182.0999999642,2021-11-01T16:48:15.968Z,3120197.544,1635782165,full,ni_sequenzen,NI_Sequenzen,7,,,,,,,,,,,,,
,Move,canvas.Screen,0_1_0_7,right,response,,3120184,3120180.889,3120197.544,3120518.5999999642,321.05599996400997,3120519.0999999642,2021-11-01T16:48:16.305Z,3120530.8,1635782165,full,ni_sequenzen,NI_Sequenzen,8,,,,,,,,,,,,,
,Move,canvas.Screen,0_1_0_8,right,response,,3120521,3120514.175,3120530.8,3121049.5,518.7000000001863,3121050.0999999642,2021-11-01T16:48:16.836Z,3121064.14,1635782165,full,ni_sequenzen,NI_Sequenzen,9,,,,,,,,,,,,,
,Move,canvas.Screen,0_1_0_9,down,response,,3121052.0999999642,3121047.442,3121064.14,3121403.5,339.3599999998696,3121404.0999999642,2021-11-01T16:48:17.190Z,3121414.154,1635782165,full,ni_sequenzen,NI_Sequenzen,10,,,,,,,,,,,,,
,Move,canvas.Screen,0_1_0_10,left,response,,3121405.899999976,3121397.434,3121414.154,3121883.5,469.34599999990314,3121884,2021-11-01T16:48:17.670Z,3121897.376,1635782165,full,ni_sequenzen,NI_Sequenzen,11,,,,,,,,,,,,,
,Move,canvas.Screen,0_1_0_11,left,response,,3121885.899999976,3121880.67,3121897.376,3122576.699999988,679.3239999879152,3122577.2999999523,2021-11-01T16:48:18.364Z,3122580.549,1635782165,full,ni_sequenzen,NI_Sequenzen,12,,,,,,,,,,,,,
,Move,canvas.Screen,0_1_0_12,left,response,,3122579.0999999642,3122563.861,3122580.549,3122896.899999976,316.35099997604266,3122897.5,2021-11-01T16:48:18.684Z,3122930.534,1635782165,full,ni_sequenzen,NI_Sequenzen,13,,,,,,,,,,,,,
,Move,canvas.Screen,0_1_0_13,right,response,,3122899.399999976,3122897.27,3122930.534,3123830.5,899.9660000000149,3123831.199999988,2021-11-01T16:48:19.617Z,3123847.162,1635782165,full,ni_sequenzen,NI_Sequenzen,14,,,,,,,,,,,,,
,Move,canvas.Screen,0_1_0_14,down,response,,3123833.199999988,3123830.429,3123847.162,3124784.199999988,937.0379999880679,3124784.7999999523,2021-11-01T16:48:20.571Z,3124797.059,1635782165,full,ni_sequenzen,NI_Sequenzen,15,,,,,,,,,,,,,
,Move,canvas.Screen,0_1_0_15,down,response,,3124786.5999999642,3124780.36,3124797.059,3125440,642.941000000108,3125440.5,2021-11-01T16:48:21.227Z,3125446.977,1635782165,full,ni_sequenzen,NI_Sequenzen,16,,,,,,,,,,,,,
,Move,canvas.Screen,0_1_0_16,right,response,,3125442.5,3125430.279,3125446.977,3126041.5999999642,594.6229999642819,3126042.199999988,2021-11-01T16:48:21.829Z,3126046.79,1635782165,full,ni_sequenzen,NI_Sequenzen,17,,,,,,,,,,,,,
,Move,canvas.Screen,0_1_0_17,down,response,,3126044,3126030.232,3126046.79,3126508.5999999642,461.80999996419996,3126509.0999999642,2021-11-01T16:48:22.295Z,3126530.148,1635782165,full,ni_sequenzen,NI_Sequenzen,18,,,,,,,,,,,,,
,Move,canvas.Screen,0_1_0_18,down,response,,3126511.0999999642,3126496.762,3126530.148,3126891.0999999642,360.9519999641925,3126891.5999999642,2021-11-01T16:48:22.678Z,3126896.683,1635782165,full,ni_sequenzen,NI_Sequenzen,19,,,,,,,,,,,,,
,Move,canvas.Screen,0_1_0_19,right,response,,3126893.5,3126880.081,3126896.683,3127432.2999999523,535.6169999521226,3127432.899999976,2021-11-01T16:48:23.219Z,3127446.643,1635782165,full,ni_sequenzen,NI_Sequenzen,20,,,,,,,,,,,,,
,Move,canvas.Screen,0_1_0_20,left,response,,3127434.699999988,3127429.952,3127446.643,3127779,332.35699999984354,3127779.5,2021-11-01T16:48:23.566Z,3127796.709,1635782165,full,ni_sequenzen,NI_Sequenzen,21,,,,,,,,,,,,,
,Move,canvas.Screen,0_1_0_21,down,response,,3127781.399999976,3127779.98,3127796.709,3128820.0999999642,1023.3909999644384,3128820.5999999642,2021-11-01T16:48:24.607Z,3128829.809,1635782165,full,ni_sequenzen,NI_Sequenzen,22,,,,,,,,,,,,,
,Move,canvas.Screen,0_1_0_22,left,response,,3128822.5,3128813.14,3128829.809,3129312.5,482.69100000010803,3129313.0999999642,2021-11-01T16:48:25.099Z,3129329.879,1635782165,full,ni_sequenzen,NI_Sequenzen,23,,,,,,,,,,,,,
,Move,canvas.Screen,0_1_0_23,right,response,,3129315.2999999523,3129313.104,3129329.879,3129955.899999976,626.0209999759682,3129956.5,2021-11-01T16:48:25.743Z,3129963.065,1635782165,full,ni_sequenzen,NI_Sequenzen,24,,,,,,,,,,,,,
,Move,canvas.Screen,0_1_0_24,down,response,,3129958.199999988,3129946.408,3129963.065,3131086.199999988,1123.134999988135,3131086.699999988,2021-11-01T16:48:26.873Z,3131096.315,1635782165,full,ni_sequenzen,NI_Sequenzen,25,,,,,,,,,,,,,
,Move,canvas.Screen,0_1_0_25,right,response,,3131088.5,3131079.549,3131096.315,3134340,3243.685000000056,3134340.5999999642,2021-11-01T16:48:30.127Z,3134345.784,1635782165,full,ni_sequenzen,NI_Sequenzen,26,,,,,,,,,,,,,
,Move,canvas.Screen,0_1_0_26,down,response,,3134342.399999976,3134329.12,3134345.784,3135176.2999999523,830.5159999523312,3135176.7999999523,2021-11-01T16:48:30.963Z,3135195.684,1635782165,full,ni_sequenzen,NI_Sequenzen,27,,,,,,,,,,,,,
,Move,canvas.Screen,0_1_0_27,right,response,,3135179.5,3135179.007,3135195.684,3135651.2999999523,455.6159999524243,3135651.7999999523,2021-11-01T16:48:31.438Z,3135662.448,1635782165,full,ni_sequenzen,NI_Sequenzen,28,,,,,,,,,,,,,
,Move,canvas.Screen,0_1_0_28,down,response,,3135653.899999976,3135645.706,3135662.448,3136743,1080.5520000001416,3136743.5999999642,2021-11-01T16:48:32.530Z,3136762.267,1635782165,full,ni_sequenzen,NI_Sequenzen,29,,,,,,,,,,,,,
,Move,canvas.Screen,0_1_0_29,left,response,,3136745.7999999523,3136745.549,3136762.267,3138339,1576.7330000000075,3138339.5,2021-11-01T16:48:34.126Z,3138411.957,1635782165,full,ni_sequenzen,NI_Sequenzen,30,,,,,,,,,,,,,
,Loop,flow.Loop,0_1_0,-999,completion,,3113976.899999976,3114048.14,3114064.884,3138339,24274.11599999992,3138339.7999999523,2021-11-01T16:48:34.126Z,3138411.957,1635782165,full,ni_sequenzen,NI_Sequenzen,,,,,,,,,,,,,,
,Training_I,flow.Sequence,0_1,,completion,,3113962.5,3114048.14,3114064.884,3138339,24274.11599999992,3138339.899999976,2021-11-01T16:48:34.126Z,3138411.957,1635782165,full,ni_sequenzen,NI_Sequenzen,,,,,,,,,,,,,,
,Screen_1,canvas.Screen,0_2_0_0,cont,response,1,3138404.5,3138395.281,3138411.957,3150271.899999976,11859.942999976221,3150272.5,2021-11-01T16:48:46.059Z,3150310.559,1635782165,full,ni_sequenzen,NI_Sequenzen,,,,,,,,,,,,,,
,Screen_2,canvas.Screen,0_2_0_1,cont,response,1,3150294.399999976,3150293.435,3150310.559,3157788.0999999642,7477.540999964345,3157788.5,2021-11-01T16:48:53.568Z,3157809.636,1635782165,full,ni_sequenzen,NI_Sequenzen,,,,,,,,,,,,,,
,Screen_3,canvas.Screen,0_2_0_2,cont,response,1,3157791.5,3157776.105,3157809.636,3167496.7999999523,9687.163999952376,3167497.2999999523,2021-11-01T16:49:03.277Z,3167558.595,1635782165,full,ni_sequenzen,NI_Sequenzen,,,,,,,,,,,,,,
,Screen_4,canvas.Screen,0_2_0_3,cont,response,1,3167543.2999999523,3167541.473,3167558.595,3173556.399999976,5997.804999975953,3173556.899999976,2021-11-01T16:49:09.336Z,3173574.445,1635782165,full,ni_sequenzen,NI_Sequenzen,,,,,,,,,,,,,,
,Screen_5,canvas.Screen,0_2_0_4,cont,response,1,3173559.899999976,3173557.574,3173574.445,3176834.699999988,3260.2549999882467,3176835.2999999523,2021-11-01T16:49:12.615Z,3176857.313,1635782165,full,ni_sequenzen,NI_Sequenzen,,,,,,,,,,,,,,
,Screen_6,canvas.Screen,0_2_0_5,cont,response,1,3176850.5,3176840.605,3176857.313,3182196.5,5339.186999999918,3182197.0999999642,2021-11-01T16:49:17.977Z,3182505.847,1635782165,full,ni_sequenzen,NI_Sequenzen,,,,,,,,,,,,,,
,Sequence,flow.Sequence,0_2_0,,completion,1,3138403.199999988,3138395.281,3138411.957,3182196.5,43784.54300000006,3182199.399999976,2021-11-01T16:49:17.979Z,3182505.847,1635782165,full,ni_sequenzen,NI_Sequenzen,,,,,,,,,,,,,,
,Screen_1,canvas.Screen,0_2_1_0,,skipped,2,3182203,,,3182203,,3182203.0999999642,2021-11-01T16:49:17.983Z,3182505.847,1635782165,full,ni_sequenzen,NI_Sequenzen,,,,,,,,,,,,,,
,Screen_2,canvas.Screen,0_2_1_1,,skipped,2,3182205,,,3182203,,3182205.199999988,2021-11-01T16:49:17.985Z,3182505.847,1635782165,full,ni_sequenzen,NI_Sequenzen,,,,,,,,,,,,,,
,Screen_3,canvas.Screen,0_2_1_2,,skipped,2,3182206.2999999523,,,3182203,,3182206.399999976,2021-11-01T16:49:17.986Z,3182505.847,1635782165,full,ni_sequenzen,NI_Sequenzen,,,,,,,,,,,,,,
,Screen_4,canvas.Screen,0_2_1_3,,skipped,2,3182207.7999999523,,,3182203,,3182207.899999976,2021-11-01T16:49:17.987Z,3182505.847,1635782165,full,ni_sequenzen,NI_Sequenzen,,,,,,,,,,,,,,
,Screen_5,canvas.Screen,0_2_1_4,,skipped,2,3182209,,,3182203,,3182209.0999999642,2021-11-01T16:49:17.989Z,3182505.847,1635782165,full,ni_sequenzen,NI_Sequenzen,,,,,,,,,,,,,,
,Screen_6,canvas.Screen,0_2_1_5,,skipped,2,3182210.5,,,3182203,,3182210.5999999642,2021-11-01T16:49:17.990Z,3182505.847,1635782165,full,ni_sequenzen,NI_Sequenzen,,,,,,,,,,,,,,
,Sequence,flow.Sequence,0_2_1,,completion,2,3182201.5,,,3182203,,3182210.699999988,2021-11-01T16:49:17.990Z,3182505.847,1635782165,full,ni_sequenzen,NI_Sequenzen,,,,,,,,,,,,,,
,Screen_1,canvas.Screen,0_2_2_0,,skipped,3,3182212,,,3182212,,3182212.199999988,2021-11-01T16:49:17.992Z,3182505.847,1635782165,full,ni_sequenzen,NI_Sequenzen,,,,,,,,,,,,,,
,Screen_2,canvas.Screen,0_2_2_1,,skipped,3,3182213,,,3182212,,3182213.199999988,2021-11-01T16:49:17.993Z,3182505.847,1635782165,full,ni_sequenzen,NI_Sequenzen,,,,,,,,,,,,,,
,Screen_3,canvas.Screen,0_2_2_2,,skipped,3,3182214.0999999642,,,3182212,,3182214.2999999523,2021-11-01T16:49:17.994Z,3182505.847,1635782165,full,ni_sequenzen,NI_Sequenzen,,,,,,,,,,,,,,
,Screen_4,canvas.Screen,0_2_2_3,,skipped,3,3182215.0999999642,,,3182212,,3182215.199999988,2021-11-01T16:49:17.995Z,3182505.847,1635782165,full,ni_sequenzen,NI_Sequenzen,,,,,,,,,,,,,,
,Screen_5,canvas.Screen,0_2_2_4,,skipped,3,3182216.199999988,,,3182212,,3182216.199999988,2021-11-01T16:49:17.996Z,3182505.847,1635782165,full,ni_sequenzen,NI_Sequenzen,,,,,,,,,,,,,,
,Screen_6,canvas.Screen,0_2_2_5,,skipped,3,3182217.2999999523,,,3182212,,3182217.2999999523,2021-11-01T16:49:17.997Z,3182505.847,1635782165,full,ni_sequenzen,NI_Sequenzen,,,,,,,,,,,,,,
,Sequence,flow.Sequence,0_2_2,,completion,3,3182211.0999999642,,,3182212,,3182217.5,2021-11-01T16:49:17.997Z,3182505.847,1635782165,full,ni_sequenzen,NI_Sequenzen,,,,,,,,,,,,,,
,Screen_1,canvas.Screen,0_2_3_0,,skipped,4,3182218.699999988,,,3182218.699999988,,3182218.7999999523,2021-11-01T16:49:17.998Z,3182505.847,1635782165,full,ni_sequenzen,NI_Sequenzen,,,,,,,,,,,,,,
,Screen_2,canvas.Screen,0_2_3_1,,skipped,4,3182219.7999999523,,,3182218.699999988,,3182219.7999999523,2021-11-01T16:49:17.999Z,3182505.847,1635782165,full,ni_sequenzen,NI_Sequenzen,,,,,,,,,,,,,,
,Screen_3,canvas.Screen,0_2_3_2,,skipped,4,3182220.699999988,,,3182218.699999988,,3182220.7999999523,2021-11-01T16:49:18.000Z,3182505.847,1635782165,full,ni_sequenzen,NI_Sequenzen,,,,,,,,,,,,,,
,Screen_4,canvas.Screen,0_2_3_3,,skipped,4,3182221.7999999523,,,3182218.699999988,,3182221.899999976,2021-11-01T16:49:18.001Z,3182505.847,1635782165,full,ni_sequenzen,NI_Sequenzen,,,,,,,,,,,,,,
,Screen_5,canvas.Screen,0_2_3_4,,skipped,4,3182222.7999999523,,,3182218.699999988,,3182222.899999976,2021-11-01T16:49:18.002Z,3182505.847,1635782165,full,ni_sequenzen,NI_Sequenzen,,,,,,,,,,,,,,
,Screen_6,canvas.Screen,0_2_3_5,,skipped,4,3182225,,,3182218.699999988,,3182225.0999999642,2021-11-01T16:49:18.005Z,3182505.847,1635782165,full,ni_sequenzen,NI_Sequenzen,,,,,,,,,,,,,,
,Sequence,flow.Sequence,0_2_3,,completion,4,3182217.899999976,,,3182218.699999988,,3182225.199999988,2021-11-01T16:49:18.005Z,3182505.847,1635782165,full,ni_sequenzen,NI_Sequenzen,,,,,,,,,,,,,,
,Screen_1,canvas.Screen,0_2_4_0,,skipped,5,3182226.5,,,3182226.5,,3182226.699999988,2021-11-01T16:49:18.006Z,3182505.847,1635782165,full,ni_sequenzen,NI_Sequenzen,,,,,,,,,,,,,,
,Screen_2,canvas.Screen,0_2_4_1,,skipped,5,3182227.5999999642,,,3182226.5,,3182227.699999988,2021-11-01T16:49:18.007Z,3182505.847,1635782165,full,ni_sequenzen,NI_Sequenzen,,,,,,,,,,,,,,
,Screen_3,canvas.Screen,0_2_4_2,,skipped,5,3182228.5999999642,,,3182226.5,,3182228.699999988,2021-11-01T16:49:18.008Z,3182505.847,1635782165,full,ni_sequenzen,NI_Sequenzen,,,,,,,,,,,,,,
,Screen_4,canvas.Screen,0_2_4_3,,skipped,5,3182229.5999999642,,,3182226.5,,3182229.7999999523,2021-11-01T16:49:18.009Z,3182505.847,1635782165,full,ni_sequenzen,NI_Sequenzen,,,,,,,,,,,,,,
,Screen_5,canvas.Screen,0_2_4_4,,skipped,5,3182230.699999988,,,3182226.5,,3182230.699999988,2021-11-01T16:49:18.010Z,3182505.847,1635782165,full,ni_sequenzen,NI_Sequenzen,,,,,,,,,,,,,,
,Screen_6,canvas.Screen,0_2_4_5,,skipped,5,3182231.5999999642,,,3182226.5,,3182231.699999988,2021-11-01T16:49:18.011Z,3182505.847,1635782165,full,ni_sequenzen,NI_Sequenzen,,,,,,,,,,,,,,
,Sequence,flow.Sequence,0_2_4,,completion,5,3182225.699999988,,,3182226.5,,3182231.899999976,2021-11-01T16:49:18.011Z,3182505.847,1635782165,full,ni_sequenzen,NI_Sequenzen,,,,,,,,,,,,,,
,Screen_1,canvas.Screen,0_2_5_0,,skipped,6,3182233.199999988,,,3182233.199999988,,3182233.2999999523,2021-11-01T16:49:18.013Z,3182505.847,1635782165,full,ni_sequenzen,NI_Sequenzen,,,,,,,,,,,,,,
,Screen_2,canvas.Screen,0_2_5_1,,skipped,6,3182249.7999999523,,,3182233.199999988,,3182250.0999999642,2021-11-01T16:49:18.030Z,3182505.847,1635782165,full,ni_sequenzen,NI_Sequenzen,,,,,,,,,,,,,,
,Screen_3,canvas.Screen,0_2_5_2,,skipped,6,3182251.5999999642,,,3182233.199999988,,3182251.699999988,2021-11-01T16:49:18.031Z,3182505.847,1635782165,full,ni_sequenzen,NI_Sequenzen,,,,,,,,,,,,,,
,Screen_4,canvas.Screen,0_2_5_3,,skipped,6,3182252.7999999523,,,3182233.199999988,,3182252.899999976,2021-11-01T16:49:18.032Z,3182505.847,1635782165,full,ni_sequenzen,NI_Sequenzen,,,,,,,,,,,,,,
,Screen_5,canvas.Screen,0_2_5_4,,skipped,6,3182253.899999976,,,3182233.199999988,,3182254,2021-11-01T16:49:18.033Z,3182505.847,1635782165,full,ni_sequenzen,NI_Sequenzen,,,,,,,,,,,,,,
,Screen_6,canvas.Screen,0_2_5_5,,skipped,6,3182254.899999976,,,3182233.199999988,,3182255,2021-11-01T16:49:18.034Z,3182505.847,1635782165,full,ni_sequenzen,NI_Sequenzen,,,,,,,,,,,,,,
,Sequence,flow.Sequence,0_2_5,,completion,6,3182232.2999999523,,,3182233.199999988,,3182255.0999999642,2021-11-01T16:49:18.035Z,3182505.847,1635782165,full,ni_sequenzen,NI_Sequenzen,,,,,,,,,,,,,,
,Screen_1,canvas.Screen,0_2_6_0,,skipped,7,3182256.5,,,3182256.5,,3182256.5999999642,2021-11-01T16:49:18.036Z,3182505.847,1635782165,full,ni_sequenzen,NI_Sequenzen,,,,,,,,,,,,,,
,Screen_2,canvas.Screen,0_2_6_1,,skipped,7,3182257.699999988,,,3182256.5,,3182257.7999999523,2021-11-01T16:49:18.037Z,3182505.847,1635782165,full,ni_sequenzen,NI_Sequenzen,,,,,,,,,,,,,,
,Screen_3,canvas.Screen,0_2_6_2,,skipped,7,3182258.699999988,,,3182256.5,,3182258.7999999523,2021-11-01T16:49:18.038Z,3182505.847,1635782165,full,ni_sequenzen,NI_Sequenzen,,,,,,,,,,,,,,
,Screen_4,canvas.Screen,0_2_6_3,,skipped,7,3182259.7999999523,,,3182256.5,,3182259.899999976,2021-11-01T16:49:18.039Z,3182505.847,1635782165,full,ni_sequenzen,NI_Sequenzen,,,,,,,,,,,,,,
,Screen_5,canvas.Screen,0_2_6_4,,skipped,7,3182261.0999999642,,,3182256.5,,3182261.199999988,2021-11-01T16:49:18.041Z,3182505.847,1635782165,full,ni_sequenzen,NI_Sequenzen,,,,,,,,,,,,,,
,Screen_6,canvas.Screen,0_2_6_5,,skipped,7,3182262.2999999523,,,3182256.5,,3182262.399999976,2021-11-01T16:49:18.042Z,3182505.847,1635782165,full,ni_sequenzen,NI_Sequenzen,,,,,,,,,,,,,,
,Sequence,flow.Sequence,0_2_6,,completion,7,3182255.699999988,,,3182256.5,,3182262.5,2021-11-01T16:49:18.042Z,3182505.847,1635782165,full,ni_sequenzen,NI_Sequenzen,,,,,,,,,,,,,,
,Screen_1,canvas.Screen,0_2_7_0,,skipped,8,3182263.7999999523,,,3182263.7999999523,,3182264,2021-11-01T16:49:18.043Z,3182505.847,1635782165,full,ni_sequenzen,NI_Sequenzen,,,,,,,,,,,,,,
,Screen_2,canvas.Screen,0_2_7_1,,skipped,8,3182265.0999999642,,,3182263.7999999523,,3182265.0999999642,2021-11-01T16:49:18.045Z,3182505.847,1635782165,full,ni_sequenzen,NI_Sequenzen,,,,,,,,,,,,,,
,Screen_3,canvas.Screen,0_2_7_2,,skipped,8,3182266.0999999642,,,3182263.7999999523,,3182266.0999999642,2021-11-01T16:49:18.046Z,3182505.847,1635782165,full,ni_sequenzen,NI_Sequenzen,,,,,,,,,,,,,,
,Screen_4,canvas.Screen,0_2_7_3,,skipped,8,3182267.0999999642,,,3182263.7999999523,,3182267.199999988,2021-11-01T16:49:18.047Z,3182505.847,1635782165,full,ni_sequenzen,NI_Sequenzen,,,,,,,,,,,,,,
,Screen_5,canvas.Screen,0_2_7_4,,skipped,8,3182268.0999999642,,,3182263.7999999523,,3182268.199999988,2021-11-01T16:49:18.048Z,3182505.847,1635782165,full,ni_sequenzen,NI_Sequenzen,,,,,,,,,,,,,,
,Screen_6,canvas.Screen,0_2_7_5,,skipped,8,3182269.0999999642,,,3182263.7999999523,,3182269.199999988,2021-11-01T16:49:18.049Z,3182505.847,1635782165,full,ni_sequenzen,NI_Sequenzen,,,,,,,,,,,,,,
,Sequence,flow.Sequence,0_2_7,,completion,8,3182263,,,3182263.7999999523,,3182269.399999976,2021-11-01T16:49:18.049Z,3182505.847,1635782165,full,ni_sequenzen,NI_Sequenzen,,,,,,,,,,,,,,
,Screen_1,canvas.Screen,0_2_8_0,,skipped,9,3182271.5999999642,,,3182271.5999999642,,3182271.699999988,2021-11-01T16:49:18.051Z,3182505.847,1635782165,full,ni_sequenzen,NI_Sequenzen,,,,,,,,,,,,,,
,Screen_2,canvas.Screen,0_2_8_1,,skipped,9,3182272.5999999642,,,3182271.5999999642,,3182272.699999988,2021-11-01T16:49:18.052Z,3182505.847,1635782165,full,ni_sequenzen,NI_Sequenzen,,,,,,,,,,,,,,
,Screen_3,canvas.Screen,0_2_8_2,,skipped,9,3182273.7999999523,,,3182271.5999999642,,3182273.899999976,2021-11-01T16:49:18.053Z,3182505.847,1635782165,full,ni_sequenzen,NI_Sequenzen,,,,,,,,,,,,,,
,Screen_4,canvas.Screen,0_2_8_3,,skipped,9,3182274.7999999523,,,3182271.5999999642,,3182275,2021-11-01T16:49:18.054Z,3182505.847,1635782165,full,ni_sequenzen,NI_Sequenzen,,,,,,,,,,,,,,
,Screen_5,canvas.Screen,0_2_8_4,,skipped,9,3182275.899999976,,,3182271.5999999642,,3182276,2021-11-01T16:49:18.055Z,3182505.847,1635782165,full,ni_sequenzen,NI_Sequenzen,,,,,,,,,,,,,,
,Screen_6,canvas.Screen,0_2_8_5,,skipped,9,3182277,,,3182271.5999999642,,3182277.0999999642,2021-11-01T16:49:18.057Z,3182505.847,1635782165,full,ni_sequenzen,NI_Sequenzen,,,,,,,,,,,,,,
,Sequence,flow.Sequence,0_2_8,,completion,9,3182269.7999999523,,,3182271.5999999642,,3182277.199999988,2021-11-01T16:49:18.057Z,3182505.847,1635782165,full,ni_sequenzen,NI_Sequenzen,,,,,,,,,,,,,,
,Screen_1,canvas.Screen,0_2_9_0,,skipped,10,3182278.5,,,3182278.5,,3182278.5999999642,2021-11-01T16:49:18.058Z,3182505.847,1635782165,full,ni_sequenzen,NI_Sequenzen,,,,,,,,,,,,,,
,Screen_2,canvas.Screen,0_2_9_1,,skipped,10,3182279.5,,,3182278.5,,3182279.5999999642,2021-11-01T16:49:18.059Z,3182505.847,1635782165,full,ni_sequenzen,NI_Sequenzen,,,,,,,,,,,,,,
,Screen_3,canvas.Screen,0_2_9_2,,skipped,10,3182280.5,,,3182278.5,,3182280.5999999642,2021-11-01T16:49:18.060Z,3182505.847,1635782165,full,ni_sequenzen,NI_Sequenzen,,,,,,,,,,,,,,
,Screen_4,canvas.Screen,0_2_9_3,,skipped,10,3182281.5,,,3182278.5,,3182281.699999988,2021-11-01T16:49:18.061Z,3182505.847,1635782165,full,ni_sequenzen,NI_Sequenzen,,,,,,,,,,,,,,
,Screen_5,canvas.Screen,0_2_9_4,,skipped,10,3182282.5999999642,,,3182278.5,,3182282.5999999642,2021-11-01T16:49:18.062Z,3182505.847,1635782165,full,ni_sequenzen,NI_Sequenzen,,,,,,,,,,,,,,
,Screen_6,canvas.Screen,0_2_9_5,,skipped,10,3182283.5999999642,,,3182278.5,,3182283.699999988,2021-11-01T16:49:18.063Z,3182505.847,1635782165,full,ni_sequenzen,NI_Sequenzen,,,,,,,,,,,,,,
,Sequence,flow.Sequence,0_2_9,,completion,10,3182277.699999988,,,3182278.5,,3182283.899999976,2021-11-01T16:49:18.063Z,3182505.847,1635782165,full,ni_sequenzen,NI_Sequenzen,,,,,,,,,,,,,,
,Screen_1,canvas.Screen,0_2_10_0,,skipped,11,3182285.0999999642,,,3182285.0999999642,,3182285.199999988,2021-11-01T16:49:18.065Z,3182505.847,1635782165,full,ni_sequenzen,NI_Sequenzen,,,,,,,,,,,,,,
,Screen_2,canvas.Screen,0_2_10_1,,skipped,11,3182286.0999999642,,,3182285.0999999642,,3182286.199999988,2021-11-01T16:49:18.066Z,3182505.847,1635782165,full,ni_sequenzen,NI_Sequenzen,,,,,,,,,,,,,,
,Screen_3,canvas.Screen,0_2_10_2,,skipped,11,3182287.199999988,,,3182285.0999999642,,3182287.2999999523,2021-11-01T16:49:18.067Z,3182505.847,1635782165,full,ni_sequenzen,NI_Sequenzen,,,,,,,,,,,,,,
,Screen_4,canvas.Screen,0_2_10_3,,skipped,11,3182289.199999988,,,3182285.0999999642,,3182289.2999999523,2021-11-01T16:49:18.069Z,3182505.847,1635782165,full,ni_sequenzen,NI_Sequenzen,,,,,,,,,,,,,,
,Screen_5,canvas.Screen,0_2_10_4,,skipped,11,3182290.399999976,,,3182285.0999999642,,3182290.5,2021-11-01T16:49:18.070Z,3182505.847,1635782165,full,ni_sequenzen,NI_Sequenzen,,,,,,,,,,,,,,
,Screen_6,canvas.Screen,0_2_10_5,,skipped,11,3182291.399999976,,,3182285.0999999642,,3182291.5999999642,2021-11-01T16:49:18.071Z,3182505.847,1635782165,full,ni_sequenzen,NI_Sequenzen,,,,,,,,,,,,,,
,Sequence,flow.Sequence,0_2_10,,completion,11,3182284.2999999523,,,3182285.0999999642,,3182291.7999999523,2021-11-01T16:49:18.071Z,3182505.847,1635782165,full,ni_sequenzen,NI_Sequenzen,,,,,,,,,,,,,,
,Screen_1,canvas.Screen,0_2_11_0,,skipped,12,3182293.0999999642,,,3182293.0999999642,,3182293.0999999642,2021-11-01T16:49:18.073Z,3182505.847,1635782165,full,ni_sequenzen,NI_Sequenzen,,,,,,,,,,,,,,
,Screen_2,canvas.Screen,0_2_11_1,,skipped,12,3182294.199999988,,,3182293.0999999642,,3182294.199999988,2021-11-01T16:49:18.074Z,3182505.847,1635782165,full,ni_sequenzen,NI_Sequenzen,,,,,,,,,,,,,,
,Screen_3,canvas.Screen,0_2_11_2,,skipped,12,3182295.199999988,,,3182293.0999999642,,3182295.2999999523,2021-11-01T16:49:18.075Z,3182505.847,1635782165,full,ni_sequenzen,NI_Sequenzen,,,,,,,,,,,,,,
,Screen_4,canvas.Screen,0_2_11_3,,skipped,12,3182296.199999988,,,3182293.0999999642,,3182296.2999999523,2021-11-01T16:49:18.076Z,3182505.847,1635782165,full,ni_sequenzen,NI_Sequenzen,,,,,,,,,,,,,,
,Screen_5,canvas.Screen,0_2_11_4,,skipped,12,3182297.199999988,,,3182293.0999999642,,3182297.2999999523,2021-11-01T16:49:18.077Z,3182505.847,1635782165,full,ni_sequenzen,NI_Sequenzen,,,,,,,,,,,,,,
,Screen_6,canvas.Screen,0_2_11_5,,skipped,12,3182298.2999999523,,,3182293.0999999642,,3182298.399999976,2021-11-01T16:49:18.078Z,3182505.847,1635782165,full,ni_sequenzen,NI_Sequenzen,,,,,,,,,,,,,,
,Sequence,flow.Sequence,0_2_11,,completion,12,3182292.199999988,,,3182293.0999999642,,3182298.5999999642,2021-11-01T16:49:18.078Z,3182505.847,1635782165,full,ni_sequenzen,NI_Sequenzen,,,,,,,,,,,,,,
,Screen_1,canvas.Screen,0_2_12_0,,skipped,13,3182299.7999999523,,,3182299.7999999523,,3182299.899999976,2021-11-01T16:49:18.079Z,3182505.847,1635782165,full,ni_sequenzen,NI_Sequenzen,,,,,,,,,,,,,,
,Screen_2,canvas.Screen,0_2_12_1,,skipped,13,3182300.899999976,,,3182299.7999999523,,3182300.899999976,2021-11-01T16:49:18.080Z,3182505.847,1635782165,full,ni_sequenzen,NI_Sequenzen,,,,,,,,,,,,,,
,Screen_3,canvas.Screen,0_2_12_2,,skipped,13,3182301.7999999523,,,3182299.7999999523,,3182302,2021-11-01T16:49:18.081Z,3182505.847,1635782165,full,ni_sequenzen,NI_Sequenzen,,,,,,,,,,,,,,
,Screen_4,canvas.Screen,0_2_12_3,,skipped,13,3182302.7999999523,,,3182299.7999999523,,3182302.899999976,2021-11-01T16:49:18.082Z,3182505.847,1635782165,full,ni_sequenzen,NI_Sequenzen,,,,,,,,,,,,,,
,Screen_5,canvas.Screen,0_2_12_4,,skipped,13,3182303.7999999523,,,3182299.7999999523,,3182304,2021-11-01T16:49:18.083Z,3182505.847,1635782165,full,ni_sequenzen,NI_Sequenzen,,,,,,,,,,,,,,
,Screen_6,canvas.Screen,0_2_12_5,,skipped,13,3182304.899999976,,,3182299.7999999523,,3182305,2021-11-01T16:49:18.084Z,3182505.847,1635782165,full,ni_sequenzen,NI_Sequenzen,,,,,,,,,,,,,,
,Sequence,flow.Sequence,0_2_12,,completion,13,3182298.899999976,,,3182299.7999999523,,3182305.0999999642,2021-11-01T16:49:18.085Z,3182505.847,1635782165,full,ni_sequenzen,NI_Sequenzen,,,,,,,,,,,,,,
,Screen_1,canvas.Screen,0_2_13_0,,skipped,14,3182306.399999976,,,3182306.399999976,,3182306.5,2021-11-01T16:49:18.086Z,3182505.847,1635782165,full,ni_sequenzen,NI_Sequenzen,,,,,,,,,,,,,,
,Screen_2,canvas.Screen,0_2_13_1,,skipped,14,3182308.7999999523,,,3182306.399999976,,3182308.899999976,2021-11-01T16:49:18.088Z,3182505.847,1635782165,full,ni_sequenzen,NI_Sequenzen,,,,,,,,,,,,,,
,Screen_3,canvas.Screen,0_2_13_2,,skipped,14,3182310,,,3182306.399999976,,3182310.0999999642,2021-11-01T16:49:18.090Z,3182505.847,1635782165,full,ni_sequenzen,NI_Sequenzen,,,,,,,,,,,,,,
,Screen_4,canvas.Screen,0_2_13_3,,skipped,14,3182311,,,3182306.399999976,,3182311.0999999642,2021-11-01T16:49:18.091Z,3182505.847,1635782165,full,ni_sequenzen,NI_Sequenzen,,,,,,,,,,,,,,
,Screen_5,canvas.Screen,0_2_13_4,,skipped,14,3182312.199999988,,,3182306.399999976,,3182312.2999999523,2021-11-01T16:49:18.092Z,3182505.847,1635782165,full,ni_sequenzen,NI_Sequenzen,,,,,,,,,,,,,,
,Screen_6,canvas.Screen,0_2_13_5,,skipped,14,3182313.199999988,,,3182306.399999976,,3182313.2999999523,2021-11-01T16:49:18.093Z,3182505.847,1635782165,full,ni_sequenzen,NI_Sequenzen,,,,,,,,,,,,,,
,Sequence,flow.Sequence,0_2_13,,completion,14,3182305.5999999642,,,3182306.399999976,,3182313.5,2021-11-01T16:49:18.093Z,3182505.847,1635782165,full,ni_sequenzen,NI_Sequenzen,,,,,,,,,,,,,,
,Screen_1,canvas.Screen,0_2_14_0,,skipped,15,3182315,,,3182315,,3182315.0999999642,2021-11-01T16:49:18.095Z,3182505.847,1635782165,full,ni_sequenzen,NI_Sequenzen,,,,,,,,,,,,,,
,Screen_2,canvas.Screen,0_2_14_1,,skipped,15,3182316,,,3182315,,3182316.0999999642,2021-11-01T16:49:18.096Z,3182505.847,1635782165,full,ni_sequenzen,NI_Sequenzen,,,,,,,,,,,,,,
,Screen_3,canvas.Screen,0_2_14_2,,skipped,15,3182317,,,3182315,,3182317.0999999642,2021-11-01T16:49:18.097Z,3182505.847,1635782165,full,ni_sequenzen,NI_Sequenzen,,,,,,,,,,,,,,
,Screen_4,canvas.Screen,0_2_14_3,,skipped,15,3182318.199999988,,,3182315,,3182318.2999999523,2021-11-01T16:49:18.098Z,3182505.847,1635782165,full,ni_sequenzen,NI_Sequenzen,,,,,,,,,,,,,,
,Screen_5,canvas.Screen,0_2_14_4,,skipped,15,3182319.199999988,,,3182315,,3182319.2999999523,2021-11-01T16:49:18.099Z,3182505.847,1635782165,full,ni_sequenzen,NI_Sequenzen,,,,,,,,,,,,,,
,Screen_6,canvas.Screen,0_2_14_5,,skipped,15,3182320.199999988,,,3182315,,3182320.399999976,2021-11-01T16:49:18.100Z,3182505.847,1635782165,full,ni_sequenzen,NI_Sequenzen,,,,,,,,,,,,,,
,Sequence,flow.Sequence,0_2_14,,completion,15,3182314,,,3182315,,3182320.5999999642,2021-11-01T16:49:18.100Z,3182505.847,1635782165,full,ni_sequenzen,NI_Sequenzen,,,,,,,,,,,,,,
,Screen_1,canvas.Screen,0_2_15_0,,skipped,16,3182321.899999976,,,3182321.899999976,,3182322,2021-11-01T16:49:18.101Z,3182505.847,1635782165,full,ni_sequenzen,NI_Sequenzen,,,,,,,,,,,,,,
,Screen_2,canvas.Screen,0_2_15_1,,skipped,16,3182322.899999976,,,3182321.899999976,,3182323,2021-11-01T16:49:18.102Z,3182505.847,1635782165,full,ni_sequenzen,NI_Sequenzen,,,,,,,,,,,,,,
,Screen_3,canvas.Screen,0_2_15_2,,skipped,16,3182324.0999999642,,,3182321.899999976,,3182324.199999988,2021-11-01T16:49:18.104Z,3182505.847,1635782165,full,ni_sequenzen,NI_Sequenzen,,,,,,,,,,,,,,
,Screen_4,canvas.Screen,0_2_15_3,,skipped,16,3182325.199999988,,,3182321.899999976,,3182325.2999999523,2021-11-01T16:49:18.105Z,3182505.847,1635782165,full,ni_sequenzen,NI_Sequenzen,,,,,,,,,,,,,,
,Screen_5,canvas.Screen,0_2_15_4,,skipped,16,3182327.199999988,,,3182321.899999976,,3182327.2999999523,2021-11-01T16:49:18.107Z,3182505.847,1635782165,full,ni_sequenzen,NI_Sequenzen,,,,,,,,,,,,,,
,Screen_6,canvas.Screen,0_2_15_5,,skipped,16,3182328.2999999523,,,3182321.899999976,,3182328.2999999523,2021-11-01T16:49:18.108Z,3182505.847,1635782165,full,ni_sequenzen,NI_Sequenzen,,,,,,,,,,,,,,
,Sequence,flow.Sequence,0_2_15,,completion,16,3182321,,,3182321.899999976,,3182328.5,2021-11-01T16:49:18.108Z,3182505.847,1635782165,full,ni_sequenzen,NI_Sequenzen,,,,,,,,,,,,,,
,Screen_1,canvas.Screen,0_2_16_0,,skipped,17,3182329.699999988,,,3182329.699999988,,3182329.7999999523,2021-11-01T16:49:18.109Z,3182505.847,1635782165,full,ni_sequenzen,NI_Sequenzen,,,,,,,,,,,,,,
,Screen_2,canvas.Screen,0_2_16_1,,skipped,17,3182330.7999999523,,,3182329.699999988,,3182330.899999976,2021-11-01T16:49:18.110Z,3182505.847,1635782165,full,ni_sequenzen,NI_Sequenzen,,,,,,,,,,,,,,
,Screen_3,canvas.Screen,0_2_16_2,,skipped,17,3182331.7999999523,,,3182329.699999988,,3182331.899999976,2021-11-01T16:49:18.111Z,3182505.847,1635782165,full,ni_sequenzen,NI_Sequenzen,,,,,,,,,,,,,,
,Screen_4,canvas.Screen,0_2_16_3,,skipped,17,3182332.7999999523,,,3182329.699999988,,3182332.899999976,2021-11-01T16:49:18.112Z,3182505.847,1635782165,full,ni_sequenzen,NI_Sequenzen,,,,,,,,,,,,,,
,Screen_5,canvas.Screen,0_2_16_4,,skipped,17,3182333.7999999523,,,3182329.699999988,,3182333.899999976,2021-11-01T16:49:18.113Z,3182505.847,1635782165,full,ni_sequenzen,NI_Sequenzen,,,,,,,,,,,,,,
,Screen_6,canvas.Screen,0_2_16_5,,skipped,17,3182334.7999999523,,,3182329.699999988,,3182334.899999976,2021-11-01T16:49:18.114Z,3182505.847,1635782165,full,ni_sequenzen,NI_Sequenzen,,,,,,,,,,,,,,
,Sequence,flow.Sequence,0_2_16,,completion,17,3182328.899999976,,,3182329.699999988,,3182335,2021-11-01T16:49:18.115Z,3182505.847,1635782165,full,ni_sequenzen,NI_Sequenzen,,,,,,,,,,,,,,
,Screen_1,canvas.Screen,0_2_17_0,,skipped,18,3182336.2999999523,,,3182336.2999999523,,3182336.399999976,2021-11-01T16:49:18.116Z,3182505.847,1635782165,full,ni_sequenzen,NI_Sequenzen,,,,,,,,,,,,,,
,Screen_2,canvas.Screen,0_2_17_1,,skipped,18,3182337.399999976,,,3182336.2999999523,,3182337.5999999642,2021-11-01T16:49:18.117Z,3182505.847,1635782165,full,ni_sequenzen,NI_Sequenzen,,,,,,,,,,,,,,
,Screen_3,canvas.Screen,0_2_17_2,,skipped,18,3182338.899999976,,,3182336.2999999523,,3182339.0999999642,2021-11-01T16:49:18.119Z,3182505.847,1635782165,full,ni_sequenzen,NI_Sequenzen,,,,,,,,,,,,,,
,Screen_4,canvas.Screen,0_2_17_3,,skipped,18,3182340.699999988,,,3182336.2999999523,,3182340.7999999523,2021-11-01T16:49:18.120Z,3182505.847,1635782165,full,ni_sequenzen,NI_Sequenzen,,,,,,,,,,,,,,
,Screen_5,canvas.Screen,0_2_17_4,,skipped,18,3182342,,,3182336.2999999523,,3182342.0999999642,2021-11-01T16:49:18.122Z,3182505.847,1635782165,full,ni_sequenzen,NI_Sequenzen,,,,,,,,,,,,,,
,Screen_6,canvas.Screen,0_2_17_5,,skipped,18,3182343.0999999642,,,3182336.2999999523,,3182343.0999999642,2021-11-01T16:49:18.123Z,3182505.847,1635782165,full,ni_sequenzen,NI_Sequenzen,,,,,,,,,,,,,,
,Sequence,flow.Sequence,0_2_17,,completion,18,3182335.5,,,3182336.2999999523,,3182343.2999999523,2021-11-01T16:49:18.123Z,3182505.847,1635782165,full,ni_sequenzen,NI_Sequenzen,,,,,,,,,,,,,,
,Screen_1,canvas.Screen,0_2_18_0,,skipped,19,3182345.699999988,,,3182345.699999988,,3182345.7999999523,2021-11-01T16:49:18.125Z,3182505.847,1635782165,full,ni_sequenzen,NI_Sequenzen,,,,,,,,,,,,,,
,Screen_2,canvas.Screen,0_2_18_1,,skipped,19,3182346.7999999523,,,3182345.699999988,,3182346.7999999523,2021-11-01T16:49:18.126Z,3182505.847,1635782165,full,ni_sequenzen,NI_Sequenzen,,,,,,,,,,,,,,
,Screen_3,canvas.Screen,0_2_18_2,,skipped,19,3182347.7999999523,,,3182345.699999988,,3182347.899999976,2021-11-01T16:49:18.127Z,3182505.847,1635782165,full,ni_sequenzen,NI_Sequenzen,,,,,,,,,,,,,,
,Screen_4,canvas.Screen,0_2_18_3,,skipped,19,3182348.7999999523,,,3182345.699999988,,3182348.899999976,2021-11-01T16:49:18.128Z,3182505.847,1635782165,full,ni_sequenzen,NI_Sequenzen,,,,,,,,,,,,,,
,Screen_5,canvas.Screen,0_2_18_4,,skipped,19,3182349.7999999523,,,3182345.699999988,,3182349.899999976,2021-11-01T16:49:18.129Z,3182505.847,1635782165,full,ni_sequenzen,NI_Sequenzen,,,,,,,,,,,,,,
,Screen_6,canvas.Screen,0_2_18_5,,skipped,19,3182350.899999976,,,3182345.699999988,,3182350.899999976,2021-11-01T16:49:18.130Z,3182505.847,1635782165,full,ni_sequenzen,NI_Sequenzen,,,,,,,,,,,,,,
,Sequence,flow.Sequence,0_2_18,,completion,19,3182343.699999988,,,3182345.699999988,,3182351.0999999642,2021-11-01T16:49:18.131Z,3182505.847,1635782165,full,ni_sequenzen,NI_Sequenzen,,,,,,,,,,,,,,
,Screen_1,canvas.Screen,0_2_19_0,,skipped,20,3182352.2999999523,,,3182352.2999999523,,3182352.399999976,2021-11-01T16:49:18.132Z,3182505.847,1635782165,full,ni_sequenzen,NI_Sequenzen,,,,,,,,,,,,,,
,Screen_2,canvas.Screen,0_2_19_1,,skipped,20,3182353.399999976,,,3182352.2999999523,,3182353.5,2021-11-01T16:49:18.133Z,3182505.847,1635782165,full,ni_sequenzen,NI_Sequenzen,,,,,,,,,,,,,,
,Screen_3,canvas.Screen,0_2_19_2,,skipped,20,3182354.399999976,,,3182352.2999999523,,3182354.5,2021-11-01T16:49:18.134Z,3182505.847,1635782165,full,ni_sequenzen,NI_Sequenzen,,,,,,,,,,,,,,
,Screen_4,canvas.Screen,0_2_19_3,,skipped,20,3182355.399999976,,,3182352.2999999523,,3182355.5,2021-11-01T16:49:18.135Z,3182505.847,1635782165,full,ni_sequenzen,NI_Sequenzen,,,,,,,,,,,,,,
,Screen_5,canvas.Screen,0_2_19_4,,skipped,20,3182356.399999976,,,3182352.2999999523,,3182356.5,2021-11-01T16:49:18.136Z,3182505.847,1635782165,full,ni_sequenzen,NI_Sequenzen,,,,,,,,,,,,,,
,Screen_6,canvas.Screen,0_2_19_5,,skipped,20,3182357.5,,,3182352.2999999523,,3182357.699999988,2021-11-01T16:49:18.137Z,3182505.847,1635782165,full,ni_sequenzen,NI_Sequenzen,,,,,,,,,,,,,,
,Sequence,flow.Sequence,0_2_19,,completion,20,3182351.5,,,3182352.2999999523,,3182357.699999988,2021-11-01T16:49:18.137Z,3182505.847,1635782165,full,ni_sequenzen,NI_Sequenzen,,,,,,,,,,,,,,
,Screen_1,canvas.Screen,0_2_20_0,,skipped,21,3182359,,,3182359,,3182359.0999999642,2021-11-01T16:49:18.139Z,3182505.847,1635782165,full,ni_sequenzen,NI_Sequenzen,,,,,,,,,,,,,,
,Screen_2,canvas.Screen,0_2_20_1,,skipped,21,3182360.0999999642,,,3182359,,3182360.199999988,2021-11-01T16:49:18.140Z,3182505.847,1635782165,full,ni_sequenzen,NI_Sequenzen,,,,,,,,,,,,,,
,Screen_3,canvas.Screen,0_2_20_2,,skipped,21,3182362.0999999642,,,3182359,,3182362.199999988,2021-11-01T16:49:18.142Z,3182505.847,1635782165,full,ni_sequenzen,NI_Sequenzen,,,,,,,,,,,,,,
,Screen_4,canvas.Screen,0_2_20_3,,skipped,21,3182363.2999999523,,,3182359,,3182363.399999976,2021-11-01T16:49:18.143Z,3182505.847,1635782165,full,ni_sequenzen,NI_Sequenzen,,,,,,,,,,,,,,
,Screen_5,canvas.Screen,0_2_20_4,,skipped,21,3182364.2999999523,,,3182359,,3182364.399999976,2021-11-01T16:49:18.144Z,3182505.847,1635782165,full,ni_sequenzen,NI_Sequenzen,,,,,,,,,,,,,,
,Screen_6,canvas.Screen,0_2_20_5,,skipped,21,3182365.2999999523,,,3182359,,3182365.399999976,2021-11-01T16:49:18.145Z,3182505.847,1635782165,full,ni_sequenzen,NI_Sequenzen,,,,,,,,,,,,,,
,Sequence,flow.Sequence,0_2_20,,completion,21,3182358.199999988,,,3182359,,3182365.5999999642,2021-11-01T16:49:18.145Z,3182505.847,1635782165,full,ni_sequenzen,NI_Sequenzen,,,,,,,,,,,,,,
,Screen_1,canvas.Screen,0_2_21_0,,skipped,22,3182366.899999976,,,3182366.899999976,,3182366.899999976,2021-11-01T16:49:18.146Z,3182505.847,1635782165,full,ni_sequenzen,NI_Sequenzen,,,,,,,,,,,,,,
,Screen_2,canvas.Screen,0_2_21_1,,skipped,22,3182367.899999976,,,3182366.899999976,,3182367.899999976,2021-11-01T16:49:18.147Z,3182505.847,1635782165,full,ni_sequenzen,NI_Sequenzen,,,,,,,,,,,,,,
,Screen_3,canvas.Screen,0_2_21_2,,skipped,22,3182368.899999976,,,3182366.899999976,,3182369,2021-11-01T16:49:18.148Z,3182505.847,1635782165,full,ni_sequenzen,NI_Sequenzen,,,,,,,,,,,,,,
,Screen_4,canvas.Screen,0_2_21_3,,skipped,22,3182369.899999976,,,3182366.899999976,,3182370,2021-11-01T16:49:18.149Z,3182505.847,1635782165,full,ni_sequenzen,NI_Sequenzen,,,,,,,,,,,,,,
,Screen_5,canvas.Screen,0_2_21_4,,skipped,22,3182370.899999976,,,3182366.899999976,,3182371.0999999642,2021-11-01T16:49:18.150Z,3182505.847,1635782165,full,ni_sequenzen,NI_Sequenzen,,,,,,,,,,,,,,
,Screen_6,canvas.Screen,0_2_21_5,,skipped,22,3182372.699999988,,,3182366.899999976,,3182372.899999976,2021-11-01T16:49:18.152Z,3182505.847,1635782165,full,ni_sequenzen,NI_Sequenzen,,,,,,,,,,,,,,
,Sequence,flow.Sequence,0_2_21,,completion,22,3182366,,,3182366.899999976,,3182373.0999999642,2021-11-01T16:49:18.152Z,3182505.847,1635782165,full,ni_sequenzen,NI_Sequenzen,,,,,,,,,,,,,,
,Screen_1,canvas.Screen,0_2_22_0,,skipped,23,3182374.699999988,,,3182374.699999988,,3182374.7999999523,2021-11-01T16:49:18.154Z,3182505.847,1635782165,full,ni_sequenzen,NI_Sequenzen,,,,,,,,,,,,,,
,Screen_2,canvas.Screen,0_2_22_1,,skipped,23,3182375.7999999523,,,3182374.699999988,,3182375.899999976,2021-11-01T16:49:18.155Z,3182505.847,1635782165,full,ni_sequenzen,NI_Sequenzen,,,,,,,,,,,,,,
,Screen_3,canvas.Screen,0_2_22_2,,skipped,23,3182377.399999976,,,3182374.699999988,,3182377.399999976,2021-11-01T16:49:18.157Z,3182505.847,1635782165,full,ni_sequenzen,NI_Sequenzen,,,,,,,,,,,,,,
,Screen_4,canvas.Screen,0_2_22_3,,skipped,23,3182379,,,3182374.699999988,,3182379.0999999642,2021-11-01T16:49:18.159Z,3182505.847,1635782165,full,ni_sequenzen,NI_Sequenzen,,,,,,,,,,,,,,
,Screen_5,canvas.Screen,0_2_22_4,,skipped,23,3182380.699999988,,,3182374.699999988,,3182380.899999976,2021-11-01T16:49:18.160Z,3182505.847,1635782165,full,ni_sequenzen,NI_Sequenzen,,,,,,,,,,,,,,
,Screen_6,canvas.Screen,0_2_22_5,,skipped,23,3182382.899999976,,,3182374.699999988,,3182383,2021-11-01T16:49:18.162Z,3182505.847,1635782165,full,ni_sequenzen,NI_Sequenzen,,,,,,,,,,,,,,
,Sequence,flow.Sequence,0_2_22,,completion,23,3182373.699999988,,,3182374.699999988,,3182383.199999988,2021-11-01T16:49:18.163Z,3182505.847,1635782165,full,ni_sequenzen,NI_Sequenzen,,,,,,,,,,,,,,
,Screen_1,canvas.Screen,0_2_23_0,,skipped,24,3182384.5,,,3182384.5,,3182384.5999999642,2021-11-01T16:49:18.164Z,3182505.847,1635782165,full,ni_sequenzen,NI_Sequenzen,,,,,,,,,,,,,,
,Screen_2,canvas.Screen,0_2_23_1,,skipped,24,3182385.5,,,3182384.5,,3182385.5999999642,2021-11-01T16:49:18.165Z,3182505.847,1635782165,full,ni_sequenzen,NI_Sequenzen,,,,,,,,,,,,,,
,Screen_3,canvas.Screen,0_2_23_2,,skipped,24,3182386.5,,,3182384.5,,3182386.5999999642,2021-11-01T16:49:18.166Z,3182505.847,1635782165,full,ni_sequenzen,NI_Sequenzen,,,,,,,,,,,,,,
,Screen_4,canvas.Screen,0_2_23_3,,skipped,24,3182387.5999999642,,,3182384.5,,3182387.5999999642,2021-11-01T16:49:18.167Z,3182505.847,1635782165,full,ni_sequenzen,NI_Sequenzen,,,,,,,,,,,,,,
,Screen_5,canvas.Screen,0_2_23_4,,skipped,24,3182388.5,,,3182384.5,,3182388.5999999642,2021-11-01T16:49:18.168Z,3182505.847,1635782165,full,ni_sequenzen,NI_Sequenzen,,,,,,,,,,,,,,
,Screen_6,canvas.Screen,0_2_23_5,,skipped,24,3182389.5999999642,,,3182384.5,,3182389.5999999642,2021-11-01T16:49:18.169Z,3182505.847,1635782165,full,ni_sequenzen,NI_Sequenzen,,,,,,,,,,,,,,
,Sequence,flow.Sequence,0_2_23,,completion,24,3182383.5999999642,,,3182384.5,,3182389.699999988,2021-11-01T16:49:18.169Z,3182505.847,1635782165,full,ni_sequenzen,NI_Sequenzen,,,,,,,,,,,,,,
,Screen_1,canvas.Screen,0_2_24_0,,skipped,25,3182391.199999988,,,3182391.199999988,,3182391.199999988,2021-11-01T16:49:18.171Z,3182505.847,1635782165,full,ni_sequenzen,NI_Sequenzen,,,,,,,,,,,,,,
,Screen_2,canvas.Screen,0_2_24_1,,skipped,25,3182392.199999988,,,3182391.199999988,,3182392.199999988,2021-11-01T16:49:18.172Z,3182505.847,1635782165,full,ni_sequenzen,NI_Sequenzen,,,,,,,,,,,,,,
,Screen_3,canvas.Screen,0_2_24_2,,skipped,25,3182393.199999988,,,3182391.199999988,,3182393.2999999523,2021-11-01T16:49:18.173Z,3182505.847,1635782165,full,ni_sequenzen,NI_Sequenzen,,,,,,,,,,,,,,
,Screen_4,canvas.Screen,0_2_24_3,,skipped,25,3182394.199999988,,,3182391.199999988,,3182394.2999999523,2021-11-01T16:49:18.174Z,3182505.847,1635782165,full,ni_sequenzen,NI_Sequenzen,,,,,,,,,,,,,,
,Screen_5,canvas.Screen,0_2_24_4,,skipped,25,3182395.0999999642,,,3182391.199999988,,3182395.2999999523,2021-11-01T16:49:18.175Z,3182505.847,1635782165,full,ni_sequenzen,NI_Sequenzen,,,,,,,,,,,,,,
,Screen_6,canvas.Screen,0_2_24_5,,skipped,25,3182396.199999988,,,3182391.199999988,,3182396.199999988,2021-11-01T16:49:18.176Z,3182505.847,1635782165,full,ni_sequenzen,NI_Sequenzen,,,,,,,,,,,,,,
,Sequence,flow.Sequence,0_2_24,,completion,25,3182390.2999999523,,,3182391.199999988,,3182396.399999976,2021-11-01T16:49:18.176Z,3182505.847,1635782165,full,ni_sequenzen,NI_Sequenzen,,,,,,,,,,,,,,
,Screen_1,canvas.Screen,0_2_25_0,,skipped,26,3182398.5,,,3182398.5,,3182398.699999988,2021-11-01T16:49:18.178Z,3182505.847,1635782165,full,ni_sequenzen,NI_Sequenzen,,,,,,,,,,,,,,
,Screen_2,canvas.Screen,0_2_25_1,,skipped,26,3182399.5999999642,,,3182398.5,,3182399.699999988,2021-11-01T16:49:18.179Z,3182505.847,1635782165,full,ni_sequenzen,NI_Sequenzen,,,,,,,,,,,,,,
,Screen_3,canvas.Screen,0_2_25_2,,skipped,26,3182400.5999999642,,,3182398.5,,3182400.7999999523,2021-11-01T16:49:18.180Z,3182505.847,1635782165,full,ni_sequenzen,NI_Sequenzen,,,,,,,,,,,,,,
,Screen_4,canvas.Screen,0_2_25_3,,skipped,26,3182401.5999999642,,,3182398.5,,3182401.699999988,2021-11-01T16:49:18.181Z,3182505.847,1635782165,full,ni_sequenzen,NI_Sequenzen,,,,,,,,,,,,,,
,Screen_5,canvas.Screen,0_2_25_4,,skipped,26,3182402.699999988,,,3182398.5,,3182402.699999988,2021-11-01T16:49:18.182Z,3182505.847,1635782165,full,ni_sequenzen,NI_Sequenzen,,,,,,,,,,,,,,
,Screen_6,canvas.Screen,0_2_25_5,,skipped,26,3182403.699999988,,,3182398.5,,3182403.7999999523,2021-11-01T16:49:18.183Z,3182505.847,1635782165,full,ni_sequenzen,NI_Sequenzen,,,,,,,,,,,,,,
,Sequence,flow.Sequence,0_2_25,,completion,26,3182396.7999999523,,,3182398.5,,3182403.899999976,2021-11-01T16:49:18.183Z,3182505.847,1635782165,full,ni_sequenzen,NI_Sequenzen,,,,,,,,,,,,,,
,Screen_1,canvas.Screen,0_2_26_0,,skipped,27,3182405.0999999642,,,3182405.0999999642,,3182405.199999988,2021-11-01T16:49:18.185Z,3182505.847,1635782165,full,ni_sequenzen,NI_Sequenzen,,,,,,,,,,,,,,
,Screen_2,canvas.Screen,0_2_26_1,,skipped,27,3182406.199999988,,,3182405.0999999642,,3182406.199999988,2021-11-01T16:49:18.186Z,3182505.847,1635782165,full,ni_sequenzen,NI_Sequenzen,,,,,,,,,,,,,,
,Screen_3,canvas.Screen,0_2_26_2,,skipped,27,3182407.699999988,,,3182405.0999999642,,3182407.7999999523,2021-11-01T16:49:18.187Z,3182505.847,1635782165,full,ni_sequenzen,NI_Sequenzen,,,,,,,,,,,,,,
,Screen_4,canvas.Screen,0_2_26_3,,skipped,27,3182409.0999999642,,,3182405.0999999642,,3182409.0999999642,2021-11-01T16:49:18.189Z,3182505.847,1635782165,full,ni_sequenzen,NI_Sequenzen,,,,,,,,,,,,,,
,Screen_5,canvas.Screen,0_2_26_4,,skipped,27,3182410.0999999642,,,3182405.0999999642,,3182410.0999999642,2021-11-01T16:49:18.190Z,3182505.847,1635782165,full,ni_sequenzen,NI_Sequenzen,,,,,,,,,,,,,,
,Screen_6,canvas.Screen,0_2_26_5,,skipped,27,3182411.0999999642,,,3182405.0999999642,,3182411.199999988,2021-11-01T16:49:18.191Z,3182505.847,1635782165,full,ni_sequenzen,NI_Sequenzen,,,,,,,,,,,,,,
,Sequence,flow.Sequence,0_2_26,,completion,27,3182404.2999999523,,,3182405.0999999642,,3182411.2999999523,2021-11-01T16:49:18.191Z,3182505.847,1635782165,full,ni_sequenzen,NI_Sequenzen,,,,,,,,,,,,,,
,Screen_1,canvas.Screen,0_2_27_0,,skipped,28,3182412.5999999642,,,3182412.5999999642,,3182412.699999988,2021-11-01T16:49:18.192Z,3182505.847,1635782165,full,ni_sequenzen,NI_Sequenzen,,,,,,,,,,,,,,
,Screen_2,canvas.Screen,0_2_27_1,,skipped,28,3182413.5999999642,,,3182412.5999999642,,3182413.7999999523,2021-11-01T16:49:18.193Z,3182505.847,1635782165,full,ni_sequenzen,NI_Sequenzen,,,,,,,,,,,,,,
,Screen_3,canvas.Screen,0_2_27_2,,skipped,28,3182414.699999988,,,3182412.5999999642,,3182414.7999999523,2021-11-01T16:49:18.194Z,3182505.847,1635782165,full,ni_sequenzen,NI_Sequenzen,,,,,,,,,,,,,,
,Screen_4,canvas.Screen,0_2_27_3,,skipped,28,3182416.5,,,3182412.5999999642,,3182416.5999999642,2021-11-01T16:49:18.196Z,3182505.847,1635782165,full,ni_sequenzen,NI_Sequenzen,,,,,,,,,,,,,,
,Screen_5,canvas.Screen,0_2_27_4,,skipped,28,3182417.5999999642,,,3182412.5999999642,,3182417.699999988,2021-11-01T16:49:18.197Z,3182505.847,1635782165,full,ni_sequenzen,NI_Sequenzen,,,,,,,,,,,,,,
,Screen_6,canvas.Screen,0_2_27_5,,skipped,28,3182418.5999999642,,,3182412.5999999642,,3182418.699999988,2021-11-01T16:49:18.198Z,3182505.847,1635782165,full,ni_sequenzen,NI_Sequenzen,,,,,,,,,,,,,,
,Sequence,flow.Sequence,0_2_27,,completion,28,3182411.7999999523,,,3182412.5999999642,,3182418.7999999523,2021-11-01T16:49:18.198Z,3182505.847,1635782165,full,ni_sequenzen,NI_Sequenzen,,,,,,,,,,,,,,
,Screen_1,canvas.Screen,0_2_28_0,,skipped,29,3182420.0999999642,,,3182420.0999999642,,3182420.199999988,2021-11-01T16:49:18.200Z,3182505.847,1635782165,full,ni_sequenzen,NI_Sequenzen,,,,,,,,,,,,,,
,Screen_2,canvas.Screen,0_2_28_1,,skipped,29,3182421.0999999642,,,3182420.0999999642,,3182421.199999988,2021-11-01T16:49:18.201Z,3182505.847,1635782165,full,ni_sequenzen,NI_Sequenzen,,,,,,,,,,,,,,
,Screen_3,canvas.Screen,0_2_28_2,,skipped,29,3182422.0999999642,,,3182420.0999999642,,3182422.199999988,2021-11-01T16:49:18.202Z,3182505.847,1635782165,full,ni_sequenzen,NI_Sequenzen,,,,,,,,,,,,,,
,Screen_4,canvas.Screen,0_2_28_3,,skipped,29,3182423.199999988,,,3182420.0999999642,,3182423.5,2021-11-01T16:49:18.203Z,3182505.847,1635782165,full,ni_sequenzen,NI_Sequenzen,,,,,,,,,,,,,,
,Screen_5,canvas.Screen,0_2_28_4,,skipped,29,3182424.5999999642,,,3182420.0999999642,,3182424.699999988,2021-11-01T16:49:18.204Z,3182505.847,1635782165,full,ni_sequenzen,NI_Sequenzen,,,,,,,,,,,,,,
,Screen_6,canvas.Screen,0_2_28_5,,skipped,29,3182425.5999999642,,,3182420.0999999642,,3182425.699999988,2021-11-01T16:49:18.205Z,3182505.847,1635782165,full,ni_sequenzen,NI_Sequenzen,,,,,,,,,,,,,,
,Sequence,flow.Sequence,0_2_28,,completion,29,3182419.2999999523,,,3182420.0999999642,,3182425.7999999523,2021-11-01T16:49:18.205Z,3182505.847,1635782165,full,ni_sequenzen,NI_Sequenzen,,,,,,,,,,,,,,
,Screen_1,canvas.Screen,0_2_29_0,,skipped,30,3182427.0999999642,,,3182427.0999999642,,3182427.199999988,2021-11-01T16:49:18.207Z,3182505.847,1635782165,full,ni_sequenzen,NI_Sequenzen,,,,,,,,,,,,,,
,Screen_2,canvas.Screen,0_2_29_1,,skipped,30,3182428,,,3182427.0999999642,,3182428.199999988,2021-11-01T16:49:18.208Z,3182505.847,1635782165,full,ni_sequenzen,NI_Sequenzen,,,,,,,,,,,,,,
,Screen_3,canvas.Screen,0_2_29_2,,skipped,30,3182429.0999999642,,,3182427.0999999642,,3182429.0999999642,2021-11-01T16:49:18.209Z,3182505.847,1635782165,full,ni_sequenzen,NI_Sequenzen,,,,,,,,,,,,,,
,Screen_4,canvas.Screen,0_2_29_3,,skipped,30,3182430.0999999642,,,3182427.0999999642,,3182430.199999988,2021-11-01T16:49:18.210Z,3182505.847,1635782165,full,ni_sequenzen,NI_Sequenzen,,,,,,,,,,,,,,
,Screen_5,canvas.Screen,0_2_29_4,,skipped,30,3182431.0999999642,,,3182427.0999999642,,3182431.0999999642,2021-11-01T16:49:18.211Z,3182505.847,1635782165,full,ni_sequenzen,NI_Sequenzen,,,,,,,,,,,,,,
,Screen_6,canvas.Screen,0_2_29_5,,skipped,30,3182432.7999999523,,,3182427.0999999642,,3182432.899999976,2021-11-01T16:49:18.212Z,3182505.847,1635782165,full,ni_sequenzen,NI_Sequenzen,,,,,,,,,,,,,,
,Sequence,flow.Sequence,0_2_29,,completion,30,3182426.2999999523,,,3182427.0999999642,,3182433,2021-11-01T16:49:18.212Z,3182505.847,1635782165,full,ni_sequenzen,NI_Sequenzen,,,,,,,,,,,,,,
,Instructions_II,flow.Loop,0_2,,completion,,3138402.5,3138395.281,3138411.957,3182427.0999999642,44015.1429999643,3182433.0999999642,2021-11-01T16:49:18.213Z,3182505.847,1635782165,full,ni_sequenzen,NI_Sequenzen,,,,,,,,,,,,,,
,Move,canvas.Screen,0_3_0_0_0_0,down,response,,3182472,3182456.462,3182505.847,3189252.7999999523,6746.952999952249,3189253.2999999523,2021-11-01T16:49:25.033Z,3189272.583,1635782165,full,ni_sequenzen,NI_Sequenzen,1,0,,,,,,,,,,,,
,Move,canvas.Screen,0_3_0_0_0_1,right,response,,3189261.199999988,3189255.549,3189272.583,3189996.699999988,724.1169999879785,3189997.2999999523,2021-11-01T16:49:25.777Z,3190005.716,1635782165,full,ni_sequenzen,NI_Sequenzen,2,0,,,,,,,,,,,,
,Move,canvas.Screen,0_3_0_0_0_2,down,response,,3190000.199999988,3189989.155,3190005.716,3198433,8427.283999999985,3198433.5999999642,2021-11-01T16:49:34.213Z,3198470.158,1635782165,full,ni_sequenzen,NI_Sequenzen,3,0,,,,,,,,,,,,
,Move,canvas.Screen,0_3_0_0_0_3,left,response,,3198437.199999988,3198421.123,3198470.158,3199343.199999988,873.0419999882579,3199343.7999999523,2021-11-01T16:49:35.123Z,3199354.747,1635782165,full,ni_sequenzen,NI_Sequenzen,4,0,,,,,,,,,,,,
,Move,canvas.Screen,0_3_0_0_0_4,left,response,,3199347.5999999642,3199337.966,3199354.747,3201932.0999999642,2577.3529999642633,3201932.5,2021-11-01T16:49:37.712Z,3201954.3,1635782165,full,ni_sequenzen,NI_Sequenzen,5,0,,,,,,,,,,,,
,Move,canvas.Screen,0_3_0_0_0_5,right,response,,3201935.2999999523,3201920.93,3201954.3,3203346.7999999523,1392.4999999525025,3203347.2999999523,2021-11-01T16:49:39.127Z,3203387.428,1635782165,full,ni_sequenzen,NI_Sequenzen,6,0,,,,,,,,,,,,
,Move,canvas.Screen,0_3_0_0_0_6,-999,skipped,,3203350.7999999523,,,3203346.7999999523,,3203350.899999976,2021-11-01T16:49:39.130Z,3203387.428,1635782165,full,ni_sequenzen,NI_Sequenzen,7,0,,,,,,,,,,,,
,Move,canvas.Screen,0_3_0_0_0_7,-999,skipped,,3203354.199999988,,,3203346.7999999523,,3203354.399999976,2021-11-01T16:49:39.134Z,3203387.428,1635782165,full,ni_sequenzen,NI_Sequenzen,8,0,,,,,,,,,,,,
,Move,canvas.Screen,0_3_0_0_0_8,-999,skipped,,3203357.199999988,,,3203346.7999999523,,3203357.2999999523,2021-11-01T16:49:39.137Z,3203387.428,1635782165,full,ni_sequenzen,NI_Sequenzen,9,0,,,,,,,,,,,,
,Move,canvas.Screen,0_3_0_0_0_9,-999,skipped,,3203360.699999988,,,3203346.7999999523,,3203360.7999999523,2021-11-01T16:49:39.140Z,3203387.428,1635782165,full,ni_sequenzen,NI_Sequenzen,10,0,,,,,,,,,,,,
,Move,canvas.Screen,0_3_0_0_0_10,-999,skipped,,3203363.5,,,3203346.7999999523,,3203363.5999999642,2021-11-01T16:49:39.143Z,3203387.428,1635782165,full,ni_sequenzen,NI_Sequenzen,11,0,,,,,,,,,,,,
,Move,canvas.Screen,0_3_0_0_0_11,-999,skipped,,3203366.399999976,,,3203346.7999999523,,3203366.699999988,2021-11-01T16:49:39.146Z,3203387.428,1635782165,full,ni_sequenzen,NI_Sequenzen,12,0,,,,,,,,,,,,
,Move,canvas.Screen,0_3_0_0_0_12,-999,skipped,,3203370,,,3203346.7999999523,,3203370.0999999642,2021-11-01T16:49:39.150Z,3203387.428,1635782165,full,ni_sequenzen,NI_Sequenzen,13,0,,,,,,,,,,,,
,Move,canvas.Screen,0_3_0_0_0_13,-999,skipped,,3203372.7999999523,,,3203346.7999999523,,3203372.899999976,2021-11-01T16:49:39.152Z,3203387.428,1635782165,full,ni_sequenzen,NI_Sequenzen,14,0,,,,,,,,,,,,
,Move,canvas.Screen,0_3_0_0_0_14,-999,skipped,,3203376.7999999523,,,3203346.7999999523,,3203377,2021-11-01T16:49:39.156Z,3203387.428,1635782165,full,ni_sequenzen,NI_Sequenzen,15,0,,,,,,,,,,,,
,Loop,flow.Loop,0_3_0_0_0,-999,completion,,3182466.5,3182456.462,3182505.847,3203346.7999999523,20840.95299995225,3203377.2999999523,2021-11-01T16:49:39.157Z,3203387.428,1635782165,full,ni_sequenzen,NI_Sequenzen,,0,,,,,,,,,,,,
,Feedback,canvas.Screen,0_3_0_0_1,,timeout,,3203382.399999976,3203370.898,3203387.428,3207370.43,3999.55700000003,3207371.0999999642,2021-11-01T16:49:43.151Z,3207386.985,1635782165,full,ni_sequenzen,NI_Sequenzen,,0,,,,,,,,,,,,
,Trial,flow.Sequence,0_3_0_0,,completion,,3182451.5,3182456.462,3182505.847,3207370.43,24864.5830000001,3207371.199999988,2021-11-01T16:49:43.151Z,3207403.721,1635782165,full,ni_sequenzen,NI_Sequenzen,,0,,,,,,,,,,,,
,Move,canvas.Screen,0_3_0_1_0_0,down,response,,3207390.0999999642,3207386.985,3207403.721,3216877.2999999523,9473.578999952413,3216877.899999976,2021-11-01T16:49:52.657Z,3216885.935,1635782165,full,ni_sequenzen,NI_Sequenzen,1,1,,,,,,,,,,,,
,Move,canvas.Screen,0_3_0_1_0_1,left,response,,3216880.5999999642,3216868.792,3216885.935,3217675.0999999642,789.1649999641813,3217675.5999999642,2021-11-01T16:49:53.455Z,3217685.744,1635782165,full,ni_sequenzen,NI_Sequenzen,2,1,,,,,,,,,,,,
,Move,canvas.Screen,0_3_0_1_0_2,down,response,,3217679.2999999523,3217669.152,3217685.744,3218416.699999988,730.9559999881312,3218417.199999988,2021-11-01T16:49:54.197Z,3218435.747,1635782165,full,ni_sequenzen,NI_Sequenzen,3,1,,,,,,,,,,,,
,Move,canvas.Screen,0_3_0_1_0_3,left,response,,3218420.399999976,3218419.102,3218435.747,3218833.699999988,397.95299998810515,3218834.199999988,2021-11-01T16:49:54.614Z,3218885.694,1635782165,full,ni_sequenzen,NI_Sequenzen,4,1,,,,,,,,,,,,
,Move,canvas.Screen,0_3_0_1_0_4,-999,skipped,,3218837.199999988,,,3218833.699999988,,3218837.2999999523,2021-11-01T16:49:54.617Z,3218885.694,1635782165,full,ni_sequenzen,NI_Sequenzen,5,1,,,,,,,,,,,,
,Move,canvas.Screen,0_3_0_1_0_5,-999,skipped,,3218840.5,,,3218833.699999988,,3218840.5999999642,2021-11-01T16:49:54.621Z,3218885.694,1635782165,full,ni_sequenzen,NI_Sequenzen,6,1,,,,,,,,,,,,
,Move,canvas.Screen,0_3_0_1_0_6,-999,skipped,,3218843.199999988,,,3218833.699999988,,3218843.399999976,2021-11-01T16:49:54.624Z,3218885.694,1635782165,full,ni_sequenzen,NI_Sequenzen,7,1,,,,,,,,,,,,
,Move,canvas.Screen,0_3_0_1_0_7,-999,skipped,,3218846,,,3218833.699999988,,3218846.0999999642,2021-11-01T16:49:54.626Z,3218885.694,1635782165,full,ni_sequenzen,NI_Sequenzen,8,1,,,,,,,,,,,,
,Move,canvas.Screen,0_3_0_1_0_8,-999,skipped,,3218849.199999988,,,3218833.699999988,,3218849.399999976,2021-11-01T16:49:54.629Z,3218885.694,1635782165,full,ni_sequenzen,NI_Sequenzen,9,1,,,,,,,,,,,,
,Move,canvas.Screen,0_3_0_1_0_9,-999,skipped,,3218851.899999976,,,3218833.699999988,,3218852,2021-11-01T16:49:54.632Z,3218885.694,1635782165,full,ni_sequenzen,NI_Sequenzen,10,1,,,,,,,,,,,,
,Move,canvas.Screen,0_3_0_1_0_10,-999,skipped,,3218855.399999976,,,3218833.699999988,,3218855.5,2021-11-01T16:49:54.636Z,3218885.694,1635782165,full,ni_sequenzen,NI_Sequenzen,11,1,,,,,,,,,,,,
,Move,canvas.Screen,0_3_0_1_0_11,-999,skipped,,3218858.199999988,,,3218833.699999988,,3218858.2999999523,2021-11-01T16:49:54.638Z,3218885.694,1635782165,full,ni_sequenzen,NI_Sequenzen,12,1,,,,,,,,,,,,
,Move,canvas.Screen,0_3_0_1_0_12,-999,skipped,,3218861.399999976,,,3218833.699999988,,3218861.5,2021-11-01T16:49:54.642Z,3218885.694,1635782165,full,ni_sequenzen,NI_Sequenzen,13,1,,,,,,,,,,,,
,Move,canvas.Screen,0_3_0_1_0_13,-999,skipped,,3218864.0999999642,,,3218833.699999988,,3218864.199999988,2021-11-01T16:49:54.644Z,3218885.694,1635782165,full,ni_sequenzen,NI_Sequenzen,14,1,,,,,,,,,,,,
,Move,canvas.Screen,0_3_0_1_0_14,-999,skipped,,3218867.0999999642,,,3218833.699999988,,3218867.2999999523,2021-11-01T16:49:54.647Z,3218885.694,1635782165,full,ni_sequenzen,NI_Sequenzen,15,1,,,,,,,,,,,,
,Loop,flow.Loop,0_3_0_1_0,-999,completion,,3207386.5,3207386.985,3207403.721,3218833.699999988,11429.978999988176,3218867.399999976,2021-11-01T16:49:54.648Z,3218885.694,1635782165,full,ni_sequenzen,NI_Sequenzen,,1,,,,,,,,,,,,
,Feedback,canvas.Screen,0_3_0_1_1,,timeout,,3218870.699999988,3218868.954,3218885.694,3222868.526,3999.4490000000224,3222869,2021-11-01T16:49:58.649Z,3222885.143,1635782165,full,ni_sequenzen,NI_Sequenzen,,1,,,,,,,,,,,,
,Trial,flow.Sequence,0_3_0_1,,completion,,3207371.5,3207386.985,3207403.721,3222868.526,15464.805000000168,3222869.0999999642,2021-11-01T16:49:58.649Z,3222901.786,1635782165,full,ni_sequenzen,NI_Sequenzen,,1,,,,,,,,,,,,
,Move,canvas.Screen,0_3_0_2_0_0,down,response,,3222891.399999976,3222885.143,3222901.786,3228951.0999999642,6049.31399996439,3228951.7999999523,2021-11-01T16:50:04.732Z,3228967.788,1635782165,full,ni_sequenzen,NI_Sequenzen,1,2,,,,,,,,,,,,
,Move,canvas.Screen,0_3_0_2_0_1,right,response,,3228955,3228950.841,3228967.788,3231077.0999999642,2109.311999964062,3231077.699999988,2021-11-01T16:50:06.858Z,3231084.138,1635782165,full,ni_sequenzen,NI_Sequenzen,2,2,,,,,,,,,,,,
,Move,canvas.Screen,0_3_0_2_0_2,right,response,,3231081.199999988,3231067.463,3231084.138,3232697,1612.8620000001974,3232697.5999999642,2021-11-01T16:50:08.478Z,3232734.04,1635782165,full,ni_sequenzen,NI_Sequenzen,3,2,,,,,,,,,,,,
,Move,canvas.Screen,0_3_0_2_0_3,down,response,,3232700.399999976,3232723.374,3232734.04,3233052.2999999523,318.25999995227903,3233052.7999999523,2021-11-01T16:50:08.833Z,3233117.332,1635782165,full,ni_sequenzen,NI_Sequenzen,4,2,,,,,,,,,,,,
,Move,canvas.Screen,0_3_0_2_0_4,-999,skipped,,3233055.5999999642,,,3233052.2999999523,,3233055.699999988,2021-11-01T16:50:08.836Z,3233117.332,1635782165,full,ni_sequenzen,NI_Sequenzen,5,2,,,,,,,,,,,,
,Move,canvas.Screen,0_3_0_2_0_5,-999,skipped,,3233058.199999988,,,3233052.2999999523,,3233058.2999999523,2021-11-01T16:50:08.838Z,3233117.332,1635782165,full,ni_sequenzen,NI_Sequenzen,6,2,,,,,,,,,,,,
,Move,canvas.Screen,0_3_0_2_0_6,-999,skipped,,3233061.5999999642,,,3233052.2999999523,,3233061.699999988,2021-11-01T16:50:08.842Z,3233117.332,1635782165,full,ni_sequenzen,NI_Sequenzen,7,2,,,,,,,,,,,,
,Move,canvas.Screen,0_3_0_2_0_7,-999,skipped,,3233080.2999999523,,,3233052.2999999523,,3233080.5,2021-11-01T16:50:08.861Z,3233117.332,1635782165,full,ni_sequenzen,NI_Sequenzen,8,2,,,,,,,,,,,,
,Move,canvas.Screen,0_3_0_2_0_8,-999,skipped,,3233084.199999988,,,3233052.2999999523,,3233084.2999999523,2021-11-01T16:50:08.864Z,3233117.332,1635782165,full,ni_sequenzen,NI_Sequenzen,9,2,,,,,,,,,,,,
,Move,canvas.Screen,0_3_0_2_0_9,-999,skipped,,3233087.0999999642,,,3233052.2999999523,,3233087.2999999523,2021-11-01T16:50:08.867Z,3233117.332,1635782165,full,ni_sequenzen,NI_Sequenzen,10,2,,,,,,,,,,,,
,Move,canvas.Screen,0_3_0_2_0_10,-999,skipped,,3233089.899999976,,,3233052.2999999523,,3233089.899999976,2021-11-01T16:50:08.870Z,3233117.332,1635782165,full,ni_sequenzen,NI_Sequenzen,11,2,,,,,,,,,,,,
,Move,canvas.Screen,0_3_0_2_0_11,-999,skipped,,3233093,,,3233052.2999999523,,3233093.0999999642,2021-11-01T16:50:08.873Z,3233117.332,1635782165,full,ni_sequenzen,NI_Sequenzen,12,2,,,,,,,,,,,,
,Move,canvas.Screen,0_3_0_2_0_12,-999,skipped,,3233096,,,3233052.2999999523,,3233096.199999988,2021-11-01T16:50:08.876Z,3233117.332,1635782165,full,ni_sequenzen,NI_Sequenzen,13,2,,,,,,,,,,,,
,Move,canvas.Screen,0_3_0_2_0_13,-999,skipped,,3233098.699999988,,,3233052.2999999523,,3233098.7999999523,2021-11-01T16:50:08.879Z,3233117.332,1635782165,full,ni_sequenzen,NI_Sequenzen,14,2,,,,,,,,,,,,
,Move,canvas.Screen,0_3_0_2_0_14,-999,skipped,,3233102.5,,,3233052.2999999523,,3233102.5999999642,2021-11-01T16:50:08.883Z,3233117.332,1635782165,full,ni_sequenzen,NI_Sequenzen,15,2,,,,,,,,,,,,
,Loop,flow.Loop,0_3_0_2_0,-999,completion,,3222886.899999976,3222885.143,3222901.786,3233052.2999999523,10150.513999952469,3233102.7999999523,2021-11-01T16:50:08.883Z,3233117.332,1635782165,full,ni_sequenzen,NI_Sequenzen,,2,,,,,,,,,,,,
,Feedback,canvas.Screen,0_3_0_2_1,,timeout,,3233104.899999976,3233100.682,3233117.332,3237100.166,3999.433999999892,3237100.5999999642,2021-11-01T16:50:12.881Z,3237116.766,1635782165,full,ni_sequenzen,NI_Sequenzen,,2,,,,,,,,,,,,
,Trial,flow.Sequence,0_3_0_2,,completion,,3222869.399999976,3222885.143,3222901.786,3237100.166,14198.380000000354,3237100.699999988,2021-11-01T16:50:12.881Z,3237133.505,1635782165,full,ni_sequenzen,NI_Sequenzen,,2,,,,,,,,,,,,
,Move,canvas.Screen,0_3_0_3_0_0,right,response,,3237123.5999999642,3237116.766,3237133.505,3247208.5,10074.995000000112,3247209.0999999642,2021-11-01T16:50:22.989Z,3247232.218,1635782165,full,ni_sequenzen,NI_Sequenzen,1,3,,,,,,,,,,,,
,Move,canvas.Screen,0_3_0_3_0_1,down,response,,3247211.899999976,3247198.611,3247232.218,3248264.2999999523,1032.0819999524392,3248264.7999999523,2021-11-01T16:50:24.045Z,3248282.205,1635782165,full,ni_sequenzen,NI_Sequenzen,2,3,,,,,,,,,,,,
,Move,canvas.Screen,0_3_0_3_0_2,right,response,,3248267.899999976,3248265.376,3248282.205,3249279.199999988,996.9949999880046,3249279.7999999523,2021-11-01T16:50:25.060Z,3249298.708,1635782165,full,ni_sequenzen,NI_Sequenzen,3,3,,,,,,,,,,,,
,Move,canvas.Screen,0_3_0_3_0_3,down,response,,3249282.5999999642,3249282.068,3249298.708,3249858.0999999642,559.3919999641366,3249858.5,2021-11-01T16:50:25.639Z,3249898.57,1635782165,full,ni_sequenzen,NI_Sequenzen,4,3,,,,,,,,,,,,
,Move,canvas.Screen,0_3_0_3_0_4,-999,skipped,,3249861.199999988,,,3249858.0999999642,,3249861.2999999523,2021-11-01T16:50:25.641Z,3249898.57,1635782165,full,ni_sequenzen,NI_Sequenzen,5,3,,,,,,,,,,,,
,Move,canvas.Screen,0_3_0_3_0_5,-999,skipped,,3249864.399999976,,,3249858.0999999642,,3249864.5,2021-11-01T16:50:25.645Z,3249898.57,1635782165,full,ni_sequenzen,NI_Sequenzen,6,3,,,,,,,,,,,,
,Move,canvas.Screen,0_3_0_3_0_6,-999,skipped,,3249867.0999999642,,,3249858.0999999642,,3249867.0999999642,2021-11-01T16:50:25.647Z,3249898.57,1635782165,full,ni_sequenzen,NI_Sequenzen,7,3,,,,,,,,,,,,
,Move,canvas.Screen,0_3_0_3_0_7,-999,skipped,,3249869.5,,,3249858.0999999642,,3249869.5999999642,2021-11-01T16:50:25.650Z,3249898.57,1635782165,full,ni_sequenzen,NI_Sequenzen,8,3,,,,,,,,,,,,
,Move,canvas.Screen,0_3_0_3_0_8,-999,skipped,,3249872.699999988,,,3249858.0999999642,,3249872.7999999523,2021-11-01T16:50:25.653Z,3249898.57,1635782165,full,ni_sequenzen,NI_Sequenzen,9,3,,,,,,,,,,,,
,Move,canvas.Screen,0_3_0_3_0_9,-999,skipped,,3249875.0999999642,,,3249858.0999999642,,3249875.2999999523,2021-11-01T16:50:25.655Z,3249898.57,1635782165,full,ni_sequenzen,NI_Sequenzen,10,3,,,,,,,,,,,,
,Move,canvas.Screen,0_3_0_3_0_10,-999,skipped,,3249877.699999988,,,3249858.0999999642,,3249877.7999999523,2021-11-01T16:50:25.658Z,3249898.57,1635782165,full,ni_sequenzen,NI_Sequenzen,11,3,,,,,,,,,,,,
,Move,canvas.Screen,0_3_0_3_0_11,-999,skipped,,3249880.5,,,3249858.0999999642,,3249880.5999999642,2021-11-01T16:50:25.661Z,3249898.57,1635782165,full,ni_sequenzen,NI_Sequenzen,12,3,,,,,,,,,,,,
,Move,canvas.Screen,0_3_0_3_0_12,-999,skipped,,3249883.7999999523,,,3249858.0999999642,,3249884,2021-11-01T16:50:25.664Z,3249898.57,1635782165,full,ni_sequenzen,NI_Sequenzen,13,3,,,,,,,,,,,,
,Move,canvas.Screen,0_3_0_3_0_13,-999,skipped,,3249886.2999999523,,,3249858.0999999642,,3249886.399999976,2021-11-01T16:50:25.667Z,3249898.57,1635782165,full,ni_sequenzen,NI_Sequenzen,14,3,,,,,,,,,,,,
,Move,canvas.Screen,0_3_0_3_0_14,-999,skipped,,3249888.7999999523,,,3249858.0999999642,,3249888.7999999523,2021-11-01T16:50:25.669Z,3249898.57,1635782165,full,ni_sequenzen,NI_Sequenzen,15,3,,,,,,,,,,,,
,Loop,flow.Loop,0_3_0_3_0,-999,completion,,3237117.5,3237116.766,3237133.505,3249858.0999999642,12724.594999964349,3249889,2021-11-01T16:50:25.669Z,3249898.57,1635782165,full,ni_sequenzen,NI_Sequenzen,,3,,,,,,,,,,,,
,Feedback,canvas.Screen,0_3_0_3_1,,timeout,,3249891.699999988,3249881.947,3249898.57,3253881.492,3999.50800000038,3253881.899999976,2021-11-01T16:50:29.662Z,3253898.078,1635782165,full,ni_sequenzen,NI_Sequenzen,,3,,,,,,,,,,,,
,Trial,flow.Sequence,0_3_0_3,,completion,,3237101,3237116.766,3237133.505,3253881.492,16747.987000000197,3253882.0999999642,2021-11-01T16:50:29.662Z,3253914.845,1635782165,full,ni_sequenzen,NI_Sequenzen,,3,,,,,,,,,,,,
,Move,canvas.Screen,0_3_0_4_0_0,right,response,,3253897.7999999523,3253898.078,3253914.845,3259906.5,5991.654999999795,3259907,2021-11-01T16:50:35.687Z,3259914.001,1635782165,full,ni_sequenzen,NI_Sequenzen,1,4,,,,,,,,,,,,
,Move,canvas.Screen,0_3_0_4_0_1,down,response,,3259909.7999999523,3259897.189,3259914.001,3260216.699999988,302.69899998791516,3260217.399999976,2021-11-01T16:50:35.998Z,3260247.318,1635782165,full,ni_sequenzen,NI_Sequenzen,2,4,,,,,,,,,,,,
,Move,canvas.Screen,0_3_0_4_0_2,right,response,,3260223.399999976,3260213.993,3260247.318,3260617,369.6820000000298,3260617.699999988,2021-11-01T16:50:36.398Z,3260630.662,1635782165,full,ni_sequenzen,NI_Sequenzen,3,4,,,,,,,,,,,,
,Move,canvas.Screen,0_3_0_4_0_3,down,response,,3260620.5999999642,3260613.928,3260630.662,3260872.0999999642,241.43799996422604,3260872.5,2021-11-01T16:50:36.653Z,3260914.035,1635782165,full,ni_sequenzen,NI_Sequenzen,4,4,,,,,,,,,,,,
,Move,canvas.Screen,0_3_0_4_0_4,-999,skipped,,3260875.199999988,,,3260872.0999999642,,3260875.2999999523,2021-11-01T16:50:36.656Z,3260914.035,1635782165,full,ni_sequenzen,NI_Sequenzen,5,4,,,,,,,,,,,,
,Move,canvas.Screen,0_3_0_4_0_5,-999,skipped,,3260877.699999988,,,3260872.0999999642,,3260877.7999999523,2021-11-01T16:50:36.658Z,3260914.035,1635782165,full,ni_sequenzen,NI_Sequenzen,6,4,,,,,,,,,,,,
,Move,canvas.Screen,0_3_0_4_0_6,-999,skipped,,3260881,,,3260872.0999999642,,3260881.0999999642,2021-11-01T16:50:36.661Z,3260914.035,1635782165,full,ni_sequenzen,NI_Sequenzen,7,4,,,,,,,,,,,,
,Move,canvas.Screen,0_3_0_4_0_7,-999,skipped,,3260883.5,,,3260872.0999999642,,3260883.5999999642,2021-11-01T16:50:36.664Z,3260914.035,1635782165,full,ni_sequenzen,NI_Sequenzen,8,4,,,,,,,,,,,,
,Move,canvas.Screen,0_3_0_4_0_8,-999,skipped,,3260886,,,3260872.0999999642,,3260886,2021-11-01T16:50:36.666Z,3260914.035,1635782165,full,ni_sequenzen,NI_Sequenzen,9,4,,,,,,,,,,,,
,Move,canvas.Screen,0_3_0_4_0_9,-999,skipped,,3260889.199999988,,,3260872.0999999642,,3260889.399999976,2021-11-01T16:50:36.670Z,3260914.035,1635782165,full,ni_sequenzen,NI_Sequenzen,10,4,,,,,,,,,,,,
,Move,canvas.Screen,0_3_0_4_0_10,-999,skipped,,3260891.7999999523,,,3260872.0999999642,,3260891.899999976,2021-11-01T16:50:36.672Z,3260914.035,1635782165,full,ni_sequenzen,NI_Sequenzen,11,4,,,,,,,,,,,,
,Move,canvas.Screen,0_3_0_4_0_11,-999,skipped,,3260894.7999999523,,,3260872.0999999642,,3260895,2021-11-01T16:50:36.675Z,3260914.035,1635782165,full,ni_sequenzen,NI_Sequenzen,12,4,,,,,,,,,,,,
,Move,canvas.Screen,0_3_0_4_0_12,-999,skipped,,3260898,,,3260872.0999999642,,3260898.0999999642,2021-11-01T16:50:36.678Z,3260914.035,1635782165,full,ni_sequenzen,NI_Sequenzen,13,4,,,,,,,,,,,,
,Move,canvas.Screen,0_3_0_4_0_13,-999,skipped,,3260901.0999999642,,,3260872.0999999642,,3260901.199999988,2021-11-01T16:50:36.681Z,3260914.035,1635782165,full,ni_sequenzen,NI_Sequenzen,14,4,,,,,,,,,,,,
,Move,canvas.Screen,0_3_0_4_0_14,-999,skipped,,3260903.5,,,3260872.0999999642,,3260903.5999999642,2021-11-01T16:50:36.684Z,3260914.035,1635782165,full,ni_sequenzen,NI_Sequenzen,15,4,,,,,,,,,,,,
,Loop,flow.Loop,0_3_0_4_0,-999,completion,,3253894.699999988,3253898.078,3253914.845,3260872.0999999642,6957.254999964032,3260903.7999999523,2021-11-01T16:50:36.684Z,3260914.035,1635782165,full,ni_sequenzen,NI_Sequenzen,,4,,,,,,,,,,,,
,Feedback,canvas.Screen,0_3_0_4_1,,timeout,,3260905.7999999523,3260897.285,3260914.035,3264896.875,3999.395999999717,3264897.2999999523,2021-11-01T16:50:40.677Z,3264913.431,1635782165,full,ni_sequenzen,NI_Sequenzen,,4,,,,,,,,,,,,
,Trial,flow.Sequence,0_3_0_4,,completion,,3253882.5,3253898.078,3253914.845,3264896.875,10982.029999999795,3264897.399999976,2021-11-01T16:50:40.678Z,3264930.174,1635782165,full,ni_sequenzen,NI_Sequenzen,,4,,,,,,,,,,,,
,Move,canvas.Screen,0_3_0_5_0_0,right,response,,3264918.699999988,3264913.431,3264930.174,3268728.5,3798.3259999998845,3268729.0999999642,2021-11-01T16:50:44.509Z,3268746.312,1635782165,full,ni_sequenzen,NI_Sequenzen,1,5,,,,,,,,,,,,
,Move,canvas.Screen,0_3_0_5_0_1,down,response,,3268731.7999999523,3268729.596,3268746.312,3269023,276.68800000008196,3269023.399999976,2021-11-01T16:50:44.804Z,3269029.561,1635782165,full,ni_sequenzen,NI_Sequenzen,2,5,,,,,,,,,,,,
,Move,canvas.Screen,0_3_0_5_0_2,right,response,,3269026.399999976,3269013.046,3269029.561,3269302.399999976,272.83899997593835,3269303,2021-11-01T16:50:45.083Z,3269312.883,1635782165,full,ni_sequenzen,NI_Sequenzen,3,5,,,,,,,,,,,,
,Move,canvas.Screen,0_3_0_5_0_3,down,response,,3269307.699999988,3269296.293,3269312.883,3269527.5999999642,214.7169999643229,3269528.0999999642,2021-11-01T16:50:45.308Z,3269579.603,1635782165,full,ni_sequenzen,NI_Sequenzen,4,5,,,,,,,,,,,,
,Move,canvas.Screen,0_3_0_5_0_4,-999,skipped,,3269532.199999988,,,3269527.5999999642,,3269532.399999976,2021-11-01T16:50:45.313Z,3269579.603,1635782165,full,ni_sequenzen,NI_Sequenzen,5,5,,,,,,,,,,,,
,Move,canvas.Screen,0_3_0_5_0_5,-999,skipped,,3269537.699999988,,,3269527.5999999642,,3269537.7999999523,2021-11-01T16:50:45.318Z,3269579.603,1635782165,full,ni_sequenzen,NI_Sequenzen,6,5,,,,,,,,,,,,
,Move,canvas.Screen,0_3_0_5_0_6,-999,skipped,,3269541.5999999642,,,3269527.5999999642,,3269541.699999988,2021-11-01T16:50:45.322Z,3269579.603,1635782165,full,ni_sequenzen,NI_Sequenzen,7,5,,,,,,,,,,,,
,Move,canvas.Screen,0_3_0_5_0_7,-999,skipped,,3269544.2999999523,,,3269527.5999999642,,3269544.399999976,2021-11-01T16:50:45.325Z,3269579.603,1635782165,full,ni_sequenzen,NI_Sequenzen,8,5,,,,,,,,,,,,
,Move,canvas.Screen,0_3_0_5_0_8,-999,skipped,,3269548.199999988,,,3269527.5999999642,,3269548.2999999523,2021-11-01T16:50:45.328Z,3269579.603,1635782165,full,ni_sequenzen,NI_Sequenzen,9,5,,,,,,,,,,,,
,Move,canvas.Screen,0_3_0_5_0_9,-999,skipped,,3269550.699999988,,,3269527.5999999642,,3269550.7999999523,2021-11-01T16:50:45.331Z,3269579.603,1635782165,full,ni_sequenzen,NI_Sequenzen,10,5,,,,,,,,,,,,
,Move,canvas.Screen,0_3_0_5_0_10,-999,skipped,,3269553.199999988,,,3269527.5999999642,,3269553.199999988,2021-11-01T16:50:45.333Z,3269579.603,1635782165,full,ni_sequenzen,NI_Sequenzen,11,5,,,,,,,,,,,,
,Move,canvas.Screen,0_3_0_5_0_11,-999,skipped,,3269555.5999999642,,,3269527.5999999642,,3269555.699999988,2021-11-01T16:50:45.336Z,3269579.603,1635782165,full,ni_sequenzen,NI_Sequenzen,12,5,,,,,,,,,,,,
,Move,canvas.Screen,0_3_0_5_0_12,-999,skipped,,3269559,,,3269527.5999999642,,3269559.0999999642,2021-11-01T16:50:45.339Z,3269579.603,1635782165,full,ni_sequenzen,NI_Sequenzen,13,5,,,,,,,,,,,,
,Move,canvas.Screen,0_3_0_5_0_13,-999,skipped,,3269561.5,,,3269527.5999999642,,3269561.5999999642,2021-11-01T16:50:45.342Z,3269579.603,1635782165,full,ni_sequenzen,NI_Sequenzen,14,5,,,,,,,,,,,,
,Move,canvas.Screen,0_3_0_5_0_14,-999,skipped,,3269564.199999988,,,3269527.5999999642,,3269564.2999999523,2021-11-01T16:50:45.344Z,3269579.603,1635782165,full,ni_sequenzen,NI_Sequenzen,15,5,,,,,,,,,,,,
,Loop,flow.Loop,0_3_0_5_0,-999,completion,,3264914,3264913.431,3264930.174,3269527.5999999642,4597.425999964122,3269564.399999976,2021-11-01T16:50:45.345Z,3269579.603,1635782165,full,ni_sequenzen,NI_Sequenzen,,5,,,,,,,,,,,,
,Feedback,canvas.Screen,0_3_0_5_1,,timeout,,3269567.399999976,3269562.967,3269579.603,3273562.479,3999.441000000108,3273562.899999976,2021-11-01T16:50:49.343Z,3273579.044,1635782165,full,ni_sequenzen,NI_Sequenzen,,5,,,,,,,,,,,,
,Trial,flow.Sequence,0_3_0_5,,completion,,3264897.7999999523,3264913.431,3264930.174,3273562.479,8632.304999999702,3273563,2021-11-01T16:50:49.343Z,3273595.72,1635782165,full,ni_sequenzen,NI_Sequenzen,,5,,,,,,,,,,,,
,Move,canvas.Screen,0_3_0_6_0_0,right,response,,3273581.399999976,3273579.044,3273595.72,3275094.5,1498.779999999795,3275095,2021-11-01T16:50:50.875Z,3275112.301,1635782165,full,ni_sequenzen,NI_Sequenzen,1,6,,,,,,,,,,,,
,Move,canvas.Screen,0_3_0_6_0_1,down,response,,3275097.899999976,3275095.585,3275112.301,3275385.199999988,272.8989999881014,3275385.7999999523,2021-11-01T16:50:51.166Z,3275395.574,1635782165,full,ni_sequenzen,NI_Sequenzen,2,6,,,,,,,,,,,,
,Move,canvas.Screen,0_3_0_6_0_2,right,response,,3275388.699999988,3275378.885,3275395.574,3275680.0999999642,284.52599996421486,3275680.5999999642,2021-11-01T16:50:51.461Z,3275695.466,1635782165,full,ni_sequenzen,NI_Sequenzen,3,6,,,,,,,,,,,,
,Move,canvas.Screen,0_3_0_6_0_3,down,response,,3275683.5999999642,3275678.89,3275695.466,3275932,236.5339999999851,3275932.399999976,2021-11-01T16:50:51.713Z,3275978.847,1635782165,full,ni_sequenzen,NI_Sequenzen,4,6,,,,,,,,,,,,
,Move,canvas.Screen,0_3_0_6_0_4,-999,skipped,,3275935.2999999523,,,3275932,,3275935.399999976,2021-11-01T16:50:51.716Z,3275978.847,1635782165,full,ni_sequenzen,NI_Sequenzen,5,6,,,,,,,,,,,,
,Move,canvas.Screen,0_3_0_6_0_5,-999,skipped,,3275938.399999976,,,3275932,,3275938.5999999642,2021-11-01T16:50:51.719Z,3275978.847,1635782165,full,ni_sequenzen,NI_Sequenzen,6,6,,,,,,,,,,,,
,Move,canvas.Screen,0_3_0_6_0_6,-999,skipped,,3275941.0999999642,,,3275932,,3275941.2999999523,2021-11-01T16:50:51.721Z,3275978.847,1635782165,full,ni_sequenzen,NI_Sequenzen,7,6,,,,,,,,,,,,
,Move,canvas.Screen,0_3_0_6_0_7,-999,skipped,,3275944.2999999523,,,3275932,,3275944.399999976,2021-11-01T16:50:51.725Z,3275978.847,1635782165,full,ni_sequenzen,NI_Sequenzen,8,6,,,,,,,,,,,,
,Move,canvas.Screen,0_3_0_6_0_8,-999,skipped,,3275947,,,3275932,,3275947.0999999642,2021-11-01T16:50:51.727Z,3275978.847,1635782165,full,ni_sequenzen,NI_Sequenzen,9,6,,,,,,,,,,,,
,Move,canvas.Screen,0_3_0_6_0_9,-999,skipped,,3275949.399999976,,,3275932,,3275949.5,2021-11-01T16:50:51.730Z,3275978.847,1635782165,full,ni_sequenzen,NI_Sequenzen,10,6,,,,,,,,,,,,
,Move,canvas.Screen,0_3_0_6_0_10,-999,skipped,,3275952.5,,,3275932,,3275952.5999999642,2021-11-01T16:50:51.733Z,3275978.847,1635782165,full,ni_sequenzen,NI_Sequenzen,11,6,,,,,,,,,,,,
,Move,canvas.Screen,0_3_0_6_0_11,-999,skipped,,3275954.899999976,,,3275932,,3275955,2021-11-01T16:50:51.735Z,3275978.847,1635782165,full,ni_sequenzen,NI_Sequenzen,12,6,,,,,,,,,,,,
,Move,canvas.Screen,0_3_0_6_0_12,-999,skipped,,3275957.399999976,,,3275932,,3275957.399999976,2021-11-01T16:50:51.738Z,3275978.847,1635782165,full,ni_sequenzen,NI_Sequenzen,13,6,,,,,,,,,,,,
,Move,canvas.Screen,0_3_0_6_0_13,-999,skipped,,3275959.7999999523,,,3275932,,3275959.7999999523,2021-11-01T16:50:51.740Z,3275978.847,1635782165,full,ni_sequenzen,NI_Sequenzen,14,6,,,,,,,,,,,,
,Move,canvas.Screen,0_3_0_6_0_14,-999,skipped,,3275963.2999999523,,,3275932,,3275963.2999999523,2021-11-01T16:50:51.744Z,3275978.847,1635782165,full,ni_sequenzen,NI_Sequenzen,15,6,,,,,,,,,,,,
,Loop,flow.Loop,0_3_0_6_0,-999,completion,,3273577,3273579.044,3273595.72,3275932,2336.279999999795,3275963.5999999642,2021-11-01T16:50:51.744Z,3275978.847,1635782165,full,ni_sequenzen,NI_Sequenzen,,6,,,,,,,,,,,,
,Feedback,canvas.Screen,0_3_0_6_1,,timeout,,3275965.5999999642,3275962.159,3275978.847,3279961.682,3999.4509999998845,3279962.0999999642,2021-11-01T16:50:55.750Z,3279978.298,1635782165,full,ni_sequenzen,NI_Sequenzen,,6,,,,,,,,,,,,
,Trial,flow.Sequence,0_3_0_6,,completion,,3273563.2999999523,3273579.044,3273595.72,3279961.682,6365.961999999825,3279962.199999988,2021-11-01T16:50:55.750Z,3279995.034,1635782165,full,ni_sequenzen,NI_Sequenzen,,6,,,,,,,,,,,,
,Move,canvas.Screen,0_3_0_7_0_0,right,response,,3279979.899999976,3279978.298,3279995.034,3280703.2999999523,708.2659999523312,3280703.699999988,2021-11-01T16:50:56.491Z,3280711.682,1635782165,full,ni_sequenzen,NI_Sequenzen,1,7,,,,,,,,,,,,
,Move,canvas.Screen,0_3_0_7_0_1,down,response,,3280706.199999988,3280694.914,3280711.682,3280966.5,254.8179999999702,3280967.0999999642,2021-11-01T16:50:56.755Z,3280978.277,1635782165,full,ni_sequenzen,NI_Sequenzen,2,7,,,,,,,,,,,,
,Move,canvas.Screen,0_3_0_7_0_2,right,response,,3280970.5999999642,3280961.569,3280978.277,3281288.5999999642,310.3229999644682,3281289.0999999642,2021-11-01T16:50:57.077Z,3281311.465,1635782165,full,ni_sequenzen,NI_Sequenzen,3,7,,,,,,,,,,,,
,Move,canvas.Screen,0_3_0_7_0_3,down,response,,3281291.5,3281278.249,3281311.465,3281538.7999999523,227.3349999524653,3281539.399999976,2021-11-01T16:50:57.327Z,3281578.187,1635782165,full,ni_sequenzen,NI_Sequenzen,4,7,,,,,,,,,,,,
,Move,canvas.Screen,0_3_0_7_0_4,-999,skipped,,3281542.7999999523,,,3281538.7999999523,,3281542.899999976,2021-11-01T16:50:57.331Z,3281578.187,1635782165,full,ni_sequenzen,NI_Sequenzen,5,7,,,,,,,,,,,,
,Move,canvas.Screen,0_3_0_7_0_5,-999,skipped,,3281545.5999999642,,,3281538.7999999523,,3281545.5999999642,2021-11-01T16:50:57.333Z,3281578.187,1635782165,full,ni_sequenzen,NI_Sequenzen,6,7,,,,,,,,,,,,
,Move,canvas.Screen,0_3_0_7_0_6,-999,skipped,,3281548.0999999642,,,3281538.7999999523,,3281548.199999988,2021-11-01T16:50:57.336Z,3281578.187,1635782165,full,ni_sequenzen,NI_Sequenzen,7,7,,,,,,,,,,,,
,Move,canvas.Screen,0_3_0_7_0_7,-999,skipped,,3281551.199999988,,,3281538.7999999523,,3281551.2999999523,2021-11-01T16:50:57.339Z,3281578.187,1635782165,full,ni_sequenzen,NI_Sequenzen,8,7,,,,,,,,,,,,
,Move,canvas.Screen,0_3_0_7_0_8,-999,skipped,,3281553.699999988,,,3281538.7999999523,,3281553.7999999523,2021-11-01T16:50:57.342Z,3281578.187,1635782165,full,ni_sequenzen,NI_Sequenzen,9,7,,,,,,,,,,,,
,Move,canvas.Screen,0_3_0_7_0_9,-999,skipped,,3281556.399999976,,,3281538.7999999523,,3281556.5,2021-11-01T16:50:57.344Z,3281578.187,1635782165,full,ni_sequenzen,NI_Sequenzen,10,7,,,,,,,,,,,,
,Move,canvas.Screen,0_3_0_7_0_10,-999,skipped,,3281559.5999999642,,,3281538.7999999523,,3281559.7999999523,2021-11-01T16:50:57.347Z,3281578.187,1635782165,full,ni_sequenzen,NI_Sequenzen,11,7,,,,,,,,,,,,
,Move,canvas.Screen,0_3_0_7_0_11,-999,skipped,,3281563.199999988,,,3281538.7999999523,,3281563.2999999523,2021-11-01T16:50:57.351Z,3281578.187,1635782165,full,ni_sequenzen,NI_Sequenzen,12,7,,,,,,,,,,,,
,Move,canvas.Screen,0_3_0_7_0_12,-999,skipped,,3281565.899999976,,,3281538.7999999523,,3281566,2021-11-01T16:50:57.354Z,3281578.187,1635782165,full,ni_sequenzen,NI_Sequenzen,13,7,,,,,,,,,,,,
,Move,canvas.Screen,0_3_0_7_0_13,-999,skipped,,3281568.399999976,,,3281538.7999999523,,3281568.399999976,2021-11-01T16:50:57.356Z,3281578.187,1635782165,full,ni_sequenzen,NI_Sequenzen,14,7,,,,,,,,,,,,
,Move,canvas.Screen,0_3_0_7_0_14,-999,skipped,,3281571.0999999642,,,3281538.7999999523,,3281571.0999999642,2021-11-01T16:50:57.359Z,3281578.187,1635782165,full,ni_sequenzen,NI_Sequenzen,15,7,,,,,,,,,,,,
,Loop,flow.Loop,0_3_0_7_0,-999,completion,,3279976.699999988,3279978.298,3279995.034,3281538.7999999523,1543.7659999523312,3281571.2999999523,2021-11-01T16:50:57.359Z,3281578.187,1635782165,full,ni_sequenzen,NI_Sequenzen,,7,,,,,,,,,,,,
,Feedback,canvas.Screen,0_3_0_7_1,,timeout,,3281573.0999999642,3281561.415,3281578.187,3285561.071,3999.4229999999516,3285561.5,2021-11-01T16:51:01.349Z,3285577.61,1635782165,full,ni_sequenzen,NI_Sequenzen,,7,,,,,,,,,,,,
,Trial,flow.Sequence,0_3_0_7,,completion,,3279962.5,3279978.298,3279995.034,3285561.071,5566.037000000011,3285561.5999999642,2021-11-01T16:51:01.349Z,3285594.315,1635782165,full,ni_sequenzen,NI_Sequenzen,,7,,,,,,,,,,,,
,Move,canvas.Screen,0_3_0_8_0_0,right,response,,3285576.5,3285577.61,3285594.315,3287092.899999976,1498.584999976214,3287093.399999976,2021-11-01T16:51:02.881Z,3287110.854,1635782165,full,ni_sequenzen,NI_Sequenzen,1,8,,,,,,,,,,,,
,Move,canvas.Screen,0_3_0_8_0_1,down,response,,3287096.5,3287094.105,3287110.854,3287318.2999999523,207.44599995249882,3287318.7999999523,2021-11-01T16:51:03.107Z,3287327.481,1635782165,full,ni_sequenzen,NI_Sequenzen,2,8,,,,,,,,,,,,
,Move,canvas.Screen,0_3_0_8_0_2,right,response,,3287322.2999999523,3287310.797,3287327.481,3287663.2999999523,335.818999952171,3287663.7999999523,2021-11-01T16:51:03.452Z,3287677.378,1635782165,full,ni_sequenzen,NI_Sequenzen,3,8,,,,,,,,,,,,
,Move,canvas.Screen,0_3_0_8_0_3,down,response,,3287666.699999988,3287660.783,3287677.378,3288089.5,412.1219999999739,3288090,2021-11-01T16:51:03.878Z,3288127.323,1635782165,full,ni_sequenzen,NI_Sequenzen,4,8,,,,,,,,,,,,
,Move,canvas.Screen,0_3_0_8_0_4,-999,skipped,,3288094,,,3288089.5,,3288094.199999988,2021-11-01T16:51:03.882Z,3288127.323,1635782165,full,ni_sequenzen,NI_Sequenzen,5,8,,,,,,,,,,,,
,Move,canvas.Screen,0_3_0_8_0_5,-999,skipped,,3288096.7999999523,,,3288089.5,,3288096.899999976,2021-11-01T16:51:03.885Z,3288127.323,1635782165,full,ni_sequenzen,NI_Sequenzen,6,8,,,,,,,,,,,,
,Move,canvas.Screen,0_3_0_8_0_6,-999,skipped,,3288099.5,,,3288089.5,,3288099.5999999642,2021-11-01T16:51:03.887Z,3288127.323,1635782165,full,ni_sequenzen,NI_Sequenzen,7,8,,,,,,,,,,,,
,Move,canvas.Screen,0_3_0_8_0_7,-999,skipped,,3288102.699999988,,,3288089.5,,3288102.7999999523,2021-11-01T16:51:03.891Z,3288127.323,1635782165,full,ni_sequenzen,NI_Sequenzen,8,8,,,,,,,,,,,,
,Move,canvas.Screen,0_3_0_8_0_8,-999,skipped,,3288105.199999988,,,3288089.5,,3288105.2999999523,2021-11-01T16:51:03.893Z,3288127.323,1635782165,full,ni_sequenzen,NI_Sequenzen,9,8,,,,,,,,,,,,
