meta,sender,sender_type,sender_id,response,ended_on,instrCount,time_run,time_render,time_show,time_end,duration,time_commit,timestamp,time_switch,openLabId,type,task,project,move,trialN,blockN_Train,blockN,moveCount,currPP,points,movesTrial,visitedFields,diff,reward,Strategie,Zweck,Probleme
[object Object],Screen_1,canvas.Screen,0_0_0_0,cont,response,1,1198.8999999985099,1211.775,1228.446,13504847.799999997,13503619.353999997,13504850.900000006,2021-10-26T12:50:28.506Z,13505345.068,1635086955,full,ni_sequenzen,NI_Sequenzen,,,,,,,,,,,,,,
,Screen_2,canvas.Screen,0_0_0_1,cont,response,1,13505320.799999997,13505311.733,13505345.068,13506083.700000003,738.63200000301,13506084.299999997,2021-10-26T12:50:29.739Z,13506429.2,1635086955,full,ni_sequenzen,NI_Sequenzen,,,,,,,,,,,,,,
,Screen_3,canvas.Screen,0_0_0_2,cont,response,1,13506422.700000003,13506412.972,13506429.2,13506537.400000006,108.20000000670552,13506537.900000006,2021-10-26T12:50:30.192Z,13506545.929,1635086955,full,ni_sequenzen,NI_Sequenzen,,,,,,,,,,,,,,
,Screen_4,canvas.Screen,0_0_0_3,cont,response,1,13506539.599999994,13506529.46,13506545.929,13506850.400000006,304.4710000064224,13506850.900000006,2021-10-26T12:50:30.506Z,13507113.094,1635086955,full,ni_sequenzen,NI_Sequenzen,,,,,,,,,,,,,,
,Sequence,flow.Sequence,0_0_0,,completion,1,1117.1000000014901,1211.775,1228.446,13506850.400000006,13505621.954000005,13506851.299999997,2021-10-26T12:50:30.506Z,13507113.094,1635086955,full,ni_sequenzen,NI_Sequenzen,,,,,,,,,,,,,,
,Screen_1,canvas.Screen,0_0_1_0,,skipped,2,13506914.599999994,,,13506914.599999994,,13506914.700000003,2021-10-26T12:50:30.569Z,13507113.094,1635086955,full,ni_sequenzen,NI_Sequenzen,,,,,,,,,,,,,,
,Screen_2,canvas.Screen,0_0_1_1,,skipped,2,13506916.099999994,,,13506914.599999994,,13506916.299999997,2021-10-26T12:50:30.571Z,13507113.094,1635086955,full,ni_sequenzen,NI_Sequenzen,,,,,,,,,,,,,,
,Screen_3,canvas.Screen,0_0_1_2,,skipped,2,13506917.599999994,,,13506914.599999994,,13506917.700000003,2021-10-26T12:50:30.572Z,13507113.094,1635086955,full,ni_sequenzen,NI_Sequenzen,,,,,,,,,,,,,,
,Screen_4,canvas.Screen,0_0_1_3,,skipped,2,13506919.099999994,,,13506914.599999994,,13506919.299999997,2021-10-26T12:50:30.574Z,13507113.094,1635086955,full,ni_sequenzen,NI_Sequenzen,,,,,,,,,,,,,,
,Sequence,flow.Sequence,0_0_1,,completion,2,13506852.400000006,,,13506914.599999994,,13506919.599999994,2021-10-26T12:50:30.574Z,13507113.094,1635086955,full,ni_sequenzen,NI_Sequenzen,,,,,,,,,,,,,,
,Screen_1,canvas.Screen,0_0_2_0,,skipped,3,13506921.200000003,,,13506921.200000003,,13506921.400000006,2021-10-26T12:50:30.576Z,13507113.094,1635086955,full,ni_sequenzen,NI_Sequenzen,,,,,,,,,,,,,,
,Screen_2,canvas.Screen,0_0_2_1,,skipped,3,13506922.299999997,,,13506921.200000003,,13506922.400000006,2021-10-26T12:50:30.577Z,13507113.094,1635086955,full,ni_sequenzen,NI_Sequenzen,,,,,,,,,,,,,,
,Screen_3,canvas.Screen,0_0_2_2,,skipped,3,13506923.5,,,13506921.200000003,,13506923.5,2021-10-26T12:50:30.578Z,13507113.094,1635086955,full,ni_sequenzen,NI_Sequenzen,,,,,,,,,,,,,,
,Screen_4,canvas.Screen,0_0_2_3,,skipped,3,13506924.400000006,,,13506921.200000003,,13506924.5,2021-10-26T12:50:30.579Z,13507113.094,1635086955,full,ni_sequenzen,NI_Sequenzen,,,,,,,,,,,,,,
,Sequence,flow.Sequence,0_0_2,,completion,3,13506920.200000003,,,13506921.200000003,,13506924.700000003,2021-10-26T12:50:30.579Z,13507113.094,1635086955,full,ni_sequenzen,NI_Sequenzen,,,,,,,,,,,,,,
,Screen_1,canvas.Screen,0_0_3_0,,skipped,4,13506925.900000006,,,13506925.900000006,,13506925.900000006,2021-10-26T12:50:30.580Z,13507113.094,1635086955,full,ni_sequenzen,NI_Sequenzen,,,,,,,,,,,,,,
,Screen_2,canvas.Screen,0_0_3_1,,skipped,4,13506926.799999997,,,13506925.900000006,,13506926.799999997,2021-10-26T12:50:30.581Z,13507113.094,1635086955,full,ni_sequenzen,NI_Sequenzen,,,,,,,,,,,,,,
,Screen_3,canvas.Screen,0_0_3_2,,skipped,4,13506927.700000003,,,13506925.900000006,,13506927.700000003,2021-10-26T12:50:30.582Z,13507113.094,1635086955,full,ni_sequenzen,NI_Sequenzen,,,,,,,,,,,,,,
,Screen_4,canvas.Screen,0_0_3_3,,skipped,4,13506929.099999994,,,13506925.900000006,,13506929.200000003,2021-10-26T12:50:30.584Z,13507113.094,1635086955,full,ni_sequenzen,NI_Sequenzen,,,,,,,,,,,,,,
,Sequence,flow.Sequence,0_0_3,,completion,4,13506925,,,13506925.900000006,,13506929.299999997,2021-10-26T12:50:30.584Z,13507113.094,1635086955,full,ni_sequenzen,NI_Sequenzen,,,,,,,,,,,,,,
,Screen_1,canvas.Screen,0_0_4_0,,skipped,5,13506930.700000003,,,13506930.700000003,,13506930.700000003,2021-10-26T12:50:30.585Z,13507113.094,1635086955,full,ni_sequenzen,NI_Sequenzen,,,,,,,,,,,,,,
,Screen_2,canvas.Screen,0_0_4_1,,skipped,5,13506931.5,,,13506930.700000003,,13506931.599999994,2021-10-26T12:50:30.586Z,13507113.094,1635086955,full,ni_sequenzen,NI_Sequenzen,,,,,,,,,,,,,,
,Screen_3,canvas.Screen,0_0_4_2,,skipped,5,13506932.599999994,,,13506930.700000003,,13506932.700000003,2021-10-26T12:50:30.587Z,13507113.094,1635086955,full,ni_sequenzen,NI_Sequenzen,,,,,,,,,,,,,,
,Screen_4,canvas.Screen,0_0_4_3,,skipped,5,13506933.700000003,,,13506930.700000003,,13506933.799999997,2021-10-26T12:50:30.588Z,13507113.094,1635086955,full,ni_sequenzen,NI_Sequenzen,,,,,,,,,,,,,,
,Sequence,flow.Sequence,0_0_4,,completion,5,13506929.900000006,,,13506930.700000003,,13506933.900000006,2021-10-26T12:50:30.589Z,13507113.094,1635086955,full,ni_sequenzen,NI_Sequenzen,,,,,,,,,,,,,,
,Screen_1,canvas.Screen,0_0_5_0,,skipped,6,13506935.099999994,,,13506935.099999994,,13506935.200000003,2021-10-26T12:50:30.590Z,13507113.094,1635086955,full,ni_sequenzen,NI_Sequenzen,,,,,,,,,,,,,,
,Screen_2,canvas.Screen,0_0_5_1,,skipped,6,13506936.099999994,,,13506935.099999994,,13506936.200000003,2021-10-26T12:50:30.591Z,13507113.094,1635086955,full,ni_sequenzen,NI_Sequenzen,,,,,,,,,,,,,,
,Screen_3,canvas.Screen,0_0_5_2,,skipped,6,13506937.299999997,,,13506935.099999994,,13506937.400000006,2021-10-26T12:50:30.592Z,13507113.094,1635086955,full,ni_sequenzen,NI_Sequenzen,,,,,,,,,,,,,,
,Screen_4,canvas.Screen,0_0_5_3,,skipped,6,13506938.400000006,,,13506935.099999994,,13506938.400000006,2021-10-26T12:50:30.593Z,13507113.094,1635086955,full,ni_sequenzen,NI_Sequenzen,,,,,,,,,,,,,,
,Sequence,flow.Sequence,0_0_5,,completion,6,13506934.299999997,,,13506935.099999994,,13506938.599999994,2021-10-26T12:50:30.593Z,13507113.094,1635086955,full,ni_sequenzen,NI_Sequenzen,,,,,,,,,,,,,,
,Screen_1,canvas.Screen,0_0_6_0,,skipped,7,13506939.900000006,,,13506939.900000006,,13506940,2021-10-26T12:50:30.595Z,13507113.094,1635086955,full,ni_sequenzen,NI_Sequenzen,,,,,,,,,,,,,,
,Screen_2,canvas.Screen,0_0_6_1,,skipped,7,13506941.099999994,,,13506939.900000006,,13506941.099999994,2021-10-26T12:50:30.596Z,13507113.094,1635086955,full,ni_sequenzen,NI_Sequenzen,,,,,,,,,,,,,,
,Screen_3,canvas.Screen,0_0_6_2,,skipped,7,13506942.299999997,,,13506939.900000006,,13506942.299999997,2021-10-26T12:50:30.597Z,13507113.094,1635086955,full,ni_sequenzen,NI_Sequenzen,,,,,,,,,,,,,,
,Screen_4,canvas.Screen,0_0_6_3,,skipped,7,13506944,,,13506939.900000006,,13506944.099999994,2021-10-26T12:50:30.599Z,13507113.094,1635086955,full,ni_sequenzen,NI_Sequenzen,,,,,,,,,,,,,,
,Sequence,flow.Sequence,0_0_6,,completion,7,13506939,,,13506939.900000006,,13506944.299999997,2021-10-26T12:50:30.599Z,13507113.094,1635086955,full,ni_sequenzen,NI_Sequenzen,,,,,,,,,,,,,,
,Screen_1,canvas.Screen,0_0_7_0,,skipped,8,13506945.200000003,,,13506945.200000003,,13506945.200000003,2021-10-26T12:50:30.600Z,13507113.094,1635086955,full,ni_sequenzen,NI_Sequenzen,,,,,,,,,,,,,,
,Screen_2,canvas.Screen,0_0_7_1,,skipped,8,13506945.900000006,,,13506945.200000003,,13506946,2021-10-26T12:50:30.601Z,13507113.094,1635086955,full,ni_sequenzen,NI_Sequenzen,,,,,,,,,,,,,,
,Screen_3,canvas.Screen,0_0_7_2,,skipped,8,13506947,,,13506945.200000003,,13506947,2021-10-26T12:50:30.602Z,13507113.094,1635086955,full,ni_sequenzen,NI_Sequenzen,,,,,,,,,,,,,,
,Screen_4,canvas.Screen,0_0_7_3,,skipped,8,13506947.799999997,,,13506945.200000003,,13506947.799999997,2021-10-26T12:50:30.602Z,13507113.094,1635086955,full,ni_sequenzen,NI_Sequenzen,,,,,,,,,,,,,,
,Sequence,flow.Sequence,0_0_7,,completion,8,13506944.5,,,13506945.200000003,,13506947.900000006,2021-10-26T12:50:30.603Z,13507113.094,1635086955,full,ni_sequenzen,NI_Sequenzen,,,,,,,,,,,,,,
,Screen_1,canvas.Screen,0_0_8_0,,skipped,9,13506948.799999997,,,13506948.900000006,,13506948.900000006,2021-10-26T12:50:30.603Z,13507113.094,1635086955,full,ni_sequenzen,NI_Sequenzen,,,,,,,,,,,,,,
,Screen_2,canvas.Screen,0_0_8_1,,skipped,9,13506949.599999994,,,13506948.900000006,,13506949.700000003,2021-10-26T12:50:30.604Z,13507113.094,1635086955,full,ni_sequenzen,NI_Sequenzen,,,,,,,,,,,,,,
,Screen_3,canvas.Screen,0_0_8_2,,skipped,9,13506950.299999997,,,13506948.900000006,,13506950.400000006,2021-10-26T12:50:30.605Z,13507113.094,1635086955,full,ni_sequenzen,NI_Sequenzen,,,,,,,,,,,,,,
,Screen_4,canvas.Screen,0_0_8_3,,skipped,9,13506951.200000003,,,13506948.900000006,,13506951.200000003,2021-10-26T12:50:30.606Z,13507113.094,1635086955,full,ni_sequenzen,NI_Sequenzen,,,,,,,,,,,,,,
,Sequence,flow.Sequence,0_0_8,,completion,9,13506948.200000003,,,13506948.900000006,,13506951.400000006,2021-10-26T12:50:30.606Z,13507113.094,1635086955,full,ni_sequenzen,NI_Sequenzen,,,,,,,,,,,,,,
,Screen_1,canvas.Screen,0_0_9_0,,skipped,10,13506952.299999997,,,13506952.299999997,,13506952.400000006,2021-10-26T12:50:30.607Z,13507113.094,1635086955,full,ni_sequenzen,NI_Sequenzen,,,,,,,,,,,,,,
,Screen_2,canvas.Screen,0_0_9_1,,skipped,10,13506953.099999994,,,13506952.299999997,,13506953.099999994,2021-10-26T12:50:30.608Z,13507113.094,1635086955,full,ni_sequenzen,NI_Sequenzen,,,,,,,,,,,,,,
,Screen_3,canvas.Screen,0_0_9_2,,skipped,10,13506954.5,,,13506952.299999997,,13506954.599999994,2021-10-26T12:50:30.609Z,13507113.094,1635086955,full,ni_sequenzen,NI_Sequenzen,,,,,,,,,,,,,,
,Screen_4,canvas.Screen,0_0_9_3,,skipped,10,13506955.400000006,,,13506952.299999997,,13506955.400000006,2021-10-26T12:50:30.610Z,13507113.094,1635086955,full,ni_sequenzen,NI_Sequenzen,,,,,,,,,,,,,,
,Sequence,flow.Sequence,0_0_9,,completion,10,13506951.700000003,,,13506952.299999997,,13506955.599999994,2021-10-26T12:50:30.610Z,13507113.094,1635086955,full,ni_sequenzen,NI_Sequenzen,,,,,,,,,,,,,,
,Screen_1,canvas.Screen,0_0_10_0,,skipped,11,13506956.599999994,,,13506956.599999994,,13506956.700000003,2021-10-26T12:50:30.611Z,13507113.094,1635086955,full,ni_sequenzen,NI_Sequenzen,,,,,,,,,,,,,,
,Screen_2,canvas.Screen,0_0_10_1,,skipped,11,13506957.400000006,,,13506956.599999994,,13506957.5,2021-10-26T12:50:30.612Z,13507113.094,1635086955,full,ni_sequenzen,NI_Sequenzen,,,,,,,,,,,,,,
,Screen_3,canvas.Screen,0_0_10_2,,skipped,11,13506958.200000003,,,13506956.599999994,,13506958.299999997,2021-10-26T12:50:30.613Z,13507113.094,1635086955,full,ni_sequenzen,NI_Sequenzen,,,,,,,,,,,,,,
,Screen_4,canvas.Screen,0_0_10_3,,skipped,11,13506959,,,13506956.599999994,,13506959,2021-10-26T12:50:30.614Z,13507113.094,1635086955,full,ni_sequenzen,NI_Sequenzen,,,,,,,,,,,,,,
,Sequence,flow.Sequence,0_0_10,,completion,11,13506955.900000006,,,13506956.599999994,,13506959.099999994,2021-10-26T12:50:30.614Z,13507113.094,1635086955,full,ni_sequenzen,NI_Sequenzen,,,,,,,,,,,,,,
,Screen_1,canvas.Screen,0_0_11_0,,skipped,12,13506960.599999994,,,13506960.599999994,,13506961.200000003,2021-10-26T12:50:30.616Z,13507113.094,1635086955,full,ni_sequenzen,NI_Sequenzen,,,,,,,,,,,,,,
,Screen_2,canvas.Screen,0_0_11_1,,skipped,12,13506962,,,13506960.599999994,,13506962.099999994,2021-10-26T12:50:30.617Z,13507113.094,1635086955,full,ni_sequenzen,NI_Sequenzen,,,,,,,,,,,,,,
,Screen_3,canvas.Screen,0_0_11_2,,skipped,12,13506963,,,13506960.599999994,,13506963.099999994,2021-10-26T12:50:30.618Z,13507113.094,1635086955,full,ni_sequenzen,NI_Sequenzen,,,,,,,,,,,,,,
,Screen_4,canvas.Screen,0_0_11_3,,skipped,12,13506963.799999997,,,13506960.599999994,,13506963.900000006,2021-10-26T12:50:30.618Z,13507113.094,1635086955,full,ni_sequenzen,NI_Sequenzen,,,,,,,,,,,,,,
,Sequence,flow.Sequence,0_0_11,,completion,12,13506960,,,13506960.599999994,,13506964,2021-10-26T12:50:30.619Z,13507113.094,1635086955,full,ni_sequenzen,NI_Sequenzen,,,,,,,,,,,,,,
,Screen_1,canvas.Screen,0_0_12_0,,skipped,13,13506964.900000006,,,13506964.900000006,,13506965,2021-10-26T12:50:30.620Z,13507113.094,1635086955,full,ni_sequenzen,NI_Sequenzen,,,,,,,,,,,,,,
,Screen_2,canvas.Screen,0_0_12_1,,skipped,13,13506965.599999994,,,13506964.900000006,,13506965.700000003,2021-10-26T12:50:30.620Z,13507113.094,1635086955,full,ni_sequenzen,NI_Sequenzen,,,,,,,,,,,,,,
,Screen_3,canvas.Screen,0_0_12_2,,skipped,13,13506966.5,,,13506964.900000006,,13506966.5,2021-10-26T12:50:30.621Z,13507113.094,1635086955,full,ni_sequenzen,NI_Sequenzen,,,,,,,,,,,,,,
,Screen_4,canvas.Screen,0_0_12_3,,skipped,13,13506967.299999997,,,13506964.900000006,,13506967.299999997,2021-10-26T12:50:30.622Z,13507113.094,1635086955,full,ni_sequenzen,NI_Sequenzen,,,,,,,,,,,,,,
,Sequence,flow.Sequence,0_0_12,,completion,13,13506964.299999997,,,13506964.900000006,,13506967.400000006,2021-10-26T12:50:30.622Z,13507113.094,1635086955,full,ni_sequenzen,NI_Sequenzen,,,,,,,,,,,,,,
,Screen_1,canvas.Screen,0_0_13_0,,skipped,14,13506968.900000006,,,13506968.900000006,,13506969,2021-10-26T12:50:30.624Z,13507113.094,1635086955,full,ni_sequenzen,NI_Sequenzen,,,,,,,,,,,,,,
,Screen_2,canvas.Screen,0_0_13_1,,skipped,14,13506969.700000003,,,13506968.900000006,,13506969.700000003,2021-10-26T12:50:30.624Z,13507113.094,1635086955,full,ni_sequenzen,NI_Sequenzen,,,,,,,,,,,,,,
,Screen_3,canvas.Screen,0_0_13_2,,skipped,14,13506970.5,,,13506968.900000006,,13506970.599999994,2021-10-26T12:50:30.625Z,13507113.094,1635086955,full,ni_sequenzen,NI_Sequenzen,,,,,,,,,,,,,,
,Screen_4,canvas.Screen,0_0_13_3,,skipped,14,13506971.200000003,,,13506968.900000006,,13506971.299999997,2021-10-26T12:50:30.626Z,13507113.094,1635086955,full,ni_sequenzen,NI_Sequenzen,,,,,,,,,,,,,,
,Sequence,flow.Sequence,0_0_13,,completion,14,13506967.799999997,,,13506968.900000006,,13506971.5,2021-10-26T12:50:30.626Z,13507113.094,1635086955,full,ni_sequenzen,NI_Sequenzen,,,,,,,,,,,,,,
,Screen_1,canvas.Screen,0_0_14_0,,skipped,15,13506972.299999997,,,13506972.299999997,,13506972.400000006,2021-10-26T12:50:30.627Z,13507113.094,1635086955,full,ni_sequenzen,NI_Sequenzen,,,,,,,,,,,,,,
,Screen_2,canvas.Screen,0_0_14_1,,skipped,15,13506973.099999994,,,13506972.299999997,,13506973.099999994,2021-10-26T12:50:30.628Z,13507113.094,1635086955,full,ni_sequenzen,NI_Sequenzen,,,,,,,,,,,,,,
,Screen_3,canvas.Screen,0_0_14_2,,skipped,15,13506974,,,13506972.299999997,,13506974,2021-10-26T12:50:30.629Z,13507113.094,1635086955,full,ni_sequenzen,NI_Sequenzen,,,,,,,,,,,,,,
,Screen_4,canvas.Screen,0_0_14_3,,skipped,15,13506974.599999994,,,13506972.299999997,,13506974.700000003,2021-10-26T12:50:30.629Z,13507113.094,1635086955,full,ni_sequenzen,NI_Sequenzen,,,,,,,,,,,,,,
,Sequence,flow.Sequence,0_0_14,,completion,15,13506971.700000003,,,13506972.299999997,,13506974.799999997,2021-10-26T12:50:30.629Z,13507113.094,1635086955,full,ni_sequenzen,NI_Sequenzen,,,,,,,,,,,,,,
,Screen_1,canvas.Screen,0_0_15_0,,skipped,16,13506975.700000003,,,13506975.700000003,,13506975.799999997,2021-10-26T12:50:30.630Z,13507113.094,1635086955,full,ni_sequenzen,NI_Sequenzen,,,,,,,,,,,,,,
,Screen_2,canvas.Screen,0_0_15_1,,skipped,16,13506976.799999997,,,13506975.700000003,,13506976.900000006,2021-10-26T12:50:30.631Z,13507113.094,1635086955,full,ni_sequenzen,NI_Sequenzen,,,,,,,,,,,,,,
,Screen_3,canvas.Screen,0_0_15_2,,skipped,16,13506977.599999994,,,13506975.700000003,,13506978.299999997,2021-10-26T12:50:30.633Z,13507113.094,1635086955,full,ni_sequenzen,NI_Sequenzen,,,,,,,,,,,,,,
,Screen_4,canvas.Screen,0_0_15_3,,skipped,16,13506979.099999994,,,13506975.700000003,,13506979.200000003,2021-10-26T12:50:30.634Z,13507113.094,1635086955,full,ni_sequenzen,NI_Sequenzen,,,,,,,,,,,,,,
,Sequence,flow.Sequence,0_0_15,,completion,16,13506975.099999994,,,13506975.700000003,,13506979.299999997,2021-10-26T12:50:30.634Z,13507113.094,1635086955,full,ni_sequenzen,NI_Sequenzen,,,,,,,,,,,,,,
,Screen_1,canvas.Screen,0_0_16_0,,skipped,17,13506980.299999997,,,13506980.299999997,,13506980.400000006,2021-10-26T12:50:30.635Z,13507113.094,1635086955,full,ni_sequenzen,NI_Sequenzen,,,,,,,,,,,,,,
,Screen_2,canvas.Screen,0_0_16_1,,skipped,17,13506981,,,13506980.299999997,,13506981.099999994,2021-10-26T12:50:30.636Z,13507113.094,1635086955,full,ni_sequenzen,NI_Sequenzen,,,,,,,,,,,,,,
,Screen_3,canvas.Screen,0_0_16_2,,skipped,17,13506982.5,,,13506980.299999997,,13506982.5,2021-10-26T12:50:30.637Z,13507113.094,1635086955,full,ni_sequenzen,NI_Sequenzen,,,,,,,,,,,,,,
,Screen_4,canvas.Screen,0_0_16_3,,skipped,17,13506983.299999997,,,13506980.299999997,,13506983.299999997,2021-10-26T12:50:30.638Z,13507113.094,1635086955,full,ni_sequenzen,NI_Sequenzen,,,,,,,,,,,,,,
,Sequence,flow.Sequence,0_0_16,,completion,17,13506979.799999997,,,13506980.299999997,,13506983.400000006,2021-10-26T12:50:30.638Z,13507113.094,1635086955,full,ni_sequenzen,NI_Sequenzen,,,,,,,,,,,,,,
,Screen_1,canvas.Screen,0_0_17_0,,skipped,18,13506984.299999997,,,13506984.299999997,,13506984.400000006,2021-10-26T12:50:30.639Z,13507113.094,1635086955,full,ni_sequenzen,NI_Sequenzen,,,,,,,,,,,,,,
,Screen_2,canvas.Screen,0_0_17_1,,skipped,18,13506985.099999994,,,13506984.299999997,,13506985.200000003,2021-10-26T12:50:30.640Z,13507113.094,1635086955,full,ni_sequenzen,NI_Sequenzen,,,,,,,,,,,,,,
,Screen_3,canvas.Screen,0_0_17_2,,skipped,18,13506985.900000006,,,13506984.299999997,,13506985.900000006,2021-10-26T12:50:30.640Z,13507113.094,1635086955,full,ni_sequenzen,NI_Sequenzen,,,,,,,,,,,,,,
,Screen_4,canvas.Screen,0_0_17_3,,skipped,18,13506986.599999994,,,13506984.299999997,,13506986.700000003,2021-10-26T12:50:30.641Z,13507113.094,1635086955,full,ni_sequenzen,NI_Sequenzen,,,,,,,,,,,,,,
,Sequence,flow.Sequence,0_0_17,,completion,18,13506983.700000003,,,13506984.299999997,,13506986.700000003,2021-10-26T12:50:30.641Z,13507113.094,1635086955,full,ni_sequenzen,NI_Sequenzen,,,,,,,,,,,,,,
,Screen_1,canvas.Screen,0_0_18_0,,skipped,19,13506987.599999994,,,13506987.599999994,,13506987.700000003,2021-10-26T12:50:30.642Z,13507113.094,1635086955,full,ni_sequenzen,NI_Sequenzen,,,,,,,,,,,,,,
,Screen_2,canvas.Screen,0_0_18_1,,skipped,19,13506988.299999997,,,13506987.599999994,,13506988.400000006,2021-10-26T12:50:30.643Z,13507113.094,1635086955,full,ni_sequenzen,NI_Sequenzen,,,,,,,,,,,,,,
,Screen_3,canvas.Screen,0_0_18_2,,skipped,19,13506989,,,13506987.599999994,,13506989,2021-10-26T12:50:30.644Z,13507113.094,1635086955,full,ni_sequenzen,NI_Sequenzen,,,,,,,,,,,,,,
,Screen_4,canvas.Screen,0_0_18_3,,skipped,19,13506989.700000003,,,13506987.599999994,,13506989.799999997,2021-10-26T12:50:30.644Z,13507113.094,1635086955,full,ni_sequenzen,NI_Sequenzen,,,,,,,,,,,,,,
,Sequence,flow.Sequence,0_0_18,,completion,19,13506987,,,13506987.599999994,,13506989.900000006,2021-10-26T12:50:30.644Z,13507113.094,1635086955,full,ni_sequenzen,NI_Sequenzen,,,,,,,,,,,,,,
,Screen_1,canvas.Screen,0_0_19_0,,skipped,20,13506990.799999997,,,13506990.799999997,,13506990.799999997,2021-10-26T12:50:30.645Z,13507113.094,1635086955,full,ni_sequenzen,NI_Sequenzen,,,,,,,,,,,,,,
,Screen_2,canvas.Screen,0_0_19_1,,skipped,20,13506991.400000006,,,13506990.799999997,,13506991.5,2021-10-26T12:50:30.646Z,13507113.094,1635086955,full,ni_sequenzen,NI_Sequenzen,,,,,,,,,,,,,,
,Screen_3,canvas.Screen,0_0_19_2,,skipped,20,13506992.200000003,,,13506990.799999997,,13506992.200000003,2021-10-26T12:50:30.647Z,13507113.094,1635086955,full,ni_sequenzen,NI_Sequenzen,,,,,,,,,,,,,,
,Screen_4,canvas.Screen,0_0_19_3,,skipped,20,13506992.799999997,,,13506990.799999997,,13506992.900000006,2021-10-26T12:50:30.647Z,13507113.094,1635086955,full,ni_sequenzen,NI_Sequenzen,,,,,,,,,,,,,,
,Sequence,flow.Sequence,0_0_19,,completion,20,13506990.200000003,,,13506990.799999997,,13506993.400000006,2021-10-26T12:50:30.648Z,13507113.094,1635086955,full,ni_sequenzen,NI_Sequenzen,,,,,,,,,,,,,,
,Instructions_I,flow.Loop,0_0,,completion,,1116.2999999970198,1211.775,1228.446,13506990.799999997,13505762.353999997,13506993.700000003,2021-10-26T12:50:30.648Z,13507113.094,1635086955,full,ni_sequenzen,NI_Sequenzen,,,,,,,,,,,,,,
,Move,canvas.Screen,0_1_0_0,right,response,,13507098.799999997,13507096.835,13507113.094,13507251,137.90599999949336,13507251.599999994,2021-10-26T12:50:30.906Z,13507263.214,1635086955,full,ni_sequenzen,NI_Sequenzen,1,,,,,,,,,,,,,
,Move,canvas.Screen,0_1_0_1,right,response,,13507254.099999994,13507246.802,13507263.214,13507470.700000003,207.48600000329316,13507471.5,2021-10-26T12:50:31.126Z,13507480.047,1635086955,full,ni_sequenzen,NI_Sequenzen,2,,,,,,,,,,,,,
,Move,canvas.Screen,0_1_0_2,right,response,,13507474.5,13507463.678,13507480.047,13507908.900000006,428.85300000570714,13507909.299999997,2021-10-26T12:50:31.564Z,13507930.56,1635086955,full,ni_sequenzen,NI_Sequenzen,3,,,,,,,,,,,,,
,Move,canvas.Screen,0_1_0_3,right,response,,13507911.099999994,13507897.164,13507930.56,13508126.900000006,196.34000000543892,13508128,2021-10-26T12:50:31.783Z,13508147.576,1635086955,full,ni_sequenzen,NI_Sequenzen,4,,,,,,,,,,,,,
,Move,canvas.Screen,0_1_0_4,down,response,,13508130.900000006,13508130.931,13508147.576,13508397.400000006,249.8240000065416,13508398,2021-10-26T12:50:32.053Z,13508414.193,1635086955,full,ni_sequenzen,NI_Sequenzen,5,,,,,,,,,,,,,
,Move,canvas.Screen,0_1_0_5,down,response,,13508399.5,13508397.546,13508414.193,13508592.5,178.3070000000298,13508593.700000003,2021-10-26T12:50:32.248Z,13508614.379,1635086955,full,ni_sequenzen,NI_Sequenzen,6,,,,,,,,,,,,,
,Move,canvas.Screen,0_1_0_6,down,response,,13508599.5,13508597.766,13508614.379,13508780.599999994,166.22099999338388,13508781.400000006,2021-10-26T12:50:32.436Z,13508797.904,1635086955,full,ni_sequenzen,NI_Sequenzen,7,,,,,,,,,,,,,
,Move,canvas.Screen,0_1_0_7,down,response,,13508782.799999997,13508781.48,13508797.904,13508977.299999997,179.39599999785423,13508978.400000006,2021-10-26T12:50:32.633Z,13508998.071,1635086955,full,ni_sequenzen,NI_Sequenzen,8,,,,,,,,,,,,,
,Move,canvas.Screen,0_1_0_8,left,response,,13508983.799999997,13508981.382,13508998.071,13509336.200000003,338.1290000025183,13509336.799999997,2021-10-26T12:50:32.991Z,13509348.318,1635086955,full,ni_sequenzen,NI_Sequenzen,9,,,,,,,,,,,,,
,Move,canvas.Screen,0_1_0_9,left,response,,13509338.5,13509331.896,13509348.318,13509551.599999994,203.28199999406934,13509552.700000003,2021-10-26T12:50:33.207Z,13509565.169,1635086955,full,ni_sequenzen,NI_Sequenzen,10,,,,,,,,,,,,,
,Move,canvas.Screen,0_1_0_10,left,response,,13509558,13509548.584,13509565.169,13509721.599999994,156.43099999427795,13509722.700000003,2021-10-26T12:50:33.377Z,13509731.956,1635086955,full,ni_sequenzen,NI_Sequenzen,11,,,,,,,,,,,,,
,Move,canvas.Screen,0_1_0_11,left,response,,13509725.700000003,13509715.391,13509731.956,13509944.900000006,212.94400000572205,13509946,2021-10-26T12:50:33.601Z,13509965.508,1635086955,full,ni_sequenzen,NI_Sequenzen,12,,,,,,,,,,,,,
,Move,canvas.Screen,0_1_0_12,left,response,,13509951.700000003,13509949.011,13509965.508,13510153.700000003,188.19200000353158,13510154.299999997,2021-10-26T12:50:33.809Z,13510165.652,1635086955,full,ni_sequenzen,NI_Sequenzen,13,,,,,,,,,,,,,
,Move,canvas.Screen,0_1_0_13,down,response,,13510155.700000003,13510148.993,13510165.652,13510329.599999994,163.94799999333918,13510330.700000003,2021-10-26T12:50:33.985Z,13510349.001,1635086955,full,ni_sequenzen,NI_Sequenzen,14,,,,,,,,,,,,,
,Move,canvas.Screen,0_1_0_14,down,response,,13510335.900000006,13510332.608,13510349.001,13510543,193.9989999998361,13510543.5,2021-10-26T12:50:34.198Z,13510549.287,1635086955,full,ni_sequenzen,NI_Sequenzen,15,,,,,,,,,,,,,
,Move,canvas.Screen,0_1_0_15,down,response,,13510544.900000006,13510532.658,13510549.287,13510736.099999994,186.8129999935627,13510736.599999994,2021-10-26T12:50:34.391Z,13510749.37,1635086955,full,ni_sequenzen,NI_Sequenzen,16,,,,,,,,,,,,,
,Move,canvas.Screen,0_1_0_16,down,response,,13510738.5,13510732.88,13510749.37,13510937.400000006,188.03000000678003,13510937.799999997,2021-10-26T12:50:34.592Z,13510949.498,1635086955,full,ni_sequenzen,NI_Sequenzen,17,,,,,,,,,,,,,
,Move,canvas.Screen,0_1_0_17,down,response,,13510939.200000003,13510933.182,13510949.498,13511238.599999994,289.10199999436736,13511239.099999994,2021-10-26T12:50:34.894Z,13511249.792,1635086955,full,ni_sequenzen,NI_Sequenzen,18,,,,,,,,,,,,,
,Move,canvas.Screen,0_1_0_18,right,response,,13511240.799999997,13511233.49,13511249.792,13511373.799999997,124.00799999758601,13511374.5,2021-10-26T12:50:35.029Z,13511383.233,1635086955,full,ni_sequenzen,NI_Sequenzen,19,,,,,,,,,,,,,
,Move,canvas.Screen,0_1_0_19,right,response,,13511375.900000006,13511366.748,13511383.233,13511648.599999994,265.3669999949634,13511649.900000006,2021-10-26T12:50:35.304Z,13511666.768,1635086955,full,ni_sequenzen,NI_Sequenzen,20,,,,,,,,,,,,,
,Move,canvas.Screen,0_1_0_20,down,response,,13511655.200000003,13511650.214,13511666.768,13511897.299999997,230.53199999779463,13511898.299999997,2021-10-26T12:50:35.553Z,13511916.988,1635086955,full,ni_sequenzen,NI_Sequenzen,21,,,,,,,,,,,,,
,Move,canvas.Screen,0_1_0_21,down,response,,13511902.599999994,13511900.628,13511916.988,13512287.799999997,370.8119999971241,13512288.299999997,2021-10-26T12:50:35.943Z,13512300.615,1635086955,full,ni_sequenzen,NI_Sequenzen,22,,,,,,,,,,,,,
,Move,canvas.Screen,0_1_0_22,left,response,,13512290.5,13512284.302,13512300.615,13512634.700000003,334.0850000027567,13512635,2021-10-26T12:50:36.290Z,13512650.909,1635086955,full,ni_sequenzen,NI_Sequenzen,23,,,,,,,,,,,,,
,Move,canvas.Screen,0_1_0_23,down,response,,13512636.200000003,13512634.521,13512650.909,13513015.900000006,364.99100000597537,13513016.400000006,2021-10-26T12:50:36.671Z,13513034.92,1635086955,full,ni_sequenzen,NI_Sequenzen,24,,,,,,,,,,,,,
,Move,canvas.Screen,0_1_0_24,right,response,,13513018.599999994,13513017.992,13513034.92,13513296.900000006,261.98000000603497,13513297.5,2021-10-26T12:50:36.952Z,13513301.499,1635086955,full,ni_sequenzen,NI_Sequenzen,25,,,,,,,,,,,,,
,Move,canvas.Screen,0_1_0_25,down,response,,13513298.900000006,13513284.894,13513301.499,13513611.299999997,309.8009999971837,13513611.900000006,2021-10-26T12:50:37.266Z,13513618.368,1635086955,full,ni_sequenzen,NI_Sequenzen,26,,,,,,,,,,,,,
,Move,canvas.Screen,0_1_0_26,right,response,,13513613.599999994,13513601.806,13513618.368,13513899.299999997,280.9319999963045,13513899.900000006,2021-10-26T12:50:37.554Z,13513918.658,1635086955,full,ni_sequenzen,NI_Sequenzen,27,,,,,,,,,,,,,
,Move,canvas.Screen,0_1_0_27,down,response,,13513901.700000003,13513885.583,13513918.658,13514194.599999994,275.94199999421835,13514195.099999994,2021-10-26T12:50:37.850Z,13514202.236,1635086955,full,ni_sequenzen,NI_Sequenzen,28,,,,,,,,,,,,,
,Move,canvas.Screen,0_1_0_28,right,response,,13514197.200000003,13514185.724,13514202.236,13514481,278.76400000043213,13514481.5,2021-10-26T12:50:38.136Z,13514485.819,1635086955,full,ni_sequenzen,NI_Sequenzen,29,,,,,,,,,,,,,
,Move,canvas.Screen,0_1_0_29,down,response,,13514482.900000006,13514469.416,13514485.819,13514903.200000003,417.3810000028461,13514904.299999997,2021-10-26T12:50:38.559Z,13514952.869,1635086955,full,ni_sequenzen,NI_Sequenzen,30,,,,,,,,,,,,,
,Loop,flow.Loop,0_1_0,-999,completion,,13507003.099999994,13507096.835,13507113.094,13514903.200000003,7790.106000002474,13514904.799999997,2021-10-26T12:50:38.559Z,13514952.869,1635086955,full,ni_sequenzen,NI_Sequenzen,,,,,,,,,,,,,,
,Training_I,flow.Sequence,0_1,,completion,,13506994,13507096.835,13507113.094,13514903.200000003,7790.106000002474,13514905.200000003,2021-10-26T12:50:38.560Z,13514952.869,1635086955,full,ni_sequenzen,NI_Sequenzen,,,,,,,,,,,,,,
,Screen_1,canvas.Screen,0_2_0_0,cont,response,1,13514949.900000006,13514936.212,13514952.869,13515733.299999997,780.4309999961406,13515734,2021-10-26T12:50:39.389Z,13515836.926,1635086955,full,ni_sequenzen,NI_Sequenzen,,,,,,,,,,,,,,
,Screen_2,canvas.Screen,0_2_0_1,cont,response,1,13515828.599999994,13515820.558,13515836.926,13515915.799999997,78.8739999961108,13515916.900000006,2021-10-26T12:50:39.571Z,13515936.906,1635086955,full,ni_sequenzen,NI_Sequenzen,,,,,,,,,,,,,,
,Screen_3,canvas.Screen,0_2_0_2,cont,response,1,13515922.200000003,13515920.593,13515936.906,13516108,171.09400000050664,13516108.599999994,2021-10-26T12:50:39.763Z,13516203.782,1635086955,full,ni_sequenzen,NI_Sequenzen,,,,,,,,,,,,,,
,Screen_4,canvas.Screen,0_2_0_3,cont,response,1,13516188.299999997,13516187.455,13516203.782,13516464.799999997,261.0179999973625,13516465.900000006,2021-10-26T12:50:40.120Z,13516487.691,1635086955,full,ni_sequenzen,NI_Sequenzen,,,,,,,,,,,,,,
,Screen_5,canvas.Screen,0_2_0_4,cont,response,1,13516470.700000003,13516470.885,13516487.691,13516707.099999994,219.40899999439716,13516707.599999994,2021-10-26T12:50:40.362Z,13516804.225,1635086955,full,ni_sequenzen,NI_Sequenzen,,,,,,,,,,,,,,
,Screen_6,canvas.Screen,0_2_0_5,cont,response,1,13516792.099999994,13516788.002,13516804.225,13516919.099999994,114.87499999441206,13516919.599999994,2021-10-26T12:50:40.574Z,13517087.818,1635086955,full,ni_sequenzen,NI_Sequenzen,,,,,,,,,,,,,,
,Sequence,flow.Sequence,0_2_0,,completion,1,13514948.599999994,13514936.212,13514952.869,13516919.099999994,1966.2309999931604,13516919.799999997,2021-10-26T12:50:40.574Z,13517087.818,1635086955,full,ni_sequenzen,NI_Sequenzen,,,,,,,,,,,,,,
,Screen_1,canvas.Screen,0_2_1_0,,skipped,2,13516921.700000003,,,13516921.700000003,,13516921.700000003,2021-10-26T12:50:40.576Z,13517087.818,1635086955,full,ni_sequenzen,NI_Sequenzen,,,,,,,,,,,,,,
,Screen_2,canvas.Screen,0_2_1_1,,skipped,2,13516922.700000003,,,13516921.700000003,,13516922.799999997,2021-10-26T12:50:40.577Z,13517087.818,1635086955,full,ni_sequenzen,NI_Sequenzen,,,,,,,,,,,,,,
,Screen_3,canvas.Screen,0_2_1_2,,skipped,2,13516923.700000003,,,13516921.700000003,,13516923.700000003,2021-10-26T12:50:40.578Z,13517087.818,1635086955,full,ni_sequenzen,NI_Sequenzen,,,,,,,,,,,,,,
,Screen_4,canvas.Screen,0_2_1_3,,skipped,2,13516924.700000003,,,13516921.700000003,,13516924.799999997,2021-10-26T12:50:40.579Z,13517087.818,1635086955,full,ni_sequenzen,NI_Sequenzen,,,,,,,,,,,,,,
,Screen_5,canvas.Screen,0_2_1_4,,skipped,2,13516925.700000003,,,13516921.700000003,,13516925.799999997,2021-10-26T12:50:40.580Z,13517087.818,1635086955,full,ni_sequenzen,NI_Sequenzen,,,,,,,,,,,,,,
,Screen_6,canvas.Screen,0_2_1_5,,skipped,2,13516926.799999997,,,13516921.700000003,,13516926.799999997,2021-10-26T12:50:40.581Z,13517087.818,1635086955,full,ni_sequenzen,NI_Sequenzen,,,,,,,,,,,,,,
,Sequence,flow.Sequence,0_2_1,,completion,2,13516920.5,,,13516921.700000003,,13516927,2021-10-26T12:50:40.582Z,13517087.818,1635086955,full,ni_sequenzen,NI_Sequenzen,,,,,,,,,,,,,,
,Screen_1,canvas.Screen,0_2_2_0,,skipped,3,13516928,,,13516928,,13516928.099999994,2021-10-26T12:50:40.583Z,13517087.818,1635086955,full,ni_sequenzen,NI_Sequenzen,,,,,,,,,,,,,,
,Screen_2,canvas.Screen,0_2_2_1,,skipped,3,13516928.799999997,,,13516928,,13516928.900000006,2021-10-26T12:50:40.583Z,13517087.818,1635086955,full,ni_sequenzen,NI_Sequenzen,,,,,,,,,,,,,,
,Screen_3,canvas.Screen,0_2_2_2,,skipped,3,13516929.799999997,,,13516928,,13516929.900000006,2021-10-26T12:50:40.584Z,13517087.818,1635086955,full,ni_sequenzen,NI_Sequenzen,,,,,,,,,,,,,,
,Screen_4,canvas.Screen,0_2_2_3,,skipped,3,13516930.700000003,,,13516928,,13516930.799999997,2021-10-26T12:50:40.585Z,13517087.818,1635086955,full,ni_sequenzen,NI_Sequenzen,,,,,,,,,,,,,,
,Screen_5,canvas.Screen,0_2_2_4,,skipped,3,13516931.599999994,,,13516928,,13516931.700000003,2021-10-26T12:50:40.586Z,13517087.818,1635086955,full,ni_sequenzen,NI_Sequenzen,,,,,,,,,,,,,,
,Screen_6,canvas.Screen,0_2_2_5,,skipped,3,13516932.599999994,,,13516928,,13516932.700000003,2021-10-26T12:50:40.587Z,13517087.818,1635086955,full,ni_sequenzen,NI_Sequenzen,,,,,,,,,,,,,,
,Sequence,flow.Sequence,0_2_2,,completion,3,13516927.299999997,,,13516928,,13516932.799999997,2021-10-26T12:50:40.587Z,13517087.818,1635086955,full,ni_sequenzen,NI_Sequenzen,,,,,,,,,,,,,,
,Screen_1,canvas.Screen,0_2_3_0,,skipped,4,13516933.799999997,,,13516933.799999997,,13516933.900000006,2021-10-26T12:50:40.588Z,13517087.818,1635086955,full,ni_sequenzen,NI_Sequenzen,,,,,,,,,,,,,,
,Screen_2,canvas.Screen,0_2_3_1,,skipped,4,13516934.700000003,,,13516933.799999997,,13516934.799999997,2021-10-26T12:50:40.589Z,13517087.818,1635086955,full,ni_sequenzen,NI_Sequenzen,,,,,,,,,,,,,,
,Screen_3,canvas.Screen,0_2_3_2,,skipped,4,13516935.599999994,,,13516933.799999997,,13516935.700000003,2021-10-26T12:50:40.590Z,13517087.818,1635086955,full,ni_sequenzen,NI_Sequenzen,,,,,,,,,,,,,,
,Screen_4,canvas.Screen,0_2_3_3,,skipped,4,13516936.5,,,13516933.799999997,,13516936.5,2021-10-26T12:50:40.591Z,13517087.818,1635086955,full,ni_sequenzen,NI_Sequenzen,,,,,,,,,,,,,,
,Screen_5,canvas.Screen,0_2_3_4,,skipped,4,13516937.400000006,,,13516933.799999997,,13516937.5,2021-10-26T12:50:40.592Z,13517087.818,1635086955,full,ni_sequenzen,NI_Sequenzen,,,,,,,,,,,,,,
,Screen_6,canvas.Screen,0_2_3_5,,skipped,4,13516938.299999997,,,13516933.799999997,,13516938.400000006,2021-10-26T12:50:40.593Z,13517087.818,1635086955,full,ni_sequenzen,NI_Sequenzen,,,,,,,,,,,,,,
,Sequence,flow.Sequence,0_2_3,,completion,4,13516933.099999994,,,13516933.799999997,,13516938.5,2021-10-26T12:50:40.593Z,13517087.818,1635086955,full,ni_sequenzen,NI_Sequenzen,,,,,,,,,,,,,,
,Screen_1,canvas.Screen,0_2_4_0,,skipped,5,13516939.599999994,,,13516939.599999994,,13516939.700000003,2021-10-26T12:50:40.594Z,13517087.818,1635086955,full,ni_sequenzen,NI_Sequenzen,,,,,,,,,,,,,,
,Screen_2,canvas.Screen,0_2_4_1,,skipped,5,13516940.5,,,13516939.599999994,,13516940.5,2021-10-26T12:50:40.595Z,13517087.818,1635086955,full,ni_sequenzen,NI_Sequenzen,,,,,,,,,,,,,,
,Screen_3,canvas.Screen,0_2_4_2,,skipped,5,13516941.299999997,,,13516939.599999994,,13516941.400000006,2021-10-26T12:50:40.596Z,13517087.818,1635086955,full,ni_sequenzen,NI_Sequenzen,,,,,,,,,,,,,,
,Screen_4,canvas.Screen,0_2_4_3,,skipped,5,13516942.200000003,,,13516939.599999994,,13516942.400000006,2021-10-26T12:50:40.597Z,13517087.818,1635086955,full,ni_sequenzen,NI_Sequenzen,,,,,,,,,,,,,,
,Screen_5,canvas.Screen,0_2_4_4,,skipped,5,13516943.099999994,,,13516939.599999994,,13516943.200000003,2021-10-26T12:50:40.598Z,13517087.818,1635086955,full,ni_sequenzen,NI_Sequenzen,,,,,,,,,,,,,,
,Screen_6,canvas.Screen,0_2_4_5,,skipped,5,13516944,,,13516939.599999994,,13516944.099999994,2021-10-26T12:50:40.599Z,13517087.818,1635086955,full,ni_sequenzen,NI_Sequenzen,,,,,,,,,,,,,,
,Sequence,flow.Sequence,0_2_4,,completion,5,13516938.799999997,,,13516939.599999994,,13516944.099999994,2021-10-26T12:50:40.599Z,13517087.818,1635086955,full,ni_sequenzen,NI_Sequenzen,,,,,,,,,,,,,,
,Screen_1,canvas.Screen,0_2_5_0,,skipped,6,13516944.900000006,,,13516944.900000006,,13516945,2021-10-26T12:50:40.600Z,13517087.818,1635086955,full,ni_sequenzen,NI_Sequenzen,,,,,,,,,,,,,,
,Screen_2,canvas.Screen,0_2_5_1,,skipped,6,13516945.700000003,,,13516944.900000006,,13516945.799999997,2021-10-26T12:50:40.600Z,13517087.818,1635086955,full,ni_sequenzen,NI_Sequenzen,,,,,,,,,,,,,,
,Screen_3,canvas.Screen,0_2_5_2,,skipped,6,13516946.400000006,,,13516944.900000006,,13516946.400000006,2021-10-26T12:50:40.601Z,13517087.818,1635086955,full,ni_sequenzen,NI_Sequenzen,,,,,,,,,,,,,,
,Screen_4,canvas.Screen,0_2_5_3,,skipped,6,13516947.099999994,,,13516944.900000006,,13516947.099999994,2021-10-26T12:50:40.602Z,13517087.818,1635086955,full,ni_sequenzen,NI_Sequenzen,,,,,,,,,,,,,,
,Screen_5,canvas.Screen,0_2_5_4,,skipped,6,13516947.799999997,,,13516944.900000006,,13516947.799999997,2021-10-26T12:50:40.602Z,13517087.818,1635086955,full,ni_sequenzen,NI_Sequenzen,,,,,,,,,,,,,,
,Screen_6,canvas.Screen,0_2_5_5,,skipped,6,13516948.400000006,,,13516944.900000006,,13516948.5,2021-10-26T12:50:40.603Z,13517087.818,1635086955,full,ni_sequenzen,NI_Sequenzen,,,,,,,,,,,,,,
,Sequence,flow.Sequence,0_2_5,,completion,6,13516944.400000006,,,13516944.900000006,,13516948.599999994,2021-10-26T12:50:40.603Z,13517087.818,1635086955,full,ni_sequenzen,NI_Sequenzen,,,,,,,,,,,,,,
,Screen_1,canvas.Screen,0_2_6_0,,skipped,7,13516949.400000006,,,13516949.400000006,,13516949.400000006,2021-10-26T12:50:40.604Z,13517087.818,1635086955,full,ni_sequenzen,NI_Sequenzen,,,,,,,,,,,,,,
,Screen_2,canvas.Screen,0_2_6_1,,skipped,7,13516950.099999994,,,13516949.400000006,,13516950.200000003,2021-10-26T12:50:40.605Z,13517087.818,1635086955,full,ni_sequenzen,NI_Sequenzen,,,,,,,,,,,,,,
,Screen_3,canvas.Screen,0_2_6_2,,skipped,7,13516951.299999997,,,13516949.400000006,,13516951.400000006,2021-10-26T12:50:40.606Z,13517087.818,1635086955,full,ni_sequenzen,NI_Sequenzen,,,,,,,,,,,,,,
,Screen_4,canvas.Screen,0_2_6_3,,skipped,7,13516952,,,13516949.400000006,,13516952.099999994,2021-10-26T12:50:40.607Z,13517087.818,1635086955,full,ni_sequenzen,NI_Sequenzen,,,,,,,,,,,,,,
,Screen_5,canvas.Screen,0_2_6_4,,skipped,7,13516952.700000003,,,13516949.400000006,,13516952.799999997,2021-10-26T12:50:40.607Z,13517087.818,1635086955,full,ni_sequenzen,NI_Sequenzen,,,,,,,,,,,,,,
,Screen_6,canvas.Screen,0_2_6_5,,skipped,7,13516953.400000006,,,13516949.400000006,,13516953.599999994,2021-10-26T12:50:40.608Z,13517087.818,1635086955,full,ni_sequenzen,NI_Sequenzen,,,,,,,,,,,,,,
,Sequence,flow.Sequence,0_2_6,,completion,7,13516948.900000006,,,13516949.400000006,,13516953.599999994,2021-10-26T12:50:40.608Z,13517087.818,1635086955,full,ni_sequenzen,NI_Sequenzen,,,,,,,,,,,,,,
,Screen_1,canvas.Screen,0_2_7_0,,skipped,8,13516954.400000006,,,13516954.400000006,,13516954.5,2021-10-26T12:50:40.609Z,13517087.818,1635086955,full,ni_sequenzen,NI_Sequenzen,,,,,,,,,,,,,,
,Screen_2,canvas.Screen,0_2_7_1,,skipped,8,13516955.099999994,,,13516954.400000006,,13516955.099999994,2021-10-26T12:50:40.610Z,13517087.818,1635086955,full,ni_sequenzen,NI_Sequenzen,,,,,,,,,,,,,,
,Screen_3,canvas.Screen,0_2_7_2,,skipped,8,13516955.799999997,,,13516954.400000006,,13516955.900000006,2021-10-26T12:50:40.610Z,13517087.818,1635086955,full,ni_sequenzen,NI_Sequenzen,,,,,,,,,,,,,,
,Screen_4,canvas.Screen,0_2_7_3,,skipped,8,13516956.5,,,13516954.400000006,,13516956.5,2021-10-26T12:50:40.611Z,13517087.818,1635086955,full,ni_sequenzen,NI_Sequenzen,,,,,,,,,,,,,,
,Screen_5,canvas.Screen,0_2_7_4,,skipped,8,13516957.099999994,,,13516954.400000006,,13516957.200000003,2021-10-26T12:50:40.612Z,13517087.818,1635086955,full,ni_sequenzen,NI_Sequenzen,,,,,,,,,,,,,,
,Screen_6,canvas.Screen,0_2_7_5,,skipped,8,13516957.799999997,,,13516954.400000006,,13516957.900000006,2021-10-26T12:50:40.612Z,13517087.818,1635086955,full,ni_sequenzen,NI_Sequenzen,,,,,,,,,,,,,,
,Sequence,flow.Sequence,0_2_7,,completion,8,13516953.900000006,,,13516954.400000006,,13516957.900000006,2021-10-26T12:50:40.613Z,13517087.818,1635086955,full,ni_sequenzen,NI_Sequenzen,,,,,,,,,,,,,,
,Screen_1,canvas.Screen,0_2_8_0,,skipped,9,13516958.700000003,,,13516958.799999997,,13516958.799999997,2021-10-26T12:50:40.613Z,13517087.818,1635086955,full,ni_sequenzen,NI_Sequenzen,,,,,,,,,,,,,,
,Screen_2,canvas.Screen,0_2_8_1,,skipped,9,13516959.5,,,13516958.799999997,,13516959.599999994,2021-10-26T12:50:40.614Z,13517087.818,1635086955,full,ni_sequenzen,NI_Sequenzen,,,,,,,,,,,,,,
,Screen_3,canvas.Screen,0_2_8_2,,skipped,9,13516960.200000003,,,13516958.799999997,,13516960.299999997,2021-10-26T12:50:40.615Z,13517087.818,1635086955,full,ni_sequenzen,NI_Sequenzen,,,,,,,,,,,,,,
,Screen_4,canvas.Screen,0_2_8_3,,skipped,9,13516960.900000006,,,13516958.799999997,,13516961,2021-10-26T12:50:40.616Z,13517087.818,1635086955,full,ni_sequenzen,NI_Sequenzen,,,,,,,,,,,,,,
,Screen_5,canvas.Screen,0_2_8_4,,skipped,9,13516961.599999994,,,13516958.799999997,,13516961.599999994,2021-10-26T12:50:40.616Z,13517087.818,1635086955,full,ni_sequenzen,NI_Sequenzen,,,,,,,,,,,,,,
,Screen_6,canvas.Screen,0_2_8_5,,skipped,9,13516962.200000003,,,13516958.799999997,,13516962.200000003,2021-10-26T12:50:40.617Z,13517087.818,1635086955,full,ni_sequenzen,NI_Sequenzen,,,,,,,,,,,,,,
,Sequence,flow.Sequence,0_2_8,,completion,9,13516958.299999997,,,13516958.799999997,,13516962.400000006,2021-10-26T12:50:40.617Z,13517087.818,1635086955,full,ni_sequenzen,NI_Sequenzen,,,,,,,,,,,,,,
,Screen_1,canvas.Screen,0_2_9_0,,skipped,10,13516963.299999997,,,13516963.299999997,,13516963.400000006,2021-10-26T12:50:40.618Z,13517087.818,1635086955,full,ni_sequenzen,NI_Sequenzen,,,,,,,,,,,,,,
,Screen_2,canvas.Screen,0_2_9_1,,skipped,10,13516964,,,13516963.299999997,,13516964.099999994,2021-10-26T12:50:40.619Z,13517087.818,1635086955,full,ni_sequenzen,NI_Sequenzen,,,,,,,,,,,,,,
,Screen_3,canvas.Screen,0_2_9_2,,skipped,10,13516964.799999997,,,13516963.299999997,,13516964.799999997,2021-10-26T12:50:40.619Z,13517087.818,1635086955,full,ni_sequenzen,NI_Sequenzen,,,,,,,,,,,,,,
,Screen_4,canvas.Screen,0_2_9_3,,skipped,10,13516965.5,,,13516963.299999997,,13516965.599999994,2021-10-26T12:50:40.620Z,13517087.818,1635086955,full,ni_sequenzen,NI_Sequenzen,,,,,,,,,,,,,,
,Screen_5,canvas.Screen,0_2_9_4,,skipped,10,13516966.5,,,13516963.299999997,,13516966.599999994,2021-10-26T12:50:40.621Z,13517087.818,1635086955,full,ni_sequenzen,NI_Sequenzen,,,,,,,,,,,,,,
,Screen_6,canvas.Screen,0_2_9_5,,skipped,10,13516967.299999997,,,13516963.299999997,,13516967.299999997,2021-10-26T12:50:40.622Z,13517087.818,1635086955,full,ni_sequenzen,NI_Sequenzen,,,,,,,,,,,,,,
,Sequence,flow.Sequence,0_2_9,,completion,10,13516962.700000003,,,13516963.299999997,,13516967.400000006,2021-10-26T12:50:40.622Z,13517087.818,1635086955,full,ni_sequenzen,NI_Sequenzen,,,,,,,,,,,,,,
,Screen_1,canvas.Screen,0_2_10_0,,skipped,11,13516968.400000006,,,13516968.400000006,,13516968.5,2021-10-26T12:50:40.623Z,13517087.818,1635086955,full,ni_sequenzen,NI_Sequenzen,,,,,,,,,,,,,,
,Screen_2,canvas.Screen,0_2_10_1,,skipped,11,13516969,,,13516968.400000006,,13516969.099999994,2021-10-26T12:50:40.624Z,13517087.818,1635086955,full,ni_sequenzen,NI_Sequenzen,,,,,,,,,,,,,,
,Screen_3,canvas.Screen,0_2_10_2,,skipped,11,13516969.799999997,,,13516968.400000006,,13516969.799999997,2021-10-26T12:50:40.624Z,13517087.818,1635086955,full,ni_sequenzen,NI_Sequenzen,,,,,,,,,,,,,,
,Screen_4,canvas.Screen,0_2_10_3,,skipped,11,13516970.400000006,,,13516968.400000006,,13516970.5,2021-10-26T12:50:40.625Z,13517087.818,1635086955,full,ni_sequenzen,NI_Sequenzen,,,,,,,,,,,,,,
,Screen_5,canvas.Screen,0_2_10_4,,skipped,11,13516971.099999994,,,13516968.400000006,,13516971.099999994,2021-10-26T12:50:40.626Z,13517087.818,1635086955,full,ni_sequenzen,NI_Sequenzen,,,,,,,,,,,,,,
,Screen_6,canvas.Screen,0_2_10_5,,skipped,11,13516971.799999997,,,13516968.400000006,,13516971.900000006,2021-10-26T12:50:40.626Z,13517087.818,1635086955,full,ni_sequenzen,NI_Sequenzen,,,,,,,,,,,,,,
,Sequence,flow.Sequence,0_2_10,,completion,11,13516967.799999997,,,13516968.400000006,,13516971.900000006,2021-10-26T12:50:40.627Z,13517087.818,1635086955,full,ni_sequenzen,NI_Sequenzen,,,,,,,,,,,,,,
,Screen_1,canvas.Screen,0_2_11_0,,skipped,12,13516972.799999997,,,13516972.799999997,,13516972.799999997,2021-10-26T12:50:40.627Z,13517087.818,1635086955,full,ni_sequenzen,NI_Sequenzen,,,,,,,,,,,,,,
,Screen_2,canvas.Screen,0_2_11_1,,skipped,12,13516973.400000006,,,13516972.799999997,,13516973.5,2021-10-26T12:50:40.628Z,13517087.818,1635086955,full,ni_sequenzen,NI_Sequenzen,,,,,,,,,,,,,,
,Screen_3,canvas.Screen,0_2_11_2,,skipped,12,13516974.099999994,,,13516972.799999997,,13516974.099999994,2021-10-26T12:50:40.629Z,13517087.818,1635086955,full,ni_sequenzen,NI_Sequenzen,,,,,,,,,,,,,,
,Screen_4,canvas.Screen,0_2_11_3,,skipped,12,13516975.299999997,,,13516972.799999997,,13516975.5,2021-10-26T12:50:40.630Z,13517087.818,1635086955,full,ni_sequenzen,NI_Sequenzen,,,,,,,,,,,,,,
,Screen_5,canvas.Screen,0_2_11_4,,skipped,12,13516976.099999994,,,13516972.799999997,,13516976.099999994,2021-10-26T12:50:40.631Z,13517087.818,1635086955,full,ni_sequenzen,NI_Sequenzen,,,,,,,,,,,,,,
,Screen_6,canvas.Screen,0_2_11_5,,skipped,12,13516976.700000003,,,13516972.799999997,,13516976.700000003,2021-10-26T12:50:40.631Z,13517087.818,1635086955,full,ni_sequenzen,NI_Sequenzen,,,,,,,,,,,,,,
,Sequence,flow.Sequence,0_2_11,,completion,12,13516972.200000003,,,13516972.799999997,,13516976.900000006,2021-10-26T12:50:40.631Z,13517087.818,1635086955,full,ni_sequenzen,NI_Sequenzen,,,,,,,,,,,,,,
,Screen_1,canvas.Screen,0_2_12_0,,skipped,13,13516977.599999994,,,13516977.599999994,,13516977.700000003,2021-10-26T12:50:40.632Z,13517087.818,1635086955,full,ni_sequenzen,NI_Sequenzen,,,,,,,,,,,,,,
,Screen_2,canvas.Screen,0_2_12_1,,skipped,13,13516978.299999997,,,13516977.599999994,,13516978.299999997,2021-10-26T12:50:40.633Z,13517087.818,1635086955,full,ni_sequenzen,NI_Sequenzen,,,,,,,,,,,,,,
,Screen_3,canvas.Screen,0_2_12_2,,skipped,13,13516978.900000006,,,13516977.599999994,,13516978.900000006,2021-10-26T12:50:40.634Z,13517087.818,1635086955,full,ni_sequenzen,NI_Sequenzen,,,,,,,,,,,,,,
,Screen_4,canvas.Screen,0_2_12_3,,skipped,13,13516979.5,,,13516977.599999994,,13516979.599999994,2021-10-26T12:50:40.634Z,13517087.818,1635086955,full,ni_sequenzen,NI_Sequenzen,,,,,,,,,,,,,,
,Screen_5,canvas.Screen,0_2_12_4,,skipped,13,13516980.200000003,,,13516977.599999994,,13516980.200000003,2021-10-26T12:50:40.635Z,13517087.818,1635086955,full,ni_sequenzen,NI_Sequenzen,,,,,,,,,,,,,,
,Screen_6,canvas.Screen,0_2_12_5,,skipped,13,13516980.799999997,,,13516977.599999994,,13516980.900000006,2021-10-26T12:50:40.635Z,13517087.818,1635086955,full,ni_sequenzen,NI_Sequenzen,,,,,,,,,,,,,,
,Sequence,flow.Sequence,0_2_12,,completion,13,13516977.099999994,,,13516977.599999994,,13516981,2021-10-26T12:50:40.636Z,13517087.818,1635086955,full,ni_sequenzen,NI_Sequenzen,,,,,,,,,,,,,,
,Screen_1,canvas.Screen,0_2_13_0,,skipped,14,13516981.700000003,,,13516981.700000003,,13516981.799999997,2021-10-26T12:50:40.636Z,13517087.818,1635086955,full,ni_sequenzen,NI_Sequenzen,,,,,,,,,,,,,,
,Screen_2,canvas.Screen,0_2_13_1,,skipped,14,13516982.400000006,,,13516981.700000003,,13516982.599999994,2021-10-26T12:50:40.637Z,13517087.818,1635086955,full,ni_sequenzen,NI_Sequenzen,,,,,,,,,,,,,,
,Screen_3,canvas.Screen,0_2_13_2,,skipped,14,13516983.099999994,,,13516981.700000003,,13516983.200000003,2021-10-26T12:50:40.638Z,13517087.818,1635086955,full,ni_sequenzen,NI_Sequenzen,,,,,,,,,,,,,,
,Screen_4,canvas.Screen,0_2_13_3,,skipped,14,13516983.799999997,,,13516981.700000003,,13516983.900000006,2021-10-26T12:50:40.638Z,13517087.818,1635086955,full,ni_sequenzen,NI_Sequenzen,,,,,,,,,,,,,,
,Screen_5,canvas.Screen,0_2_13_4,,skipped,14,13516984.5,,,13516981.700000003,,13516984.5,2021-10-26T12:50:40.639Z,13517087.818,1635086955,full,ni_sequenzen,NI_Sequenzen,,,,,,,,,,,,,,
,Screen_6,canvas.Screen,0_2_13_5,,skipped,14,13516985.099999994,,,13516981.700000003,,13516985.099999994,2021-10-26T12:50:40.640Z,13517087.818,1635086955,full,ni_sequenzen,NI_Sequenzen,,,,,,,,,,,,,,
,Sequence,flow.Sequence,0_2_13,,completion,14,13516981.200000003,,,13516981.700000003,,13516985.200000003,2021-10-26T12:50:40.640Z,13517087.818,1635086955,full,ni_sequenzen,NI_Sequenzen,,,,,,,,,,,,,,
,Screen_1,canvas.Screen,0_2_14_0,,skipped,15,13516986,,,13516986,,13516986.099999994,2021-10-26T12:50:40.641Z,13517087.818,1635086955,full,ni_sequenzen,NI_Sequenzen,,,,,,,,,,,,,,
,Screen_2,canvas.Screen,0_2_14_1,,skipped,15,13516986.799999997,,,13516986,,13516986.799999997,2021-10-26T12:50:40.641Z,13517087.818,1635086955,full,ni_sequenzen,NI_Sequenzen,,,,,,,,,,,,,,
,Screen_3,canvas.Screen,0_2_14_2,,skipped,15,13516987.400000006,,,13516986,,13516987.5,2021-10-26T12:50:40.642Z,13517087.818,1635086955,full,ni_sequenzen,NI_Sequenzen,,,,,,,,,,,,,,
,Screen_4,canvas.Screen,0_2_14_3,,skipped,15,13516988.099999994,,,13516986,,13516988.099999994,2021-10-26T12:50:40.643Z,13517087.818,1635086955,full,ni_sequenzen,NI_Sequenzen,,,,,,,,,,,,,,
,Screen_5,canvas.Screen,0_2_14_4,,skipped,15,13516988.700000003,,,13516986,,13516988.799999997,2021-10-26T12:50:40.643Z,13517087.818,1635086955,full,ni_sequenzen,NI_Sequenzen,,,,,,,,,,,,,,
,Screen_6,canvas.Screen,0_2_14_5,,skipped,15,13516989.400000006,,,13516986,,13516989.400000006,2021-10-26T12:50:40.644Z,13517087.818,1635086955,full,ni_sequenzen,NI_Sequenzen,,,,,,,,,,,,,,
,Sequence,flow.Sequence,0_2_14,,completion,15,13516985.5,,,13516986,,13516989.5,2021-10-26T12:50:40.644Z,13517087.818,1635086955,full,ni_sequenzen,NI_Sequenzen,,,,,,,,,,,,,,
,Screen_1,canvas.Screen,0_2_15_0,,skipped,16,13516990.299999997,,,13516990.299999997,,13516990.299999997,2021-10-26T12:50:40.645Z,13517087.818,1635086955,full,ni_sequenzen,NI_Sequenzen,,,,,,,,,,,,,,
,Screen_2,canvas.Screen,0_2_15_1,,skipped,16,13516990.900000006,,,13516990.299999997,,13516990.900000006,2021-10-26T12:50:40.646Z,13517087.818,1635086955,full,ni_sequenzen,NI_Sequenzen,,,,,,,,,,,,,,
,Screen_3,canvas.Screen,0_2_15_2,,skipped,16,13516991.599999994,,,13516990.299999997,,13516991.599999994,2021-10-26T12:50:40.646Z,13517087.818,1635086955,full,ni_sequenzen,NI_Sequenzen,,,,,,,,,,,,,,
,Screen_4,canvas.Screen,0_2_15_3,,skipped,16,13516992.200000003,,,13516990.299999997,,13516992.200000003,2021-10-26T12:50:40.647Z,13517087.818,1635086955,full,ni_sequenzen,NI_Sequenzen,,,,,,,,,,,,,,
,Screen_5,canvas.Screen,0_2_15_4,,skipped,16,13516992.900000006,,,13516990.299999997,,13516992.900000006,2021-10-26T12:50:40.647Z,13517087.818,1635086955,full,ni_sequenzen,NI_Sequenzen,,,,,,,,,,,,,,
,Screen_6,canvas.Screen,0_2_15_5,,skipped,16,13516993.5,,,13516990.299999997,,13516993.5,2021-10-26T12:50:40.648Z,13517087.818,1635086955,full,ni_sequenzen,NI_Sequenzen,,,,,,,,,,,,,,
,Sequence,flow.Sequence,0_2_15,,completion,16,13516989.799999997,,,13516990.299999997,,13516993.599999994,2021-10-26T12:50:40.648Z,13517087.818,1635086955,full,ni_sequenzen,NI_Sequenzen,,,,,,,,,,,,,,
,Screen_1,canvas.Screen,0_2_16_0,,skipped,17,13516994.400000006,,,13516994.400000006,,13516994.400000006,2021-10-26T12:50:40.649Z,13517087.818,1635086955,full,ni_sequenzen,NI_Sequenzen,,,,,,,,,,,,,,
,Screen_2,canvas.Screen,0_2_16_1,,skipped,17,13516995,,,13516994.400000006,,13516995.099999994,2021-10-26T12:50:40.650Z,13517087.818,1635086955,full,ni_sequenzen,NI_Sequenzen,,,,,,,,,,,,,,
,Screen_3,canvas.Screen,0_2_16_2,,skipped,17,13516996.099999994,,,13516994.400000006,,13516996.200000003,2021-10-26T12:50:40.651Z,13517087.818,1635086955,full,ni_sequenzen,NI_Sequenzen,,,,,,,,,,,,,,
,Screen_4,canvas.Screen,0_2_16_3,,skipped,17,13516996.900000006,,,13516994.400000006,,13516996.900000006,2021-10-26T12:50:40.651Z,13517087.818,1635086955,full,ni_sequenzen,NI_Sequenzen,,,,,,,,,,,,,,
,Screen_5,canvas.Screen,0_2_16_4,,skipped,17,13516997.5,,,13516994.400000006,,13516997.599999994,2021-10-26T12:50:40.652Z,13517087.818,1635086955,full,ni_sequenzen,NI_Sequenzen,,,,,,,,,,,,,,
,Screen_6,canvas.Screen,0_2_16_5,,skipped,17,13516998.299999997,,,13516994.400000006,,13516998.299999997,2021-10-26T12:50:40.653Z,13517087.818,1635086955,full,ni_sequenzen,NI_Sequenzen,,,,,,,,,,,,,,
,Sequence,flow.Sequence,0_2_16,,completion,17,13516993.799999997,,,13516994.400000006,,13516998.400000006,2021-10-26T12:50:40.653Z,13517087.818,1635086955,full,ni_sequenzen,NI_Sequenzen,,,,,,,,,,,,,,
,Screen_1,canvas.Screen,0_2_17_0,,skipped,18,13516999.099999994,,,13516999.099999994,,13516999.200000003,2021-10-26T12:50:40.654Z,13517087.818,1635086955,full,ni_sequenzen,NI_Sequenzen,,,,,,,,,,,,,,
,Screen_2,canvas.Screen,0_2_17_1,,skipped,18,13516999.799999997,,,13516999.099999994,,13516999.799999997,2021-10-26T12:50:40.654Z,13517087.818,1635086955,full,ni_sequenzen,NI_Sequenzen,,,,,,,,,,,,,,
,Screen_3,canvas.Screen,0_2_17_2,,skipped,18,13517000.5,,,13516999.099999994,,13517000.5,2021-10-26T12:50:40.655Z,13517087.818,1635086955,full,ni_sequenzen,NI_Sequenzen,,,,,,,,,,,,,,
,Screen_4,canvas.Screen,0_2_17_3,,skipped,18,13517001.099999994,,,13516999.099999994,,13517001.200000003,2021-10-26T12:50:40.656Z,13517087.818,1635086955,full,ni_sequenzen,NI_Sequenzen,,,,,,,,,,,,,,
,Screen_5,canvas.Screen,0_2_17_4,,skipped,18,13517001.700000003,,,13516999.099999994,,13517001.700000003,2021-10-26T12:50:40.656Z,13517087.818,1635086955,full,ni_sequenzen,NI_Sequenzen,,,,,,,,,,,,,,
,Screen_6,canvas.Screen,0_2_17_5,,skipped,18,13517002.299999997,,,13516999.099999994,,13517002.400000006,2021-10-26T12:50:40.657Z,13517087.818,1635086955,full,ni_sequenzen,NI_Sequenzen,,,,,,,,,,,,,,
,Sequence,flow.Sequence,0_2_17,,completion,18,13516998.700000003,,,13516999.099999994,,13517002.599999994,2021-10-26T12:50:40.657Z,13517087.818,1635086955,full,ni_sequenzen,NI_Sequenzen,,,,,,,,,,,,,,
,Screen_1,canvas.Screen,0_2_18_0,,skipped,19,13517003.299999997,,,13517003.299999997,,13517003.400000006,2021-10-26T12:50:40.658Z,13517087.818,1635086955,full,ni_sequenzen,NI_Sequenzen,,,,,,,,,,,,,,
,Screen_2,canvas.Screen,0_2_18_1,,skipped,19,13517004,,,13517003.299999997,,13517004,2021-10-26T12:50:40.659Z,13517087.818,1635086955,full,ni_sequenzen,NI_Sequenzen,,,,,,,,,,,,,,
,Screen_3,canvas.Screen,0_2_18_2,,skipped,19,13517004.599999994,,,13517003.299999997,,13517004.700000003,2021-10-26T12:50:40.659Z,13517087.818,1635086955,full,ni_sequenzen,NI_Sequenzen,,,,,,,,,,,,,,
,Screen_4,canvas.Screen,0_2_18_3,,skipped,19,13517005.200000003,,,13517003.299999997,,13517005.299999997,2021-10-26T12:50:40.660Z,13517087.818,1635086955,full,ni_sequenzen,NI_Sequenzen,,,,,,,,,,,,,,
,Screen_5,canvas.Screen,0_2_18_4,,skipped,19,13517005.900000006,,,13517003.299999997,,13517005.900000006,2021-10-26T12:50:40.661Z,13517087.818,1635086955,full,ni_sequenzen,NI_Sequenzen,,,,,,,,,,,,,,
,Screen_6,canvas.Screen,0_2_18_5,,skipped,19,13517006.5,,,13517003.299999997,,13517006.5,2021-10-26T12:50:40.661Z,13517087.818,1635086955,full,ni_sequenzen,NI_Sequenzen,,,,,,,,,,,,,,
,Sequence,flow.Sequence,0_2_18,,completion,19,13517002.799999997,,,13517003.299999997,,13517006.700000003,2021-10-26T12:50:40.661Z,13517087.818,1635086955,full,ni_sequenzen,NI_Sequenzen,,,,,,,,,,,,,,
,Screen_1,canvas.Screen,0_2_19_0,,skipped,20,13517007.5,,,13517007.5,,13517007.5,2021-10-26T12:50:40.662Z,13517087.818,1635086955,full,ni_sequenzen,NI_Sequenzen,,,,,,,,,,,,,,
,Screen_2,canvas.Screen,0_2_19_1,,skipped,20,13517008.099999994,,,13517007.5,,13517008.200000003,2021-10-26T12:50:40.663Z,13517087.818,1635086955,full,ni_sequenzen,NI_Sequenzen,,,,,,,,,,,,,,
,Screen_3,canvas.Screen,0_2_19_2,,skipped,20,13517008.700000003,,,13517007.5,,13517008.799999997,2021-10-26T12:50:40.663Z,13517087.818,1635086955,full,ni_sequenzen,NI_Sequenzen,,,,,,,,,,,,,,
,Screen_4,canvas.Screen,0_2_19_3,,skipped,20,13517009.299999997,,,13517007.5,,13517009.299999997,2021-10-26T12:50:40.664Z,13517087.818,1635086955,full,ni_sequenzen,NI_Sequenzen,,,,,,,,,,,,,,
,Screen_5,canvas.Screen,0_2_19_4,,skipped,20,13517009.900000006,,,13517007.5,,13517010,2021-10-26T12:50:40.665Z,13517087.818,1635086955,full,ni_sequenzen,NI_Sequenzen,,,,,,,,,,,,,,
,Screen_6,canvas.Screen,0_2_19_5,,skipped,20,13517010.5,,,13517007.5,,13517010.599999994,2021-10-26T12:50:40.665Z,13517087.818,1635086955,full,ni_sequenzen,NI_Sequenzen,,,,,,,,,,,,,,
,Sequence,flow.Sequence,0_2_19,,completion,20,13517006.900000006,,,13517007.5,,13517010.700000003,2021-10-26T12:50:40.665Z,13517087.818,1635086955,full,ni_sequenzen,NI_Sequenzen,,,,,,,,,,,,,,
,Screen_1,canvas.Screen,0_2_20_0,,skipped,21,13517011.400000006,,,13517011.400000006,,13517011.400000006,2021-10-26T12:50:40.666Z,13517087.818,1635086955,full,ni_sequenzen,NI_Sequenzen,,,,,,,,,,,,,,
,Screen_2,canvas.Screen,0_2_20_1,,skipped,21,13517012.099999994,,,13517011.400000006,,13517012.099999994,2021-10-26T12:50:40.667Z,13517087.818,1635086955,full,ni_sequenzen,NI_Sequenzen,,,,,,,,,,,,,,
,Screen_3,canvas.Screen,0_2_20_2,,skipped,21,13517012.799999997,,,13517011.400000006,,13517012.799999997,2021-10-26T12:50:40.667Z,13517087.818,1635086955,full,ni_sequenzen,NI_Sequenzen,,,,,,,,,,,,,,
,Screen_4,canvas.Screen,0_2_20_3,,skipped,21,13517013.299999997,,,13517011.400000006,,13517013.400000006,2021-10-26T12:50:40.668Z,13517087.818,1635086955,full,ni_sequenzen,NI_Sequenzen,,,,,,,,,,,,,,
,Screen_5,canvas.Screen,0_2_20_4,,skipped,21,13517013.900000006,,,13517011.400000006,,13517014.099999994,2021-10-26T12:50:40.669Z,13517087.818,1635086955,full,ni_sequenzen,NI_Sequenzen,,,,,,,,,,,,,,
,Screen_6,canvas.Screen,0_2_20_5,,skipped,21,13517015.200000003,,,13517011.400000006,,13517015.299999997,2021-10-26T12:50:40.670Z,13517087.818,1635086955,full,ni_sequenzen,NI_Sequenzen,,,,,,,,,,,,,,
,Sequence,flow.Sequence,0_2_20,,completion,21,13517010.900000006,,,13517011.400000006,,13517015.400000006,2021-10-26T12:50:40.670Z,13517087.818,1635086955,full,ni_sequenzen,NI_Sequenzen,,,,,,,,,,,,,,
,Screen_1,canvas.Screen,0_2_21_0,,skipped,22,13517016.200000003,,,13517016.200000003,,13517016.299999997,2021-10-26T12:50:40.671Z,13517087.818,1635086955,full,ni_sequenzen,NI_Sequenzen,,,,,,,,,,,,,,
,Screen_2,canvas.Screen,0_2_21_1,,skipped,22,13517016.900000006,,,13517016.200000003,,13517016.900000006,2021-10-26T12:50:40.672Z,13517087.818,1635086955,full,ni_sequenzen,NI_Sequenzen,,,,,,,,,,,,,,
,Screen_3,canvas.Screen,0_2_21_2,,skipped,22,13517017.599999994,,,13517016.200000003,,13517017.599999994,2021-10-26T12:50:40.672Z,13517087.818,1635086955,full,ni_sequenzen,NI_Sequenzen,,,,,,,,,,,,,,
,Screen_4,canvas.Screen,0_2_21_3,,skipped,22,13517018.099999994,,,13517016.200000003,,13517018.200000003,2021-10-26T12:50:40.673Z,13517087.818,1635086955,full,ni_sequenzen,NI_Sequenzen,,,,,,,,,,,,,,
,Screen_5,canvas.Screen,0_2_21_4,,skipped,22,13517019.200000003,,,13517016.200000003,,13517019.299999997,2021-10-26T12:50:40.674Z,13517087.818,1635086955,full,ni_sequenzen,NI_Sequenzen,,,,,,,,,,,,,,
,Screen_6,canvas.Screen,0_2_21_5,,skipped,22,13517019.799999997,,,13517016.200000003,,13517019.900000006,2021-10-26T12:50:40.674Z,13517087.818,1635086955,full,ni_sequenzen,NI_Sequenzen,,,,,,,,,,,,,,
,Sequence,flow.Sequence,0_2_21,,completion,22,13517015.700000003,,,13517016.200000003,,13517019.900000006,2021-10-26T12:50:40.675Z,13517087.818,1635086955,full,ni_sequenzen,NI_Sequenzen,,,,,,,,,,,,,,
,Screen_1,canvas.Screen,0_2_22_0,,skipped,23,13517020.700000003,,,13517020.700000003,,13517020.700000003,2021-10-26T12:50:40.675Z,13517087.818,1635086955,full,ni_sequenzen,NI_Sequenzen,,,,,,,,,,,,,,
,Screen_2,canvas.Screen,0_2_22_1,,skipped,23,13517021.200000003,,,13517020.700000003,,13517021.299999997,2021-10-26T12:50:40.676Z,13517087.818,1635086955,full,ni_sequenzen,NI_Sequenzen,,,,,,,,,,,,,,
,Screen_3,canvas.Screen,0_2_22_2,,skipped,23,13517022.099999994,,,13517020.700000003,,13517022.200000003,2021-10-26T12:50:40.677Z,13517087.818,1635086955,full,ni_sequenzen,NI_Sequenzen,,,,,,,,,,,,,,
,Screen_4,canvas.Screen,0_2_22_3,,skipped,23,13517022.700000003,,,13517020.700000003,,13517022.799999997,2021-10-26T12:50:40.677Z,13517087.818,1635086955,full,ni_sequenzen,NI_Sequenzen,,,,,,,,,,,,,,
,Screen_5,canvas.Screen,0_2_22_4,,skipped,23,13517023.400000006,,,13517020.700000003,,13517023.400000006,2021-10-26T12:50:40.678Z,13517087.818,1635086955,full,ni_sequenzen,NI_Sequenzen,,,,,,,,,,,,,,
,Screen_6,canvas.Screen,0_2_22_5,,skipped,23,13517024,,,13517020.700000003,,13517024,2021-10-26T12:50:40.679Z,13517087.818,1635086955,full,ni_sequenzen,NI_Sequenzen,,,,,,,,,,,,,,
,Sequence,flow.Sequence,0_2_22,,completion,23,13517020.200000003,,,13517020.700000003,,13517024.099999994,2021-10-26T12:50:40.679Z,13517087.818,1635086955,full,ni_sequenzen,NI_Sequenzen,,,,,,,,,,,,,,
,Screen_1,canvas.Screen,0_2_23_0,,skipped,24,13517024.900000006,,,13517024.900000006,,13517024.900000006,2021-10-26T12:50:40.680Z,13517087.818,1635086955,full,ni_sequenzen,NI_Sequenzen,,,,,,,,,,,,,,
,Screen_2,canvas.Screen,0_2_23_1,,skipped,24,13517025.400000006,,,13517024.900000006,,13517025.5,2021-10-26T12:50:40.680Z,13517087.818,1635086955,full,ni_sequenzen,NI_Sequenzen,,,,,,,,,,,,,,
,Screen_3,canvas.Screen,0_2_23_2,,skipped,24,13517026,,,13517024.900000006,,13517026.099999994,2021-10-26T12:50:40.681Z,13517087.818,1635086955,full,ni_sequenzen,NI_Sequenzen,,,,,,,,,,,,,,
,Screen_4,canvas.Screen,0_2_23_3,,skipped,24,13517026.700000003,,,13517024.900000006,,13517026.700000003,2021-10-26T12:50:40.681Z,13517087.818,1635086955,full,ni_sequenzen,NI_Sequenzen,,,,,,,,,,,,,,
,Screen_5,canvas.Screen,0_2_23_4,,skipped,24,13517027.299999997,,,13517024.900000006,,13517027.400000006,2021-10-26T12:50:40.682Z,13517087.818,1635086955,full,ni_sequenzen,NI_Sequenzen,,,,,,,,,,,,,,
,Screen_6,canvas.Screen,0_2_23_5,,skipped,24,13517027.900000006,,,13517024.900000006,,13517028,2021-10-26T12:50:40.683Z,13517087.818,1635086955,full,ni_sequenzen,NI_Sequenzen,,,,,,,,,,,,,,
,Sequence,flow.Sequence,0_2_23,,completion,24,13517024.400000006,,,13517024.900000006,,13517028.099999994,2021-10-26T12:50:40.683Z,13517087.818,1635086955,full,ni_sequenzen,NI_Sequenzen,,,,,,,,,,,,,,
,Screen_1,canvas.Screen,0_2_24_0,,skipped,25,13517028.799999997,,,13517028.799999997,,13517028.900000006,2021-10-26T12:50:40.683Z,13517087.818,1635086955,full,ni_sequenzen,NI_Sequenzen,,,,,,,,,,,,,,
,Screen_2,canvas.Screen,0_2_24_1,,skipped,25,13517029.400000006,,,13517028.799999997,,13517029.5,2021-10-26T12:50:40.684Z,13517087.818,1635086955,full,ni_sequenzen,NI_Sequenzen,,,,,,,,,,,,,,
,Screen_3,canvas.Screen,0_2_24_2,,skipped,25,13517030,,,13517028.799999997,,13517030,2021-10-26T12:50:40.685Z,13517087.818,1635086955,full,ni_sequenzen,NI_Sequenzen,,,,,,,,,,,,,,
,Screen_4,canvas.Screen,0_2_24_3,,skipped,25,13517030.599999994,,,13517028.799999997,,13517030.700000003,2021-10-26T12:50:40.685Z,13517087.818,1635086955,full,ni_sequenzen,NI_Sequenzen,,,,,,,,,,,,,,
,Screen_5,canvas.Screen,0_2_24_4,,skipped,25,13517031.099999994,,,13517028.799999997,,13517031.200000003,2021-10-26T12:50:40.686Z,13517087.818,1635086955,full,ni_sequenzen,NI_Sequenzen,,,,,,,,,,,,,,
,Screen_6,canvas.Screen,0_2_24_5,,skipped,25,13517031.799999997,,,13517028.799999997,,13517031.799999997,2021-10-26T12:50:40.686Z,13517087.818,1635086955,full,ni_sequenzen,NI_Sequenzen,,,,,,,,,,,,,,
,Sequence,flow.Sequence,0_2_24,,completion,25,13517028.299999997,,,13517028.799999997,,13517031.900000006,2021-10-26T12:50:40.686Z,13517087.818,1635086955,full,ni_sequenzen,NI_Sequenzen,,,,,,,,,,,,,,
,Screen_1,canvas.Screen,0_2_25_0,,skipped,26,13517032.599999994,,,13517032.599999994,,13517032.700000003,2021-10-26T12:50:40.687Z,13517087.818,1635086955,full,ni_sequenzen,NI_Sequenzen,,,,,,,,,,,,,,
,Screen_2,canvas.Screen,0_2_25_1,,skipped,26,13517033.200000003,,,13517032.599999994,,13517033.200000003,2021-10-26T12:50:40.688Z,13517087.818,1635086955,full,ni_sequenzen,NI_Sequenzen,,,,,,,,,,,,,,
,Screen_3,canvas.Screen,0_2_25_2,,skipped,26,13517033.799999997,,,13517032.599999994,,13517033.900000006,2021-10-26T12:50:40.688Z,13517087.818,1635086955,full,ni_sequenzen,NI_Sequenzen,,,,,,,,,,,,,,
,Screen_4,canvas.Screen,0_2_25_3,,skipped,26,13517034.400000006,,,13517032.599999994,,13517034.5,2021-10-26T12:50:40.689Z,13517087.818,1635086955,full,ni_sequenzen,NI_Sequenzen,,,,,,,,,,,,,,
,Screen_5,canvas.Screen,0_2_25_4,,skipped,26,13517035,,,13517032.599999994,,13517035.099999994,2021-10-26T12:50:40.690Z,13517087.818,1635086955,full,ni_sequenzen,NI_Sequenzen,,,,,,,,,,,,,,
,Screen_6,canvas.Screen,0_2_25_5,,skipped,26,13517035.599999994,,,13517032.599999994,,13517035.599999994,2021-10-26T12:50:40.690Z,13517087.818,1635086955,full,ni_sequenzen,NI_Sequenzen,,,,,,,,,,,,,,
,Sequence,flow.Sequence,0_2_25,,completion,26,13517032.099999994,,,13517032.599999994,,13517035.799999997,2021-10-26T12:50:40.690Z,13517087.818,1635086955,full,ni_sequenzen,NI_Sequenzen,,,,,,,,,,,,,,
,Screen_1,canvas.Screen,0_2_26_0,,skipped,27,13517037,,,13517037,,13517037,2021-10-26T12:50:40.692Z,13517087.818,1635086955,full,ni_sequenzen,NI_Sequenzen,,,,,,,,,,,,,,
,Screen_2,canvas.Screen,0_2_26_1,,skipped,27,13517037.700000003,,,13517037,,13517037.799999997,2021-10-26T12:50:40.692Z,13517087.818,1635086955,full,ni_sequenzen,NI_Sequenzen,,,,,,,,,,,,,,
,Screen_3,canvas.Screen,0_2_26_2,,skipped,27,13517038.400000006,,,13517037,,13517038.5,2021-10-26T12:50:40.693Z,13517087.818,1635086955,full,ni_sequenzen,NI_Sequenzen,,,,,,,,,,,,,,
,Screen_4,canvas.Screen,0_2_26_3,,skipped,27,13517039,,,13517037,,13517039.099999994,2021-10-26T12:50:40.694Z,13517087.818,1635086955,full,ni_sequenzen,NI_Sequenzen,,,,,,,,,,,,,,
,Screen_5,canvas.Screen,0_2_26_4,,skipped,27,13517039.700000003,,,13517037,,13517039.700000003,2021-10-26T12:50:40.694Z,13517087.818,1635086955,full,ni_sequenzen,NI_Sequenzen,,,,,,,,,,,,,,
,Screen_6,canvas.Screen,0_2_26_5,,skipped,27,13517040.200000003,,,13517037,,13517040.299999997,2021-10-26T12:50:40.695Z,13517087.818,1635086955,full,ni_sequenzen,NI_Sequenzen,,,,,,,,,,,,,,
,Sequence,flow.Sequence,0_2_26,,completion,27,13517036,,,13517037,,13517040.400000006,2021-10-26T12:50:40.695Z,13517087.818,1635086955,full,ni_sequenzen,NI_Sequenzen,,,,,,,,,,,,,,
,Screen_1,canvas.Screen,0_2_27_0,,skipped,28,13517041.099999994,,,13517041.099999994,,13517041.099999994,2021-10-26T12:50:40.696Z,13517087.818,1635086955,full,ni_sequenzen,NI_Sequenzen,,,,,,,,,,,,,,
,Screen_2,canvas.Screen,0_2_27_1,,skipped,28,13517041.599999994,,,13517041.099999994,,13517041.700000003,2021-10-26T12:50:40.696Z,13517087.818,1635086955,full,ni_sequenzen,NI_Sequenzen,,,,,,,,,,,,,,
,Screen_3,canvas.Screen,0_2_27_2,,skipped,28,13517042.299999997,,,13517041.099999994,,13517042.299999997,2021-10-26T12:50:40.697Z,13517087.818,1635086955,full,ni_sequenzen,NI_Sequenzen,,,,,,,,,,,,,,
,Screen_4,canvas.Screen,0_2_27_3,,skipped,28,13517042.900000006,,,13517041.099999994,,13517042.900000006,2021-10-26T12:50:40.698Z,13517087.818,1635086955,full,ni_sequenzen,NI_Sequenzen,,,,,,,,,,,,,,
,Screen_5,canvas.Screen,0_2_27_4,,skipped,28,13517043.5,,,13517041.099999994,,13517043.599999994,2021-10-26T12:50:40.698Z,13517087.818,1635086955,full,ni_sequenzen,NI_Sequenzen,,,,,,,,,,,,,,
,Screen_6,canvas.Screen,0_2_27_5,,skipped,28,13517044.099999994,,,13517041.099999994,,13517044.200000003,2021-10-26T12:50:40.699Z,13517087.818,1635086955,full,ni_sequenzen,NI_Sequenzen,,,,,,,,,,,,,,
,Sequence,flow.Sequence,0_2_27,,completion,28,13517040.599999994,,,13517041.099999994,,13517044.299999997,2021-10-26T12:50:40.699Z,13517087.818,1635086955,full,ni_sequenzen,NI_Sequenzen,,,,,,,,,,,,,,
,Screen_1,canvas.Screen,0_2_28_0,,skipped,29,13517045,,,13517045,,13517045,2021-10-26T12:50:40.700Z,13517087.818,1635086955,full,ni_sequenzen,NI_Sequenzen,,,,,,,,,,,,,,
,Screen_2,canvas.Screen,0_2_28_1,,skipped,29,13517045.5,,,13517045,,13517045.599999994,2021-10-26T12:50:40.700Z,13517087.818,1635086955,full,ni_sequenzen,NI_Sequenzen,,,,,,,,,,,,,,
,Screen_3,canvas.Screen,0_2_28_2,,skipped,29,13517046,,,13517045,,13517046.099999994,2021-10-26T12:50:40.701Z,13517087.818,1635086955,full,ni_sequenzen,NI_Sequenzen,,,,,,,,,,,,,,
,Screen_4,canvas.Screen,0_2_28_3,,skipped,29,13517046.799999997,,,13517045,,13517046.799999997,2021-10-26T12:50:40.701Z,13517087.818,1635086955,full,ni_sequenzen,NI_Sequenzen,,,,,,,,,,,,,,
,Screen_5,canvas.Screen,0_2_28_4,,skipped,29,13517047.299999997,,,13517045,,13517047.400000006,2021-10-26T12:50:40.702Z,13517087.818,1635086955,full,ni_sequenzen,NI_Sequenzen,,,,,,,,,,,,,,
,Screen_6,canvas.Screen,0_2_28_5,,skipped,29,13517047.900000006,,,13517045,,13517047.900000006,2021-10-26T12:50:40.703Z,13517087.818,1635086955,full,ni_sequenzen,NI_Sequenzen,,,,,,,,,,,,,,
,Sequence,flow.Sequence,0_2_28,,completion,29,13517044.400000006,,,13517045,,13517048.099999994,2021-10-26T12:50:40.703Z,13517087.818,1635086955,full,ni_sequenzen,NI_Sequenzen,,,,,,,,,,,,,,
,Screen_1,canvas.Screen,0_2_29_0,,skipped,30,13517048.700000003,,,13517048.700000003,,13517048.799999997,2021-10-26T12:50:40.703Z,13517087.818,1635086955,full,ni_sequenzen,NI_Sequenzen,,,,,,,,,,,,,,
,Screen_2,canvas.Screen,0_2_29_1,,skipped,30,13517049.299999997,,,13517048.700000003,,13517049.400000006,2021-10-26T12:50:40.704Z,13517087.818,1635086955,full,ni_sequenzen,NI_Sequenzen,,,,,,,,,,,,,,
,Screen_3,canvas.Screen,0_2_29_2,,skipped,30,13517049.900000006,,,13517048.700000003,,13517050,2021-10-26T12:50:40.705Z,13517087.818,1635086955,full,ni_sequenzen,NI_Sequenzen,,,,,,,,,,,,,,
,Screen_4,canvas.Screen,0_2_29_3,,skipped,30,13517050.5,,,13517048.700000003,,13517050.5,2021-10-26T12:50:40.705Z,13517087.818,1635086955,full,ni_sequenzen,NI_Sequenzen,,,,,,,,,,,,,,
,Screen_5,canvas.Screen,0_2_29_4,,skipped,30,13517051.099999994,,,13517048.700000003,,13517051.099999994,2021-10-26T12:50:40.706Z,13517087.818,1635086955,full,ni_sequenzen,NI_Sequenzen,,,,,,,,,,,,,,
,Screen_6,canvas.Screen,0_2_29_5,,skipped,30,13517051.599999994,,,13517048.700000003,,13517051.700000003,2021-10-26T12:50:40.706Z,13517087.818,1635086955,full,ni_sequenzen,NI_Sequenzen,,,,,,,,,,,,,,
,Sequence,flow.Sequence,0_2_29,,completion,30,13517048.200000003,,,13517048.700000003,,13517051.700000003,2021-10-26T12:50:40.706Z,13517087.818,1635086955,full,ni_sequenzen,NI_Sequenzen,,,,,,,,,,,,,,
,Instructions_II,flow.Loop,0_2,,completion,,13514948.099999994,13514936.212,13514952.869,13517048.700000003,2095.831000002101,13517051.799999997,2021-10-26T12:50:40.706Z,13517087.818,1635086955,full,ni_sequenzen,NI_Sequenzen,,,,,,,,,,,,,,
,Move,canvas.Screen,0_3_0_0_0_0,right,response,,13517074.200000003,13517071.448,13517087.818,13517110.700000003,22.882000003010035,13517111,2021-10-26T12:50:40.766Z,13517121.319,1635086955,full,ni_sequenzen,NI_Sequenzen,1,0,,,,,,,,,,,,
,Move,canvas.Screen,0_3_0_0_0_1,right,response,,13517115.200000003,13517104.648,13517121.319,13518208.400000006,1087.0810000058264,13518208.900000006,2021-10-26T12:50:41.863Z,13518222.122,1635086955,full,ni_sequenzen,NI_Sequenzen,2,0,,,,,,,,,,,,
,Move,canvas.Screen,0_3_0_0_0_2,down,response,,13518211.799999997,13518205.587,13518222.122,13518732.299999997,510.1779999975115,13518733.299999997,2021-10-26T12:50:42.388Z,13518755.962,1635086955,full,ni_sequenzen,NI_Sequenzen,3,0,,,,,,,,,,,,
,Move,canvas.Screen,0_3_0_0_0_3,down,response,,13518740.099999994,13518739.298,13518755.962,13519025.099999994,269.1379999946803,13519025.599999994,2021-10-26T12:50:42.680Z,13519056.141,1635086955,full,ni_sequenzen,NI_Sequenzen,4,0,,,,,,,,,,,,
,Move,canvas.Screen,0_3_0_0_0_4,-999,skipped,,13519027.900000006,,,13519025.099999994,,13519027.900000006,2021-10-26T12:50:42.683Z,13519056.141,1635086955,full,ni_sequenzen,NI_Sequenzen,5,0,,,,,,,,,,,,
,Move,canvas.Screen,0_3_0_0_0_5,-999,skipped,,13519029.700000003,,,13519025.099999994,,13519029.799999997,2021-10-26T12:50:42.684Z,13519056.141,1635086955,full,ni_sequenzen,NI_Sequenzen,6,0,,,,,,,,,,,,
,Move,canvas.Screen,0_3_0_0_0_6,-999,skipped,,13519031.799999997,,,13519025.099999994,,13519031.900000006,2021-10-26T12:50:42.686Z,13519056.141,1635086955,full,ni_sequenzen,NI_Sequenzen,7,0,,,,,,,,,,,,
,Move,canvas.Screen,0_3_0_0_0_7,-999,skipped,,13519033.5,,,13519025.099999994,,13519033.599999994,2021-10-26T12:50:42.688Z,13519056.141,1635086955,full,ni_sequenzen,NI_Sequenzen,8,0,,,,,,,,,,,,
,Move,canvas.Screen,0_3_0_0_0_8,-999,skipped,,13519035.200000003,,,13519025.099999994,,13519035.200000003,2021-10-26T12:50:42.690Z,13519056.141,1635086955,full,ni_sequenzen,NI_Sequenzen,9,0,,,,,,,,,,,,
,Move,canvas.Screen,0_3_0_0_0_9,-999,skipped,,13519036.900000006,,,13519025.099999994,,13519037,2021-10-26T12:50:42.692Z,13519056.141,1635086955,full,ni_sequenzen,NI_Sequenzen,10,0,,,,,,,,,,,,
,Move,canvas.Screen,0_3_0_0_0_10,-999,skipped,,13519038.5,,,13519025.099999994,,13519038.5,2021-10-26T12:50:42.693Z,13519056.141,1635086955,full,ni_sequenzen,NI_Sequenzen,11,0,,,,,,,,,,,,
,Move,canvas.Screen,0_3_0_0_0_11,-999,skipped,,13519040.299999997,,,13519025.099999994,,13519040.299999997,2021-10-26T12:50:42.695Z,13519056.141,1635086955,full,ni_sequenzen,NI_Sequenzen,12,0,,,,,,,,,,,,
,Move,canvas.Screen,0_3_0_0_0_12,-999,skipped,,13519042.5,,,13519025.099999994,,13519042.599999994,2021-10-26T12:50:42.697Z,13519056.141,1635086955,full,ni_sequenzen,NI_Sequenzen,13,0,,,,,,,,,,,,
,Move,canvas.Screen,0_3_0_0_0_13,-999,skipped,,13519044.700000003,,,13519025.099999994,,13519044.799999997,2021-10-26T12:50:42.699Z,13519056.141,1635086955,full,ni_sequenzen,NI_Sequenzen,14,0,,,,,,,,,,,,
,Move,canvas.Screen,0_3_0_0_0_14,-999,skipped,,13519046.799999997,,,13519025.099999994,,13519046.799999997,2021-10-26T12:50:42.701Z,13519056.141,1635086955,full,ni_sequenzen,NI_Sequenzen,15,0,,,,,,,,,,,,
,Loop,flow.Loop,0_3_0_0_0,-999,completion,,13517069.799999997,13517071.448,13517087.818,13519025.099999994,1937.2819999940693,13519047,2021-10-26T12:50:42.702Z,13519056.141,1635086955,full,ni_sequenzen,NI_Sequenzen,,0,,,,,,,,,,,,
,Feedback,canvas.Screen,0_3_0_0_1,,timeout,,13519048.599999994,13519039.552,13519056.141,13523042.955,4003.234999999404,13523043.700000003,2021-10-26T12:50:46.698Z,13523059.376,1635086955,full,ni_sequenzen,NI_Sequenzen,,0,,,,,,,,,,,,
,Trial,flow.Sequence,0_3_0_0,,completion,,13517062,13517071.448,13517087.818,13523042.955,5955.137000000104,13523043.799999997,2021-10-26T12:50:46.698Z,13523076.005,1635086955,full,ni_sequenzen,NI_Sequenzen,,0,,,,,,,,,,,,
,Move,canvas.Screen,0_3_0_1_0_0,left,response,,13523054.900000006,13523059.376,13523076.005,13523401.299999997,325.2949999962002,13523401.900000006,2021-10-26T12:50:47.056Z,13523409.7,1635086955,full,ni_sequenzen,NI_Sequenzen,1,1,,,,,,,,,,,,
,Move,canvas.Screen,0_3_0_1_0_1,left,response,,13523404.400000006,13523393.309,13523409.7,13523632.5,222.80000000074506,13523633.299999997,2021-10-26T12:50:47.288Z,13523643.141,1635086955,full,ni_sequenzen,NI_Sequenzen,2,1,,,,,,,,,,,,
,Move,canvas.Screen,0_3_0_1_0_2,down,response,,13523635.599999994,13523626.611,13523643.141,13523847.900000006,204.7590000052005,13523848.299999997,2021-10-26T12:50:47.503Z,13523860.075,1635086955,full,ni_sequenzen,NI_Sequenzen,3,1,,,,,,,,,,,,
,Move,canvas.Screen,0_3_0_1_0_3,down,response,,13523850.700000003,13523843.542,13523860.075,13524121.099999994,261.0249999947846,13524121.599999994,2021-10-26T12:50:47.776Z,13524160.359,1635086955,full,ni_sequenzen,NI_Sequenzen,4,1,,,,,,,,,,,,
,Move,canvas.Screen,0_3_0_1_0_4,-999,skipped,,13524124.099999994,,,13524121.099999994,,13524124.200000003,2021-10-26T12:50:47.779Z,13524160.359,1635086955,full,ni_sequenzen,NI_Sequenzen,5,1,,,,,,,,,,,,
,Move,canvas.Screen,0_3_0_1_0_5,-999,skipped,,13524126,,,13524121.099999994,,13524126.099999994,2021-10-26T12:50:47.781Z,13524160.359,1635086955,full,ni_sequenzen,NI_Sequenzen,6,1,,,,,,,,,,,,
,Move,canvas.Screen,0_3_0_1_0_6,-999,skipped,,13524127.900000006,,,13524121.099999994,,13524128,2021-10-26T12:50:47.783Z,13524160.359,1635086955,full,ni_sequenzen,NI_Sequenzen,7,1,,,,,,,,,,,,
,Move,canvas.Screen,0_3_0_1_0_7,-999,skipped,,13524129.799999997,,,13524121.099999994,,13524129.900000006,2021-10-26T12:50:47.784Z,13524160.359,1635086955,full,ni_sequenzen,NI_Sequenzen,8,1,,,,,,,,,,,,
,Move,canvas.Screen,0_3_0_1_0_8,-999,skipped,,13524131.700000003,,,13524121.099999994,,13524131.900000006,2021-10-26T12:50:47.786Z,13524160.359,1635086955,full,ni_sequenzen,NI_Sequenzen,9,1,,,,,,,,,,,,
,Move,canvas.Screen,0_3_0_1_0_9,-999,skipped,,13524134.400000006,,,13524121.099999994,,13524134.5,2021-10-26T12:50:47.789Z,13524160.359,1635086955,full,ni_sequenzen,NI_Sequenzen,10,1,,,,,,,,,,,,
,Move,canvas.Screen,0_3_0_1_0_10,-999,skipped,,13524136.5,,,13524121.099999994,,13524136.599999994,2021-10-26T12:50:47.791Z,13524160.359,1635086955,full,ni_sequenzen,NI_Sequenzen,11,1,,,,,,,,,,,,
,Move,canvas.Screen,0_3_0_1_0_11,-999,skipped,,13524138.599999994,,,13524121.099999994,,13524138.700000003,2021-10-26T12:50:47.793Z,13524160.359,1635086955,full,ni_sequenzen,NI_Sequenzen,12,1,,,,,,,,,,,,
,Move,canvas.Screen,0_3_0_1_0_12,-999,skipped,,13524140.700000003,,,13524121.099999994,,13524140.900000006,2021-10-26T12:50:47.795Z,13524160.359,1635086955,full,ni_sequenzen,NI_Sequenzen,13,1,,,,,,,,,,,,
,Move,canvas.Screen,0_3_0_1_0_13,-999,skipped,,13524143,,,13524121.099999994,,13524143,2021-10-26T12:50:47.798Z,13524160.359,1635086955,full,ni_sequenzen,NI_Sequenzen,14,1,,,,,,,,,,,,
,Move,canvas.Screen,0_3_0_1_0_14,-999,skipped,,13524145.5,,,13524121.099999994,,13524145.599999994,2021-10-26T12:50:47.800Z,13524160.359,1635086955,full,ni_sequenzen,NI_Sequenzen,15,1,,,,,,,,,,,,
,Loop,flow.Loop,0_3_0_1_0,-999,completion,,13523052.599999994,13523059.376,13523076.005,13524121.099999994,1045.09499999322,13524145.700000003,2021-10-26T12:50:47.800Z,13524160.359,1635086955,full,ni_sequenzen,NI_Sequenzen,,1,,,,,,,,,,,,
,Feedback,canvas.Screen,0_3_0_1_1,,timeout,,13524148.200000003,13524143.959,13524160.359,13528147.097,4003.247000001371,13528147.700000003,2021-10-26T12:50:51.802Z,13528163.606,1635086955,full,ni_sequenzen,NI_Sequenzen,,1,,,,,,,,,,,,
,Trial,flow.Sequence,0_3_0_1,,completion,,13523044.099999994,13523059.376,13523076.005,13528147.097,5071.091999998316,13528147.799999997,2021-10-26T12:50:51.802Z,13528180.512,1635086955,full,ni_sequenzen,NI_Sequenzen,,1,,,,,,,,,,,,
,Move,canvas.Screen,0_3_0_2_0_0,right,response,,13528162.099999994,13528163.606,13528180.512,13528286.599999994,106.08799999393523,13528287.099999994,2021-10-26T12:50:51.942Z,13528297.052,1635086955,full,ni_sequenzen,NI_Sequenzen,1,2,,,,,,,,,,,,
,Move,canvas.Screen,0_3_0_2_0_1,right,response,,13528289.5,13528280.389,13528297.052,13528518.799999997,221.74799999780953,13528519.900000006,2021-10-26T12:50:52.174Z,13528530.626,1635086955,full,ni_sequenzen,NI_Sequenzen,2,2,,,,,,,,,,,,
,Move,canvas.Screen,0_3_0_2_0_2,right,response,,13528528.299999997,13528514.238,13528530.626,13528651.400000006,120.77400000579655,13528652.299999997,2021-10-26T12:50:52.307Z,13528664.087,1635086955,full,ni_sequenzen,NI_Sequenzen,3,2,,,,,,,,,,,,
,Move,canvas.Screen,0_3_0_2_0_3,down,response,,13528658.5,13528647.477,13528664.087,13528896,231.91300000064075,13528897.099999994,2021-10-26T12:50:52.552Z,13528914.154,1635086955,full,ni_sequenzen,NI_Sequenzen,4,2,,,,,,,,,,,,
,Move,canvas.Screen,0_3_0_2_0_4,down,response,,13528904.299999997,13528897.853,13528914.154,13529075.099999994,160.945999994874,13529075.5,2021-10-26T12:50:52.730Z,13529097.732,1635086955,full,ni_sequenzen,NI_Sequenzen,5,2,,,,,,,,,,,,
,Move,canvas.Screen,0_3_0_2_0_5,-999,skipped,,13529077.599999994,,,13529075.099999994,,13529077.599999994,2021-10-26T12:50:52.732Z,13529097.732,1635086955,full,ni_sequenzen,NI_Sequenzen,6,2,,,,,,,,,,,,
,Move,canvas.Screen,0_3_0_2_0_6,-999,skipped,,13529079.299999997,,,13529075.099999994,,13529079.400000006,2021-10-26T12:50:52.734Z,13529097.732,1635086955,full,ni_sequenzen,NI_Sequenzen,7,2,,,,,,,,,,,,
,Move,canvas.Screen,0_3_0_2_0_7,-999,skipped,,13529081.099999994,,,13529075.099999994,,13529081.099999994,2021-10-26T12:50:52.736Z,13529097.732,1635086955,full,ni_sequenzen,NI_Sequenzen,8,2,,,,,,,,,,,,
,Move,canvas.Screen,0_3_0_2_0_8,-999,skipped,,13529083.099999994,,,13529075.099999994,,13529083.200000003,2021-10-26T12:50:52.738Z,13529097.732,1635086955,full,ni_sequenzen,NI_Sequenzen,9,2,,,,,,,,,,,,
,Move,canvas.Screen,0_3_0_2_0_9,-999,skipped,,13529084.700000003,,,13529075.099999994,,13529084.799999997,2021-10-26T12:50:52.739Z,13529097.732,1635086955,full,ni_sequenzen,NI_Sequenzen,10,2,,,,,,,,,,,,
,Move,canvas.Screen,0_3_0_2_0_10,-999,skipped,,13529086.299999997,,,13529075.099999994,,13529086.400000006,2021-10-26T12:50:52.741Z,13529097.732,1635086955,full,ni_sequenzen,NI_Sequenzen,11,2,,,,,,,,,,,,
,Move,canvas.Screen,0_3_0_2_0_11,-999,skipped,,13529087.799999997,,,13529075.099999994,,13529087.900000006,2021-10-26T12:50:52.742Z,13529097.732,1635086955,full,ni_sequenzen,NI_Sequenzen,12,2,,,,,,,,,,,,
,Move,canvas.Screen,0_3_0_2_0_12,-999,skipped,,13529089.299999997,,,13529075.099999994,,13529089.5,2021-10-26T12:50:52.744Z,13529097.732,1635086955,full,ni_sequenzen,NI_Sequenzen,13,2,,,,,,,,,,,,
,Move,canvas.Screen,0_3_0_2_0_13,-999,skipped,,13529090.900000006,,,13529075.099999994,,13529090.900000006,2021-10-26T12:50:52.746Z,13529097.732,1635086955,full,ni_sequenzen,NI_Sequenzen,14,2,,,,,,,,,,,,
,Move,canvas.Screen,0_3_0_2_0_14,-999,skipped,,13529092.400000006,,,13529075.099999994,,13529092.5,2021-10-26T12:50:52.747Z,13529097.732,1635086955,full,ni_sequenzen,NI_Sequenzen,15,2,,,,,,,,,,,,
,Loop,flow.Loop,0_3_0_2_0,-999,completion,,13528159.700000003,13528163.606,13528180.512,13529075.099999994,894.5879999939352,13529092.599999994,2021-10-26T12:50:52.747Z,13529097.732,1635086955,full,ni_sequenzen,NI_Sequenzen,,2,,,,,,,,,,,,
,Feedback,canvas.Screen,0_3_0_2_1,,timeout,,13529094.5,13529081.062,13529097.732,13533084.463,4003.228000000119,13533085,2021-10-26T12:50:56.740Z,13533100.96,1635086955,full,ni_sequenzen,NI_Sequenzen,,2,,,,,,,,,,,,
,Trial,flow.Sequence,0_3_0_2,,completion,,13528148.099999994,13528163.606,13528180.512,13533084.463,4903.950999999419,13533085.200000003,2021-10-26T12:50:56.740Z,13533117.859,1635086955,full,ni_sequenzen,NI_Sequenzen,,2,,,,,,,,,,,,
,Move,canvas.Screen,0_3_0_3_0_0,down,response,,13533096.599999994,13533100.96,13533117.859,13533442.200000003,324.3410000037402,13533442.700000003,2021-10-26T12:50:57.097Z,13533451.252,1635086955,full,ni_sequenzen,NI_Sequenzen,1,3,,,,,,,,,,,,
,Move,canvas.Screen,0_3_0_3_0_1,left,response,,13533444.700000003,13533434.681,13533451.252,13533851.400000006,400.14800000563264,13533851.900000006,2021-10-26T12:50:57.506Z,13533868.147,1635086955,full,ni_sequenzen,NI_Sequenzen,2,3,,,,,,,,,,,,
,Move,canvas.Screen,0_3_0_3_0_2,down,response,,13533854.400000006,13533851.856,13533868.147,13534394.299999997,526.152999997139,13534394.900000006,2021-10-26T12:50:58.049Z,13534402.009,1635086955,full,ni_sequenzen,NI_Sequenzen,3,3,,,,,,,,,,,,
,Move,canvas.Screen,0_3_0_3_0_3,right,response,,13534396.799999997,13534385.587,13534402.009,13534620.799999997,218.7909999974072,13534622,2021-10-26T12:50:58.277Z,13534635.612,1635086955,full,ni_sequenzen,NI_Sequenzen,4,3,,,,,,,,,,,,
,Move,canvas.Screen,0_3_0_3_0_4,down,response,,13534629,13534619.139,13534635.612,13538471,3835.388000000268,13538471.400000006,2021-10-26T12:51:02.126Z,13538505.344,1635086955,full,ni_sequenzen,NI_Sequenzen,5,3,,,,,,,,,,,,
,Move,canvas.Screen,0_3_0_3_0_5,-999,skipped,,13538473.900000006,,,13538471,,13538473.900000006,2021-10-26T12:51:02.129Z,13538505.344,1635086955,full,ni_sequenzen,NI_Sequenzen,6,3,,,,,,,,,,,,
,Move,canvas.Screen,0_3_0_3_0_6,-999,skipped,,13538475.700000003,,,13538471,,13538475.799999997,2021-10-26T12:51:02.130Z,13538505.344,1635086955,full,ni_sequenzen,NI_Sequenzen,7,3,,,,,,,,,,,,
,Move,canvas.Screen,0_3_0_3_0_7,-999,skipped,,13538477.5,,,13538471,,13538477.599999994,2021-10-26T12:51:02.132Z,13538505.344,1635086955,full,ni_sequenzen,NI_Sequenzen,8,3,,,,,,,,,,,,
,Move,canvas.Screen,0_3_0_3_0_8,-999,skipped,,13538479.5,,,13538471,,13538479.599999994,2021-10-26T12:51:02.134Z,13538505.344,1635086955,full,ni_sequenzen,NI_Sequenzen,9,3,,,,,,,,,,,,
,Move,canvas.Screen,0_3_0_3_0_9,-999,skipped,,13538481.200000003,,,13538471,,13538481.299999997,2021-10-26T12:51:02.136Z,13538505.344,1635086955,full,ni_sequenzen,NI_Sequenzen,10,3,,,,,,,,,,,,
,Move,canvas.Screen,0_3_0_3_0_10,-999,skipped,,13538482.900000006,,,13538471,,13538482.900000006,2021-10-26T12:51:02.138Z,13538505.344,1635086955,full,ni_sequenzen,NI_Sequenzen,11,3,,,,,,,,,,,,
,Move,canvas.Screen,0_3_0_3_0_11,-999,skipped,,13538484.599999994,,,13538471,,13538484.599999994,2021-10-26T12:51:02.139Z,13538505.344,1635086955,full,ni_sequenzen,NI_Sequenzen,12,3,,,,,,,,,,,,
,Move,canvas.Screen,0_3_0_3_0_12,-999,skipped,,13538486.599999994,,,13538471,,13538486.700000003,2021-10-26T12:51:02.141Z,13538505.344,1635086955,full,ni_sequenzen,NI_Sequenzen,13,3,,,,,,,,,,,,
,Move,canvas.Screen,0_3_0_3_0_13,-999,skipped,,13538488.299999997,,,13538471,,13538488.299999997,2021-10-26T12:51:02.143Z,13538505.344,1635086955,full,ni_sequenzen,NI_Sequenzen,14,3,,,,,,,,,,,,
,Move,canvas.Screen,0_3_0_3_0_14,-999,skipped,,13538489.900000006,,,13538471,,13538489.900000006,2021-10-26T12:51:02.144Z,13538505.344,1635086955,full,ni_sequenzen,NI_Sequenzen,15,3,,,,,,,,,,,,
,Loop,flow.Loop,0_3_0_3_0,-999,completion,,13533094.900000006,13533100.96,13533117.859,13538471,5353.14100000076,13538490,2021-10-26T12:51:02.145Z,13538505.344,1635086955,full,ni_sequenzen,NI_Sequenzen,,3,,,,,,,,,,,,
,Feedback,canvas.Screen,0_3_0_3_1,,timeout,,13538491.599999994,13538488.768,13538505.344,13542491.986,4019.93200000003,13542493.299999997,2021-10-26T12:51:06.148Z,13542525.276,1635086955,full,ni_sequenzen,NI_Sequenzen,,3,,,,,,,,,,,,
,Trial,flow.Sequence,0_3_0_3,,completion,,13533085.400000006,13533100.96,13533117.859,13542491.986,9374.127000000328,13542493.599999994,2021-10-26T12:51:06.148Z,13542541.933,1635086955,full,ni_sequenzen,NI_Sequenzen,,3,,,,,,,,,,,,
,Move,canvas.Screen,0_3_0_4_0_0,right,response,,13542529.799999997,13542525.276,13542541.933,13543026.099999994,484.1669999938458,13543026.799999997,2021-10-26T12:51:06.681Z,13543042.373,1635086955,full,ni_sequenzen,NI_Sequenzen,1,4,,,,,,,,,,,,
,Move,canvas.Screen,0_3_0_4_0_1,right,response,,13543031.400000006,13543026.038,13543042.373,13543224.099999994,181.72699999436736,13543224.599999994,2021-10-26T12:51:06.879Z,13543242.715,1635086955,full,ni_sequenzen,NI_Sequenzen,2,4,,,,,,,,,,,,
,Move,canvas.Screen,0_3_0_4_0_2,down,response,,13543227.299999997,13543225.956,13543242.715,13543530,287.285000000149,13543530.5,2021-10-26T12:51:07.185Z,13543542.793,1635086955,full,ni_sequenzen,NI_Sequenzen,3,4,,,,,,,,,,,,
,Move,canvas.Screen,0_3_0_4_0_3,down,response,,13543532.799999997,13543526.352,13543542.793,13543739,196.20700000040233,13543739.5,2021-10-26T12:51:07.394Z,13543776.234,1635086955,full,ni_sequenzen,NI_Sequenzen,4,4,,,,,,,,,,,,
,Move,canvas.Screen,0_3_0_4_0_4,-999,skipped,,13543742,,,13543739,,13543742.099999994,2021-10-26T12:51:07.397Z,13543776.234,1635086955,full,ni_sequenzen,NI_Sequenzen,5,4,,,,,,,,,,,,
,Move,canvas.Screen,0_3_0_4_0_5,-999,skipped,,13543744.099999994,,,13543739,,13543744.200000003,2021-10-26T12:51:07.399Z,13543776.234,1635086955,full,ni_sequenzen,NI_Sequenzen,6,4,,,,,,,,,,,,
,Move,canvas.Screen,0_3_0_4_0_6,-999,skipped,,13543746.099999994,,,13543739,,13543746.200000003,2021-10-26T12:51:07.401Z,13543776.234,1635086955,full,ni_sequenzen,NI_Sequenzen,7,4,,,,,,,,,,,,
,Move,canvas.Screen,0_3_0_4_0_7,-999,skipped,,13543748.900000006,,,13543739,,13543749,2021-10-26T12:51:07.404Z,13543776.234,1635086955,full,ni_sequenzen,NI_Sequenzen,8,4,,,,,,,,,,,,
,Move,canvas.Screen,0_3_0_4_0_8,-999,skipped,,13543751,,,13543739,,13543751.200000003,2021-10-26T12:51:07.406Z,13543776.234,1635086955,full,ni_sequenzen,NI_Sequenzen,9,4,,,,,,,,,,,,
,Move,canvas.Screen,0_3_0_4_0_9,-999,skipped,,13543753.700000003,,,13543739,,13543753.799999997,2021-10-26T12:51:07.408Z,13543776.234,1635086955,full,ni_sequenzen,NI_Sequenzen,10,4,,,,,,,,,,,,
,Move,canvas.Screen,0_3_0_4_0_10,-999,skipped,,13543756.799999997,,,13543739,,13543757,2021-10-26T12:51:07.411Z,13543776.234,1635086955,full,ni_sequenzen,NI_Sequenzen,11,4,,,,,,,,,,,,
,Move,canvas.Screen,0_3_0_4_0_11,-999,skipped,,13543759.599999994,,,13543739,,13543759.700000003,2021-10-26T12:51:07.414Z,13543776.234,1635086955,full,ni_sequenzen,NI_Sequenzen,12,4,,,,,,,,,,,,
,Move,canvas.Screen,0_3_0_4_0_12,-999,skipped,,13543762.5,,,13543739,,13543762.599999994,2021-10-26T12:51:07.417Z,13543776.234,1635086955,full,ni_sequenzen,NI_Sequenzen,13,4,,,,,,,,,,,,
,Move,canvas.Screen,0_3_0_4_0_13,-999,skipped,,13543766,,,13543739,,13543766.200000003,2021-10-26T12:51:07.421Z,13543776.234,1635086955,full,ni_sequenzen,NI_Sequenzen,14,4,,,,,,,,,,,,
,Move,canvas.Screen,0_3_0_4_0_14,-999,skipped,,13543768.900000006,,,13543739,,13543769,2021-10-26T12:51:07.424Z,13543776.234,1635086955,full,ni_sequenzen,NI_Sequenzen,15,4,,,,,,,,,,,,
,Loop,flow.Loop,0_3_0_4_0,-999,completion,,13542522.700000003,13542525.276,13542541.933,13543739,1197.0669999998063,13543769.200000003,2021-10-26T12:51:07.424Z,13543776.234,1635086955,full,ni_sequenzen,NI_Sequenzen,,4,,,,,,,,,,,,
,Feedback,canvas.Screen,0_3_0_4_1,,timeout,,13543771.400000006,13543759.873,13543776.234,13547763.153,4003.385000001639,13547764.200000003,2021-10-26T12:51:11.419Z,13547779.619,1635086955,full,ni_sequenzen,NI_Sequenzen,,4,,,,,,,,,,,,
,Trial,flow.Sequence,0_3_0_4,,completion,,13542494.299999997,13542525.276,13542541.933,13547763.153,5221.220000000671,13547764.5,2021-10-26T12:51:11.419Z,13547796.239,1635086955,full,ni_sequenzen,NI_Sequenzen,,4,,,,,,,,,,,,
,Move,canvas.Screen,0_3_0_5_0_0,left,response,,13547785.900000006,13547779.619,13547796.239,13548465,668.7609999999404,13548466.200000003,2021-10-26T12:51:12.121Z,13548480.249,1635086955,full,ni_sequenzen,NI_Sequenzen,1,5,,,,,,,,,,,,
,Move,canvas.Screen,0_3_0_5_0_1,left,response,,13548473.299999997,13548463.546,13548480.249,13548655.099999994,174.85099999420345,13548656.099999994,2021-10-26T12:51:12.311Z,13548663.574,1635086955,full,ni_sequenzen,NI_Sequenzen,2,5,,,,,,,,,,,,
,Move,canvas.Screen,0_3_0_5_0_2,down,response,,13548659.900000006,13548647.128,13548663.574,13549154.200000003,490.6260000038892,13549154.900000006,2021-10-26T12:51:12.809Z,13549164.094,1635086955,full,ni_sequenzen,NI_Sequenzen,3,5,,,,,,,,,,,,
,Move,canvas.Screen,0_3_0_5_0_3,down,response,,13549157.799999997,13549147.605,13549164.094,13549359,194.90599999949336,13549359.599999994,2021-10-26T12:51:13.014Z,13549397.41,1635086955,full,ni_sequenzen,NI_Sequenzen,4,5,,,,,,,,,,,,
,Move,canvas.Screen,0_3_0_5_0_4,-999,skipped,,13549362.700000003,,,13549359,,13549362.799999997,2021-10-26T12:51:13.017Z,13549397.41,1635086955,full,ni_sequenzen,NI_Sequenzen,5,5,,,,,,,,,,,,
,Move,canvas.Screen,0_3_0_5_0_5,-999,skipped,,13549364.5,,,13549359,,13549364.599999994,2021-10-26T12:51:13.019Z,13549397.41,1635086955,full,ni_sequenzen,NI_Sequenzen,6,5,,,,,,,,,,,,
,Move,canvas.Screen,0_3_0_5_0_6,-999,skipped,,13549366.599999994,,,13549359,,13549366.599999994,2021-10-26T12:51:13.021Z,13549397.41,1635086955,full,ni_sequenzen,NI_Sequenzen,7,5,,,,,,,,,,,,
,Move,canvas.Screen,0_3_0_5_0_7,-999,skipped,,13549368.799999997,,,13549359,,13549369,2021-10-26T12:51:13.024Z,13549397.41,1635086955,full,ni_sequenzen,NI_Sequenzen,8,5,,,,,,,,,,,,
,Move,canvas.Screen,0_3_0_5_0_8,-999,skipped,,13549370.799999997,,,13549359,,13549370.900000006,2021-10-26T12:51:13.025Z,13549397.41,1635086955,full,ni_sequenzen,NI_Sequenzen,9,5,,,,,,,,,,,,
,Move,canvas.Screen,0_3_0_5_0_9,-999,skipped,,13549372.700000003,,,13549359,,13549372.700000003,2021-10-26T12:51:13.027Z,13549397.41,1635086955,full,ni_sequenzen,NI_Sequenzen,10,5,,,,,,,,,,,,
,Move,canvas.Screen,0_3_0_5_0_10,-999,skipped,,13549374.400000006,,,13549359,,13549374.400000006,2021-10-26T12:51:13.029Z,13549397.41,1635086955,full,ni_sequenzen,NI_Sequenzen,11,5,,,,,,,,,,,,
,Move,canvas.Screen,0_3_0_5_0_11,-999,skipped,,13549376,,,13549359,,13549376.099999994,2021-10-26T12:51:13.031Z,13549397.41,1635086955,full,ni_sequenzen,NI_Sequenzen,12,5,,,,,,,,,,,,
,Move,canvas.Screen,0_3_0_5_0_12,-999,skipped,,13549377.700000003,,,13549359,,13549377.799999997,2021-10-26T12:51:13.032Z,13549397.41,1635086955,full,ni_sequenzen,NI_Sequenzen,13,5,,,,,,,,,,,,
,Move,canvas.Screen,0_3_0_5_0_13,-999,skipped,,13549379.299999997,,,13549359,,13549379.5,2021-10-26T12:51:13.034Z,13549397.41,1635086955,full,ni_sequenzen,NI_Sequenzen,14,5,,,,,,,,,,,,
,Move,canvas.Screen,0_3_0_5_0_14,-999,skipped,,13549380.900000006,,,13549359,,13549380.900000006,2021-10-26T12:51:13.036Z,13549397.41,1635086955,full,ni_sequenzen,NI_Sequenzen,15,5,,,,,,,,,,,,
,Loop,flow.Loop,0_3_0_5_0,-999,completion,,13547784.099999994,13547779.619,13547796.239,13549359,1562.7609999999404,13549381.099999994,2021-10-26T12:51:13.036Z,13549397.41,1635086955,full,ni_sequenzen,NI_Sequenzen,,5,,,,,,,,,,,,
,Feedback,canvas.Screen,0_3_0_5_1,,timeout,,13549382.299999997,13549381.08,13549397.41,13553384.125,4003.361999999732,13553384.599999994,2021-10-26T12:51:17.039Z,13553400.772,1635086955,full,ni_sequenzen,NI_Sequenzen,,5,,,,,,,,,,,,
,Trial,flow.Sequence,0_3_0_5,,completion,,13547765.200000003,13547779.619,13547796.239,13553384.125,5587.88599999994,13553384.799999997,2021-10-26T12:51:17.039Z,13553417.8,1635086955,full,ni_sequenzen,NI_Sequenzen,,5,,,,,,,,,,,,
,Move,canvas.Screen,0_3_0_6_0_0,right,response,,13553399.200000003,13553400.772,13553417.8,13553953.200000003,535.4000000022352,13553953.799999997,2021-10-26T12:51:17.608Z,13553967.924,1635086955,full,ni_sequenzen,NI_Sequenzen,1,6,,,,,,,,,,,,
,Move,canvas.Screen,0_3_0_6_0_1,right,response,,13553956.400000006,13553951.463,13553967.924,13554159.400000006,191.47600000537932,13554159.900000006,2021-10-26T12:51:17.814Z,13554167.973,1635086955,full,ni_sequenzen,NI_Sequenzen,2,6,,,,,,,,,,,,
,Move,canvas.Screen,0_3_0_6_0_2,down,response,,13554162.099999994,13554151.646,13554167.973,13554553.200000003,385.2270000036806,13554554,2021-10-26T12:51:18.209Z,13554568.403,1635086955,full,ni_sequenzen,NI_Sequenzen,3,6,,,,,,,,,,,,
,Move,canvas.Screen,0_3_0_6_0_3,down,response,,13554555.799999997,13554551.805,13554568.403,13554730.299999997,161.8969999961555,13554730.799999997,2021-10-26T12:51:18.385Z,13554768.463,1635086955,full,ni_sequenzen,NI_Sequenzen,4,6,,,,,,,,,,,,
,Move,canvas.Screen,0_3_0_6_0_4,-999,skipped,,13554733.299999997,,,13554730.299999997,,13554733.400000006,2021-10-26T12:51:18.388Z,13554768.463,1635086955,full,ni_sequenzen,NI_Sequenzen,5,6,,,,,,,,,,,,
,Move,canvas.Screen,0_3_0_6_0_5,-999,skipped,,13554735.700000003,,,13554730.299999997,,13554735.900000006,2021-10-26T12:51:18.390Z,13554768.463,1635086955,full,ni_sequenzen,NI_Sequenzen,6,6,,,,,,,,,,,,
,Move,canvas.Screen,0_3_0_6_0_6,-999,skipped,,13554737.700000003,,,13554730.299999997,,13554737.799999997,2021-10-26T12:51:18.392Z,13554768.463,1635086955,full,ni_sequenzen,NI_Sequenzen,7,6,,,,,,,,,,,,
,Move,canvas.Screen,0_3_0_6_0_7,-999,skipped,,13554740,,,13554730.299999997,,13554740,2021-10-26T12:51:18.395Z,13554768.463,1635086955,full,ni_sequenzen,NI_Sequenzen,8,6,,,,,,,,,,,,
,Move,canvas.Screen,0_3_0_6_0_8,-999,skipped,,13554741.700000003,,,13554730.299999997,,13554741.799999997,2021-10-26T12:51:18.396Z,13554768.463,1635086955,full,ni_sequenzen,NI_Sequenzen,9,6,,,,,,,,,,,,
,Move,canvas.Screen,0_3_0_6_0_9,-999,skipped,,13554743.599999994,,,13554730.299999997,,13554743.599999994,2021-10-26T12:51:18.398Z,13554768.463,1635086955,full,ni_sequenzen,NI_Sequenzen,10,6,,,,,,,,,,,,
,Move,canvas.Screen,0_3_0_6_0_10,-999,skipped,,13554746.200000003,,,13554730.299999997,,13554746.200000003,2021-10-26T12:51:18.401Z,13554768.463,1635086955,full,ni_sequenzen,NI_Sequenzen,11,6,,,,,,,,,,,,
,Move,canvas.Screen,0_3_0_6_0_11,-999,skipped,,13554748.099999994,,,13554730.299999997,,13554748.099999994,2021-10-26T12:51:18.403Z,13554768.463,1635086955,full,ni_sequenzen,NI_Sequenzen,12,6,,,,,,,,,,,,
,Move,canvas.Screen,0_3_0_6_0_12,-999,skipped,,13554749.900000006,,,13554730.299999997,,13554750,2021-10-26T12:51:18.405Z,13554768.463,1635086955,full,ni_sequenzen,NI_Sequenzen,13,6,,,,,,,,,,,,
,Move,canvas.Screen,0_3_0_6_0_13,-999,skipped,,13554751.700000003,,,13554730.299999997,,13554751.799999997,2021-10-26T12:51:18.406Z,13554768.463,1635086955,full,ni_sequenzen,NI_Sequenzen,14,6,,,,,,,,,,,,
,Move,canvas.Screen,0_3_0_6_0_14,-999,skipped,,13554753.599999994,,,13554730.299999997,,13554753.700000003,2021-10-26T12:51:18.408Z,13554768.463,1635086955,full,ni_sequenzen,NI_Sequenzen,15,6,,,,,,,,,,,,
,Loop,flow.Loop,0_3_0_6_0,-999,completion,,13553396.5,13553400.772,13553417.8,13554730.299999997,1312.4999999962747,13554753.900000006,2021-10-26T12:51:18.408Z,13554768.463,1635086955,full,ni_sequenzen,NI_Sequenzen,,6,,,,,,,,,,,,
,Feedback,canvas.Screen,0_3_0_6_1,,timeout,,13554755.299999997,13554752.028,13554768.463,13558755.145,4003.3660000003874,13558755.599999994,2021-10-26T12:51:22.411Z,13558771.829,1635086955,full,ni_sequenzen,NI_Sequenzen,,6,,,,,,,,,,,,
,Trial,flow.Sequence,0_3_0_6,,completion,,13553385,13553400.772,13553417.8,13558755.145,5337.344999998808,13558755.799999997,2021-10-26T12:51:22.411Z,13558788.405,1635086955,full,ni_sequenzen,NI_Sequenzen,,6,,,,,,,,,,,,
,Move,canvas.Screen,0_3_0_7_0_0,down,response,,13558766.799999997,13558771.829,13558788.405,13559422.900000006,634.495000006631,13559424,2021-10-26T12:51:23.079Z,13559438.912,1635086955,full,ni_sequenzen,NI_Sequenzen,1,7,,,,,,,,,,,,
,Move,canvas.Screen,0_3_0_7_0_1,left,response,,13559426.799999997,13559422.617,13559438.912,13559615.700000003,176.7880000025034,13559616.200000003,2021-10-26T12:51:23.271Z,13559622.476,1635086955,full,ni_sequenzen,NI_Sequenzen,2,7,,,,,,,,,,,,
,Move,canvas.Screen,0_3_0_7_0_2,down,response,,13559618,13559605.831,13559622.476,13559905.299999997,282.8239999972284,13559906.400000006,2021-10-26T12:51:23.561Z,13559922.712,1635086955,full,ni_sequenzen,NI_Sequenzen,3,7,,,,,,,,,,,,
,Move,canvas.Screen,0_3_0_7_0_3,left,response,,13559913,13559906.115,13559922.712,13560245.400000006,322.6880000066012,13560246.400000006,2021-10-26T12:51:23.901Z,13560306.39,1635086955,full,ni_sequenzen,NI_Sequenzen,4,7,,,,,,,,,,,,
,Move,canvas.Screen,0_3_0_7_0_4,-999,skipped,,13560252.400000006,,,13560245.400000006,,13560252.700000003,2021-10-26T12:51:23.908Z,13560306.39,1635086955,full,ni_sequenzen,NI_Sequenzen,5,7,,,,,,,,,,,,
,Move,canvas.Screen,0_3_0_7_0_5,-999,skipped,,13560260.099999994,,,13560245.400000006,,13560260.400000006,2021-10-26T12:51:23.915Z,13560306.39,1635086955,full,ni_sequenzen,NI_Sequenzen,6,7,,,,,,,,,,,,
,Move,canvas.Screen,0_3_0_7_0_6,-999,skipped,,13560265.700000003,,,13560245.400000006,,13560265.900000006,2021-10-26T12:51:23.921Z,13560306.39,1635086955,full,ni_sequenzen,NI_Sequenzen,7,7,,,,,,,,,,,,
,Move,canvas.Screen,0_3_0_7_0_7,-999,skipped,,13560271,,,13560245.400000006,,13560271.099999994,2021-10-26T12:51:23.926Z,13560306.39,1635086955,full,ni_sequenzen,NI_Sequenzen,8,7,,,,,,,,,,,,
,Move,canvas.Screen,0_3_0_7_0_8,-999,skipped,,13560276.299999997,,,13560245.400000006,,13560276.5,2021-10-26T12:51:23.932Z,13560306.39,1635086955,full,ni_sequenzen,NI_Sequenzen,9,7,,,,,,,,,,,,
,Move,canvas.Screen,0_3_0_7_0_9,-999,skipped,,13560283.099999994,,,13560245.400000006,,13560283.299999997,2021-10-26T12:51:23.938Z,13560306.39,1635086955,full,ni_sequenzen,NI_Sequenzen,10,7,,,,,,,,,,,,
,Move,canvas.Screen,0_3_0_7_0_10,-999,skipped,,13560287.299999997,,,13560245.400000006,,13560287.400000006,2021-10-26T12:51:23.942Z,13560306.39,1635086955,full,ni_sequenzen,NI_Sequenzen,11,7,,,,,,,,,,,,
,Move,canvas.Screen,0_3_0_7_0_11,-999,skipped,,13560289.200000003,,,13560245.400000006,,13560289.299999997,2021-10-26T12:51:23.944Z,13560306.39,1635086955,full,ni_sequenzen,NI_Sequenzen,12,7,,,,,,,,,,,,
,Move,canvas.Screen,0_3_0_7_0_12,-999,skipped,,13560291.799999997,,,13560245.400000006,,13560291.900000006,2021-10-26T12:51:23.947Z,13560306.39,1635086955,full,ni_sequenzen,NI_Sequenzen,13,7,,,,,,,,,,,,
,Move,canvas.Screen,0_3_0_7_0_13,-999,skipped,,13560293.299999997,,,13560245.400000006,,13560293.400000006,2021-10-26T12:51:23.948Z,13560306.39,1635086955,full,ni_sequenzen,NI_Sequenzen,14,7,,,,,,,,,,,,
,Move,canvas.Screen,0_3_0_7_0_14,-999,skipped,,13560294.599999994,,,13560245.400000006,,13560294.799999997,2021-10-26T12:51:23.950Z,13560306.39,1635086955,full,ni_sequenzen,NI_Sequenzen,15,7,,,,,,,,,,,,
,Loop,flow.Loop,0_3_0_7_0,-999,completion,,13558764.400000006,13558771.829,13558788.405,13560245.400000006,1456.995000006631,13560294.900000006,2021-10-26T12:51:23.950Z,13560306.39,1635086955,full,ni_sequenzen,NI_Sequenzen,,7,,,,,,,,,,,,
,Feedback,canvas.Screen,0_3_0_7_1,,timeout,,13560296.099999994,13560289.764,13560306.39,13564293.001,4003.41599999927,13564293.5,2021-10-26T12:51:27.949Z,13564309.806,1635086955,full,ni_sequenzen,NI_Sequenzen,,7,,,,,,,,,,,,
,Trial,flow.Sequence,0_3_0_7,,completion,,13558756,13558771.829,13558788.405,13564293.001,5504.5960000008345,13564293.5,2021-10-26T12:51:27.949Z,13564326.575,1635086955,full,ni_sequenzen,NI_Sequenzen,,7,,,,,,,,,,,,
