meta,sender,sender_type,sender_id,response,ended_on,instrCount,time_run,time_render,time_show,time_end,duration,time_commit,timestamp,time_switch,openLabId,type,task,project,move,trialN,blockN_Train,blockN,moveCount,currPP,points,movesTrial,visitedFields,diff,reward,Strategie,Zweck,Probleme
[object Object],Screen_1,canvas.Screen,0_0_0_0,cont,response,1,580.2000000029802,568.207,601.49,3735.5999999940395,3134.1099999940398,3738,2021-10-28T08:28:25.650Z,3883.938,1635409561,full,ni_sequenzen,NI_Sequenzen,,,,,,,,,,,,,,
,Screen_2,canvas.Screen,0_0_0_1,cont,response,1,3869.0999999940395,3867.275,3883.938,22271.70000000298,18387.76200000298,22273,2021-10-28T08:28:44.186Z,22378.605,1635409561,full,ni_sequenzen,NI_Sequenzen,,,,,,,,,,,,,,
,Screen_3,canvas.Screen,0_0_0_2,back,response,1,22367.79999999702,22362.213,22378.605,29126.70000000298,6748.095000002981,29127.29999999702,2021-10-28T08:28:51.040Z,29143.364,1635409561,full,ni_sequenzen,NI_Sequenzen,,,,,,,,,,,,,,
,Screen_4,canvas.Screen,0_0_0_3,,skipped,1,29129.79999999702,,,29126.70000000298,,29129.90000000596,2021-10-28T08:28:51.042Z,29143.364,1635409561,full,ni_sequenzen,NI_Sequenzen,,,,,,,,,,,,,,
,Sequence,flow.Sequence,0_0_0,,completion,1,530.4000000059605,568.207,601.49,29126.70000000298,28525.21000000298,29130.90000000596,2021-10-28T08:28:51.043Z,29143.364,1635409561,full,ni_sequenzen,NI_Sequenzen,,,,,,,,,,,,,,
,Screen_1,canvas.Screen,0_0_1_0,,skipped,2,29132.20000000298,,,29132.20000000298,,29132.29999999702,2021-10-28T08:28:51.045Z,29143.364,1635409561,full,ni_sequenzen,NI_Sequenzen,,,,,,,,,,,,,,
,Screen_2,canvas.Screen,0_0_1_1,cont,response,2,29133,29127.544,29143.364,30546.09999999404,1402.7359999940381,30546.90000000596,2021-10-28T08:28:52.459Z,30559.696,1635409561,full,ni_sequenzen,NI_Sequenzen,,,,,,,,,,,,,,
,Screen_3,canvas.Screen,0_0_1_2,cont,response,2,30555.90000000596,30543.154,30559.696,36581.29999999702,6021.60399999702,36582.59999999404,2021-10-28T08:28:58.495Z,36591.299,1635409561,full,ni_sequenzen,NI_Sequenzen,,,,,,,,,,,,,,
,Screen_4,canvas.Screen,0_0_1_3,cont,response,2,36586.59999999404,36575.302,36591.299,39796.29999999702,3205.0009999970207,39797,2021-10-28T08:29:01.709Z,39890.251,1635409561,full,ni_sequenzen,NI_Sequenzen,,,,,,,,,,,,,,
,Sequence,flow.Sequence,0_0_1,,completion,2,29131.40000000596,29127.544,29143.364,39796.29999999702,10652.935999997018,39797.29999999702,2021-10-28T08:29:01.710Z,39890.251,1635409561,full,ni_sequenzen,NI_Sequenzen,,,,,,,,,,,,,,
,Screen_1,canvas.Screen,0_0_2_0,,skipped,3,39800.20000000298,,,39800.20000000298,,39800.40000000596,2021-10-28T08:29:01.713Z,39890.251,1635409561,full,ni_sequenzen,NI_Sequenzen,,,,,,,,,,,,,,
,Screen_2,canvas.Screen,0_0_2_1,,skipped,3,39801.59999999404,,,39800.20000000298,,39801.70000000298,2021-10-28T08:29:01.714Z,39890.251,1635409561,full,ni_sequenzen,NI_Sequenzen,,,,,,,,,,,,,,
,Screen_3,canvas.Screen,0_0_2_2,,skipped,3,39802.70000000298,,,39800.20000000298,,39802.70000000298,2021-10-28T08:29:01.715Z,39890.251,1635409561,full,ni_sequenzen,NI_Sequenzen,,,,,,,,,,,,,,
,Screen_4,canvas.Screen,0_0_2_3,,skipped,3,39803.70000000298,,,39800.20000000298,,39803.79999999702,2021-10-28T08:29:01.716Z,39890.251,1635409561,full,ni_sequenzen,NI_Sequenzen,,,,,,,,,,,,,,
,Sequence,flow.Sequence,0_0_2,,completion,3,39798.90000000596,,,39800.20000000298,,39804,2021-10-28T08:29:01.716Z,39890.251,1635409561,full,ni_sequenzen,NI_Sequenzen,,,,,,,,,,,,,,
,Screen_1,canvas.Screen,0_0_3_0,,skipped,4,39805.20000000298,,,39805.20000000298,,39805.29999999702,2021-10-28T08:29:01.718Z,39890.251,1635409561,full,ni_sequenzen,NI_Sequenzen,,,,,,,,,,,,,,
,Screen_2,canvas.Screen,0_0_3_1,,skipped,4,39806.09999999404,,,39805.20000000298,,39806.20000000298,2021-10-28T08:29:01.719Z,39890.251,1635409561,full,ni_sequenzen,NI_Sequenzen,,,,,,,,,,,,,,
,Screen_3,canvas.Screen,0_0_3_2,,skipped,4,39807.20000000298,,,39805.20000000298,,39807.29999999702,2021-10-28T08:29:01.720Z,39890.251,1635409561,full,ni_sequenzen,NI_Sequenzen,,,,,,,,,,,,,,
,Screen_4,canvas.Screen,0_0_3_3,,skipped,4,39808.20000000298,,,39805.20000000298,,39808.20000000298,2021-10-28T08:29:01.721Z,39890.251,1635409561,full,ni_sequenzen,NI_Sequenzen,,,,,,,,,,,,,,
,Sequence,flow.Sequence,0_0_3,,completion,4,39804.29999999702,,,39805.20000000298,,39808.29999999702,2021-10-28T08:29:01.721Z,39890.251,1635409561,full,ni_sequenzen,NI_Sequenzen,,,,,,,,,,,,,,
,Screen_1,canvas.Screen,0_0_4_0,,skipped,5,39809.09999999404,,,39809.09999999404,,39809.09999999404,2021-10-28T08:29:01.722Z,39890.251,1635409561,full,ni_sequenzen,NI_Sequenzen,,,,,,,,,,,,,,
,Screen_2,canvas.Screen,0_0_4_1,,skipped,5,39809.70000000298,,,39809.09999999404,,39809.70000000298,2021-10-28T08:29:01.722Z,39890.251,1635409561,full,ni_sequenzen,NI_Sequenzen,,,,,,,,,,,,,,
,Screen_3,canvas.Screen,0_0_4_2,,skipped,5,39810.29999999702,,,39809.09999999404,,39810.29999999702,2021-10-28T08:29:01.723Z,39890.251,1635409561,full,ni_sequenzen,NI_Sequenzen,,,,,,,,,,,,,,
,Screen_4,canvas.Screen,0_0_4_3,,skipped,5,39810.90000000596,,,39809.09999999404,,39811,2021-10-28T08:29:01.723Z,39890.251,1635409561,full,ni_sequenzen,NI_Sequenzen,,,,,,,,,,,,,,
,Sequence,flow.Sequence,0_0_4,,completion,5,39808.5,,,39809.09999999404,,39811.59999999404,2021-10-28T08:29:01.724Z,39890.251,1635409561,full,ni_sequenzen,NI_Sequenzen,,,,,,,,,,,,,,
,Screen_1,canvas.Screen,0_0_5_0,,skipped,6,39812.59999999404,,,39812.59999999404,,39812.59999999404,2021-10-28T08:29:01.725Z,39890.251,1635409561,full,ni_sequenzen,NI_Sequenzen,,,,,,,,,,,,,,
,Screen_2,canvas.Screen,0_0_5_1,,skipped,6,39813.20000000298,,,39812.59999999404,,39813.20000000298,2021-10-28T08:29:01.726Z,39890.251,1635409561,full,ni_sequenzen,NI_Sequenzen,,,,,,,,,,,,,,
,Screen_3,canvas.Screen,0_0_5_2,,skipped,6,39813.79999999702,,,39812.59999999404,,39813.90000000596,2021-10-28T08:29:01.726Z,39890.251,1635409561,full,ni_sequenzen,NI_Sequenzen,,,,,,,,,,,,,,
,Screen_4,canvas.Screen,0_0_5_3,,skipped,6,39814.5,,,39812.59999999404,,39814.5,2021-10-28T08:29:01.727Z,39890.251,1635409561,full,ni_sequenzen,NI_Sequenzen,,,,,,,,,,,,,,
,Sequence,flow.Sequence,0_0_5,,completion,6,39812.09999999404,,,39812.59999999404,,39814.59999999404,2021-10-28T08:29:01.727Z,39890.251,1635409561,full,ni_sequenzen,NI_Sequenzen,,,,,,,,,,,,,,
,Screen_1,canvas.Screen,0_0_6_0,,skipped,7,39815.5,,,39815.5,,39815.5,2021-10-28T08:29:01.728Z,39890.251,1635409561,full,ni_sequenzen,NI_Sequenzen,,,,,,,,,,,,,,
,Screen_2,canvas.Screen,0_0_6_1,,skipped,7,39816.09999999404,,,39815.5,,39816.09999999404,2021-10-28T08:29:01.729Z,39890.251,1635409561,full,ni_sequenzen,NI_Sequenzen,,,,,,,,,,,,,,
,Screen_3,canvas.Screen,0_0_6_2,,skipped,7,39816.70000000298,,,39815.5,,39816.70000000298,2021-10-28T08:29:01.729Z,39890.251,1635409561,full,ni_sequenzen,NI_Sequenzen,,,,,,,,,,,,,,
,Screen_4,canvas.Screen,0_0_6_3,,skipped,7,39817.29999999702,,,39815.5,,39817.29999999702,2021-10-28T08:29:01.730Z,39890.251,1635409561,full,ni_sequenzen,NI_Sequenzen,,,,,,,,,,,,,,
,Sequence,flow.Sequence,0_0_6,,completion,7,39814.90000000596,,,39815.5,,39817.40000000596,2021-10-28T08:29:01.730Z,39890.251,1635409561,full,ni_sequenzen,NI_Sequenzen,,,,,,,,,,,,,,
,Screen_1,canvas.Screen,0_0_7_0,,skipped,8,39818.20000000298,,,39818.20000000298,,39818.20000000298,2021-10-28T08:29:01.731Z,39890.251,1635409561,full,ni_sequenzen,NI_Sequenzen,,,,,,,,,,,,,,
,Screen_2,canvas.Screen,0_0_7_1,,skipped,8,39818.79999999702,,,39818.20000000298,,39818.90000000596,2021-10-28T08:29:01.731Z,39890.251,1635409561,full,ni_sequenzen,NI_Sequenzen,,,,,,,,,,,,,,
,Screen_3,canvas.Screen,0_0_7_2,,skipped,8,39819.40000000596,,,39818.20000000298,,39819.5,2021-10-28T08:29:01.732Z,39890.251,1635409561,full,ni_sequenzen,NI_Sequenzen,,,,,,,,,,,,,,
,Screen_4,canvas.Screen,0_0_7_3,,skipped,8,39820,,,39818.20000000298,,39820,2021-10-28T08:29:01.732Z,39890.251,1635409561,full,ni_sequenzen,NI_Sequenzen,,,,,,,,,,,,,,
,Sequence,flow.Sequence,0_0_7,,completion,8,39817.70000000298,,,39818.20000000298,,39820.09999999404,2021-10-28T08:29:01.733Z,39890.251,1635409561,full,ni_sequenzen,NI_Sequenzen,,,,,,,,,,,,,,
,Screen_1,canvas.Screen,0_0_8_0,,skipped,9,39821.79999999702,,,39821.79999999702,,39821.79999999702,2021-10-28T08:29:01.734Z,39890.251,1635409561,full,ni_sequenzen,NI_Sequenzen,,,,,,,,,,,,,,
,Screen_2,canvas.Screen,0_0_8_1,,skipped,9,39822.29999999702,,,39821.79999999702,,39822.40000000596,2021-10-28T08:29:01.735Z,39890.251,1635409561,full,ni_sequenzen,NI_Sequenzen,,,,,,,,,,,,,,
,Screen_3,canvas.Screen,0_0_8_2,,skipped,9,39823,,,39821.79999999702,,39823,2021-10-28T08:29:01.735Z,39890.251,1635409561,full,ni_sequenzen,NI_Sequenzen,,,,,,,,,,,,,,
,Screen_4,canvas.Screen,0_0_8_3,,skipped,9,39823.70000000298,,,39821.79999999702,,39823.79999999702,2021-10-28T08:29:01.736Z,39890.251,1635409561,full,ni_sequenzen,NI_Sequenzen,,,,,,,,,,,,,,
,Sequence,flow.Sequence,0_0_8,,completion,9,39820.40000000596,,,39821.79999999702,,39823.90000000596,2021-10-28T08:29:01.736Z,39890.251,1635409561,full,ni_sequenzen,NI_Sequenzen,,,,,,,,,,,,,,
,Screen_1,canvas.Screen,0_0_9_0,,skipped,10,39824.70000000298,,,39824.70000000298,,39824.79999999702,2021-10-28T08:29:01.737Z,39890.251,1635409561,full,ni_sequenzen,NI_Sequenzen,,,,,,,,,,,,,,
,Screen_2,canvas.Screen,0_0_9_1,,skipped,10,39825.29999999702,,,39824.70000000298,,39825.29999999702,2021-10-28T08:29:01.738Z,39890.251,1635409561,full,ni_sequenzen,NI_Sequenzen,,,,,,,,,,,,,,
,Screen_3,canvas.Screen,0_0_9_2,,skipped,10,39825.90000000596,,,39824.70000000298,,39825.90000000596,2021-10-28T08:29:01.738Z,39890.251,1635409561,full,ni_sequenzen,NI_Sequenzen,,,,,,,,,,,,,,
,Screen_4,canvas.Screen,0_0_9_3,,skipped,10,39826.59999999404,,,39824.70000000298,,39826.59999999404,2021-10-28T08:29:01.739Z,39890.251,1635409561,full,ni_sequenzen,NI_Sequenzen,,,,,,,,,,,,,,
,Sequence,flow.Sequence,0_0_9,,completion,10,39824.20000000298,,,39824.70000000298,,39826.70000000298,2021-10-28T08:29:01.739Z,39890.251,1635409561,full,ni_sequenzen,NI_Sequenzen,,,,,,,,,,,,,,
,Screen_1,canvas.Screen,0_0_10_0,,skipped,11,39827.59999999404,,,39827.59999999404,,39827.59999999404,2021-10-28T08:29:01.740Z,39890.251,1635409561,full,ni_sequenzen,NI_Sequenzen,,,,,,,,,,,,,,
,Screen_2,canvas.Screen,0_0_10_1,,skipped,11,39828.09999999404,,,39827.59999999404,,39828.09999999404,2021-10-28T08:29:01.741Z,39890.251,1635409561,full,ni_sequenzen,NI_Sequenzen,,,,,,,,,,,,,,
,Screen_3,canvas.Screen,0_0_10_2,,skipped,11,39829.70000000298,,,39827.59999999404,,39829.70000000298,2021-10-28T08:29:01.742Z,39890.251,1635409561,full,ni_sequenzen,NI_Sequenzen,,,,,,,,,,,,,,
,Screen_4,canvas.Screen,0_0_10_3,,skipped,11,39830.40000000596,,,39827.59999999404,,39830.40000000596,2021-10-28T08:29:01.743Z,39890.251,1635409561,full,ni_sequenzen,NI_Sequenzen,,,,,,,,,,,,,,
,Sequence,flow.Sequence,0_0_10,,completion,11,39826.90000000596,,,39827.59999999404,,39830.5,2021-10-28T08:29:01.743Z,39890.251,1635409561,full,ni_sequenzen,NI_Sequenzen,,,,,,,,,,,,,,
,Screen_1,canvas.Screen,0_0_11_0,,skipped,12,39832.79999999702,,,39832.79999999702,,39832.90000000596,2021-10-28T08:29:01.745Z,39890.251,1635409561,full,ni_sequenzen,NI_Sequenzen,,,,,,,,,,,,,,
,Screen_2,canvas.Screen,0_0_11_1,,skipped,12,39833.79999999702,,,39832.79999999702,,39833.90000000596,2021-10-28T08:29:01.746Z,39890.251,1635409561,full,ni_sequenzen,NI_Sequenzen,,,,,,,,,,,,,,
,Screen_3,canvas.Screen,0_0_11_2,,skipped,12,39840.59999999404,,,39832.79999999702,,39840.59999999404,2021-10-28T08:29:01.753Z,39890.251,1635409561,full,ni_sequenzen,NI_Sequenzen,,,,,,,,,,,,,,
,Screen_4,canvas.Screen,0_0_11_3,,skipped,12,39841.29999999702,,,39832.79999999702,,39841.40000000596,2021-10-28T08:29:01.754Z,39890.251,1635409561,full,ni_sequenzen,NI_Sequenzen,,,,,,,,,,,,,,
,Sequence,flow.Sequence,0_0_11,,completion,12,39831.29999999702,,,39832.79999999702,,39841.5,2021-10-28T08:29:01.754Z,39890.251,1635409561,full,ni_sequenzen,NI_Sequenzen,,,,,,,,,,,,,,
,Screen_1,canvas.Screen,0_0_12_0,,skipped,13,39842.29999999702,,,39842.29999999702,,39842.29999999702,2021-10-28T08:29:01.755Z,39890.251,1635409561,full,ni_sequenzen,NI_Sequenzen,,,,,,,,,,,,,,
,Screen_2,canvas.Screen,0_0_12_1,,skipped,13,39842.90000000596,,,39842.29999999702,,39843,2021-10-28T08:29:01.755Z,39890.251,1635409561,full,ni_sequenzen,NI_Sequenzen,,,,,,,,,,,,,,
,Screen_3,canvas.Screen,0_0_12_2,,skipped,13,39843.5,,,39842.29999999702,,39843.5,2021-10-28T08:29:01.756Z,39890.251,1635409561,full,ni_sequenzen,NI_Sequenzen,,,,,,,,,,,,,,
,Screen_4,canvas.Screen,0_0_12_3,,skipped,13,39844.09999999404,,,39842.29999999702,,39844.09999999404,2021-10-28T08:29:01.757Z,39890.251,1635409561,full,ni_sequenzen,NI_Sequenzen,,,,,,,,,,,,,,
,Sequence,flow.Sequence,0_0_12,,completion,13,39841.79999999702,,,39842.29999999702,,39844.20000000298,2021-10-28T08:29:01.757Z,39890.251,1635409561,full,ni_sequenzen,NI_Sequenzen,,,,,,,,,,,,,,
,Screen_1,canvas.Screen,0_0_13_0,,skipped,14,39844.90000000596,,,39844.90000000596,,39844.90000000596,2021-10-28T08:29:01.757Z,39890.251,1635409561,full,ni_sequenzen,NI_Sequenzen,,,,,,,,,,,,,,
,Screen_2,canvas.Screen,0_0_13_1,,skipped,14,39845.5,,,39844.90000000596,,39845.5,2021-10-28T08:29:01.758Z,39890.251,1635409561,full,ni_sequenzen,NI_Sequenzen,,,,,,,,,,,,,,
,Screen_3,canvas.Screen,0_0_13_2,,skipped,14,39846.09999999404,,,39844.90000000596,,39846.20000000298,2021-10-28T08:29:01.759Z,39890.251,1635409561,full,ni_sequenzen,NI_Sequenzen,,,,,,,,,,,,,,
,Screen_4,canvas.Screen,0_0_13_3,,skipped,14,39846.70000000298,,,39844.90000000596,,39846.70000000298,2021-10-28T08:29:01.759Z,39890.251,1635409561,full,ni_sequenzen,NI_Sequenzen,,,,,,,,,,,,,,
,Sequence,flow.Sequence,0_0_13,,completion,14,39844.40000000596,,,39844.90000000596,,39846.79999999702,2021-10-28T08:29:01.759Z,39890.251,1635409561,full,ni_sequenzen,NI_Sequenzen,,,,,,,,,,,,,,
,Screen_1,canvas.Screen,0_0_14_0,,skipped,15,39847.59999999404,,,39847.59999999404,,39847.70000000298,2021-10-28T08:29:01.760Z,39890.251,1635409561,full,ni_sequenzen,NI_Sequenzen,,,,,,,,,,,,,,
,Screen_2,canvas.Screen,0_0_14_1,,skipped,15,39848.09999999404,,,39847.59999999404,,39848.20000000298,2021-10-28T08:29:01.761Z,39890.251,1635409561,full,ni_sequenzen,NI_Sequenzen,,,,,,,,,,,,,,
,Screen_3,canvas.Screen,0_0_14_2,,skipped,15,39848.90000000596,,,39847.59999999404,,39848.90000000596,2021-10-28T08:29:01.761Z,39890.251,1635409561,full,ni_sequenzen,NI_Sequenzen,,,,,,,,,,,,,,
,Screen_4,canvas.Screen,0_0_14_3,,skipped,15,39850.90000000596,,,39847.59999999404,,39851,2021-10-28T08:29:01.763Z,39890.251,1635409561,full,ni_sequenzen,NI_Sequenzen,,,,,,,,,,,,,,
,Sequence,flow.Sequence,0_0_14,,completion,15,39847,,,39847.59999999404,,39851.09999999404,2021-10-28T08:29:01.764Z,39890.251,1635409561,full,ni_sequenzen,NI_Sequenzen,,,,,,,,,,,,,,
,Screen_1,canvas.Screen,0_0_15_0,,skipped,16,39852.40000000596,,,39852.40000000596,,39852.5,2021-10-28T08:29:01.765Z,39890.251,1635409561,full,ni_sequenzen,NI_Sequenzen,,,,,,,,,,,,,,
,Screen_2,canvas.Screen,0_0_15_1,,skipped,16,39853.90000000596,,,39852.40000000596,,39854,2021-10-28T08:29:01.766Z,39890.251,1635409561,full,ni_sequenzen,NI_Sequenzen,,,,,,,,,,,,,,
,Screen_3,canvas.Screen,0_0_15_2,,skipped,16,39855,,,39852.40000000596,,39855.09999999404,2021-10-28T08:29:01.768Z,39890.251,1635409561,full,ni_sequenzen,NI_Sequenzen,,,,,,,,,,,,,,
,Screen_4,canvas.Screen,0_0_15_3,,skipped,16,39856.29999999702,,,39852.40000000596,,39856.29999999702,2021-10-28T08:29:01.769Z,39890.251,1635409561,full,ni_sequenzen,NI_Sequenzen,,,,,,,,,,,,,,
,Sequence,flow.Sequence,0_0_15,,completion,16,39851.59999999404,,,39852.40000000596,,39856.5,2021-10-28T08:29:01.769Z,39890.251,1635409561,full,ni_sequenzen,NI_Sequenzen,,,,,,,,,,,,,,
,Screen_1,canvas.Screen,0_0_16_0,,skipped,17,39857.40000000596,,,39857.40000000596,,39857.5,2021-10-28T08:29:01.770Z,39890.251,1635409561,full,ni_sequenzen,NI_Sequenzen,,,,,,,,,,,,,,
,Screen_2,canvas.Screen,0_0_16_1,,skipped,17,39858.09999999404,,,39857.40000000596,,39858.20000000298,2021-10-28T08:29:01.771Z,39890.251,1635409561,full,ni_sequenzen,NI_Sequenzen,,,,,,,,,,,,,,
,Screen_3,canvas.Screen,0_0_16_2,,skipped,17,39858.79999999702,,,39857.40000000596,,39858.79999999702,2021-10-28T08:29:01.771Z,39890.251,1635409561,full,ni_sequenzen,NI_Sequenzen,,,,,,,,,,,,,,
,Screen_4,canvas.Screen,0_0_16_3,,skipped,17,39859.59999999404,,,39857.40000000596,,39859.70000000298,2021-10-28T08:29:01.772Z,39890.251,1635409561,full,ni_sequenzen,NI_Sequenzen,,,,,,,,,,,,,,
,Sequence,flow.Sequence,0_0_16,,completion,17,39856.79999999702,,,39857.40000000596,,39859.79999999702,2021-10-28T08:29:01.772Z,39890.251,1635409561,full,ni_sequenzen,NI_Sequenzen,,,,,,,,,,,,,,
,Screen_1,canvas.Screen,0_0_17_0,,skipped,18,39860.5,,,39860.5,,39860.59999999404,2021-10-28T08:29:01.773Z,39890.251,1635409561,full,ni_sequenzen,NI_Sequenzen,,,,,,,,,,,,,,
,Screen_2,canvas.Screen,0_0_17_1,,skipped,18,39861.09999999404,,,39860.5,,39861.09999999404,2021-10-28T08:29:01.774Z,39890.251,1635409561,full,ni_sequenzen,NI_Sequenzen,,,,,,,,,,,,,,
,Screen_3,canvas.Screen,0_0_17_2,,skipped,18,39861.59999999404,,,39860.5,,39861.70000000298,2021-10-28T08:29:01.774Z,39890.251,1635409561,full,ni_sequenzen,NI_Sequenzen,,,,,,,,,,,,,,
,Screen_4,canvas.Screen,0_0_17_3,,skipped,18,39862.20000000298,,,39860.5,,39862.29999999702,2021-10-28T08:29:01.775Z,39890.251,1635409561,full,ni_sequenzen,NI_Sequenzen,,,,,,,,,,,,,,
,Sequence,flow.Sequence,0_0_17,,completion,18,39860,,,39860.5,,39862.40000000596,2021-10-28T08:29:01.775Z,39890.251,1635409561,full,ni_sequenzen,NI_Sequenzen,,,,,,,,,,,,,,
,Screen_1,canvas.Screen,0_0_18_0,,skipped,19,39863.09999999404,,,39863.09999999404,,39863.09999999404,2021-10-28T08:29:01.775Z,39890.251,1635409561,full,ni_sequenzen,NI_Sequenzen,,,,,,,,,,,,,,
,Screen_2,canvas.Screen,0_0_18_1,,skipped,19,39864.5,,,39863.09999999404,,39864.5,2021-10-28T08:29:01.777Z,39890.251,1635409561,full,ni_sequenzen,NI_Sequenzen,,,,,,,,,,,,,,
,Screen_3,canvas.Screen,0_0_18_2,,skipped,19,39865.20000000298,,,39863.09999999404,,39865.20000000298,2021-10-28T08:29:01.778Z,39890.251,1635409561,full,ni_sequenzen,NI_Sequenzen,,,,,,,,,,,,,,
,Screen_4,canvas.Screen,0_0_18_3,,skipped,19,39865.70000000298,,,39863.09999999404,,39865.79999999702,2021-10-28T08:29:01.778Z,39890.251,1635409561,full,ni_sequenzen,NI_Sequenzen,,,,,,,,,,,,,,
,Sequence,flow.Sequence,0_0_18,,completion,19,39862.59999999404,,,39863.09999999404,,39865.90000000596,2021-10-28T08:29:01.778Z,39890.251,1635409561,full,ni_sequenzen,NI_Sequenzen,,,,,,,,,,,,,,
,Screen_1,canvas.Screen,0_0_19_0,,skipped,20,39866.59999999404,,,39866.59999999404,,39866.59999999404,2021-10-28T08:29:01.779Z,39890.251,1635409561,full,ni_sequenzen,NI_Sequenzen,,,,,,,,,,,,,,
,Screen_2,canvas.Screen,0_0_19_1,,skipped,20,39867.09999999404,,,39866.59999999404,,39867.09999999404,2021-10-28T08:29:01.780Z,39890.251,1635409561,full,ni_sequenzen,NI_Sequenzen,,,,,,,,,,,,,,
,Screen_3,canvas.Screen,0_0_19_2,,skipped,20,39867.70000000298,,,39866.59999999404,,39867.70000000298,2021-10-28T08:29:01.780Z,39890.251,1635409561,full,ni_sequenzen,NI_Sequenzen,,,,,,,,,,,,,,
,Screen_4,canvas.Screen,0_0_19_3,,skipped,20,39868.20000000298,,,39866.59999999404,,39868.29999999702,2021-10-28T08:29:01.781Z,39890.251,1635409561,full,ni_sequenzen,NI_Sequenzen,,,,,,,,,,,,,,
,Sequence,flow.Sequence,0_0_19,,completion,20,39866.09999999404,,,39866.59999999404,,39868.29999999702,2021-10-28T08:29:01.781Z,39890.251,1635409561,full,ni_sequenzen,NI_Sequenzen,,,,,,,,,,,,,,
,Instructions_I,flow.Loop,0_0,,completion,,529.7999999970198,568.207,601.49,39866.59999999404,39265.10999999404,39868.5,2021-10-28T08:29:01.781Z,39890.251,1635409561,full,ni_sequenzen,NI_Sequenzen,,,,,,,,,,,,,,
,Move,canvas.Screen,0_1_0_0,right,response,,39880,39874.026,39890.251,40794.09999999404,903.848999994043,40795.09999999404,2021-10-28T08:29:02.708Z,40806.668,1635409561,full,ni_sequenzen,NI_Sequenzen,1,,,,,,,,,,,,,
,Move,canvas.Screen,0_1_0_1,left,response,,40799.90000000596,40790.111,40806.668,41383.79999999702,577.1319999970219,41384.29999999702,2021-10-28T08:29:03.297Z,41389.865,1635409561,full,ni_sequenzen,NI_Sequenzen,2,,,,,,,,,,,,,
,Move,canvas.Screen,0_1_0_2,right,response,,41386.20000000298,41373.279,41389.865,42412,1022.135000000002,42412.5,2021-10-28T08:29:04.325Z,42422.94,1635409561,full,ni_sequenzen,NI_Sequenzen,3,,,,,,,,,,,,,
,Move,canvas.Screen,0_1_0_3,down,response,,42413.59999999404,42406.367,42422.94,44342,1919.0599999999977,44342.5,2021-10-28T08:29:06.255Z,44355.747,1635409561,full,ni_sequenzen,NI_Sequenzen,4,,,,,,,,,,,,,
,Move,canvas.Screen,0_1_0_4,left,response,,44344,44339.273,44355.747,45067.20000000298,711.4530000029772,45067.70000000298,2021-10-28T08:29:06.980Z,45072.136,1635409561,full,ni_sequenzen,NI_Sequenzen,5,,,,,,,,,,,,,
,Move,canvas.Screen,0_1_0_5,down,response,,45069.90000000596,45055.575,45072.136,45690.79999999702,618.6639999970212,45692,2021-10-28T08:29:07.604Z,45705.359,1635409561,full,ni_sequenzen,NI_Sequenzen,6,,,,,,,,,,,,,
,Move,canvas.Screen,0_1_0_6,down,response,,45696.40000000596,45688.685,45705.359,46249,543.6410000000033,46249.70000000298,2021-10-28T08:29:08.162Z,46255.126,1635409561,full,ni_sequenzen,NI_Sequenzen,7,,,,,,,,,,,,,
,Move,canvas.Screen,0_1_0_7,down,response,,46251.70000000298,46238.521,46255.126,46533.20000000298,278.07400000298367,46534.20000000298,2021-10-28T08:29:08.447Z,46555.047,1635409561,full,ni_sequenzen,NI_Sequenzen,8,,,,,,,,,,,,,
,Move,canvas.Screen,0_1_0_8,right,response,,46538.79999999702,46538.434,46555.047,47060.40000000596,505.3530000059618,47061.5,2021-10-28T08:29:08.974Z,47071.587,1635409561,full,ni_sequenzen,NI_Sequenzen,9,,,,,,,,,,,,,
,Move,canvas.Screen,0_1_0_9,down,response,,47065.59999999404,47054.957,47071.587,48521.5,1449.9130000000005,48522.09999999404,2021-10-28T08:29:10.434Z,48537.808,1635409561,full,ni_sequenzen,NI_Sequenzen,10,,,,,,,,,,,,,
,Move,canvas.Screen,0_1_0_10,down,response,,48523.79999999702,48521.34,48537.808,48811.70000000298,273.89200000298297,48812.59999999404,2021-10-28T08:29:10.724Z,48837.734,1635409561,full,ni_sequenzen,NI_Sequenzen,11,,,,,,,,,,,,,
,Move,canvas.Screen,0_1_0_11,left,response,,48817,48804.444,48837.734,49131,293.26600000000326,49131.29999999702,2021-10-28T08:29:11.043Z,49137.649,1635409561,full,ni_sequenzen,NI_Sequenzen,12,,,,,,,,,,,,,
,Move,canvas.Screen,0_1_0_12,left,response,,49132.5,49121.005,49137.649,49619.90000000596,482.25100000596285,49620.29999999702,2021-10-28T08:29:11.532Z,49637.5,1635409561,full,ni_sequenzen,NI_Sequenzen,13,,,,,,,,,,,,,
,Move,canvas.Screen,0_1_0_13,down,response,,49621.79999999702,49620.923,49637.5,50947,1309.5,50947.59999999404,2021-10-28T08:29:12.859Z,50953.853,1635409561,full,ni_sequenzen,NI_Sequenzen,14,,,,,,,,,,,,,
,Move,canvas.Screen,0_1_0_14,down,response,,50950.20000000298,50937.309,50953.853,51112,158.1469999999972,51112.40000000596,2021-10-28T08:29:13.024Z,51120.477,1635409561,full,ni_sequenzen,NI_Sequenzen,15,,,,,,,,,,,,,
,Move,canvas.Screen,0_1_0_15,right,response,,51114.20000000298,51103.774,51120.477,51533.5,413.02300000000105,51534.5,2021-10-28T08:29:13.446Z,51559.548,1635409561,full,ni_sequenzen,NI_Sequenzen,16,,,,,,,,,,,,,
,Move,canvas.Screen,0_1_0_16,right,response,,51536.59999999404,51520.339,51559.548,51795,235.4519999999975,51796.09999999404,2021-10-28T08:29:13.708Z,51823.53,1635409561,full,ni_sequenzen,NI_Sequenzen,17,,,,,,,,,,,,,
,Move,canvas.Screen,0_1_0_17,down,response,,51802.29999999702,51786.935,51823.53,52406.40000000596,582.8700000059616,52406.90000000596,2021-10-28T08:29:14.319Z,52420.043,1635409561,full,ni_sequenzen,NI_Sequenzen,18,,,,,,,,,,,,,
,Move,canvas.Screen,0_1_0_18,down,response,,52408.5,52403.454,52420.043,52652.90000000596,232.85700000596262,52653.40000000596,2021-10-28T08:29:14.565Z,52669.968,1635409561,full,ni_sequenzen,NI_Sequenzen,19,,,,,,,,,,,,,
,Move,canvas.Screen,0_1_0_19,left,response,,52654.59999999404,52653.349,52669.968,53009.59999999404,339.6319999940388,53010.70000000298,2021-10-28T08:29:14.922Z,53019.921,1635409561,full,ni_sequenzen,NI_Sequenzen,20,,,,,,,,,,,,,
,Move,canvas.Screen,0_1_0_20,left,response,,53015.29999999702,53003.261,53019.921,53289.20000000298,269.27900000297814,53289.70000000298,2021-10-28T08:29:15.201Z,53303.12,1635409561,full,ni_sequenzen,NI_Sequenzen,21,,,,,,,,,,,,,
,Move,canvas.Screen,0_1_0_21,right,response,,53291.20000000298,53286.478,53303.12,55936.70000000298,2633.5800000029776,55937.59999999404,2021-10-28T08:29:17.849Z,55952.337,1635409561,full,ni_sequenzen,NI_Sequenzen,22,,,,,,,,,,,,,
,Move,canvas.Screen,0_1_0_22,right,response,,55941.70000000298,55935.989,55952.337,56411.20000000298,458.8630000029807,56412,2021-10-28T08:29:18.324Z,56418.968,1635409561,full,ni_sequenzen,NI_Sequenzen,23,,,,,,,,,,,,,
,Move,canvas.Screen,0_1_0_23,right,response,,56415.29999999702,56402.303,56418.968,56649,230.03199999999924,56650,2021-10-28T08:29:18.562Z,56668.815,1635409561,full,ni_sequenzen,NI_Sequenzen,24,,,,,,,,,,,,,
,Move,canvas.Screen,0_1_0_24,right,response,,56654.40000000596,56652.205,56668.815,59241.20000000298,2572.385000002978,59241.79999999702,2021-10-28T08:29:21.154Z,59251.367,1635409561,full,ni_sequenzen,NI_Sequenzen,25,,,,,,,,,,,,,
,Move,canvas.Screen,0_1_0_25,right,response,,59243.29999999702,59235.071,59251.367,59587.59999999404,336.23299999404117,59588.59999999404,2021-10-28T08:29:21.500Z,59601.323,1635409561,full,ni_sequenzen,NI_Sequenzen,26,,,,,,,,,,,,,
,Move,canvas.Screen,0_1_0_26,right,response,,59591.90000000596,59584.712,59601.323,60450.90000000596,849.5770000059638,60451.40000000596,2021-10-28T08:29:22.363Z,60467.74,1635409561,full,ni_sequenzen,NI_Sequenzen,27,,,,,,,,,,,,,
,Move,canvas.Screen,0_1_0_27,right,response,,60452.40000000596,60451.173,60467.74,61185.79999999702,718.0599999970218,61186.29999999702,2021-10-28T08:29:23.098Z,61200.936,1635409561,full,ni_sequenzen,NI_Sequenzen,28,,,,,,,,,,,,,
,Move,canvas.Screen,0_1_0_28,down,response,,61188.09999999404,61184.304,61200.936,61433.29999999702,232.36399999701825,61434.5,2021-10-28T08:29:23.346Z,61450.792,1635409561,full,ni_sequenzen,NI_Sequenzen,29,,,,,,,,,,,,,
,Move,canvas.Screen,0_1_0_29,down,response,,61439.09999999404,61434.172,61450.792,61665,214.20799999999872,61666,2021-10-28T08:29:23.578Z,61717.444,1635409561,full,ni_sequenzen,NI_Sequenzen,30,,,,,,,,,,,,,
,Loop,flow.Loop,0_1_0,-999,completion,,39878.09999999404,39874.026,39890.251,61665,21774.749000000003,61666.5,2021-10-28T08:29:23.578Z,61717.444,1635409561,full,ni_sequenzen,NI_Sequenzen,,,,,,,,,,,,,,
,Training_I,flow.Sequence,0_1,,completion,,39869.70000000298,39874.026,39890.251,61665,21774.749000000003,61666.79999999702,2021-10-28T08:29:23.578Z,61717.444,1635409561,full,ni_sequenzen,NI_Sequenzen,,,,,,,,,,,,,,
,Screen_1,canvas.Screen,0_2_0_0,cont,response,1,61711.5,61700.769,61717.444,68266.09999999404,6548.655999994036,68266.59999999404,2021-10-28T08:29:30.178Z,68398.786,1635409561,full,ni_sequenzen,NI_Sequenzen,,,,,,,,,,,,,,
,Screen_2,canvas.Screen,0_2_0_1,cont,response,1,68397,68382.946,68398.786,72714.59999999404,4315.813999994047,72715.90000000596,2021-10-28T08:29:34.628Z,72730.943,1635409561,full,ni_sequenzen,NI_Sequenzen,,,,,,,,,,,,,,
,Screen_3,canvas.Screen,0_2_0_2,cont,response,1,72723.79999999702,72714.788,72730.943,76669.09999999404,3938.1569999940402,76670,2021-10-28T08:29:38.582Z,76763.064,1635409561,full,ni_sequenzen,NI_Sequenzen,,,,,,,,,,,,,,
,Screen_4,canvas.Screen,0_2_0_3,back,response,1,76757.70000000298,76746.94,76763.064,78511.5,1748.4360000000015,78512.40000000596,2021-10-28T08:29:40.424Z,78629.189,1635409561,full,ni_sequenzen,NI_Sequenzen,,,,,,,,,,,,,,
,Screen_5,canvas.Screen,0_2_0_4,,skipped,1,78515.40000000596,,,78511.5,,78515.59999999404,2021-10-28T08:29:40.427Z,78629.189,1635409561,full,ni_sequenzen,NI_Sequenzen,,,,,,,,,,,,,,
,Screen_6,canvas.Screen,0_2_0_5,,skipped,1,78607,,,78511.5,,78607.29999999702,2021-10-28T08:29:40.519Z,78629.189,1635409561,full,ni_sequenzen,NI_Sequenzen,,,,,,,,,,,,,,
,Sequence,flow.Sequence,0_2_0,,completion,1,61710.40000000596,61700.769,61717.444,78511.5,16794.055999999997,78607.90000000596,2021-10-28T08:29:40.520Z,78629.189,1635409561,full,ni_sequenzen,NI_Sequenzen,,,,,,,,,,,,,,
,Screen_1,canvas.Screen,0_2_1_0,,skipped,2,78612.5,,,78612.5,,78612.5,2021-10-28T08:29:40.524Z,78629.189,1635409561,full,ni_sequenzen,NI_Sequenzen,,,,,,,,,,,,,,
,Screen_2,canvas.Screen,0_2_1_1,,skipped,2,78613.79999999702,,,78612.5,,78613.90000000596,2021-10-28T08:29:40.526Z,78629.189,1635409561,full,ni_sequenzen,NI_Sequenzen,,,,,,,,,,,,,,
,Screen_3,canvas.Screen,0_2_1_2,cont,response,2,78614.70000000298,78612.761,78629.189,80951,2321.8110000000015,80952.20000000298,2021-10-28T08:29:42.864Z,80961.942,1635409561,full,ni_sequenzen,NI_Sequenzen,,,,,,,,,,,,,,
,Screen_4,canvas.Screen,0_2_1_3,cont,response,2,80955.90000000596,80945.507,80961.942,86873.5,5911.5580000000045,86874.59999999404,2021-10-28T08:29:48.786Z,86893.525,1635409561,full,ni_sequenzen,NI_Sequenzen,,,,,,,,,,,,,,
,Screen_5,canvas.Screen,0_2_1_4,cont,response,2,86876.90000000596,86860.935,86893.525,92708.29999999702,5814.774999997026,92708.79999999702,2021-10-28T08:29:54.621Z,92725.239,1635409561,full,ni_sequenzen,NI_Sequenzen,,,,,,,,,,,,,,
,Screen_6,canvas.Screen,0_2_1_5,cont,response,2,92709.90000000596,92709.265,92725.239,97247.59999999404,4522.360999994038,97248.70000000298,2021-10-28T08:29:59.160Z,97407.133,1635409561,full,ni_sequenzen,NI_Sequenzen,,,,,,,,,,,,,,
,Sequence,flow.Sequence,0_2_1,,completion,2,78611,78612.761,78629.189,97247.59999999404,18618.41099999404,97249.09999999404,2021-10-28T08:29:59.161Z,97407.133,1635409561,full,ni_sequenzen,NI_Sequenzen,,,,,,,,,,,,,,
,Screen_1,canvas.Screen,0_2_2_0,,skipped,3,97255.70000000298,,,97255.70000000298,,97256,2021-10-28T08:29:59.168Z,97407.133,1635409561,full,ni_sequenzen,NI_Sequenzen,,,,,,,,,,,,,,
,Screen_2,canvas.Screen,0_2_2_1,,skipped,3,97257.90000000596,,,97255.70000000298,,97258.20000000298,2021-10-28T08:29:59.170Z,97407.133,1635409561,full,ni_sequenzen,NI_Sequenzen,,,,,,,,,,,,,,
,Screen_3,canvas.Screen,0_2_2_2,,skipped,3,97260.09999999404,,,97255.70000000298,,97260.20000000298,2021-10-28T08:29:59.172Z,97407.133,1635409561,full,ni_sequenzen,NI_Sequenzen,,,,,,,,,,,,,,
,Screen_4,canvas.Screen,0_2_2_3,,skipped,3,97261,,,97255.70000000298,,97261.09999999404,2021-10-28T08:29:59.173Z,97407.133,1635409561,full,ni_sequenzen,NI_Sequenzen,,,,,,,,,,,,,,
,Screen_5,canvas.Screen,0_2_2_4,,skipped,3,97261.59999999404,,,97255.70000000298,,97261.59999999404,2021-10-28T08:29:59.173Z,97407.133,1635409561,full,ni_sequenzen,NI_Sequenzen,,,,,,,,,,,,,,
,Screen_6,canvas.Screen,0_2_2_5,,skipped,3,97262.09999999404,,,97255.70000000298,,97262.20000000298,2021-10-28T08:29:59.174Z,97407.133,1635409561,full,ni_sequenzen,NI_Sequenzen,,,,,,,,,,,,,,
,Sequence,flow.Sequence,0_2_2,,completion,3,97253.5,,,97255.70000000298,,97262.20000000298,2021-10-28T08:29:59.174Z,97407.133,1635409561,full,ni_sequenzen,NI_Sequenzen,,,,,,,,,,,,,,
,Screen_1,canvas.Screen,0_2_3_0,,skipped,4,97263.20000000298,,,97263.20000000298,,97263.20000000298,2021-10-28T08:29:59.175Z,97407.133,1635409561,full,ni_sequenzen,NI_Sequenzen,,,,,,,,,,,,,,
,Screen_2,canvas.Screen,0_2_3_1,,skipped,4,97263.79999999702,,,97263.20000000298,,97263.79999999702,2021-10-28T08:29:59.176Z,97407.133,1635409561,full,ni_sequenzen,NI_Sequenzen,,,,,,,,,,,,,,
,Screen_3,canvas.Screen,0_2_3_2,,skipped,4,97264.40000000596,,,97263.20000000298,,97264.5,2021-10-28T08:29:59.176Z,97407.133,1635409561,full,ni_sequenzen,NI_Sequenzen,,,,,,,,,,,,,,
,Screen_4,canvas.Screen,0_2_3_3,,skipped,4,97265,,,97263.20000000298,,97265.09999999404,2021-10-28T08:29:59.177Z,97407.133,1635409561,full,ni_sequenzen,NI_Sequenzen,,,,,,,,,,,,,,
,Screen_5,canvas.Screen,0_2_3_4,,skipped,4,97265.5,,,97263.20000000298,,97265.5,2021-10-28T08:29:59.177Z,97407.133,1635409561,full,ni_sequenzen,NI_Sequenzen,,,,,,,,,,,,,,
,Screen_6,canvas.Screen,0_2_3_5,,skipped,4,97266,,,97263.20000000298,,97266.09999999404,2021-10-28T08:29:59.178Z,97407.133,1635409561,full,ni_sequenzen,NI_Sequenzen,,,,,,,,,,,,,,
,Sequence,flow.Sequence,0_2_3,,completion,4,97262.59999999404,,,97263.20000000298,,97266.20000000298,2021-10-28T08:29:59.178Z,97407.133,1635409561,full,ni_sequenzen,NI_Sequenzen,,,,,,,,,,,,,,
,Screen_1,canvas.Screen,0_2_4_0,,skipped,5,97266.90000000596,,,97267.40000000596,,97267.59999999404,2021-10-28T08:29:59.179Z,97407.133,1635409561,full,ni_sequenzen,NI_Sequenzen,,,,,,,,,,,,,,
,Screen_2,canvas.Screen,0_2_4_1,,skipped,5,97268.20000000298,,,97267.40000000596,,97268.29999999702,2021-10-28T08:29:59.180Z,97407.133,1635409561,full,ni_sequenzen,NI_Sequenzen,,,,,,,,,,,,,,
,Screen_3,canvas.Screen,0_2_4_2,,skipped,5,97268.79999999702,,,97267.40000000596,,97268.79999999702,2021-10-28T08:29:59.181Z,97407.133,1635409561,full,ni_sequenzen,NI_Sequenzen,,,,,,,,,,,,,,
,Screen_4,canvas.Screen,0_2_4_3,,skipped,5,97269.40000000596,,,97267.40000000596,,97269.40000000596,2021-10-28T08:29:59.181Z,97407.133,1635409561,full,ni_sequenzen,NI_Sequenzen,,,,,,,,,,,,,,
,Screen_5,canvas.Screen,0_2_4_4,,skipped,5,97270,,,97267.40000000596,,97270,2021-10-28T08:29:59.182Z,97407.133,1635409561,full,ni_sequenzen,NI_Sequenzen,,,,,,,,,,,,,,
,Screen_6,canvas.Screen,0_2_4_5,,skipped,5,97270.5,,,97267.40000000596,,97270.5,2021-10-28T08:29:59.182Z,97407.133,1635409561,full,ni_sequenzen,NI_Sequenzen,,,,,,,,,,,,,,
,Sequence,flow.Sequence,0_2_4,,completion,5,97266.40000000596,,,97267.40000000596,,97270.59999999404,2021-10-28T08:29:59.182Z,97407.133,1635409561,full,ni_sequenzen,NI_Sequenzen,,,,,,,,,,,,,,
,Screen_1,canvas.Screen,0_2_5_0,,skipped,6,97271.29999999702,,,97271.29999999702,,97271.40000000596,2021-10-28T08:29:59.183Z,97407.133,1635409561,full,ni_sequenzen,NI_Sequenzen,,,,,,,,,,,,,,
,Screen_2,canvas.Screen,0_2_5_1,,skipped,6,97271.79999999702,,,97271.29999999702,,97271.90000000596,2021-10-28T08:29:59.184Z,97407.133,1635409561,full,ni_sequenzen,NI_Sequenzen,,,,,,,,,,,,,,
,Screen_3,canvas.Screen,0_2_5_2,,skipped,6,97272.40000000596,,,97271.29999999702,,97272.40000000596,2021-10-28T08:29:59.184Z,97407.133,1635409561,full,ni_sequenzen,NI_Sequenzen,,,,,,,,,,,,,,
,Screen_4,canvas.Screen,0_2_5_3,,skipped,6,97272.90000000596,,,97271.29999999702,,97273,2021-10-28T08:29:59.185Z,97407.133,1635409561,full,ni_sequenzen,NI_Sequenzen,,,,,,,,,,,,,,
,Screen_5,canvas.Screen,0_2_5_4,,skipped,6,97273.5,,,97271.29999999702,,97273.59999999404,2021-10-28T08:29:59.185Z,97407.133,1635409561,full,ni_sequenzen,NI_Sequenzen,,,,,,,,,,,,,,
,Screen_6,canvas.Screen,0_2_5_5,,skipped,6,97274,,,97271.29999999702,,97274.09999999404,2021-10-28T08:29:59.186Z,97407.133,1635409561,full,ni_sequenzen,NI_Sequenzen,,,,,,,,,,,,,,
,Sequence,flow.Sequence,0_2_5,,completion,6,97270.90000000596,,,97271.29999999702,,97274.09999999404,2021-10-28T08:29:59.186Z,97407.133,1635409561,full,ni_sequenzen,NI_Sequenzen,,,,,,,,,,,,,,
,Screen_1,canvas.Screen,0_2_6_0,,skipped,7,97274.79999999702,,,97274.90000000596,,97274.90000000596,2021-10-28T08:29:59.187Z,97407.133,1635409561,full,ni_sequenzen,NI_Sequenzen,,,,,,,,,,,,,,
,Screen_2,canvas.Screen,0_2_6_1,,skipped,7,97275.29999999702,,,97274.90000000596,,97275.40000000596,2021-10-28T08:29:59.187Z,97407.133,1635409561,full,ni_sequenzen,NI_Sequenzen,,,,,,,,,,,,,,
,Screen_3,canvas.Screen,0_2_6_2,,skipped,7,97275.90000000596,,,97274.90000000596,,97276.09999999404,2021-10-28T08:29:59.188Z,97407.133,1635409561,full,ni_sequenzen,NI_Sequenzen,,,,,,,,,,,,,,
,Screen_4,canvas.Screen,0_2_6_3,,skipped,7,97276.79999999702,,,97274.90000000596,,97276.79999999702,2021-10-28T08:29:59.189Z,97407.133,1635409561,full,ni_sequenzen,NI_Sequenzen,,,,,,,,,,,,,,
,Screen_5,canvas.Screen,0_2_6_4,,skipped,7,97278.09999999404,,,97274.90000000596,,97278.20000000298,2021-10-28T08:29:59.190Z,97407.133,1635409561,full,ni_sequenzen,NI_Sequenzen,,,,,,,,,,,,,,
,Screen_6,canvas.Screen,0_2_6_5,,skipped,7,97278.59999999404,,,97274.90000000596,,97278.59999999404,2021-10-28T08:29:59.190Z,97407.133,1635409561,full,ni_sequenzen,NI_Sequenzen,,,,,,,,,,,,,,
,Sequence,flow.Sequence,0_2_6,,completion,7,97274.40000000596,,,97274.90000000596,,97278.79999999702,2021-10-28T08:29:59.190Z,97407.133,1635409561,full,ni_sequenzen,NI_Sequenzen,,,,,,,,,,,,,,
,Screen_1,canvas.Screen,0_2_7_0,,skipped,8,97279.40000000596,,,97279.5,,97279.5,2021-10-28T08:29:59.191Z,97407.133,1635409561,full,ni_sequenzen,NI_Sequenzen,,,,,,,,,,,,,,
,Screen_2,canvas.Screen,0_2_7_1,,skipped,8,97280,,,97279.5,,97280.09999999404,2021-10-28T08:29:59.192Z,97407.133,1635409561,full,ni_sequenzen,NI_Sequenzen,,,,,,,,,,,,,,
,Screen_3,canvas.Screen,0_2_7_2,,skipped,8,97280.59999999404,,,97279.5,,97280.59999999404,2021-10-28T08:29:59.192Z,97407.133,1635409561,full,ni_sequenzen,NI_Sequenzen,,,,,,,,,,,,,,
,Screen_4,canvas.Screen,0_2_7_3,,skipped,8,97281.09999999404,,,97279.5,,97281.20000000298,2021-10-28T08:29:59.193Z,97407.133,1635409561,full,ni_sequenzen,NI_Sequenzen,,,,,,,,,,,,,,
,Screen_5,canvas.Screen,0_2_7_4,,skipped,8,97281.59999999404,,,97279.5,,97281.70000000298,2021-10-28T08:29:59.193Z,97407.133,1635409561,full,ni_sequenzen,NI_Sequenzen,,,,,,,,,,,,,,
,Screen_6,canvas.Screen,0_2_7_5,,skipped,8,97282.09999999404,,,97279.5,,97282.20000000298,2021-10-28T08:29:59.194Z,97407.133,1635409561,full,ni_sequenzen,NI_Sequenzen,,,,,,,,,,,,,,
,Sequence,flow.Sequence,0_2_7,,completion,8,97279.09999999404,,,97279.5,,97282.29999999702,2021-10-28T08:29:59.194Z,97407.133,1635409561,full,ni_sequenzen,NI_Sequenzen,,,,,,,,,,,,,,
,Screen_1,canvas.Screen,0_2_8_0,,skipped,9,97283,,,97283,,97283.09999999404,2021-10-28T08:29:59.195Z,97407.133,1635409561,full,ni_sequenzen,NI_Sequenzen,,,,,,,,,,,,,,
,Screen_2,canvas.Screen,0_2_8_1,,skipped,9,97283.5,,,97283,,97283.59999999404,2021-10-28T08:29:59.195Z,97407.133,1635409561,full,ni_sequenzen,NI_Sequenzen,,,,,,,,,,,,,,
,Screen_3,canvas.Screen,0_2_8_2,,skipped,9,97284.09999999404,,,97283,,97284.20000000298,2021-10-28T08:29:59.196Z,97407.133,1635409561,full,ni_sequenzen,NI_Sequenzen,,,,,,,,,,,,,,
,Screen_4,canvas.Screen,0_2_8_3,,skipped,9,97284.59999999404,,,97283,,97284.70000000298,2021-10-28T08:29:59.196Z,97407.133,1635409561,full,ni_sequenzen,NI_Sequenzen,,,,,,,,,,,,,,
,Screen_5,canvas.Screen,0_2_8_4,,skipped,9,97285.29999999702,,,97283,,97285.29999999702,2021-10-28T08:29:59.197Z,97407.133,1635409561,full,ni_sequenzen,NI_Sequenzen,,,,,,,,,,,,,,
,Screen_6,canvas.Screen,0_2_8_5,,skipped,9,97286.40000000596,,,97283,,97286.5,2021-10-28T08:29:59.198Z,97407.133,1635409561,full,ni_sequenzen,NI_Sequenzen,,,,,,,,,,,,,,
,Sequence,flow.Sequence,0_2_8,,completion,9,97282.59999999404,,,97283,,97286.5,2021-10-28T08:29:59.198Z,97407.133,1635409561,full,ni_sequenzen,NI_Sequenzen,,,,,,,,,,,,,,
,Screen_1,canvas.Screen,0_2_9_0,,skipped,10,97287.29999999702,,,97287.29999999702,,97287.29999999702,2021-10-28T08:29:59.199Z,97407.133,1635409561,full,ni_sequenzen,NI_Sequenzen,,,,,,,,,,,,,,
,Screen_2,canvas.Screen,0_2_9_1,,skipped,10,97287.79999999702,,,97287.29999999702,,97287.90000000596,2021-10-28T08:29:59.200Z,97407.133,1635409561,full,ni_sequenzen,NI_Sequenzen,,,,,,,,,,,,,,
,Screen_3,canvas.Screen,0_2_9_2,,skipped,10,97288.40000000596,,,97287.29999999702,,97288.40000000596,2021-10-28T08:29:59.200Z,97407.133,1635409561,full,ni_sequenzen,NI_Sequenzen,,,,,,,,,,,,,,
,Screen_4,canvas.Screen,0_2_9_3,,skipped,10,97288.90000000596,,,97287.29999999702,,97289,2021-10-28T08:29:59.201Z,97407.133,1635409561,full,ni_sequenzen,NI_Sequenzen,,,,,,,,,,,,,,
,Screen_5,canvas.Screen,0_2_9_4,,skipped,10,97289.70000000298,,,97287.29999999702,,97289.70000000298,2021-10-28T08:29:59.201Z,97407.133,1635409561,full,ni_sequenzen,NI_Sequenzen,,,,,,,,,,,,,,
,Screen_6,canvas.Screen,0_2_9_5,,skipped,10,97290.20000000298,,,97287.29999999702,,97290.40000000596,2021-10-28T08:29:59.202Z,97407.133,1635409561,full,ni_sequenzen,NI_Sequenzen,,,,,,,,,,,,,,
,Sequence,flow.Sequence,0_2_9,,completion,10,97286.79999999702,,,97287.29999999702,,97290.5,2021-10-28T08:29:59.202Z,97407.133,1635409561,full,ni_sequenzen,NI_Sequenzen,,,,,,,,,,,,,,
,Screen_1,canvas.Screen,0_2_10_0,,skipped,11,97291.40000000596,,,97291.40000000596,,97291.40000000596,2021-10-28T08:29:59.203Z,97407.133,1635409561,full,ni_sequenzen,NI_Sequenzen,,,,,,,,,,,,,,
,Screen_2,canvas.Screen,0_2_10_1,,skipped,11,97291.90000000596,,,97291.40000000596,,97292,2021-10-28T08:29:59.204Z,97407.133,1635409561,full,ni_sequenzen,NI_Sequenzen,,,,,,,,,,,,,,
,Screen_3,canvas.Screen,0_2_10_2,,skipped,11,97292.79999999702,,,97291.40000000596,,97292.79999999702,2021-10-28T08:29:59.204Z,97407.133,1635409561,full,ni_sequenzen,NI_Sequenzen,,,,,,,,,,,,,,
,Screen_4,canvas.Screen,0_2_10_3,,skipped,11,97293.29999999702,,,97291.40000000596,,97293.40000000596,2021-10-28T08:29:59.205Z,97407.133,1635409561,full,ni_sequenzen,NI_Sequenzen,,,,,,,,,,,,,,
,Screen_5,canvas.Screen,0_2_10_4,,skipped,11,97293.90000000596,,,97291.40000000596,,97294,2021-10-28T08:29:59.206Z,97407.133,1635409561,full,ni_sequenzen,NI_Sequenzen,,,,,,,,,,,,,,
,Screen_6,canvas.Screen,0_2_10_5,,skipped,11,97294.59999999404,,,97291.40000000596,,97294.59999999404,2021-10-28T08:29:59.206Z,97407.133,1635409561,full,ni_sequenzen,NI_Sequenzen,,,,,,,,,,,,,,
,Sequence,flow.Sequence,0_2_10,,completion,11,97290.79999999702,,,97291.40000000596,,97294.59999999404,2021-10-28T08:29:59.206Z,97407.133,1635409561,full,ni_sequenzen,NI_Sequenzen,,,,,,,,,,,,,,
,Screen_1,canvas.Screen,0_2_11_0,,skipped,12,97295.40000000596,,,97295.40000000596,,97295.40000000596,2021-10-28T08:29:59.207Z,97407.133,1635409561,full,ni_sequenzen,NI_Sequenzen,,,,,,,,,,,,,,
,Screen_2,canvas.Screen,0_2_11_1,,skipped,12,97296,,,97295.40000000596,,97296,2021-10-28T08:29:59.208Z,97407.133,1635409561,full,ni_sequenzen,NI_Sequenzen,,,,,,,,,,,,,,
,Screen_3,canvas.Screen,0_2_11_2,,skipped,12,97297.09999999404,,,97295.40000000596,,97297.20000000298,2021-10-28T08:29:59.209Z,97407.133,1635409561,full,ni_sequenzen,NI_Sequenzen,,,,,,,,,,,,,,
,Screen_4,canvas.Screen,0_2_11_3,,skipped,12,97297.70000000298,,,97295.40000000596,,97297.90000000596,2021-10-28T08:29:59.209Z,97407.133,1635409561,full,ni_sequenzen,NI_Sequenzen,,,,,,,,,,,,,,
,Screen_5,canvas.Screen,0_2_11_4,,skipped,12,97298.29999999702,,,97295.40000000596,,97298.29999999702,2021-10-28T08:29:59.210Z,97407.133,1635409561,full,ni_sequenzen,NI_Sequenzen,,,,,,,,,,,,,,
,Screen_6,canvas.Screen,0_2_11_5,,skipped,12,97298.90000000596,,,97295.40000000596,,97298.90000000596,2021-10-28T08:29:59.211Z,97407.133,1635409561,full,ni_sequenzen,NI_Sequenzen,,,,,,,,,,,,,,
,Sequence,flow.Sequence,0_2_11,,completion,12,97294.90000000596,,,97295.40000000596,,97299,2021-10-28T08:29:59.211Z,97407.133,1635409561,full,ni_sequenzen,NI_Sequenzen,,,,,,,,,,,,,,
,Screen_1,canvas.Screen,0_2_12_0,,skipped,13,97299.70000000298,,,97299.70000000298,,97299.70000000298,2021-10-28T08:29:59.211Z,97407.133,1635409561,full,ni_sequenzen,NI_Sequenzen,,,,,,,,,,,,,,
,Screen_2,canvas.Screen,0_2_12_1,,skipped,13,97300.40000000596,,,97299.70000000298,,97300.5,2021-10-28T08:29:59.212Z,97407.133,1635409561,full,ni_sequenzen,NI_Sequenzen,,,,,,,,,,,,,,
,Screen_3,canvas.Screen,0_2_12_2,,skipped,13,97301,,,97299.70000000298,,97301.09999999404,2021-10-28T08:29:59.213Z,97407.133,1635409561,full,ni_sequenzen,NI_Sequenzen,,,,,,,,,,,,,,
,Screen_4,canvas.Screen,0_2_12_3,,skipped,13,97301.59999999404,,,97299.70000000298,,97301.59999999404,2021-10-28T08:29:59.213Z,97407.133,1635409561,full,ni_sequenzen,NI_Sequenzen,,,,,,,,,,,,,,
,Screen_5,canvas.Screen,0_2_12_4,,skipped,13,97302.09999999404,,,97299.70000000298,,97302.20000000298,2021-10-28T08:29:59.214Z,97407.133,1635409561,full,ni_sequenzen,NI_Sequenzen,,,,,,,,,,,,,,
,Screen_6,canvas.Screen,0_2_12_5,,skipped,13,97302.59999999404,,,97299.70000000298,,97302.70000000298,2021-10-28T08:29:59.214Z,97407.133,1635409561,full,ni_sequenzen,NI_Sequenzen,,,,,,,,,,,,,,
,Sequence,flow.Sequence,0_2_12,,completion,13,97299.29999999702,,,97299.70000000298,,97302.79999999702,2021-10-28T08:29:59.215Z,97407.133,1635409561,full,ni_sequenzen,NI_Sequenzen,,,,,,,,,,,,,,
,Screen_1,canvas.Screen,0_2_13_0,,skipped,14,97303.5,,,97303.59999999404,,97303.59999999404,2021-10-28T08:29:59.215Z,97407.133,1635409561,full,ni_sequenzen,NI_Sequenzen,,,,,,,,,,,,,,
,Screen_2,canvas.Screen,0_2_13_1,,skipped,14,97304,,,97303.59999999404,,97304.09999999404,2021-10-28T08:29:59.216Z,97407.133,1635409561,full,ni_sequenzen,NI_Sequenzen,,,,,,,,,,,,,,
,Screen_3,canvas.Screen,0_2_13_2,,skipped,14,97304.59999999404,,,97303.59999999404,,97304.70000000298,2021-10-28T08:29:59.216Z,97407.133,1635409561,full,ni_sequenzen,NI_Sequenzen,,,,,,,,,,,,,,
,Screen_4,canvas.Screen,0_2_13_3,,skipped,14,97305.09999999404,,,97303.59999999404,,97305.09999999404,2021-10-28T08:29:59.217Z,97407.133,1635409561,full,ni_sequenzen,NI_Sequenzen,,,,,,,,,,,,,,
,Screen_5,canvas.Screen,0_2_13_4,,skipped,14,97306.29999999702,,,97303.59999999404,,97306.40000000596,2021-10-28T08:29:59.218Z,97407.133,1635409561,full,ni_sequenzen,NI_Sequenzen,,,,,,,,,,,,,,
,Screen_6,canvas.Screen,0_2_13_5,,skipped,14,97306.90000000596,,,97303.59999999404,,97307,2021-10-28T08:29:59.219Z,97407.133,1635409561,full,ni_sequenzen,NI_Sequenzen,,,,,,,,,,,,,,
,Sequence,flow.Sequence,0_2_13,,completion,14,97303.09999999404,,,97303.59999999404,,97307.09999999404,2021-10-28T08:29:59.219Z,97407.133,1635409561,full,ni_sequenzen,NI_Sequenzen,,,,,,,,,,,,,,
,Screen_1,canvas.Screen,0_2_14_0,,skipped,15,97307.79999999702,,,97307.79999999702,,97307.79999999702,2021-10-28T08:29:59.220Z,97407.133,1635409561,full,ni_sequenzen,NI_Sequenzen,,,,,,,,,,,,,,
,Screen_2,canvas.Screen,0_2_14_1,,skipped,15,97308.5,,,97307.79999999702,,97308.59999999404,2021-10-28T08:29:59.220Z,97407.133,1635409561,full,ni_sequenzen,NI_Sequenzen,,,,,,,,,,,,,,
,Screen_3,canvas.Screen,0_2_14_2,,skipped,15,97309,,,97307.79999999702,,97309.09999999404,2021-10-28T08:29:59.221Z,97407.133,1635409561,full,ni_sequenzen,NI_Sequenzen,,,,,,,,,,,,,,
,Screen_4,canvas.Screen,0_2_14_3,,skipped,15,97309.79999999702,,,97307.79999999702,,97309.79999999702,2021-10-28T08:29:59.221Z,97407.133,1635409561,full,ni_sequenzen,NI_Sequenzen,,,,,,,,,,,,,,
,Screen_5,canvas.Screen,0_2_14_4,,skipped,15,97310.20000000298,,,97307.79999999702,,97310.29999999702,2021-10-28T08:29:59.222Z,97407.133,1635409561,full,ni_sequenzen,NI_Sequenzen,,,,,,,,,,,,,,
,Screen_6,canvas.Screen,0_2_14_5,,skipped,15,97310.79999999702,,,97307.79999999702,,97310.79999999702,2021-10-28T08:29:59.223Z,97407.133,1635409561,full,ni_sequenzen,NI_Sequenzen,,,,,,,,,,,,,,
,Sequence,flow.Sequence,0_2_14,,completion,15,97307.29999999702,,,97307.79999999702,,97310.90000000596,2021-10-28T08:29:59.223Z,97407.133,1635409561,full,ni_sequenzen,NI_Sequenzen,,,,,,,,,,,,,,
,Screen_1,canvas.Screen,0_2_15_0,,skipped,16,97311.59999999404,,,97311.59999999404,,97311.59999999404,2021-10-28T08:29:59.223Z,97407.133,1635409561,full,ni_sequenzen,NI_Sequenzen,,,,,,,,,,,,,,
,Screen_2,canvas.Screen,0_2_15_1,,skipped,16,97312.09999999404,,,97311.59999999404,,97312.20000000298,2021-10-28T08:29:59.224Z,97407.133,1635409561,full,ni_sequenzen,NI_Sequenzen,,,,,,,,,,,,,,
,Screen_3,canvas.Screen,0_2_15_2,,skipped,16,97312.59999999404,,,97311.59999999404,,97312.70000000298,2021-10-28T08:29:59.224Z,97407.133,1635409561,full,ni_sequenzen,NI_Sequenzen,,,,,,,,,,,,,,
,Screen_4,canvas.Screen,0_2_15_3,,skipped,16,97313.20000000298,,,97311.59999999404,,97313.20000000298,2021-10-28T08:29:59.225Z,97407.133,1635409561,full,ni_sequenzen,NI_Sequenzen,,,,,,,,,,,,,,
,Screen_5,canvas.Screen,0_2_15_4,,skipped,16,97313.70000000298,,,97311.59999999404,,97313.79999999702,2021-10-28T08:29:59.225Z,97407.133,1635409561,full,ni_sequenzen,NI_Sequenzen,,,,,,,,,,,,,,
,Screen_6,canvas.Screen,0_2_15_5,,skipped,16,97314.90000000596,,,97311.59999999404,,97314.90000000596,2021-10-28T08:29:59.227Z,97407.133,1635409561,full,ni_sequenzen,NI_Sequenzen,,,,,,,,,,,,,,
,Sequence,flow.Sequence,0_2_15,,completion,16,97311.20000000298,,,97311.59999999404,,97315,2021-10-28T08:29:59.227Z,97407.133,1635409561,full,ni_sequenzen,NI_Sequenzen,,,,,,,,,,,,,,
,Screen_1,canvas.Screen,0_2_16_0,,skipped,17,97315.70000000298,,,97315.70000000298,,97315.79999999702,2021-10-28T08:29:59.228Z,97407.133,1635409561,full,ni_sequenzen,NI_Sequenzen,,,,,,,,,,,,,,
,Screen_2,canvas.Screen,0_2_16_1,,skipped,17,97316.70000000298,,,97315.70000000298,,97316.79999999702,2021-10-28T08:29:59.228Z,97407.133,1635409561,full,ni_sequenzen,NI_Sequenzen,,,,,,,,,,,,,,
,Screen_3,canvas.Screen,0_2_16_2,,skipped,17,97317.29999999702,,,97315.70000000298,,97317.40000000596,2021-10-28T08:29:59.229Z,97407.133,1635409561,full,ni_sequenzen,NI_Sequenzen,,,,,,,,,,,,,,
,Screen_4,canvas.Screen,0_2_16_3,,skipped,17,97317.90000000596,,,97315.70000000298,,97317.90000000596,2021-10-28T08:29:59.230Z,97407.133,1635409561,full,ni_sequenzen,NI_Sequenzen,,,,,,,,,,,,,,
,Screen_5,canvas.Screen,0_2_16_4,,skipped,17,97318.5,,,97315.70000000298,,97318.5,2021-10-28T08:29:59.230Z,97407.133,1635409561,full,ni_sequenzen,NI_Sequenzen,,,,,,,,,,,,,,
,Screen_6,canvas.Screen,0_2_16_5,,skipped,17,97319,,,97315.70000000298,,97319,2021-10-28T08:29:59.231Z,97407.133,1635409561,full,ni_sequenzen,NI_Sequenzen,,,,,,,,,,,,,,
,Sequence,flow.Sequence,0_2_16,,completion,17,97315.29999999702,,,97315.70000000298,,97319,2021-10-28T08:29:59.231Z,97407.133,1635409561,full,ni_sequenzen,NI_Sequenzen,,,,,,,,,,,,,,
,Screen_1,canvas.Screen,0_2_17_0,,skipped,18,97319.79999999702,,,97319.79999999702,,97319.79999999702,2021-10-28T08:29:59.232Z,97407.133,1635409561,full,ni_sequenzen,NI_Sequenzen,,,,,,,,,,,,,,
,Screen_2,canvas.Screen,0_2_17_1,,skipped,18,97320.40000000596,,,97319.79999999702,,97320.40000000596,2021-10-28T08:29:59.232Z,97407.133,1635409561,full,ni_sequenzen,NI_Sequenzen,,,,,,,,,,,,,,
,Screen_3,canvas.Screen,0_2_17_2,,skipped,18,97320.90000000596,,,97319.79999999702,,97320.90000000596,2021-10-28T08:29:59.233Z,97407.133,1635409561,full,ni_sequenzen,NI_Sequenzen,,,,,,,,,,,,,,
,Screen_4,canvas.Screen,0_2_17_3,,skipped,18,97321.40000000596,,,97319.79999999702,,97321.5,2021-10-28T08:29:59.233Z,97407.133,1635409561,full,ni_sequenzen,NI_Sequenzen,,,,,,,,,,,,,,
,Screen_5,canvas.Screen,0_2_17_4,,skipped,18,97321.90000000596,,,97319.79999999702,,97322,2021-10-28T08:29:59.234Z,97407.133,1635409561,full,ni_sequenzen,NI_Sequenzen,,,,,,,,,,,,,,
,Screen_6,canvas.Screen,0_2_17_5,,skipped,18,97322.5,,,97319.79999999702,,97322.5,2021-10-28T08:29:59.234Z,97407.133,1635409561,full,ni_sequenzen,NI_Sequenzen,,,,,,,,,,,,,,
,Sequence,flow.Sequence,0_2_17,,completion,18,97319.29999999702,,,97319.79999999702,,97322.5,2021-10-28T08:29:59.234Z,97407.133,1635409561,full,ni_sequenzen,NI_Sequenzen,,,,,,,,,,,,,,
,Screen_1,canvas.Screen,0_2_18_0,,skipped,19,97323.90000000596,,,97323.90000000596,,97324,2021-10-28T08:29:59.236Z,97407.133,1635409561,full,ni_sequenzen,NI_Sequenzen,,,,,,,,,,,,,,
,Screen_2,canvas.Screen,0_2_18_1,,skipped,19,97324.59999999404,,,97323.90000000596,,97324.59999999404,2021-10-28T08:29:59.236Z,97407.133,1635409561,full,ni_sequenzen,NI_Sequenzen,,,,,,,,,,,,,,
,Screen_3,canvas.Screen,0_2_18_2,,skipped,19,97325.09999999404,,,97323.90000000596,,97325.20000000298,2021-10-28T08:29:59.237Z,97407.133,1635409561,full,ni_sequenzen,NI_Sequenzen,,,,,,,,,,,,,,
,Screen_4,canvas.Screen,0_2_18_3,,skipped,19,97325.59999999404,,,97323.90000000596,,97325.70000000298,2021-10-28T08:29:59.237Z,97407.133,1635409561,full,ni_sequenzen,NI_Sequenzen,,,,,,,,,,,,,,
,Screen_5,canvas.Screen,0_2_18_4,,skipped,19,97326.20000000298,,,97323.90000000596,,97326.20000000298,2021-10-28T08:29:59.238Z,97407.133,1635409561,full,ni_sequenzen,NI_Sequenzen,,,,,,,,,,,,,,
,Screen_6,canvas.Screen,0_2_18_5,,skipped,19,97326.79999999702,,,97323.90000000596,,97326.79999999702,2021-10-28T08:29:59.238Z,97407.133,1635409561,full,ni_sequenzen,NI_Sequenzen,,,,,,,,,,,,,,
,Sequence,flow.Sequence,0_2_18,,completion,19,97322.79999999702,,,97323.90000000596,,97326.90000000596,2021-10-28T08:29:59.239Z,97407.133,1635409561,full,ni_sequenzen,NI_Sequenzen,,,,,,,,,,,,,,
,Screen_1,canvas.Screen,0_2_19_0,,skipped,20,97327.59999999404,,,97327.59999999404,,97327.59999999404,2021-10-28T08:29:59.239Z,97407.133,1635409561,full,ni_sequenzen,NI_Sequenzen,,,,,,,,,,,,,,
,Screen_2,canvas.Screen,0_2_19_1,,skipped,20,97328.09999999404,,,97327.59999999404,,97328.09999999404,2021-10-28T08:29:59.240Z,97407.133,1635409561,full,ni_sequenzen,NI_Sequenzen,,,,,,,,,,,,,,
,Screen_3,canvas.Screen,0_2_19_2,,skipped,20,97328.59999999404,,,97327.59999999404,,97328.70000000298,2021-10-28T08:29:59.240Z,97407.133,1635409561,full,ni_sequenzen,NI_Sequenzen,,,,,,,,,,,,,,
,Screen_4,canvas.Screen,0_2_19_3,,skipped,20,97329.20000000298,,,97327.59999999404,,97329.20000000298,2021-10-28T08:29:59.241Z,97407.133,1635409561,full,ni_sequenzen,NI_Sequenzen,,,,,,,,,,,,,,
,Screen_5,canvas.Screen,0_2_19_4,,skipped,20,97329.70000000298,,,97327.59999999404,,97329.70000000298,2021-10-28T08:29:59.241Z,97407.133,1635409561,full,ni_sequenzen,NI_Sequenzen,,,,,,,,,,,,,,
,Screen_6,canvas.Screen,0_2_19_5,,skipped,20,97330.20000000298,,,97327.59999999404,,97330.29999999702,2021-10-28T08:29:59.242Z,97407.133,1635409561,full,ni_sequenzen,NI_Sequenzen,,,,,,,,,,,,,,
,Sequence,flow.Sequence,0_2_19,,completion,20,97327.20000000298,,,97327.59999999404,,97330.40000000596,2021-10-28T08:29:59.242Z,97407.133,1635409561,full,ni_sequenzen,NI_Sequenzen,,,,,,,,,,,,,,
,Screen_1,canvas.Screen,0_2_20_0,,skipped,21,97331,,,97331,,97331,2021-10-28T08:29:59.243Z,97407.133,1635409561,full,ni_sequenzen,NI_Sequenzen,,,,,,,,,,,,,,
,Screen_2,canvas.Screen,0_2_20_1,,skipped,21,97332.20000000298,,,97331,,97332.29999999702,2021-10-28T08:29:59.244Z,97407.133,1635409561,full,ni_sequenzen,NI_Sequenzen,,,,,,,,,,,,,,
,Screen_3,canvas.Screen,0_2_20_2,,skipped,21,97332.90000000596,,,97331,,97332.90000000596,2021-10-28T08:29:59.245Z,97407.133,1635409561,full,ni_sequenzen,NI_Sequenzen,,,,,,,,,,,,,,
,Screen_4,canvas.Screen,0_2_20_3,,skipped,21,97333.40000000596,,,97331,,97333.5,2021-10-28T08:29:59.245Z,97407.133,1635409561,full,ni_sequenzen,NI_Sequenzen,,,,,,,,,,,,,,
,Screen_5,canvas.Screen,0_2_20_4,,skipped,21,97333.90000000596,,,97331,,97334,2021-10-28T08:29:59.246Z,97407.133,1635409561,full,ni_sequenzen,NI_Sequenzen,,,,,,,,,,,,,,
,Screen_6,canvas.Screen,0_2_20_5,,skipped,21,97334.40000000596,,,97331,,97334.5,2021-10-28T08:29:59.246Z,97407.133,1635409561,full,ni_sequenzen,NI_Sequenzen,,,,,,,,,,,,,,
,Sequence,flow.Sequence,0_2_20,,completion,21,97330.59999999404,,,97331,,97334.59999999404,2021-10-28T08:29:59.246Z,97407.133,1635409561,full,ni_sequenzen,NI_Sequenzen,,,,,,,,,,,,,,
,Screen_1,canvas.Screen,0_2_21_0,,skipped,22,97335.29999999702,,,97335.29999999702,,97335.29999999702,2021-10-28T08:29:59.247Z,97407.133,1635409561,full,ni_sequenzen,NI_Sequenzen,,,,,,,,,,,,,,
,Screen_2,canvas.Screen,0_2_21_1,,skipped,22,97335.90000000596,,,97335.29999999702,,97335.90000000596,2021-10-28T08:29:59.248Z,97407.133,1635409561,full,ni_sequenzen,NI_Sequenzen,,,,,,,,,,,,,,
,Screen_3,canvas.Screen,0_2_21_2,,skipped,22,97336.40000000596,,,97335.29999999702,,97336.40000000596,2021-10-28T08:29:59.248Z,97407.133,1635409561,full,ni_sequenzen,NI_Sequenzen,,,,,,,,,,,,,,
,Screen_4,canvas.Screen,0_2_21_3,,skipped,22,97337.40000000596,,,97335.29999999702,,97337.40000000596,2021-10-28T08:29:59.249Z,97407.133,1635409561,full,ni_sequenzen,NI_Sequenzen,,,,,,,,,,,,,,
,Screen_5,canvas.Screen,0_2_21_4,,skipped,22,97338,,,97335.29999999702,,97338.09999999404,2021-10-28T08:29:59.250Z,97407.133,1635409561,full,ni_sequenzen,NI_Sequenzen,,,,,,,,,,,,,,
,Screen_6,canvas.Screen,0_2_21_5,,skipped,22,97338.59999999404,,,97335.29999999702,,97338.59999999404,2021-10-28T08:29:59.250Z,97407.133,1635409561,full,ni_sequenzen,NI_Sequenzen,,,,,,,,,,,,,,
,Sequence,flow.Sequence,0_2_21,,completion,22,97334.90000000596,,,97335.29999999702,,97338.70000000298,2021-10-28T08:29:59.250Z,97407.133,1635409561,full,ni_sequenzen,NI_Sequenzen,,,,,,,,,,,,,,
,Screen_1,canvas.Screen,0_2_22_0,,skipped,23,97339.59999999404,,,97339.59999999404,,97339.59999999404,2021-10-28T08:29:59.251Z,97407.133,1635409561,full,ni_sequenzen,NI_Sequenzen,,,,,,,,,,,,,,
,Screen_2,canvas.Screen,0_2_22_1,,skipped,23,97340.29999999702,,,97339.59999999404,,97340.29999999702,2021-10-28T08:29:59.252Z,97407.133,1635409561,full,ni_sequenzen,NI_Sequenzen,,,,,,,,,,,,,,
,Screen_3,canvas.Screen,0_2_22_2,,skipped,23,97341.5,,,97339.59999999404,,97341.5,2021-10-28T08:29:59.253Z,97407.133,1635409561,full,ni_sequenzen,NI_Sequenzen,,,,,,,,,,,,,,
,Screen_4,canvas.Screen,0_2_22_3,,skipped,23,97342.09999999404,,,97339.59999999404,,97342.09999999404,2021-10-28T08:29:59.254Z,97407.133,1635409561,full,ni_sequenzen,NI_Sequenzen,,,,,,,,,,,,,,
,Screen_5,canvas.Screen,0_2_22_4,,skipped,23,97342.70000000298,,,97339.59999999404,,97342.70000000298,2021-10-28T08:29:59.254Z,97407.133,1635409561,full,ni_sequenzen,NI_Sequenzen,,,,,,,,,,,,,,
,Screen_6,canvas.Screen,0_2_22_5,,skipped,23,97343.90000000596,,,97339.59999999404,,97344,2021-10-28T08:29:59.256Z,97407.133,1635409561,full,ni_sequenzen,NI_Sequenzen,,,,,,,,,,,,,,
,Sequence,flow.Sequence,0_2_22,,completion,23,97339,,,97339.59999999404,,97344.09999999404,2021-10-28T08:29:59.256Z,97407.133,1635409561,full,ni_sequenzen,NI_Sequenzen,,,,,,,,,,,,,,
,Screen_1,canvas.Screen,0_2_23_0,,skipped,24,97344.90000000596,,,97344.90000000596,,97344.90000000596,2021-10-28T08:29:59.257Z,97407.133,1635409561,full,ni_sequenzen,NI_Sequenzen,,,,,,,,,,,,,,
,Screen_2,canvas.Screen,0_2_23_1,,skipped,24,97345.40000000596,,,97344.90000000596,,97345.40000000596,2021-10-28T08:29:59.257Z,97407.133,1635409561,full,ni_sequenzen,NI_Sequenzen,,,,,,,,,,,,,,
,Screen_3,canvas.Screen,0_2_23_2,,skipped,24,97345.90000000596,,,97344.90000000596,,97345.90000000596,2021-10-28T08:29:59.258Z,97407.133,1635409561,full,ni_sequenzen,NI_Sequenzen,,,,,,,,,,,,,,
,Screen_4,canvas.Screen,0_2_23_3,,skipped,24,97346.5,,,97344.90000000596,,97346.5,2021-10-28T08:29:59.258Z,97407.133,1635409561,full,ni_sequenzen,NI_Sequenzen,,,,,,,,,,,,,,
,Screen_5,canvas.Screen,0_2_23_4,,skipped,24,97347,,,97344.90000000596,,97347,2021-10-28T08:29:59.259Z,97407.133,1635409561,full,ni_sequenzen,NI_Sequenzen,,,,,,,,,,,,,,
,Screen_6,canvas.Screen,0_2_23_5,,skipped,24,97347.5,,,97344.90000000596,,97347.5,2021-10-28T08:29:59.259Z,97407.133,1635409561,full,ni_sequenzen,NI_Sequenzen,,,,,,,,,,,,,,
,Sequence,flow.Sequence,0_2_23,,completion,24,97344.29999999702,,,97344.90000000596,,97347.59999999404,2021-10-28T08:29:59.259Z,97407.133,1635409561,full,ni_sequenzen,NI_Sequenzen,,,,,,,,,,,,,,
,Screen_1,canvas.Screen,0_2_24_0,,skipped,25,97348.40000000596,,,97348.40000000596,,97348.40000000596,2021-10-28T08:29:59.260Z,97407.133,1635409561,full,ni_sequenzen,NI_Sequenzen,,,,,,,,,,,,,,
,Screen_2,canvas.Screen,0_2_24_1,,skipped,25,97349,,,97348.40000000596,,97349,2021-10-28T08:29:59.261Z,97407.133,1635409561,full,ni_sequenzen,NI_Sequenzen,,,,,,,,,,,,,,
,Screen_3,canvas.Screen,0_2_24_2,,skipped,25,97349.5,,,97348.40000000596,,97349.5,2021-10-28T08:29:59.261Z,97407.133,1635409561,full,ni_sequenzen,NI_Sequenzen,,,,,,,,,,,,,,
,Screen_4,canvas.Screen,0_2_24_3,,skipped,25,97350,,,97348.40000000596,,97350.09999999404,2021-10-28T08:29:59.262Z,97407.133,1635409561,full,ni_sequenzen,NI_Sequenzen,,,,,,,,,,,,,,
,Screen_5,canvas.Screen,0_2_24_4,,skipped,25,97350.59999999404,,,97348.40000000596,,97350.59999999404,2021-10-28T08:29:59.262Z,97407.133,1635409561,full,ni_sequenzen,NI_Sequenzen,,,,,,,,,,,,,,
,Screen_6,canvas.Screen,0_2_24_5,,skipped,25,97351.09999999404,,,97348.40000000596,,97351.20000000298,2021-10-28T08:29:59.263Z,97407.133,1635409561,full,ni_sequenzen,NI_Sequenzen,,,,,,,,,,,,,,
,Sequence,flow.Sequence,0_2_24,,completion,25,97347.79999999702,,,97348.40000000596,,97351.29999999702,2021-10-28T08:29:59.263Z,97407.133,1635409561,full,ni_sequenzen,NI_Sequenzen,,,,,,,,,,,,,,
,Screen_1,canvas.Screen,0_2_25_0,,skipped,26,97352,,,97352,,97352,2021-10-28T08:29:59.264Z,97407.133,1635409561,full,ni_sequenzen,NI_Sequenzen,,,,,,,,,,,,,,
,Screen_2,canvas.Screen,0_2_25_1,,skipped,26,97352.40000000596,,,97352,,97352.5,2021-10-28T08:29:59.264Z,97407.133,1635409561,full,ni_sequenzen,NI_Sequenzen,,,,,,,,,,,,,,
,Screen_3,canvas.Screen,0_2_25_2,,skipped,26,97353.70000000298,,,97352,,97353.79999999702,2021-10-28T08:29:59.265Z,97407.133,1635409561,full,ni_sequenzen,NI_Sequenzen,,,,,,,,,,,,,,
,Screen_4,canvas.Screen,0_2_25_3,,skipped,26,97354.29999999702,,,97352,,97354.29999999702,2021-10-28T08:29:59.266Z,97407.133,1635409561,full,ni_sequenzen,NI_Sequenzen,,,,,,,,,,,,,,
,Screen_5,canvas.Screen,0_2_25_4,,skipped,26,97354.79999999702,,,97352,,97354.79999999702,2021-10-28T08:29:59.267Z,97407.133,1635409561,full,ni_sequenzen,NI_Sequenzen,,,,,,,,,,,,,,
,Screen_6,canvas.Screen,0_2_25_5,,skipped,26,97355.5,,,97352,,97355.5,2021-10-28T08:29:59.267Z,97407.133,1635409561,full,ni_sequenzen,NI_Sequenzen,,,,,,,,,,,,,,
,Sequence,flow.Sequence,0_2_25,,completion,26,97351.5,,,97352,,97355.5,2021-10-28T08:29:59.267Z,97407.133,1635409561,full,ni_sequenzen,NI_Sequenzen,,,,,,,,,,,,,,
,Screen_1,canvas.Screen,0_2_26_0,,skipped,27,97356.59999999404,,,97356.59999999404,,97356.59999999404,2021-10-28T08:29:59.268Z,97407.133,1635409561,full,ni_sequenzen,NI_Sequenzen,,,,,,,,,,,,,,
,Screen_2,canvas.Screen,0_2_26_1,,skipped,27,97357.09999999404,,,97356.59999999404,,97357.29999999702,2021-10-28T08:29:59.269Z,97407.133,1635409561,full,ni_sequenzen,NI_Sequenzen,,,,,,,,,,,,,,
,Screen_3,canvas.Screen,0_2_26_2,,skipped,27,97357.70000000298,,,97356.59999999404,,97357.70000000298,2021-10-28T08:29:59.269Z,97407.133,1635409561,full,ni_sequenzen,NI_Sequenzen,,,,,,,,,,,,,,
,Screen_4,canvas.Screen,0_2_26_3,,skipped,27,97358.20000000298,,,97356.59999999404,,97358.29999999702,2021-10-28T08:29:59.270Z,97407.133,1635409561,full,ni_sequenzen,NI_Sequenzen,,,,,,,,,,,,,,
,Screen_5,canvas.Screen,0_2_26_4,,skipped,27,97358.70000000298,,,97356.59999999404,,97358.79999999702,2021-10-28T08:29:59.271Z,97407.133,1635409561,full,ni_sequenzen,NI_Sequenzen,,,,,,,,,,,,,,
,Screen_6,canvas.Screen,0_2_26_5,,skipped,27,97359.29999999702,,,97356.59999999404,,97359.40000000596,2021-10-28T08:29:59.271Z,97407.133,1635409561,full,ni_sequenzen,NI_Sequenzen,,,,,,,,,,,,,,
,Sequence,flow.Sequence,0_2_26,,completion,27,97355.90000000596,,,97356.59999999404,,97359.40000000596,2021-10-28T08:29:59.271Z,97407.133,1635409561,full,ni_sequenzen,NI_Sequenzen,,,,,,,,,,,,,,
,Screen_1,canvas.Screen,0_2_27_0,,skipped,28,97360.09999999404,,,97360.09999999404,,97360.20000000298,2021-10-28T08:29:59.272Z,97407.133,1635409561,full,ni_sequenzen,NI_Sequenzen,,,,,,,,,,,,,,
,Screen_2,canvas.Screen,0_2_27_1,,skipped,28,97360.59999999404,,,97360.09999999404,,97360.70000000298,2021-10-28T08:29:59.272Z,97407.133,1635409561,full,ni_sequenzen,NI_Sequenzen,,,,,,,,,,,,,,
,Screen_3,canvas.Screen,0_2_27_2,,skipped,28,97361.20000000298,,,97360.09999999404,,97361.20000000298,2021-10-28T08:29:59.273Z,97407.133,1635409561,full,ni_sequenzen,NI_Sequenzen,,,,,,,,,,,,,,
,Screen_4,canvas.Screen,0_2_27_3,,skipped,28,97361.59999999404,,,97360.09999999404,,97361.70000000298,2021-10-28T08:29:59.273Z,97407.133,1635409561,full,ni_sequenzen,NI_Sequenzen,,,,,,,,,,,,,,
,Screen_5,canvas.Screen,0_2_27_4,,skipped,28,97362.20000000298,,,97360.09999999404,,97362.29999999702,2021-10-28T08:29:59.274Z,97407.133,1635409561,full,ni_sequenzen,NI_Sequenzen,,,,,,,,,,,,,,
,Screen_6,canvas.Screen,0_2_27_5,,skipped,28,97363.29999999702,,,97360.09999999404,,97363.40000000596,2021-10-28T08:29:59.275Z,97407.133,1635409561,full,ni_sequenzen,NI_Sequenzen,,,,,,,,,,,,,,
,Sequence,flow.Sequence,0_2_27,,completion,28,97359.70000000298,,,97360.09999999404,,97363.40000000596,2021-10-28T08:29:59.275Z,97407.133,1635409561,full,ni_sequenzen,NI_Sequenzen,,,,,,,,,,,,,,
,Screen_1,canvas.Screen,0_2_28_0,,skipped,29,97364.29999999702,,,97364.29999999702,,97364.29999999702,2021-10-28T08:29:59.276Z,97407.133,1635409561,full,ni_sequenzen,NI_Sequenzen,,,,,,,,,,,,,,
,Screen_2,canvas.Screen,0_2_28_1,,skipped,29,97364.90000000596,,,97364.29999999702,,97364.90000000596,2021-10-28T08:29:59.277Z,97407.133,1635409561,full,ni_sequenzen,NI_Sequenzen,,,,,,,,,,,,,,
,Screen_3,canvas.Screen,0_2_28_2,,skipped,29,97365.5,,,97364.29999999702,,97365.59999999404,2021-10-28T08:29:59.277Z,97407.133,1635409561,full,ni_sequenzen,NI_Sequenzen,,,,,,,,,,,,,,
,Screen_4,canvas.Screen,0_2_28_3,,skipped,29,97366.09999999404,,,97364.29999999702,,97366.20000000298,2021-10-28T08:29:59.278Z,97407.133,1635409561,full,ni_sequenzen,NI_Sequenzen,,,,,,,,,,,,,,
,Screen_5,canvas.Screen,0_2_28_4,,skipped,29,97366.59999999404,,,97364.29999999702,,97366.70000000298,2021-10-28T08:29:59.278Z,97407.133,1635409561,full,ni_sequenzen,NI_Sequenzen,,,,,,,,,,,,,,
,Screen_6,canvas.Screen,0_2_28_5,,skipped,29,97367.20000000298,,,97364.29999999702,,97367.20000000298,2021-10-28T08:29:59.279Z,97407.133,1635409561,full,ni_sequenzen,NI_Sequenzen,,,,,,,,,,,,,,
,Sequence,flow.Sequence,0_2_28,,completion,29,97363.70000000298,,,97364.29999999702,,97367.29999999702,2021-10-28T08:29:59.279Z,97407.133,1635409561,full,ni_sequenzen,NI_Sequenzen,,,,,,,,,,,,,,
,Screen_1,canvas.Screen,0_2_29_0,,skipped,30,97368.09999999404,,,97368.09999999404,,97368.09999999404,2021-10-28T08:29:59.280Z,97407.133,1635409561,full,ni_sequenzen,NI_Sequenzen,,,,,,,,,,,,,,
,Screen_2,canvas.Screen,0_2_29_1,,skipped,30,97368.59999999404,,,97368.09999999404,,97368.70000000298,2021-10-28T08:29:59.280Z,97407.133,1635409561,full,ni_sequenzen,NI_Sequenzen,,,,,,,,,,,,,,
,Screen_3,canvas.Screen,0_2_29_2,,skipped,30,97369.09999999404,,,97368.09999999404,,97369.20000000298,2021-10-28T08:29:59.281Z,97407.133,1635409561,full,ni_sequenzen,NI_Sequenzen,,,,,,,,,,,,,,
,Screen_4,canvas.Screen,0_2_29_3,,skipped,30,97369.59999999404,,,97368.09999999404,,97369.70000000298,2021-10-28T08:29:59.281Z,97407.133,1635409561,full,ni_sequenzen,NI_Sequenzen,,,,,,,,,,,,,,
,Screen_5,canvas.Screen,0_2_29_4,,skipped,30,97370.20000000298,,,97368.09999999404,,97370.20000000298,2021-10-28T08:29:59.282Z,97407.133,1635409561,full,ni_sequenzen,NI_Sequenzen,,,,,,,,,,,,,,
,Screen_6,canvas.Screen,0_2_29_5,,skipped,30,97370.70000000298,,,97368.09999999404,,97370.70000000298,2021-10-28T08:29:59.282Z,97407.133,1635409561,full,ni_sequenzen,NI_Sequenzen,,,,,,,,,,,,,,
,Sequence,flow.Sequence,0_2_29,,completion,30,97367.59999999404,,,97368.09999999404,,97370.79999999702,2021-10-28T08:29:59.282Z,97407.133,1635409561,full,ni_sequenzen,NI_Sequenzen,,,,,,,,,,,,,,
,Instructions_II,flow.Loop,0_2,,completion,,61710,61700.769,61717.444,97368.09999999404,35650.65599999404,97370.90000000596,2021-10-28T08:29:59.283Z,97407.133,1635409561,full,ni_sequenzen,NI_Sequenzen,,,,,,,,,,,,,,
,Move,canvas.Screen,0_3_0_0_0_0,down,response,,97397.09999999404,97391.102,97407.133,106118,8710.866999999998,106118.59999999404,2021-10-28T08:30:08.030Z,106138.006,1635409561,full,ni_sequenzen,NI_Sequenzen,1,0,,,,,,,,,,,,
,Move,canvas.Screen,0_3_0_0_0_1,left,response,,106124.59999999404,106122.414,106138.006,109283.20000000298,3145.1940000029863,109284.79999999702,2021-10-28T08:30:11.199Z,109303.837,1635409561,full,ni_sequenzen,NI_Sequenzen,2,0,,,,,,,,,,,,
,Move,canvas.Screen,0_3_0_0_0_2,down,response,,109293,109287.487,109303.837,110303.20000000298,999.3630000029807,110304.40000000596,2021-10-28T08:30:12.218Z,110320.138,1635409561,full,ni_sequenzen,NI_Sequenzen,3,0,,,,,,,,,,,,
,Move,canvas.Screen,0_3_0_0_0_3,left,response,,110309.79999999702,110303.624,110320.138,111183,862.8619999999937,111183.5,2021-10-28T08:30:13.097Z,111219.879,1635409561,full,ni_sequenzen,NI_Sequenzen,4,0,,,,,,,,,,,,
,Move,canvas.Screen,0_3_0_0_0_4,-999,skipped,,111186,,,111183,,111186.09999999404,2021-10-28T08:30:13.100Z,111219.879,1635409561,full,ni_sequenzen,NI_Sequenzen,5,0,,,,,,,,,,,,
,Move,canvas.Screen,0_3_0_0_0_5,-999,skipped,,111188.79999999702,,,111183,,111188.90000000596,2021-10-28T08:30:13.103Z,111219.879,1635409561,full,ni_sequenzen,NI_Sequenzen,6,0,,,,,,,,,,,,
,Move,canvas.Screen,0_3_0_0_0_6,-999,skipped,,111192.09999999404,,,111183,,111192.20000000298,2021-10-28T08:30:13.106Z,111219.879,1635409561,full,ni_sequenzen,NI_Sequenzen,7,0,,,,,,,,,,,,
,Move,canvas.Screen,0_3_0_0_0_7,-999,skipped,,111194.5,,,111183,,111194.5,2021-10-28T08:30:13.108Z,111219.879,1635409561,full,ni_sequenzen,NI_Sequenzen,8,0,,,,,,,,,,,,
,Move,canvas.Screen,0_3_0_0_0_8,-999,skipped,,111196.79999999702,,,111183,,111196.79999999702,2021-10-28T08:30:13.111Z,111219.879,1635409561,full,ni_sequenzen,NI_Sequenzen,9,0,,,,,,,,,,,,
,Move,canvas.Screen,0_3_0_0_0_9,-999,skipped,,111198.79999999702,,,111183,,111198.79999999702,2021-10-28T08:30:13.113Z,111219.879,1635409561,full,ni_sequenzen,NI_Sequenzen,10,0,,,,,,,,,,,,
,Move,canvas.Screen,0_3_0_0_0_10,-999,skipped,,111200.29999999702,,,111183,,111200.29999999702,2021-10-28T08:30:13.114Z,111219.879,1635409561,full,ni_sequenzen,NI_Sequenzen,11,0,,,,,,,,,,,,
,Move,canvas.Screen,0_3_0_0_0_11,-999,skipped,,111202,,,111183,,111202.20000000298,2021-10-28T08:30:13.116Z,111219.879,1635409561,full,ni_sequenzen,NI_Sequenzen,12,0,,,,,,,,,,,,
,Move,canvas.Screen,0_3_0_0_0_12,-999,skipped,,111204.40000000596,,,111183,,111204.5,2021-10-28T08:30:13.118Z,111219.879,1635409561,full,ni_sequenzen,NI_Sequenzen,13,0,,,,,,,,,,,,
,Move,canvas.Screen,0_3_0_0_0_13,-999,skipped,,111205.90000000596,,,111183,,111206,2021-10-28T08:30:13.120Z,111219.879,1635409561,full,ni_sequenzen,NI_Sequenzen,14,0,,,,,,,,,,,,
,Move,canvas.Screen,0_3_0_0_0_14,-999,skipped,,111208.29999999702,,,111183,,111208.29999999702,2021-10-28T08:30:13.122Z,111219.879,1635409561,full,ni_sequenzen,NI_Sequenzen,15,0,,,,,,,,,,,,
,Loop,flow.Loop,0_3_0_0_0,-999,completion,,97391.70000000298,97391.102,97407.133,111183,13775.866999999998,111208.5,2021-10-28T08:30:13.122Z,111219.879,1635409561,full,ni_sequenzen,NI_Sequenzen,,0,,,,,,,,,,,,
,Feedback,canvas.Screen,0_3_0_0_1,,timeout,,111211.20000000298,111203.347,111219.879,115202.112,3998.8340000000026,115202.59999999404,2021-10-28T08:30:17.116Z,115218.713,1635409561,full,ni_sequenzen,NI_Sequenzen,,0,,,,,,,,,,,,
,Trial,flow.Sequence,0_3_0_0,,completion,,97383.20000000298,97391.102,97407.133,115202.112,17794.978999999992,115202.70000000298,2021-10-28T08:30:17.116Z,115235.404,1635409561,full,ni_sequenzen,NI_Sequenzen,,0,,,,,,,,,,,,
,Move,canvas.Screen,0_3_0_1_0_0,right,response,,115214.59999999404,115218.713,115235.404,120784.79999999702,5549.395999997025,120785.09999999404,2021-10-28T08:30:22.699Z,120800.453,1635409561,full,ni_sequenzen,NI_Sequenzen,1,1,,,,,,,,,,,,
,Move,canvas.Screen,0_3_0_1_0_1,down,response,,120787.40000000596,120784.491,120800.453,121246.40000000596,445.9470000059664,121247,2021-10-28T08:30:23.161Z,121267.014,1635409561,full,ni_sequenzen,NI_Sequenzen,2,1,,,,,,,,,,,,
,Move,canvas.Screen,0_3_0_1_0_2,right,response,,121251.29999999702,121250.403,121267.014,122105.70000000298,838.6860000029847,122106.70000000298,2021-10-28T08:30:24.020Z,122116.745,1635409561,full,ni_sequenzen,NI_Sequenzen,3,1,,,,,,,,,,,,
,Move,canvas.Screen,0_3_0_1_0_3,down,response,,122112.5,122100.228,122116.745,122504.90000000596,388.1550000059651,122505.29999999702,2021-10-28T08:30:24.419Z,122533.332,1635409561,full,ni_sequenzen,NI_Sequenzen,4,1,,,,,,,,,,,,
,Move,canvas.Screen,0_3_0_1_0_4,-999,skipped,,122507.70000000298,,,122504.90000000596,,122507.70000000298,2021-10-28T08:30:24.421Z,122533.332,1635409561,full,ni_sequenzen,NI_Sequenzen,5,1,,,,,,,,,,,,
,Move,canvas.Screen,0_3_0_1_0_5,-999,skipped,,122509.70000000298,,,122504.90000000596,,122509.70000000298,2021-10-28T08:30:24.423Z,122533.332,1635409561,full,ni_sequenzen,NI_Sequenzen,6,1,,,,,,,,,,,,
,Move,canvas.Screen,0_3_0_1_0_6,-999,skipped,,122511.5,,,122504.90000000596,,122511.59999999404,2021-10-28T08:30:24.425Z,122533.332,1635409561,full,ni_sequenzen,NI_Sequenzen,7,1,,,,,,,,,,,,
,Move,canvas.Screen,0_3_0_1_0_7,-999,skipped,,122514.09999999404,,,122504.90000000596,,122514.20000000298,2021-10-28T08:30:24.428Z,122533.332,1635409561,full,ni_sequenzen,NI_Sequenzen,8,1,,,,,,,,,,,,
,Move,canvas.Screen,0_3_0_1_0_8,-999,skipped,,122515.79999999702,,,122504.90000000596,,122515.90000000596,2021-10-28T08:30:24.430Z,122533.332,1635409561,full,ni_sequenzen,NI_Sequenzen,9,1,,,,,,,,,,,,
,Move,canvas.Screen,0_3_0_1_0_9,-999,skipped,,122518.09999999404,,,122504.90000000596,,122518.20000000298,2021-10-28T08:30:24.432Z,122533.332,1635409561,full,ni_sequenzen,NI_Sequenzen,10,1,,,,,,,,,,,,
,Move,canvas.Screen,0_3_0_1_0_10,-999,skipped,,122520.79999999702,,,122504.90000000596,,122520.79999999702,2021-10-28T08:30:24.435Z,122533.332,1635409561,full,ni_sequenzen,NI_Sequenzen,11,1,,,,,,,,,,,,
,Move,canvas.Screen,0_3_0_1_0_11,-999,skipped,,122522.20000000298,,,122504.90000000596,,122522.20000000298,2021-10-28T08:30:24.436Z,122533.332,1635409561,full,ni_sequenzen,NI_Sequenzen,12,1,,,,,,,,,,,,
,Move,canvas.Screen,0_3_0_1_0_12,-999,skipped,,122523.5,,,122504.90000000596,,122523.59999999404,2021-10-28T08:30:24.437Z,122533.332,1635409561,full,ni_sequenzen,NI_Sequenzen,13,1,,,,,,,,,,,,
,Move,canvas.Screen,0_3_0_1_0_13,-999,skipped,,122524.90000000596,,,122504.90000000596,,122525,2021-10-28T08:30:24.439Z,122533.332,1635409561,full,ni_sequenzen,NI_Sequenzen,14,1,,,,,,,,,,,,
,Move,canvas.Screen,0_3_0_1_0_14,-999,skipped,,122527.20000000298,,,122504.90000000596,,122527.29999999702,2021-10-28T08:30:24.441Z,122533.332,1635409561,full,ni_sequenzen,NI_Sequenzen,15,1,,,,,,,,,,,,
,Loop,flow.Loop,0_3_0_1_0,-999,completion,,115211.79999999702,115218.713,115235.404,122504.90000000596,7269.4960000059655,122527.40000000596,2021-10-28T08:30:24.441Z,122533.332,1635409561,full,ni_sequenzen,NI_Sequenzen,,1,,,,,,,,,,,,
,Feedback,canvas.Screen,0_3_0_1_1,,timeout,,122529,122516.703,122533.332,126515.505,3998.824000000008,126516,2021-10-28T08:30:28.430Z,126532.156,1635409561,full,ni_sequenzen,NI_Sequenzen,,1,,,,,,,,,,,,
,Trial,flow.Sequence,0_3_0_1,,completion,,115202.90000000596,115218.713,115235.404,126515.505,11280.10100000001,126516.09999999404,2021-10-28T08:30:28.430Z,126548.831,1635409561,full,ni_sequenzen,NI_Sequenzen,,1,,,,,,,,,,,,
,Move,canvas.Screen,0_3_0_2_0_0,right,response,,126529.20000000298,126532.156,126548.831,129955.59999999404,3406.768999994034,129956,2021-10-28T08:30:31.870Z,129964.503,1635409561,full,ni_sequenzen,NI_Sequenzen,1,2,,,,,,,,,,,,
,Move,canvas.Screen,0_3_0_2_0_1,down,response,,129958.59999999404,129948.301,129964.503,130347.20000000298,382.69700000298326,130348.5,2021-10-28T08:30:32.262Z,130364.409,1635409561,full,ni_sequenzen,NI_Sequenzen,2,2,,,,,,,,,,,,
,Move,canvas.Screen,0_3_0_2_0_2,right,response,,130352.70000000298,130347.797,130364.409,130858.70000000298,494.2910000029806,130859.70000000298,2021-10-28T08:30:32.773Z,130880.919,1635409561,full,ni_sequenzen,NI_Sequenzen,3,2,,,,,,,,,,,,
,Move,canvas.Screen,0_3_0_2_0_3,down,response,,130864.40000000596,130864.342,130880.919,131172.70000000298,291.7810000029858,131173.20000000298,2021-10-28T08:30:33.087Z,131197.565,1635409561,full,ni_sequenzen,NI_Sequenzen,4,2,,,,,,,,,,,,
,Move,canvas.Screen,0_3_0_2_0_4,-999,skipped,,131175.90000000596,,,131172.70000000298,,131175.90000000596,2021-10-28T08:30:33.090Z,131197.565,1635409561,full,ni_sequenzen,NI_Sequenzen,5,2,,,,,,,,,,,,
,Move,canvas.Screen,0_3_0_2_0_5,-999,skipped,,131177.79999999702,,,131172.70000000298,,131177.90000000596,2021-10-28T08:30:33.092Z,131197.565,1635409561,full,ni_sequenzen,NI_Sequenzen,6,2,,,,,,,,,,,,
,Move,canvas.Screen,0_3_0_2_0_6,-999,skipped,,131179.20000000298,,,131172.70000000298,,131179.29999999702,2021-10-28T08:30:33.093Z,131197.565,1635409561,full,ni_sequenzen,NI_Sequenzen,7,2,,,,,,,,,,,,
,Move,canvas.Screen,0_3_0_2_0_7,-999,skipped,,131181.20000000298,,,131172.70000000298,,131181.20000000298,2021-10-28T08:30:33.095Z,131197.565,1635409561,full,ni_sequenzen,NI_Sequenzen,8,2,,,,,,,,,,,,
,Move,canvas.Screen,0_3_0_2_0_8,-999,skipped,,131182.5,,,131172.70000000298,,131182.5,2021-10-28T08:30:33.096Z,131197.565,1635409561,full,ni_sequenzen,NI_Sequenzen,9,2,,,,,,,,,,,,
,Move,canvas.Screen,0_3_0_2_0_9,-999,skipped,,131184,,,131172.70000000298,,131184.09999999404,2021-10-28T08:30:33.098Z,131197.565,1635409561,full,ni_sequenzen,NI_Sequenzen,10,2,,,,,,,,,,,,
,Move,canvas.Screen,0_3_0_2_0_10,-999,skipped,,131186,,,131172.70000000298,,131186.09999999404,2021-10-28T08:30:33.100Z,131197.565,1635409561,full,ni_sequenzen,NI_Sequenzen,11,2,,,,,,,,,,,,
,Move,canvas.Screen,0_3_0_2_0_11,-999,skipped,,131187.40000000596,,,131172.70000000298,,131187.40000000596,2021-10-28T08:30:33.101Z,131197.565,1635409561,full,ni_sequenzen,NI_Sequenzen,12,2,,,,,,,,,,,,
,Move,canvas.Screen,0_3_0_2_0_12,-999,skipped,,131188.70000000298,,,131172.70000000298,,131188.79999999702,2021-10-28T08:30:33.103Z,131197.565,1635409561,full,ni_sequenzen,NI_Sequenzen,13,2,,,,,,,,,,,,
,Move,canvas.Screen,0_3_0_2_0_13,-999,skipped,,131190.29999999702,,,131172.70000000298,,131190.29999999702,2021-10-28T08:30:33.104Z,131197.565,1635409561,full,ni_sequenzen,NI_Sequenzen,14,2,,,,,,,,,,,,
,Move,canvas.Screen,0_3_0_2_0_14,-999,skipped,,131192.09999999404,,,131172.70000000298,,131192.20000000298,2021-10-28T08:30:33.106Z,131197.565,1635409561,full,ni_sequenzen,NI_Sequenzen,15,2,,,,,,,,,,,,
,Loop,flow.Loop,0_3_0_2_0,-999,completion,,126526.40000000596,126532.156,126548.831,131172.70000000298,4623.869000002975,131192.29999999702,2021-10-28T08:30:33.106Z,131197.565,1635409561,full,ni_sequenzen,NI_Sequenzen,,2,,,,,,,,,,,,
,Feedback,canvas.Screen,0_3_0_2_1,,timeout,,131193.5,131180.895,131197.565,135179.698,3998.8310000000056,135180,2021-10-28T08:30:37.094Z,135196.396,1635409561,full,ni_sequenzen,NI_Sequenzen,,2,,,,,,,,,,,,
,Trial,flow.Sequence,0_3_0_2,,completion,,126516.20000000298,126532.156,126548.831,135179.698,8630.866999999998,135180.20000000298,2021-10-28T08:30:37.094Z,135213.016,1635409561,full,ni_sequenzen,NI_Sequenzen,,2,,,,,,,,,,,,
,Move,canvas.Screen,0_3_0_3_0_0,right,response,,135192.20000000298,135196.396,135213.016,136648.70000000298,1435.684000002977,136649.79999999702,2021-10-28T08:30:38.564Z,136662.621,1635409561,full,ni_sequenzen,NI_Sequenzen,1,3,,,,,,,,,,,,
,Move,canvas.Screen,0_3_0_3_0_1,down,response,,136656.5,136646.131,136662.621,136972.79999999702,310.17899999700603,136973.90000000596,2021-10-28T08:30:38.888Z,136995.845,1635409561,full,ni_sequenzen,NI_Sequenzen,2,3,,,,,,,,,,,,
,Move,canvas.Screen,0_3_0_3_0_2,right,response,,136980.79999999702,136979.193,136995.845,137376.40000000596,380.5550000059593,137377.40000000596,2021-10-28T08:30:39.291Z,137395.794,1635409561,full,ni_sequenzen,NI_Sequenzen,3,3,,,,,,,,,,,,
,Move,canvas.Screen,0_3_0_3_0_3,down,response,,137382.90000000596,137379.144,137395.794,137713.59999999404,317.8059999940451,137714.70000000298,2021-10-28T08:30:39.628Z,137745.658,1635409561,full,ni_sequenzen,NI_Sequenzen,4,3,,,,,,,,,,,,
,Move,canvas.Screen,0_3_0_3_0_4,-999,skipped,,137721.59999999404,,,137713.59999999404,,137721.90000000596,2021-10-28T08:30:39.636Z,137745.658,1635409561,full,ni_sequenzen,NI_Sequenzen,5,3,,,,,,,,,,,,
,Move,canvas.Screen,0_3_0_3_0_5,-999,skipped,,137727.09999999404,,,137713.59999999404,,137727.20000000298,2021-10-28T08:30:39.641Z,137745.658,1635409561,full,ni_sequenzen,NI_Sequenzen,6,3,,,,,,,,,,,,
,Move,canvas.Screen,0_3_0_3_0_6,-999,skipped,,137729,,,137713.59999999404,,137729.09999999404,2021-10-28T08:30:39.643Z,137745.658,1635409561,full,ni_sequenzen,NI_Sequenzen,7,3,,,,,,,,,,,,
,Move,canvas.Screen,0_3_0_3_0_7,-999,skipped,,137730.5,,,137713.59999999404,,137730.5,2021-10-28T08:30:39.644Z,137745.658,1635409561,full,ni_sequenzen,NI_Sequenzen,8,3,,,,,,,,,,,,
,Move,canvas.Screen,0_3_0_3_0_8,-999,skipped,,137731.70000000298,,,137713.59999999404,,137731.79999999702,2021-10-28T08:30:39.646Z,137745.658,1635409561,full,ni_sequenzen,NI_Sequenzen,9,3,,,,,,,,,,,,
,Move,canvas.Screen,0_3_0_3_0_9,-999,skipped,,137733.09999999404,,,137713.59999999404,,137733.09999999404,2021-10-28T08:30:39.647Z,137745.658,1635409561,full,ni_sequenzen,NI_Sequenzen,10,3,,,,,,,,,,,,
,Move,canvas.Screen,0_3_0_3_0_10,-999,skipped,,137734.90000000596,,,137713.59999999404,,137735,2021-10-28T08:30:39.649Z,137745.658,1635409561,full,ni_sequenzen,NI_Sequenzen,11,3,,,,,,,,,,,,
,Move,canvas.Screen,0_3_0_3_0_11,-999,skipped,,137736.29999999702,,,137713.59999999404,,137736.29999999702,2021-10-28T08:30:39.650Z,137745.658,1635409561,full,ni_sequenzen,NI_Sequenzen,12,3,,,,,,,,,,,,
,Move,canvas.Screen,0_3_0_3_0_12,-999,skipped,,137737.5,,,137713.59999999404,,137737.70000000298,2021-10-28T08:30:39.651Z,137745.658,1635409561,full,ni_sequenzen,NI_Sequenzen,13,3,,,,,,,,,,,,
,Move,canvas.Screen,0_3_0_3_0_13,-999,skipped,,137739.29999999702,,,137713.59999999404,,137739.40000000596,2021-10-28T08:30:39.653Z,137745.658,1635409561,full,ni_sequenzen,NI_Sequenzen,14,3,,,,,,,,,,,,
,Move,canvas.Screen,0_3_0_3_0_14,-999,skipped,,137740.70000000298,,,137713.59999999404,,137740.79999999702,2021-10-28T08:30:39.655Z,137745.658,1635409561,full,ni_sequenzen,NI_Sequenzen,15,3,,,,,,,,,,,,
,Loop,flow.Loop,0_3_0_3_0,-999,completion,,135190.29999999702,135196.396,135213.016,137713.59999999404,2500.5839999940363,137740.90000000596,2021-10-28T08:30:39.655Z,137745.658,1635409561,full,ni_sequenzen,NI_Sequenzen,,3,,,,,,,,,,,,
,Feedback,canvas.Screen,0_3_0_3_1,,timeout,,137742,137729.027,137745.658,141727.848,3998.8640000000014,141728.59999999404,2021-10-28T08:30:43.642Z,141744.522,1635409561,full,ni_sequenzen,NI_Sequenzen,,3,,,,,,,,,,,,
,Trial,flow.Sequence,0_3_0_3,,completion,,135180.40000000596,135196.396,135213.016,141727.848,6514.831999999995,141728.90000000596,2021-10-28T08:30:43.643Z,141761.149,1635409561,full,ni_sequenzen,NI_Sequenzen,,3,,,,,,,,,,,,
,Move,canvas.Screen,0_3_0_4_0_0,right,response,,141742,141744.522,141761.149,142945.5,1184.350999999995,142946.59999999404,2021-10-28T08:30:44.860Z,142960.755,1635409561,full,ni_sequenzen,NI_Sequenzen,1,4,,,,,,,,,,,,
,Move,canvas.Screen,0_3_0_4_0_1,down,response,,142951,142944.303,142960.755,143244.20000000298,283.4450000029756,143245.20000000298,2021-10-28T08:30:45.159Z,143260.717,1635409561,full,ni_sequenzen,NI_Sequenzen,2,4,,,,,,,,,,,,
,Move,canvas.Screen,0_3_0_4_0_2,right,response,,143247.90000000596,143244.092,143260.717,143576.5,315.7829999999958,143577,2021-10-28T08:30:45.491Z,143593.957,1635409561,full,ni_sequenzen,NI_Sequenzen,3,4,,,,,,,,,,,,
,Move,canvas.Screen,0_3_0_4_0_3,down,response,,143579.29999999702,143577.344,143593.957,143848.5,254.54300000000512,143848.90000000596,2021-10-28T08:30:45.763Z,143893.867,1635409561,full,ni_sequenzen,NI_Sequenzen,4,4,,,,,,,,,,,,
,Move,canvas.Screen,0_3_0_4_0_4,-999,skipped,,143850.79999999702,,,143848.5,,143850.90000000596,2021-10-28T08:30:45.765Z,143893.867,1635409561,full,ni_sequenzen,NI_Sequenzen,5,4,,,,,,,,,,,,
,Move,canvas.Screen,0_3_0_4_0_5,-999,skipped,,143853.29999999702,,,143848.5,,143853.29999999702,2021-10-28T08:30:45.767Z,143893.867,1635409561,full,ni_sequenzen,NI_Sequenzen,6,4,,,,,,,,,,,,
,Move,canvas.Screen,0_3_0_4_0_6,-999,skipped,,143855.20000000298,,,143848.5,,143855.29999999702,2021-10-28T08:30:45.769Z,143893.867,1635409561,full,ni_sequenzen,NI_Sequenzen,7,4,,,,,,,,,,,,
,Move,canvas.Screen,0_3_0_4_0_7,-999,skipped,,143856.90000000596,,,143848.5,,143857,2021-10-28T08:30:45.771Z,143893.867,1635409561,full,ni_sequenzen,NI_Sequenzen,8,4,,,,,,,,,,,,
,Move,canvas.Screen,0_3_0_4_0_8,-999,skipped,,143866.79999999702,,,143848.5,,143867,2021-10-28T08:30:45.781Z,143893.867,1635409561,full,ni_sequenzen,NI_Sequenzen,9,4,,,,,,,,,,,,
,Move,canvas.Screen,0_3_0_4_0_9,-999,skipped,,143868.90000000596,,,143848.5,,143869,2021-10-28T08:30:45.783Z,143893.867,1635409561,full,ni_sequenzen,NI_Sequenzen,10,4,,,,,,,,,,,,
,Move,canvas.Screen,0_3_0_4_0_10,-999,skipped,,143870.70000000298,,,143848.5,,143870.70000000298,2021-10-28T08:30:45.785Z,143893.867,1635409561,full,ni_sequenzen,NI_Sequenzen,11,4,,,,,,,,,,,,
,Move,canvas.Screen,0_3_0_4_0_11,-999,skipped,,143873,,,143848.5,,143873.09999999404,2021-10-28T08:30:45.787Z,143893.867,1635409561,full,ni_sequenzen,NI_Sequenzen,12,4,,,,,,,,,,,,
,Move,canvas.Screen,0_3_0_4_0_12,-999,skipped,,143875.09999999404,,,143848.5,,143875.09999999404,2021-10-28T08:30:45.789Z,143893.867,1635409561,full,ni_sequenzen,NI_Sequenzen,13,4,,,,,,,,,,,,
,Move,canvas.Screen,0_3_0_4_0_13,-999,skipped,,143876.5,,,143848.5,,143876.5,2021-10-28T08:30:45.790Z,143893.867,1635409561,full,ni_sequenzen,NI_Sequenzen,14,4,,,,,,,,,,,,
,Move,canvas.Screen,0_3_0_4_0_14,-999,skipped,,143877.79999999702,,,143848.5,,143877.79999999702,2021-10-28T08:30:45.792Z,143893.867,1635409561,full,ni_sequenzen,NI_Sequenzen,15,4,,,,,,,,,,,,
,Loop,flow.Loop,0_3_0_4_0,-999,completion,,141740.20000000298,141744.522,141761.149,143848.5,2087.350999999995,143877.90000000596,2021-10-28T08:30:45.792Z,143893.867,1635409561,full,ni_sequenzen,NI_Sequenzen,,4,,,,,,,,,,,,
,Feedback,canvas.Screen,0_3_0_4_1,,timeout,,143879.59999999404,143877.234,143893.867,147876.094,3998.899999999994,147876.5,2021-10-28T08:30:49.790Z,147892.767,1635409561,full,ni_sequenzen,NI_Sequenzen,,4,,,,,,,,,,,,
,Trial,flow.Sequence,0_3_0_4,,completion,,141729.59999999404,141744.522,141761.149,147876.094,6114.945000000007,147876.70000000298,2021-10-28T08:30:49.790Z,147909.387,1635409561,full,ni_sequenzen,NI_Sequenzen,,4,,,,,,,,,,,,
,Move,canvas.Screen,0_3_0_5_0_0,right,response,,147889.5,147892.767,147909.387,148504.20000000298,594.8130000029923,148504.70000000298,2021-10-28T08:30:50.418Z,148509.205,1635409561,full,ni_sequenzen,NI_Sequenzen,1,5,,,,,,,,,,,,
,Move,canvas.Screen,0_3_0_5_0_1,down,response,,148507.20000000298,148492.65,148509.205,148771.59999999404,262.39499999405234,148772.79999999702,2021-10-28T08:30:50.687Z,148792.471,1635409561,full,ni_sequenzen,NI_Sequenzen,2,5,,,,,,,,,,,,
,Move,canvas.Screen,0_3_0_5_0_2,right,response,,148779.20000000298,148775.845,148792.471,149043.70000000298,251.22900000298978,149044.70000000298,2021-10-28T08:30:50.958Z,149059.036,1635409561,full,ni_sequenzen,NI_Sequenzen,3,5,,,,,,,,,,,,
,Move,canvas.Screen,0_3_0_5_0_3,down,response,,149050.90000000596,149042.406,149059.036,149331.59999999404,272.56399999404675,149332,2021-10-28T08:30:51.246Z,149358.951,1635409561,full,ni_sequenzen,NI_Sequenzen,4,5,,,,,,,,,,,,
,Move,canvas.Screen,0_3_0_5_0_4,-999,skipped,,149333.70000000298,,,149331.59999999404,,149333.90000000596,2021-10-28T08:30:51.248Z,149358.951,1635409561,full,ni_sequenzen,NI_Sequenzen,5,5,,,,,,,,,,,,
,Move,canvas.Screen,0_3_0_5_0_5,-999,skipped,,149335.29999999702,,,149331.59999999404,,149335.29999999702,2021-10-28T08:30:51.249Z,149358.951,1635409561,full,ni_sequenzen,NI_Sequenzen,6,5,,,,,,,,,,,,
,Move,canvas.Screen,0_3_0_5_0_6,-999,skipped,,149336.5,,,149331.59999999404,,149336.59999999404,2021-10-28T08:30:51.250Z,149358.951,1635409561,full,ni_sequenzen,NI_Sequenzen,7,5,,,,,,,,,,,,
,Move,canvas.Screen,0_3_0_5_0_7,-999,skipped,,149338.40000000596,,,149331.59999999404,,149338.40000000596,2021-10-28T08:30:51.252Z,149358.951,1635409561,full,ni_sequenzen,NI_Sequenzen,8,5,,,,,,,,,,,,
,Move,canvas.Screen,0_3_0_5_0_8,-999,skipped,,149339.70000000298,,,149331.59999999404,,149339.70000000298,2021-10-28T08:30:51.253Z,149358.951,1635409561,full,ni_sequenzen,NI_Sequenzen,9,5,,,,,,,,,,,,
,Move,canvas.Screen,0_3_0_5_0_9,-999,skipped,,149341,,,149331.59999999404,,149341,2021-10-28T08:30:51.255Z,149358.951,1635409561,full,ni_sequenzen,NI_Sequenzen,10,5,,,,,,,,,,,,
,Move,canvas.Screen,0_3_0_5_0_10,-999,skipped,,149342.79999999702,,,149331.59999999404,,149342.90000000596,2021-10-28T08:30:51.257Z,149358.951,1635409561,full,ni_sequenzen,NI_Sequenzen,11,5,,,,,,,,,,,,
,Move,canvas.Screen,0_3_0_5_0_11,-999,skipped,,149344.20000000298,,,149331.59999999404,,149344.40000000596,2021-10-28T08:30:51.258Z,149358.951,1635409561,full,ni_sequenzen,NI_Sequenzen,12,5,,,,,,,,,,,,
,Move,canvas.Screen,0_3_0_5_0_12,-999,skipped,,149345.59999999404,,,149331.59999999404,,149345.59999999404,2021-10-28T08:30:51.259Z,149358.951,1635409561,full,ni_sequenzen,NI_Sequenzen,13,5,,,,,,,,,,,,
,Move,canvas.Screen,0_3_0_5_0_13,-999,skipped,,149346.90000000596,,,149331.59999999404,,149347,2021-10-28T08:30:51.261Z,149358.951,1635409561,full,ni_sequenzen,NI_Sequenzen,14,5,,,,,,,,,,,,
,Move,canvas.Screen,0_3_0_5_0_14,-999,skipped,,149348.5,,,149331.59999999404,,149348.59999999404,2021-10-28T08:30:51.262Z,149358.951,1635409561,full,ni_sequenzen,NI_Sequenzen,15,5,,,,,,,,,,,,
,Loop,flow.Loop,0_3_0_5_0,-999,completion,,147887.79999999702,147892.767,147909.387,149331.59999999404,1422.2129999940516,149348.70000000298,2021-10-28T08:30:51.262Z,149358.951,1635409561,full,ni_sequenzen,NI_Sequenzen,,5,,,,,,,,,,,,
,Feedback,canvas.Screen,0_3_0_5_1,,timeout,,149349.70000000298,149342.359,149358.951,153341.285,3998.8459999999905,153342.09999999404,2021-10-28T08:30:55.256Z,153357.797,1635409561,full,ni_sequenzen,NI_Sequenzen,,5,,,,,,,,,,,,
,Trial,flow.Sequence,0_3_0_5,,completion,,147876.90000000596,147892.767,147909.387,153341.285,5431.898000000016,153342.40000000596,2021-10-28T08:30:55.256Z,153374.491,1635409561,full,ni_sequenzen,NI_Sequenzen,,5,,,,,,,,,,,,
,Move,canvas.Screen,0_3_0_6_0_0,right,response,,153365.09999999404,153357.797,153374.491,153837.40000000596,462.9090000059514,153838.59999999404,2021-10-28T08:30:55.752Z,153857.667,1635409561,full,ni_sequenzen,NI_Sequenzen,1,6,,,,,,,,,,,,
,Move,canvas.Screen,0_3_0_6_0_1,down,response,,153844.5,153841.092,153857.667,154054.29999999702,196.63299999703304,154054.70000000298,2021-10-28T08:30:55.968Z,154077.192,1635409561,full,ni_sequenzen,NI_Sequenzen,2,6,,,,,,,,,,,,
,Move,canvas.Screen,0_3_0_6_0_2,right,response,,154056.79999999702,154040.974,154077.192,154354.79999999702,277.60799999700976,154355.20000000298,2021-10-28T08:30:56.269Z,154374.269,1635409561,full,ni_sequenzen,NI_Sequenzen,3,6,,,,,,,,,,,,
,Move,canvas.Screen,0_3_0_6_0_3,down,response,,154357.70000000298,154357.595,154374.269,154578.40000000596,204.13100000596023,154578.79999999702,2021-10-28T08:30:56.493Z,154607.468,1635409561,full,ni_sequenzen,NI_Sequenzen,4,6,,,,,,,,,,,,
,Move,canvas.Screen,0_3_0_6_0_4,-999,skipped,,154580.90000000596,,,154578.40000000596,,154581,2021-10-28T08:30:56.495Z,154607.468,1635409561,full,ni_sequenzen,NI_Sequenzen,5,6,,,,,,,,,,,,
,Move,canvas.Screen,0_3_0_6_0_5,-999,skipped,,154582.90000000596,,,154578.40000000596,,154582.90000000596,2021-10-28T08:30:56.497Z,154607.468,1635409561,full,ni_sequenzen,NI_Sequenzen,6,6,,,,,,,,,,,,
,Move,canvas.Screen,0_3_0_6_0_6,-999,skipped,,154584.29999999702,,,154578.40000000596,,154584.40000000596,2021-10-28T08:30:56.498Z,154607.468,1635409561,full,ni_sequenzen,NI_Sequenzen,7,6,,,,,,,,,,,,
,Move,canvas.Screen,0_3_0_6_0_7,-999,skipped,,154586.20000000298,,,154578.40000000596,,154586.20000000298,2021-10-28T08:30:56.500Z,154607.468,1635409561,full,ni_sequenzen,NI_Sequenzen,8,6,,,,,,,,,,,,
,Move,canvas.Screen,0_3_0_6_0_8,-999,skipped,,154587.59999999404,,,154578.40000000596,,154587.59999999404,2021-10-28T08:30:56.501Z,154607.468,1635409561,full,ni_sequenzen,NI_Sequenzen,9,6,,,,,,,,,,,,
,Move,canvas.Screen,0_3_0_6_0_9,-999,skipped,,154588.90000000596,,,154578.40000000596,,154589,2021-10-28T08:30:56.503Z,154607.468,1635409561,full,ni_sequenzen,NI_Sequenzen,10,6,,,,,,,,,,,,
,Move,canvas.Screen,0_3_0_6_0_10,-999,skipped,,154590.79999999702,,,154578.40000000596,,154590.79999999702,2021-10-28T08:30:56.505Z,154607.468,1635409561,full,ni_sequenzen,NI_Sequenzen,11,6,,,,,,,,,,,,
,Move,canvas.Screen,0_3_0_6_0_11,-999,skipped,,154592.09999999404,,,154578.40000000596,,154592.20000000298,2021-10-28T08:30:56.506Z,154607.468,1635409561,full,ni_sequenzen,NI_Sequenzen,12,6,,,,,,,,,,,,
,Move,canvas.Screen,0_3_0_6_0_12,-999,skipped,,154593.59999999404,,,154578.40000000596,,154593.59999999404,2021-10-28T08:30:56.507Z,154607.468,1635409561,full,ni_sequenzen,NI_Sequenzen,13,6,,,,,,,,,,,,
,Move,canvas.Screen,0_3_0_6_0_13,-999,skipped,,154595,,,154578.40000000596,,154595.09999999404,2021-10-28T08:30:56.509Z,154607.468,1635409561,full,ni_sequenzen,NI_Sequenzen,14,6,,,,,,,,,,,,
,Move,canvas.Screen,0_3_0_6_0_14,-999,skipped,,154596.59999999404,,,154578.40000000596,,154596.70000000298,2021-10-28T08:30:56.510Z,154607.468,1635409561,full,ni_sequenzen,NI_Sequenzen,15,6,,,,,,,,,,,,
,Loop,flow.Loop,0_3_0_6_0,-999,completion,,153363.09999999404,153357.797,153374.491,154578.40000000596,1203.9090000059514,154596.79999999702,2021-10-28T08:30:56.511Z,154607.468,1635409561,full,ni_sequenzen,NI_Sequenzen,,6,,,,,,,,,,,,
,Feedback,canvas.Screen,0_3_0_6_1,,timeout,,154598,154590.842,154607.468,158589.696,3998.8889999999956,158590.40000000596,2021-10-28T08:31:00.504Z,158606.357,1635409561,full,ni_sequenzen,NI_Sequenzen,,6,,,,,,,,,,,,
,Trial,flow.Sequence,0_3_0_6,,completion,,153343,153357.797,153374.491,158589.696,5215.204999999987,158590.59999999404,2021-10-28T08:31:00.504Z,158622.989,1635409561,full,ni_sequenzen,NI_Sequenzen,,6,,,,,,,,,,,,
,Move,canvas.Screen,0_3_0_7_0_0,right,response,,158603.5,158606.357,158622.989,159233,610.0109999999986,159233.79999999702,2021-10-28T08:31:01.147Z,159239.448,1635409561,full,ni_sequenzen,NI_Sequenzen,1,7,,,,,,,,,,,,
,Move,canvas.Screen,0_3_0_7_0_1,down,response,,159236.79999999702,159222.907,159239.448,159468.79999999702,229.3519999970158,159470,2021-10-28T08:31:01.384Z,159489.41,1635409561,full,ni_sequenzen,NI_Sequenzen,2,7,,,,,,,,,,,,
,Move,canvas.Screen,0_3_0_7_0_2,right,response,,159476.40000000596,159472.755,159489.41,159767.5,278.0899999999965,159767.90000000596,2021-10-28T08:31:01.682Z,159772.632,1635409561,full,ni_sequenzen,NI_Sequenzen,3,7,,,,,,,,,,,,
,Move,canvas.Screen,0_3_0_7_0_3,down,response,,159769.90000000596,159756.037,159772.632,160002.70000000298,230.0680000029679,160024.29999999702,2021-10-28T08:31:01.938Z,160055.9,1635409561,full,ni_sequenzen,NI_Sequenzen,4,7,,,,,,,,,,,,
,Move,canvas.Screen,0_3_0_7_0_4,-999,skipped,,160026.70000000298,,,160002.70000000298,,160026.70000000298,2021-10-28T08:31:01.941Z,160055.9,1635409561,full,ni_sequenzen,NI_Sequenzen,5,7,,,,,,,,,,,,
,Move,canvas.Screen,0_3_0_7_0_5,-999,skipped,,160028.20000000298,,,160002.70000000298,,160028.20000000298,2021-10-28T08:31:01.942Z,160055.9,1635409561,full,ni_sequenzen,NI_Sequenzen,6,7,,,,,,,,,,,,
,Move,canvas.Screen,0_3_0_7_0_6,-999,skipped,,160029.90000000596,,,160002.70000000298,,160029.90000000596,2021-10-28T08:31:01.944Z,160055.9,1635409561,full,ni_sequenzen,NI_Sequenzen,7,7,,,,,,,,,,,,
,Move,canvas.Screen,0_3_0_7_0_7,-999,skipped,,160031.70000000298,,,160002.70000000298,,160031.90000000596,2021-10-28T08:31:01.946Z,160055.9,1635409561,full,ni_sequenzen,NI_Sequenzen,8,7,,,,,,,,,,,,
,Move,canvas.Screen,0_3_0_7_0_8,-999,skipped,,160033.20000000298,,,160002.70000000298,,160033.20000000298,2021-10-28T08:31:01.947Z,160055.9,1635409561,full,ni_sequenzen,NI_Sequenzen,9,7,,,,,,,,,,,,
,Move,canvas.Screen,0_3_0_7_0_9,-999,skipped,,160034.5,,,160002.70000000298,,160034.5,2021-10-28T08:31:01.948Z,160055.9,1635409561,full,ni_sequenzen,NI_Sequenzen,10,7,,,,,,,,,,,,
,Move,canvas.Screen,0_3_0_7_0_10,-999,skipped,,160036.5,,,160002.70000000298,,160036.59999999404,2021-10-28T08:31:01.950Z,160055.9,1635409561,full,ni_sequenzen,NI_Sequenzen,11,7,,,,,,,,,,,,
,Move,canvas.Screen,0_3_0_7_0_11,-999,skipped,,160038.5,,,160002.70000000298,,160038.70000000298,2021-10-28T08:31:01.952Z,160055.9,1635409561,full,ni_sequenzen,NI_Sequenzen,12,7,,,,,,,,,,,,
,Move,canvas.Screen,0_3_0_7_0_12,-999,skipped,,160040.09999999404,,,160002.70000000298,,160040.20000000298,2021-10-28T08:31:01.954Z,160055.9,1635409561,full,ni_sequenzen,NI_Sequenzen,13,7,,,,,,,,,,,,
,Move,canvas.Screen,0_3_0_7_0_13,-999,skipped,,160041.59999999404,,,160002.70000000298,,160041.70000000298,2021-10-28T08:31:01.955Z,160055.9,1635409561,full,ni_sequenzen,NI_Sequenzen,14,7,,,,,,,,,,,,
,Move,canvas.Screen,0_3_0_7_0_14,-999,skipped,,160043.29999999702,,,160002.70000000298,,160043.29999999702,2021-10-28T08:31:01.957Z,160055.9,1635409561,full,ni_sequenzen,NI_Sequenzen,15,7,,,,,,,,,,,,
,Loop,flow.Loop,0_3_0_7_0,-999,completion,,158601.79999999702,158606.357,158622.989,160002.70000000298,1379.7110000029788,160043.40000000596,2021-10-28T08:31:01.957Z,160055.9,1635409561,full,ni_sequenzen,NI_Sequenzen,,7,,,,,,,,,,,,
,Feedback,canvas.Screen,0_3_0_7_1,,timeout,,160044.40000000596,160039.295,160055.9,164038.15,3998.8340000000026,164038.70000000298,2021-10-28T08:31:05.952Z,164054.734,1635409561,full,ni_sequenzen,NI_Sequenzen,,7,,,,,,,,,,,,
,Trial,flow.Sequence,0_3_0_7,,completion,,158591.20000000298,158606.357,158622.989,164038.15,5415.160999999993,164038.90000000596,2021-10-28T08:31:05.953Z,164071.433,1635409561,full,ni_sequenzen,NI_Sequenzen,,7,,,,,,,,,,,,
,Move,canvas.Screen,0_3_0_8_0_0,down,response,,164057.70000000298,164054.734,164071.433,167234.5,3163.06700000001,167235.59999999404,2021-10-28T08:31:09.149Z,167253.819,1635409561,full,ni_sequenzen,NI_Sequenzen,1,8,,,,,,,,,,,,
,Move,canvas.Screen,0_3_0_8_0_1,left,response,,167241.59999999404,167237.599,167253.819,169872,2618.1810000000114,169872.5,2021-10-28T08:31:11.786Z,169886.432,1635409561,full,ni_sequenzen,NI_Sequenzen,2,8,,,,,,,,,,,,
,Move,canvas.Screen,0_3_0_8_0_2,down,response,,169875.40000000596,169870.087,169886.432,170384.79999999702,498.36799999701907,170385.90000000596,2021-10-28T08:31:12.300Z,170403.014,1635409561,full,ni_sequenzen,NI_Sequenzen,3,8,,,,,,,,,,,,
,Move,canvas.Screen,0_3_0_8_0_3,left,response,,170393.59999999404,170386.371,170403.014,171164.70000000298,761.6860000029847,171165.20000000298,2021-10-28T08:31:13.079Z,171202.79,1635409561,full,ni_sequenzen,NI_Sequenzen,4,8,,,,,,,,,,,,
,Move,canvas.Screen,0_3_0_8_0_4,-999,skipped,,171167.29999999702,,,171164.70000000298,,171167.40000000596,2021-10-28T08:31:13.081Z,171202.79,1635409561,full,ni_sequenzen,NI_Sequenzen,5,8,,,,,,,,,,,,
,Move,canvas.Screen,0_3_0_8_0_5,-999,skipped,,171169.29999999702,,,171164.70000000298,,171169.29999999702,2021-10-28T08:31:13.083Z,171202.79,1635409561,full,ni_sequenzen,NI_Sequenzen,6,8,,,,,,,,,,,,
,Move,canvas.Screen,0_3_0_8_0_6,-999,skipped,,171171.79999999702,,,171164.70000000298,,171171.90000000596,2021-10-28T08:31:13.086Z,171202.79,1635409561,full,ni_sequenzen,NI_Sequenzen,7,8,,,,,,,,,,,,
,Move,canvas.Screen,0_3_0_8_0_7,-999,skipped,,171173.90000000596,,,171164.70000000298,,171174,2021-10-28T08:31:13.088Z,171202.79,1635409561,full,ni_sequenzen,NI_Sequenzen,8,8,,,,,,,,,,,,
,Move,canvas.Screen,0_3_0_8_0_8,-999,skipped,,171175.90000000596,,,171164.70000000298,,171175.90000000596,2021-10-28T08:31:13.090Z,171202.79,1635409561,full,ni_sequenzen,NI_Sequenzen,9,8,,,,,,,,,,,,
,Move,canvas.Screen,0_3_0_8_0_9,-999,skipped,,171178.20000000298,,,171164.70000000298,,171178.29999999702,2021-10-28T08:31:13.092Z,171202.79,1635409561,full,ni_sequenzen,NI_Sequenzen,10,8,,,,,,,,,,,,
,Move,canvas.Screen,0_3_0_8_0_10,-999,skipped,,171188.5,,,171164.70000000298,,171188.70000000298,2021-10-28T08:31:13.102Z,171202.79,1635409561,full,ni_sequenzen,NI_Sequenzen,11,8,,,,,,,,,,,,
,Move,canvas.Screen,0_3_0_8_0_11,-999,skipped,,171191.09999999404,,,171164.70000000298,,171191.09999999404,2021-10-28T08:31:13.105Z,171202.79,1635409561,full,ni_sequenzen,NI_Sequenzen,12,8,,,,,,,,,,,,
,Move,canvas.Screen,0_3_0_8_0_12,-999,skipped,,171192.59999999404,,,171164.70000000298,,171192.59999999404,2021-10-28T08:31:13.106Z,171202.79,1635409561,full,ni_sequenzen,NI_Sequenzen,13,8,,,,,,,,,,,,
,Move,canvas.Screen,0_3_0_8_0_13,-999,skipped,,171193.90000000596,,,171164.70000000298,,171193.90000000596,2021-10-28T08:31:13.108Z,171202.79,1635409561,full,ni_sequenzen,NI_Sequenzen,14,8,,,,,,,,,,,,
,Move,canvas.Screen,0_3_0_8_0_14,-999,skipped,,171195.79999999702,,,171164.70000000298,,171195.90000000596,2021-10-28T08:31:13.110Z,171202.79,1635409561,full,ni_sequenzen,NI_Sequenzen,15,8,,,,,,,,,,,,
,Loop,flow.Loop,0_3_0_8_0,-999,completion,,164056.09999999404,164054.734,164071.433,171164.70000000298,7093.26700000299,171196,2021-10-28T08:31:13.110Z,171202.79,1635409561,full,ni_sequenzen,NI_Sequenzen,,8,,,,,,,,,,,,
