meta,sender,sender_type,sender_id,response,ended_on,instrCount,time_run,time_render,time_show,time_end,duration,time_commit,timestamp,time_switch,openLabId,type,task,project,move,trialN,blockN_Train,blockN,moveCount,currPP,points,movesTrial,visitedFields,diff,reward,Strategie,Zweck,Probleme
[object Object],Screen_1,canvas.Screen,0_0_0_0,cont,response,1,2677,2676.84,2701.92,36725,34023.08,36750,2021-10-26T12:10:06.590Z,36884.66,1635250159,full,ni_sequenzen,NI_Sequenzen,,,,,,,,,,,,,,
,Screen_2,canvas.Screen,0_0_0_1,cont,response,1,36868,36868.64,36884.66,60481,23596.339999999997,60491,2021-10-26T12:10:30.330Z,60600.92,1635250159,full,ni_sequenzen,NI_Sequenzen,,,,,,,,,,,,,,
,Screen_3,canvas.Screen,0_0_0_2,cont,response,1,60594,60594.42,60600.92,80445,19844.08,80451,2021-10-26T12:10:50.290Z,80467.24,1635250159,full,ni_sequenzen,NI_Sequenzen,,,,,,,,,,,,,,
,Screen_4,canvas.Screen,0_0_0_3,cont,response,1,80461,80461.32,80467.24,88084,7616.759999999995,88090,2021-10-26T12:10:57.929Z,88233.78,1635250159,full,ni_sequenzen,NI_Sequenzen,,,,,,,,,,,,,,
,Sequence,flow.Sequence,0_0_0,,completion,1,2487,2676.84,2701.92,88084,85382.08,88091,2021-10-26T12:10:57.929Z,88233.78,1635250159,full,ni_sequenzen,NI_Sequenzen,,,,,,,,,,,,,,
,Screen_1,canvas.Screen,0_0_1_0,,skipped,2,88096,,,88096,,88096,2021-10-26T12:10:57.935Z,88233.78,1635250159,full,ni_sequenzen,NI_Sequenzen,,,,,,,,,,,,,,
,Screen_2,canvas.Screen,0_0_1_1,,skipped,2,88098,,,88096,,88098,2021-10-26T12:10:57.937Z,88233.78,1635250159,full,ni_sequenzen,NI_Sequenzen,,,,,,,,,,,,,,
,Screen_3,canvas.Screen,0_0_1_2,,skipped,2,88100,,,88096,,88100,2021-10-26T12:10:57.939Z,88233.78,1635250159,full,ni_sequenzen,NI_Sequenzen,,,,,,,,,,,,,,
,Screen_4,canvas.Screen,0_0_1_3,,skipped,2,88101,,,88096,,88101,2021-10-26T12:10:57.941Z,88233.78,1635250159,full,ni_sequenzen,NI_Sequenzen,,,,,,,,,,,,,,
,Sequence,flow.Sequence,0_0_1,,completion,2,88092,,,88096,,88102,2021-10-26T12:10:57.941Z,88233.78,1635250159,full,ni_sequenzen,NI_Sequenzen,,,,,,,,,,,,,,
,Screen_1,canvas.Screen,0_0_2_0,,skipped,3,88106,,,88106,,88106,2021-10-26T12:10:57.946Z,88233.78,1635250159,full,ni_sequenzen,NI_Sequenzen,,,,,,,,,,,,,,
,Screen_2,canvas.Screen,0_0_2_1,,skipped,3,88108,,,88106,,88108,2021-10-26T12:10:57.947Z,88233.78,1635250159,full,ni_sequenzen,NI_Sequenzen,,,,,,,,,,,,,,
,Screen_3,canvas.Screen,0_0_2_2,,skipped,3,88110,,,88106,,88110,2021-10-26T12:10:57.949Z,88233.78,1635250159,full,ni_sequenzen,NI_Sequenzen,,,,,,,,,,,,,,
,Screen_4,canvas.Screen,0_0_2_3,,skipped,3,88111,,,88106,,88111,2021-10-26T12:10:57.950Z,88233.78,1635250159,full,ni_sequenzen,NI_Sequenzen,,,,,,,,,,,,,,
,Sequence,flow.Sequence,0_0_2,,completion,3,88104,,,88106,,88111,2021-10-26T12:10:57.950Z,88233.78,1635250159,full,ni_sequenzen,NI_Sequenzen,,,,,,,,,,,,,,
,Screen_1,canvas.Screen,0_0_3_0,,skipped,4,88112,,,88112,,88112,2021-10-26T12:10:57.952Z,88233.78,1635250159,full,ni_sequenzen,NI_Sequenzen,,,,,,,,,,,,,,
,Screen_2,canvas.Screen,0_0_3_1,,skipped,4,88113,,,88112,,88113,2021-10-26T12:10:57.953Z,88233.78,1635250159,full,ni_sequenzen,NI_Sequenzen,,,,,,,,,,,,,,
,Screen_3,canvas.Screen,0_0_3_2,,skipped,4,88114,,,88112,,88114,2021-10-26T12:10:57.953Z,88233.78,1635250159,full,ni_sequenzen,NI_Sequenzen,,,,,,,,,,,,,,
,Screen_4,canvas.Screen,0_0_3_3,,skipped,4,88116,,,88112,,88116,2021-10-26T12:10:57.956Z,88233.78,1635250159,full,ni_sequenzen,NI_Sequenzen,,,,,,,,,,,,,,
,Sequence,flow.Sequence,0_0_3,,completion,4,88112,,,88112,,88116,2021-10-26T12:10:57.956Z,88233.78,1635250159,full,ni_sequenzen,NI_Sequenzen,,,,,,,,,,,,,,
,Screen_1,canvas.Screen,0_0_4_0,,skipped,5,88120,,,88120,,88120,2021-10-26T12:10:57.959Z,88233.78,1635250159,full,ni_sequenzen,NI_Sequenzen,,,,,,,,,,,,,,
,Screen_2,canvas.Screen,0_0_4_1,,skipped,5,88122,,,88120,,88122,2021-10-26T12:10:57.962Z,88233.78,1635250159,full,ni_sequenzen,NI_Sequenzen,,,,,,,,,,,,,,
,Screen_3,canvas.Screen,0_0_4_2,,skipped,5,88123,,,88120,,88123,2021-10-26T12:10:57.963Z,88233.78,1635250159,full,ni_sequenzen,NI_Sequenzen,,,,,,,,,,,,,,
,Screen_4,canvas.Screen,0_0_4_3,,skipped,5,88124,,,88120,,88124,2021-10-26T12:10:57.964Z,88233.78,1635250159,full,ni_sequenzen,NI_Sequenzen,,,,,,,,,,,,,,
,Sequence,flow.Sequence,0_0_4,,completion,5,88117,,,88120,,88125,2021-10-26T12:10:57.964Z,88233.78,1635250159,full,ni_sequenzen,NI_Sequenzen,,,,,,,,,,,,,,
,Screen_1,canvas.Screen,0_0_5_0,,skipped,6,88126,,,88126,,88126,2021-10-26T12:10:57.965Z,88233.78,1635250159,full,ni_sequenzen,NI_Sequenzen,,,,,,,,,,,,,,
,Screen_2,canvas.Screen,0_0_5_1,,skipped,6,88127,,,88126,,88127,2021-10-26T12:10:57.967Z,88233.78,1635250159,full,ni_sequenzen,NI_Sequenzen,,,,,,,,,,,,,,
,Screen_3,canvas.Screen,0_0_5_2,,skipped,6,88128,,,88126,,88128,2021-10-26T12:10:57.968Z,88233.78,1635250159,full,ni_sequenzen,NI_Sequenzen,,,,,,,,,,,,,,
,Screen_4,canvas.Screen,0_0_5_3,,skipped,6,88129,,,88126,,88129,2021-10-26T12:10:57.969Z,88233.78,1635250159,full,ni_sequenzen,NI_Sequenzen,,,,,,,,,,,,,,
,Sequence,flow.Sequence,0_0_5,,completion,6,88125,,,88126,,88129,2021-10-26T12:10:57.969Z,88233.78,1635250159,full,ni_sequenzen,NI_Sequenzen,,,,,,,,,,,,,,
,Screen_1,canvas.Screen,0_0_6_0,,skipped,7,88131,,,88131,,88131,2021-10-26T12:10:57.970Z,88233.78,1635250159,full,ni_sequenzen,NI_Sequenzen,,,,,,,,,,,,,,
,Screen_2,canvas.Screen,0_0_6_1,,skipped,7,88131,,,88131,,88131,2021-10-26T12:10:57.971Z,88233.78,1635250159,full,ni_sequenzen,NI_Sequenzen,,,,,,,,,,,,,,
,Screen_3,canvas.Screen,0_0_6_2,,skipped,7,88132,,,88131,,88132,2021-10-26T12:10:57.972Z,88233.78,1635250159,full,ni_sequenzen,NI_Sequenzen,,,,,,,,,,,,,,
,Screen_4,canvas.Screen,0_0_6_3,,skipped,7,88133,,,88131,,88133,2021-10-26T12:10:57.973Z,88233.78,1635250159,full,ni_sequenzen,NI_Sequenzen,,,,,,,,,,,,,,
,Sequence,flow.Sequence,0_0_6,,completion,7,88130,,,88131,,88133,2021-10-26T12:10:57.973Z,88233.78,1635250159,full,ni_sequenzen,NI_Sequenzen,,,,,,,,,,,,,,
,Screen_1,canvas.Screen,0_0_7_0,,skipped,8,88137,,,88137,,88137,2021-10-26T12:10:57.976Z,88233.78,1635250159,full,ni_sequenzen,NI_Sequenzen,,,,,,,,,,,,,,
,Screen_2,canvas.Screen,0_0_7_1,,skipped,8,88139,,,88137,,88139,2021-10-26T12:10:57.978Z,88233.78,1635250159,full,ni_sequenzen,NI_Sequenzen,,,,,,,,,,,,,,
,Screen_3,canvas.Screen,0_0_7_2,,skipped,8,88140,,,88137,,88140,2021-10-26T12:10:57.980Z,88233.78,1635250159,full,ni_sequenzen,NI_Sequenzen,,,,,,,,,,,,,,
,Screen_4,canvas.Screen,0_0_7_3,,skipped,8,88142,,,88137,,88142,2021-10-26T12:10:57.981Z,88233.78,1635250159,full,ni_sequenzen,NI_Sequenzen,,,,,,,,,,,,,,
,Sequence,flow.Sequence,0_0_7,,completion,8,88134,,,88137,,88142,2021-10-26T12:10:57.981Z,88233.78,1635250159,full,ni_sequenzen,NI_Sequenzen,,,,,,,,,,,,,,
,Screen_1,canvas.Screen,0_0_8_0,,skipped,9,88143,,,88143,,88143,2021-10-26T12:10:57.983Z,88233.78,1635250159,full,ni_sequenzen,NI_Sequenzen,,,,,,,,,,,,,,
,Screen_2,canvas.Screen,0_0_8_1,,skipped,9,88144,,,88143,,88144,2021-10-26T12:10:57.983Z,88233.78,1635250159,full,ni_sequenzen,NI_Sequenzen,,,,,,,,,,,,,,
,Screen_3,canvas.Screen,0_0_8_2,,skipped,9,88145,,,88143,,88145,2021-10-26T12:10:57.985Z,88233.78,1635250159,full,ni_sequenzen,NI_Sequenzen,,,,,,,,,,,,,,
,Screen_4,canvas.Screen,0_0_8_3,,skipped,9,88147,,,88143,,88147,2021-10-26T12:10:57.986Z,88233.78,1635250159,full,ni_sequenzen,NI_Sequenzen,,,,,,,,,,,,,,
,Sequence,flow.Sequence,0_0_8,,completion,9,88143,,,88143,,88147,2021-10-26T12:10:57.986Z,88233.78,1635250159,full,ni_sequenzen,NI_Sequenzen,,,,,,,,,,,,,,
,Screen_1,canvas.Screen,0_0_9_0,,skipped,10,88148,,,88148,,88148,2021-10-26T12:10:57.987Z,88233.78,1635250159,full,ni_sequenzen,NI_Sequenzen,,,,,,,,,,,,,,
,Screen_2,canvas.Screen,0_0_9_1,,skipped,10,88149,,,88148,,88149,2021-10-26T12:10:57.989Z,88233.78,1635250159,full,ni_sequenzen,NI_Sequenzen,,,,,,,,,,,,,,
,Screen_3,canvas.Screen,0_0_9_2,,skipped,10,88150,,,88148,,88150,2021-10-26T12:10:57.989Z,88233.78,1635250159,full,ni_sequenzen,NI_Sequenzen,,,,,,,,,,,,,,
,Screen_4,canvas.Screen,0_0_9_3,,skipped,10,88151,,,88148,,88151,2021-10-26T12:10:57.989Z,88233.78,1635250159,full,ni_sequenzen,NI_Sequenzen,,,,,,,,,,,,,,
,Sequence,flow.Sequence,0_0_9,,completion,10,88147,,,88148,,88151,2021-10-26T12:10:57.991Z,88233.78,1635250159,full,ni_sequenzen,NI_Sequenzen,,,,,,,,,,,,,,
,Screen_1,canvas.Screen,0_0_10_0,,skipped,11,88155,,,88155,,88156,2021-10-26T12:10:57.995Z,88233.78,1635250159,full,ni_sequenzen,NI_Sequenzen,,,,,,,,,,,,,,
,Screen_2,canvas.Screen,0_0_10_1,,skipped,11,88157,,,88155,,88157,2021-10-26T12:10:57.997Z,88233.78,1635250159,full,ni_sequenzen,NI_Sequenzen,,,,,,,,,,,,,,
,Screen_3,canvas.Screen,0_0_10_2,,skipped,11,88159,,,88155,,88159,2021-10-26T12:10:57.998Z,88233.78,1635250159,full,ni_sequenzen,NI_Sequenzen,,,,,,,,,,,,,,
,Screen_4,canvas.Screen,0_0_10_3,,skipped,11,88160,,,88155,,88160,2021-10-26T12:10:57.999Z,88233.78,1635250159,full,ni_sequenzen,NI_Sequenzen,,,,,,,,,,,,,,
,Sequence,flow.Sequence,0_0_10,,completion,11,88153,,,88155,,88161,2021-10-26T12:10:58.000Z,88233.78,1635250159,full,ni_sequenzen,NI_Sequenzen,,,,,,,,,,,,,,
,Screen_1,canvas.Screen,0_0_11_0,,skipped,12,88163,,,88163,,88163,2021-10-26T12:10:58.002Z,88233.78,1635250159,full,ni_sequenzen,NI_Sequenzen,,,,,,,,,,,,,,
,Screen_2,canvas.Screen,0_0_11_1,,skipped,12,88164,,,88163,,88164,2021-10-26T12:10:58.004Z,88233.78,1635250159,full,ni_sequenzen,NI_Sequenzen,,,,,,,,,,,,,,
,Screen_3,canvas.Screen,0_0_11_2,,skipped,12,88165,,,88163,,88166,2021-10-26T12:10:58.005Z,88233.78,1635250159,full,ni_sequenzen,NI_Sequenzen,,,,,,,,,,,,,,
,Screen_4,canvas.Screen,0_0_11_3,,skipped,12,88167,,,88163,,88167,2021-10-26T12:10:58.006Z,88233.78,1635250159,full,ni_sequenzen,NI_Sequenzen,,,,,,,,,,,,,,
,Sequence,flow.Sequence,0_0_11,,completion,12,88162,,,88163,,88167,2021-10-26T12:10:58.006Z,88233.78,1635250159,full,ni_sequenzen,NI_Sequenzen,,,,,,,,,,,,,,
,Screen_1,canvas.Screen,0_0_12_0,,skipped,13,88170,,,88170,,88170,2021-10-26T12:10:58.010Z,88233.78,1635250159,full,ni_sequenzen,NI_Sequenzen,,,,,,,,,,,,,,
,Screen_2,canvas.Screen,0_0_12_1,,skipped,13,88173,,,88170,,88173,2021-10-26T12:10:58.012Z,88233.78,1635250159,full,ni_sequenzen,NI_Sequenzen,,,,,,,,,,,,,,
,Screen_3,canvas.Screen,0_0_12_2,,skipped,13,88174,,,88170,,88174,2021-10-26T12:10:58.013Z,88233.78,1635250159,full,ni_sequenzen,NI_Sequenzen,,,,,,,,,,,,,,
,Screen_4,canvas.Screen,0_0_12_3,,skipped,13,88175,,,88170,,88175,2021-10-26T12:10:58.014Z,88233.78,1635250159,full,ni_sequenzen,NI_Sequenzen,,,,,,,,,,,,,,
,Sequence,flow.Sequence,0_0_12,,completion,13,88168,,,88170,,88175,2021-10-26T12:10:58.014Z,88233.78,1635250159,full,ni_sequenzen,NI_Sequenzen,,,,,,,,,,,,,,
,Screen_1,canvas.Screen,0_0_13_0,,skipped,14,88177,,,88177,,88177,2021-10-26T12:10:58.016Z,88233.78,1635250159,full,ni_sequenzen,NI_Sequenzen,,,,,,,,,,,,,,
,Screen_2,canvas.Screen,0_0_13_1,,skipped,14,88177,,,88177,,88177,2021-10-26T12:10:58.017Z,88233.78,1635250159,full,ni_sequenzen,NI_Sequenzen,,,,,,,,,,,,,,
,Screen_3,canvas.Screen,0_0_13_2,,skipped,14,88178,,,88177,,88178,2021-10-26T12:10:58.018Z,88233.78,1635250159,full,ni_sequenzen,NI_Sequenzen,,,,,,,,,,,,,,
,Screen_4,canvas.Screen,0_0_13_3,,skipped,14,88179,,,88177,,88179,2021-10-26T12:10:58.019Z,88233.78,1635250159,full,ni_sequenzen,NI_Sequenzen,,,,,,,,,,,,,,
,Sequence,flow.Sequence,0_0_13,,completion,14,88175,,,88177,,88179,2021-10-26T12:10:58.019Z,88233.78,1635250159,full,ni_sequenzen,NI_Sequenzen,,,,,,,,,,,,,,
,Screen_1,canvas.Screen,0_0_14_0,,skipped,15,88180,,,88180,,88180,2021-10-26T12:10:58.020Z,88233.78,1635250159,full,ni_sequenzen,NI_Sequenzen,,,,,,,,,,,,,,
,Screen_2,canvas.Screen,0_0_14_1,,skipped,15,88182,,,88180,,88182,2021-10-26T12:10:58.022Z,88233.78,1635250159,full,ni_sequenzen,NI_Sequenzen,,,,,,,,,,,,,,
,Screen_3,canvas.Screen,0_0_14_2,,skipped,15,88184,,,88180,,88184,2021-10-26T12:10:58.023Z,88233.78,1635250159,full,ni_sequenzen,NI_Sequenzen,,,,,,,,,,,,,,
,Screen_4,canvas.Screen,0_0_14_3,,skipped,15,88186,,,88180,,88186,2021-10-26T12:10:58.025Z,88233.78,1635250159,full,ni_sequenzen,NI_Sequenzen,,,,,,,,,,,,,,
,Sequence,flow.Sequence,0_0_14,,completion,15,88179,,,88180,,88186,2021-10-26T12:10:58.025Z,88233.78,1635250159,full,ni_sequenzen,NI_Sequenzen,,,,,,,,,,,,,,
,Screen_1,canvas.Screen,0_0_15_0,,skipped,16,88188,,,88188,,88188,2021-10-26T12:10:58.028Z,88233.78,1635250159,full,ni_sequenzen,NI_Sequenzen,,,,,,,,,,,,,,
,Screen_2,canvas.Screen,0_0_15_1,,skipped,16,88189,,,88188,,88190,2021-10-26T12:10:58.029Z,88233.78,1635250159,full,ni_sequenzen,NI_Sequenzen,,,,,,,,,,,,,,
,Screen_3,canvas.Screen,0_0_15_2,,skipped,16,88191,,,88188,,88191,2021-10-26T12:10:58.030Z,88233.78,1635250159,full,ni_sequenzen,NI_Sequenzen,,,,,,,,,,,,,,
,Screen_4,canvas.Screen,0_0_15_3,,skipped,16,88192,,,88188,,88192,2021-10-26T12:10:58.032Z,88233.78,1635250159,full,ni_sequenzen,NI_Sequenzen,,,,,,,,,,,,,,
,Sequence,flow.Sequence,0_0_15,,completion,16,88187,,,88188,,88192,2021-10-26T12:10:58.032Z,88233.78,1635250159,full,ni_sequenzen,NI_Sequenzen,,,,,,,,,,,,,,
,Screen_1,canvas.Screen,0_0_16_0,,skipped,17,88194,,,88194,,88194,2021-10-26T12:10:58.033Z,88233.78,1635250159,full,ni_sequenzen,NI_Sequenzen,,,,,,,,,,,,,,
,Screen_2,canvas.Screen,0_0_16_1,,skipped,17,88194,,,88194,,88194,2021-10-26T12:10:58.034Z,88233.78,1635250159,full,ni_sequenzen,NI_Sequenzen,,,,,,,,,,,,,,
,Screen_3,canvas.Screen,0_0_16_2,,skipped,17,88195,,,88194,,88195,2021-10-26T12:10:58.035Z,88233.78,1635250159,full,ni_sequenzen,NI_Sequenzen,,,,,,,,,,,,,,
,Screen_4,canvas.Screen,0_0_16_3,,skipped,17,88196,,,88194,,88196,2021-10-26T12:10:58.035Z,88233.78,1635250159,full,ni_sequenzen,NI_Sequenzen,,,,,,,,,,,,,,
,Sequence,flow.Sequence,0_0_16,,completion,17,88193,,,88194,,88196,2021-10-26T12:10:58.035Z,88233.78,1635250159,full,ni_sequenzen,NI_Sequenzen,,,,,,,,,,,,,,
,Screen_1,canvas.Screen,0_0_17_0,,skipped,18,88197,,,88197,,88197,2021-10-26T12:10:58.036Z,88233.78,1635250159,full,ni_sequenzen,NI_Sequenzen,,,,,,,,,,,,,,
,Screen_2,canvas.Screen,0_0_17_1,,skipped,18,88198,,,88197,,88198,2021-10-26T12:10:58.037Z,88233.78,1635250159,full,ni_sequenzen,NI_Sequenzen,,,,,,,,,,,,,,
,Screen_3,canvas.Screen,0_0_17_2,,skipped,18,88198,,,88197,,88198,2021-10-26T12:10:58.038Z,88233.78,1635250159,full,ni_sequenzen,NI_Sequenzen,,,,,,,,,,,,,,
,Screen_4,canvas.Screen,0_0_17_3,,skipped,18,88199,,,88197,,88199,2021-10-26T12:10:58.038Z,88233.78,1635250159,full,ni_sequenzen,NI_Sequenzen,,,,,,,,,,,,,,
,Sequence,flow.Sequence,0_0_17,,completion,18,88196,,,88197,,88199,2021-10-26T12:10:58.038Z,88233.78,1635250159,full,ni_sequenzen,NI_Sequenzen,,,,,,,,,,,,,,
,Screen_1,canvas.Screen,0_0_18_0,,skipped,19,88200,,,88200,,88200,2021-10-26T12:10:58.040Z,88233.78,1635250159,full,ni_sequenzen,NI_Sequenzen,,,,,,,,,,,,,,
,Screen_2,canvas.Screen,0_0_18_1,,skipped,19,88201,,,88200,,88202,2021-10-26T12:10:58.041Z,88233.78,1635250159,full,ni_sequenzen,NI_Sequenzen,,,,,,,,,,,,,,
,Screen_3,canvas.Screen,0_0_18_2,,skipped,19,88205,,,88200,,88205,2021-10-26T12:10:58.044Z,88233.78,1635250159,full,ni_sequenzen,NI_Sequenzen,,,,,,,,,,,,,,
,Screen_4,canvas.Screen,0_0_18_3,,skipped,19,88206,,,88200,,88206,2021-10-26T12:10:58.046Z,88233.78,1635250159,full,ni_sequenzen,NI_Sequenzen,,,,,,,,,,,,,,
,Sequence,flow.Sequence,0_0_18,,completion,19,88199,,,88200,,88207,2021-10-26T12:10:58.046Z,88233.78,1635250159,full,ni_sequenzen,NI_Sequenzen,,,,,,,,,,,,,,
,Screen_1,canvas.Screen,0_0_19_0,,skipped,20,88208,,,88208,,88208,2021-10-26T12:10:58.047Z,88233.78,1635250159,full,ni_sequenzen,NI_Sequenzen,,,,,,,,,,,,,,
,Screen_2,canvas.Screen,0_0_19_1,,skipped,20,88208,,,88208,,88208,2021-10-26T12:10:58.048Z,88233.78,1635250159,full,ni_sequenzen,NI_Sequenzen,,,,,,,,,,,,,,
,Screen_3,canvas.Screen,0_0_19_2,,skipped,20,88209,,,88208,,88209,2021-10-26T12:10:58.049Z,88233.78,1635250159,full,ni_sequenzen,NI_Sequenzen,,,,,,,,,,,,,,
,Screen_4,canvas.Screen,0_0_19_3,,skipped,20,88210,,,88208,,88210,2021-10-26T12:10:58.049Z,88233.78,1635250159,full,ni_sequenzen,NI_Sequenzen,,,,,,,,,,,,,,
,Sequence,flow.Sequence,0_0_19,,completion,20,88207,,,88208,,88210,2021-10-26T12:10:58.049Z,88233.78,1635250159,full,ni_sequenzen,NI_Sequenzen,,,,,,,,,,,,,,
,Instructions_I,flow.Loop,0_0,,completion,,2486,2676.84,2701.92,88208,85506.08,88210,2021-10-26T12:10:58.050Z,88233.78,1635250159,full,ni_sequenzen,NI_Sequenzen,,,,,,,,,,,,,,
,Move,canvas.Screen,0_1_0_0,down,response,,88227,88227.08,88233.78,88913,679.2200000000012,88927,2021-10-26T12:10:58.766Z,88950.42,1635250159,full,ni_sequenzen,NI_Sequenzen,1,,,,,,,,,,,,,
,Move,canvas.Screen,0_1_0_1,down,response,,88935,88934.74,88950.42,89429,478.58000000000175,89445,2021-10-26T12:10:59.284Z,89467.08,1635250159,full,ni_sequenzen,NI_Sequenzen,2,,,,,,,,,,,,,
,Move,canvas.Screen,0_1_0_2,right,response,,89455,89455.1,89467.08,89913,445.91999999999825,89916,2021-10-26T12:10:59.756Z,89933.74,1635250159,full,ni_sequenzen,NI_Sequenzen,3,,,,,,,,,,,,,
,Move,canvas.Screen,0_1_0_3,right,response,,89924,89924.28,89933.74,90257,323.25999999999476,90272,2021-10-26T12:11:00.112Z,90283.74,1635250159,full,ni_sequenzen,NI_Sequenzen,4,,,,,,,,,,,,,
,Move,canvas.Screen,0_1_0_4,left,response,,90278,90278.3,90283.74,90679,395.25999999999476,90694,2021-10-26T12:11:00.533Z,90717.06,1635250159,full,ni_sequenzen,NI_Sequenzen,5,,,,,,,,,,,,,
,Move,canvas.Screen,0_1_0_5,left,response,,90707,90707,90717.06,91287,569.9400000000023,91292,2021-10-26T12:11:01.131Z,91300.38,1635250159,full,ni_sequenzen,NI_Sequenzen,6,,,,,,,,,,,,,
,Move,canvas.Screen,0_1_0_6,down,response,,91300,91299.92,91300.38,91694,393.61999999999534,91707,2021-10-26T12:11:01.546Z,91717.04,1635250159,full,ni_sequenzen,NI_Sequenzen,7,,,,,,,,,,,,,
,Move,canvas.Screen,0_1_0_7,down,response,,91716,91716.08,91717.04,92506,788.9600000000064,92510,2021-10-26T12:11:02.350Z,92533.7,1635250159,full,ni_sequenzen,NI_Sequenzen,8,,,,,,,,,,,,,
,Move,canvas.Screen,0_1_0_8,left,response,,92518,92517.88,92533.7,92912,378.3000000000029,92925,2021-10-26T12:11:02.764Z,92933.7,1635250159,full,ni_sequenzen,NI_Sequenzen,9,,,,,,,,,,,,,
,Move,canvas.Screen,0_1_0_9,left,response,,92934,92933.5,92933.7,93288,354.3000000000029,93303,2021-10-26T12:11:03.142Z,93317.02,1635250159,full,ni_sequenzen,NI_Sequenzen,10,,,,,,,,,,,,,
,Move,canvas.Screen,0_1_0_10,right,response,,93313,93312.74,93317.02,94148,830.9799999999959,94161,2021-10-26T12:11:04.000Z,94183.68,1635250159,full,ni_sequenzen,NI_Sequenzen,11,,,,,,,,,,,,,
,Move,canvas.Screen,0_1_0_11,down,response,,94171,94171.14,94183.68,95131,947.320000000007,95137,2021-10-26T12:11:04.977Z,95150.32,1635250159,full,ni_sequenzen,NI_Sequenzen,12,,,,,,,,,,,,,
,Move,canvas.Screen,0_1_0_12,down,response,,95144,95144.76,95150.32,95398,247.67999999999302,95409,2021-10-26T12:11:05.248Z,95416.98,1635250159,full,ni_sequenzen,NI_Sequenzen,13,,,,,,,,,,,,,
,Move,canvas.Screen,0_1_0_13,down,response,,95417,95416.68,95416.98,95632,215.02000000000407,95650,2021-10-26T12:11:05.489Z,95666.98,1635250159,full,ni_sequenzen,NI_Sequenzen,14,,,,,,,,,,,,,
,Move,canvas.Screen,0_1_0_14,down,response,,95660,95659.6,95666.98,95882,215.02000000000407,95898,2021-10-26T12:11:05.738Z,95916.98,1635250159,full,ni_sequenzen,NI_Sequenzen,15,,,,,,,,,,,,,
,Move,canvas.Screen,0_1_0_15,right,response,,95908,95908,95916.98,96178,261.0200000000041,96184,2021-10-26T12:11:06.023Z,96200.3,1635250159,full,ni_sequenzen,NI_Sequenzen,16,,,,,,,,,,,,,
,Move,canvas.Screen,0_1_0_16,right,response,,96191,96191.02,96200.3,96507,306.6999999999971,96515,2021-10-26T12:11:06.354Z,96533.64,1635250159,full,ni_sequenzen,NI_Sequenzen,17,,,,,,,,,,,,,
,Move,canvas.Screen,0_1_0_17,right,response,,96525,96525.08,96533.64,97085,551.3600000000006,97097,2021-10-26T12:11:06.936Z,97116.96,1635250159,full,ni_sequenzen,NI_Sequenzen,18,,,,,,,,,,,,,
,Move,canvas.Screen,0_1_0_18,right,response,,97103,97103.14,97116.96,97350,233.0399999999936,97364,2021-10-26T12:11:07.204Z,97383.62,1635250159,full,ni_sequenzen,NI_Sequenzen,19,,,,,,,,,,,,,
,Move,canvas.Screen,0_1_0_19,down,response,,97371,97371.02,97383.62,97648,264.38000000000466,97657,2021-10-26T12:11:07.496Z,97666.94,1635250159,full,ni_sequenzen,NI_Sequenzen,20,,,,,,,,,,,,,
,Move,canvas.Screen,0_1_0_20,down,response,,97663,97663.24,97666.94,97882,215.05999999999767,97896,2021-10-26T12:11:07.734Z,97900.28,1635250159,full,ni_sequenzen,NI_Sequenzen,21,,,,,,,,,,,,,
,Move,canvas.Screen,0_1_0_21,down,response,,97900,97900.04,97900.28,98085,184.72000000000116,98098,2021-10-26T12:11:07.938Z,98116.94,1635250159,full,ni_sequenzen,NI_Sequenzen,22,,,,,,,,,,,,,
,Move,canvas.Screen,0_1_0_22,down,response,,98106,98106.28,98116.94,98256,139.05999999999767,98272,2021-10-26T12:11:08.112Z,98283.6,1635250159,full,ni_sequenzen,NI_Sequenzen,23,,,,,,,,,,,,,
,Move,canvas.Screen,0_1_0_23,left,response,,98278,98277.76,98283.6,98553,269.3999999999942,98573,2021-10-26T12:11:08.412Z,98583.6,1635250159,full,ni_sequenzen,NI_Sequenzen,24,,,,,,,,,,,,,
,Move,canvas.Screen,0_1_0_24,left,response,,98581,98580.7,98583.6,99147,563.3999999999942,99159,2021-10-26T12:11:08.998Z,99166.92,1635250159,full,ni_sequenzen,NI_Sequenzen,25,,,,,,,,,,,,,
,Move,canvas.Screen,0_1_0_25,down,response,,99165,99165.02,99166.92,99569,402.08000000000175,99576,2021-10-26T12:11:09.416Z,99583.58,1635250159,full,ni_sequenzen,NI_Sequenzen,26,,,,,,,,,,,,,
,Move,canvas.Screen,0_1_0_26,down,response,,99583,99583.2,99583.58,99851,267.41999999999825,99870,2021-10-26T12:11:09.710Z,99883.58,1635250159,full,ni_sequenzen,NI_Sequenzen,27,,,,,,,,,,,,,
,Move,canvas.Screen,0_1_0_27,left,response,,99878,99877.76,99883.58,101569,1685.4199999999983,101585,2021-10-26T12:11:11.425Z,101600.2,1635250159,full,ni_sequenzen,NI_Sequenzen,28,,,,,,,,,,,,,
,Move,canvas.Screen,0_1_0_28,left,response,,101594,101593.84,101600.2,101850,249.8000000000029,101859,2021-10-26T12:11:11.697Z,101866.88,1635250159,full,ni_sequenzen,NI_Sequenzen,29,,,,,,,,,,,,,
,Move,canvas.Screen,0_1_0_29,right,response,,101862,101862.4,101866.88,102835,968.1199999999953,102841,2021-10-26T12:11:12.681Z,102900.18,1635250159,full,ni_sequenzen,NI_Sequenzen,30,,,,,,,,,,,,,
,Loop,flow.Loop,0_1_0,-999,completion,,88225,88227.08,88233.78,102835,14601.220000000001,102842,2021-10-26T12:11:12.682Z,102900.18,1635250159,full,ni_sequenzen,NI_Sequenzen,,,,,,,,,,,,,,
,Training_I,flow.Sequence,0_1,,completion,,88210,88227.08,88233.78,102835,14601.220000000001,102842,2021-10-26T12:11:12.682Z,102900.18,1635250159,full,ni_sequenzen,NI_Sequenzen,,,,,,,,,,,,,,
,Screen_1,canvas.Screen,0_2_0_0,cont,response,1,102889,102889.04,102900.18,103054,153.82000000000698,103058,2021-10-26T12:11:12.897Z,103233.52,1635250159,full,ni_sequenzen,NI_Sequenzen,,,,,,,,,,,,,,
,Screen_2,canvas.Screen,0_2_0_1,back,response,1,103228,103228.36,103233.52,104147,913.4799999999959,104152,2021-10-26T12:11:13.991Z,104366.82,1635250159,full,ni_sequenzen,NI_Sequenzen,,,,,,,,,,,,,,
,Screen_3,canvas.Screen,0_2_0_2,,skipped,1,104156,,,104147,,104157,2021-10-26T12:11:13.996Z,104366.82,1635250159,full,ni_sequenzen,NI_Sequenzen,,,,,,,,,,,,,,
,Screen_4,canvas.Screen,0_2_0_3,,skipped,1,104295,,,104147,,104296,2021-10-26T12:11:14.135Z,104366.82,1635250159,full,ni_sequenzen,NI_Sequenzen,,,,,,,,,,,,,,
,Screen_5,canvas.Screen,0_2_0_4,,skipped,1,104297,,,104147,,104297,2021-10-26T12:11:14.136Z,104366.82,1635250159,full,ni_sequenzen,NI_Sequenzen,,,,,,,,,,,,,,
,Screen_6,canvas.Screen,0_2_0_5,,skipped,1,104358,,,104147,,104358,2021-10-26T12:11:14.198Z,104366.82,1635250159,full,ni_sequenzen,NI_Sequenzen,,,,,,,,,,,,,,
,Sequence,flow.Sequence,0_2_0,,completion,1,102887,102889.04,102900.18,104147,1246.820000000007,104359,2021-10-26T12:11:14.198Z,104366.82,1635250159,full,ni_sequenzen,NI_Sequenzen,,,,,,,,,,,,,,
,Screen_1,canvas.Screen,0_2_1_0,cont,response,2,104360,104360.48,104366.82,135584,31217.179999999993,135598,2021-10-26T12:11:45.438Z,135616.28,1635250159,full,ni_sequenzen,NI_Sequenzen,,,,,,,,,,,,,,
,Screen_2,canvas.Screen,0_2_1_1,cont,response,2,135608,135608.54,135616.28,151475,15858.720000000001,151483,2021-10-26T12:12:01.323Z,151499.34,1635250159,full,ni_sequenzen,NI_Sequenzen,,,,,,,,,,,,,,
,Screen_3,canvas.Screen,0_2_1_2,cont,response,2,151494,151494.44,151499.34,167523,16023.660000000003,167539,2021-10-26T12:12:17.378Z,167549.06,1635250159,full,ni_sequenzen,NI_Sequenzen,,,,,,,,,,,,,,
,Screen_4,canvas.Screen,0_2_1_3,cont,response,2,167545,167545.14,167549.06,174209,6659.940000000002,174221,2021-10-26T12:12:24.061Z,174232.18,1635250159,full,ni_sequenzen,NI_Sequenzen,,,,,,,,,,,,,,
,Screen_5,canvas.Screen,0_2_1_4,cont,response,2,174225,174225.82,174232.18,183367,9134.820000000007,183375,2021-10-26T12:12:33.214Z,183382.02,1635250159,full,ni_sequenzen,NI_Sequenzen,,,,,,,,,,,,,,
,Screen_6,canvas.Screen,0_2_1_5,cont,response,2,183381,183380.74,183382.02,196319,12936.98000000001,196330,2021-10-26T12:12:46.170Z,196598.46,1635250159,full,ni_sequenzen,NI_Sequenzen,,,,,,,,,,,,,,
,Sequence,flow.Sequence,0_2_1,,completion,2,104359,104360.48,104366.82,196319,91952.18,196332,2021-10-26T12:12:46.171Z,196598.46,1635250159,full,ni_sequenzen,NI_Sequenzen,,,,,,,,,,,,,,
,Screen_1,canvas.Screen,0_2_2_0,,skipped,3,196338,,,196338,,196338,2021-10-26T12:12:46.178Z,196598.46,1635250159,full,ni_sequenzen,NI_Sequenzen,,,,,,,,,,,,,,
,Screen_2,canvas.Screen,0_2_2_1,,skipped,3,196341,,,196338,,196341,2021-10-26T12:12:46.181Z,196598.46,1635250159,full,ni_sequenzen,NI_Sequenzen,,,,,,,,,,,,,,
,Screen_3,canvas.Screen,0_2_2_2,,skipped,3,196344,,,196338,,196344,2021-10-26T12:12:46.183Z,196598.46,1635250159,full,ni_sequenzen,NI_Sequenzen,,,,,,,,,,,,,,
,Screen_4,canvas.Screen,0_2_2_3,,skipped,3,196346,,,196338,,196346,2021-10-26T12:12:46.185Z,196598.46,1635250159,full,ni_sequenzen,NI_Sequenzen,,,,,,,,,,,,,,
,Screen_5,canvas.Screen,0_2_2_4,,skipped,3,196347,,,196338,,196348,2021-10-26T12:12:46.187Z,196598.46,1635250159,full,ni_sequenzen,NI_Sequenzen,,,,,,,,,,,,,,
,Screen_6,canvas.Screen,0_2_2_5,,skipped,3,196350,,,196338,,196350,2021-10-26T12:12:46.189Z,196598.46,1635250159,full,ni_sequenzen,NI_Sequenzen,,,,,,,,,,,,,,
,Sequence,flow.Sequence,0_2_2,,completion,3,196335,,,196338,,196351,2021-10-26T12:12:46.190Z,196598.46,1635250159,full,ni_sequenzen,NI_Sequenzen,,,,,,,,,,,,,,
,Screen_1,canvas.Screen,0_2_3_0,,skipped,4,196355,,,196355,,196356,2021-10-26T12:12:46.195Z,196598.46,1635250159,full,ni_sequenzen,NI_Sequenzen,,,,,,,,,,,,,,
,Screen_2,canvas.Screen,0_2_3_1,,skipped,4,196357,,,196355,,196357,2021-10-26T12:12:46.196Z,196598.46,1635250159,full,ni_sequenzen,NI_Sequenzen,,,,,,,,,,,,,,
,Screen_3,canvas.Screen,0_2_3_2,,skipped,4,196358,,,196355,,196358,2021-10-26T12:12:46.197Z,196598.46,1635250159,full,ni_sequenzen,NI_Sequenzen,,,,,,,,,,,,,,
,Screen_4,canvas.Screen,0_2_3_3,,skipped,4,196359,,,196355,,196359,2021-10-26T12:12:46.199Z,196598.46,1635250159,full,ni_sequenzen,NI_Sequenzen,,,,,,,,,,,,,,
,Screen_5,canvas.Screen,0_2_3_4,,skipped,4,196362,,,196355,,196362,2021-10-26T12:12:46.201Z,196598.46,1635250159,full,ni_sequenzen,NI_Sequenzen,,,,,,,,,,,,,,
,Screen_6,canvas.Screen,0_2_3_5,,skipped,4,196364,,,196355,,196364,2021-10-26T12:12:46.203Z,196598.46,1635250159,full,ni_sequenzen,NI_Sequenzen,,,,,,,,,,,,,,
,Sequence,flow.Sequence,0_2_3,,completion,4,196353,,,196355,,196364,2021-10-26T12:12:46.203Z,196598.46,1635250159,full,ni_sequenzen,NI_Sequenzen,,,,,,,,,,,,,,
,Screen_1,canvas.Screen,0_2_4_0,,skipped,5,196369,,,196369,,196369,2021-10-26T12:12:46.208Z,196598.46,1635250159,full,ni_sequenzen,NI_Sequenzen,,,,,,,,,,,,,,
,Screen_2,canvas.Screen,0_2_4_1,,skipped,5,196372,,,196369,,196372,2021-10-26T12:12:46.211Z,196598.46,1635250159,full,ni_sequenzen,NI_Sequenzen,,,,,,,,,,,,,,
,Screen_3,canvas.Screen,0_2_4_2,,skipped,5,196373,,,196369,,196373,2021-10-26T12:12:46.212Z,196598.46,1635250159,full,ni_sequenzen,NI_Sequenzen,,,,,,,,,,,,,,
,Screen_4,canvas.Screen,0_2_4_3,,skipped,5,196375,,,196369,,196375,2021-10-26T12:12:46.215Z,196598.46,1635250159,full,ni_sequenzen,NI_Sequenzen,,,,,,,,,,,,,,
,Screen_5,canvas.Screen,0_2_4_4,,skipped,5,196376,,,196369,,196376,2021-10-26T12:12:46.215Z,196598.46,1635250159,full,ni_sequenzen,NI_Sequenzen,,,,,,,,,,,,,,
,Screen_6,canvas.Screen,0_2_4_5,,skipped,5,196377,,,196369,,196378,2021-10-26T12:12:46.217Z,196598.46,1635250159,full,ni_sequenzen,NI_Sequenzen,,,,,,,,,,,,,,
,Sequence,flow.Sequence,0_2_4,,completion,5,196366,,,196369,,196378,2021-10-26T12:12:46.217Z,196598.46,1635250159,full,ni_sequenzen,NI_Sequenzen,,,,,,,,,,,,,,
,Screen_1,canvas.Screen,0_2_5_0,,skipped,6,196379,,,196379,,196379,2021-10-26T12:12:46.218Z,196598.46,1635250159,full,ni_sequenzen,NI_Sequenzen,,,,,,,,,,,,,,
,Screen_2,canvas.Screen,0_2_5_1,,skipped,6,196380,,,196379,,196380,2021-10-26T12:12:46.220Z,196598.46,1635250159,full,ni_sequenzen,NI_Sequenzen,,,,,,,,,,,,,,
,Screen_3,canvas.Screen,0_2_5_2,,skipped,6,196381,,,196379,,196381,2021-10-26T12:12:46.221Z,196598.46,1635250159,full,ni_sequenzen,NI_Sequenzen,,,,,,,,,,,,,,
,Screen_4,canvas.Screen,0_2_5_3,,skipped,6,196382,,,196379,,196382,2021-10-26T12:12:46.222Z,196598.46,1635250159,full,ni_sequenzen,NI_Sequenzen,,,,,,,,,,,,,,
,Screen_5,canvas.Screen,0_2_5_4,,skipped,6,196386,,,196379,,196386,2021-10-26T12:12:46.225Z,196598.46,1635250159,full,ni_sequenzen,NI_Sequenzen,,,,,,,,,,,,,,
,Screen_6,canvas.Screen,0_2_5_5,,skipped,6,196388,,,196379,,196388,2021-10-26T12:12:46.228Z,196598.46,1635250159,full,ni_sequenzen,NI_Sequenzen,,,,,,,,,,,,,,
,Sequence,flow.Sequence,0_2_5,,completion,6,196378,,,196379,,196388,2021-10-26T12:12:46.228Z,196598.46,1635250159,full,ni_sequenzen,NI_Sequenzen,,,,,,,,,,,,,,
,Screen_1,canvas.Screen,0_2_6_0,,skipped,7,196390,,,196390,,196390,2021-10-26T12:12:46.229Z,196598.46,1635250159,full,ni_sequenzen,NI_Sequenzen,,,,,,,,,,,,,,
,Screen_2,canvas.Screen,0_2_6_1,,skipped,7,196391,,,196390,,196391,2021-10-26T12:12:46.230Z,196598.46,1635250159,full,ni_sequenzen,NI_Sequenzen,,,,,,,,,,,,,,
,Screen_3,canvas.Screen,0_2_6_2,,skipped,7,196392,,,196390,,196392,2021-10-26T12:12:46.231Z,196598.46,1635250159,full,ni_sequenzen,NI_Sequenzen,,,,,,,,,,,,,,
,Screen_4,canvas.Screen,0_2_6_3,,skipped,7,196392,,,196390,,196392,2021-10-26T12:12:46.232Z,196598.46,1635250159,full,ni_sequenzen,NI_Sequenzen,,,,,,,,,,,,,,
,Screen_5,canvas.Screen,0_2_6_4,,skipped,7,196393,,,196390,,196393,2021-10-26T12:12:46.232Z,196598.46,1635250159,full,ni_sequenzen,NI_Sequenzen,,,,,,,,,,,,,,
,Screen_6,canvas.Screen,0_2_6_5,,skipped,7,196394,,,196390,,196394,2021-10-26T12:12:46.233Z,196598.46,1635250159,full,ni_sequenzen,NI_Sequenzen,,,,,,,,,,,,,,
,Sequence,flow.Sequence,0_2_6,,completion,7,196388,,,196390,,196394,2021-10-26T12:12:46.234Z,196598.46,1635250159,full,ni_sequenzen,NI_Sequenzen,,,,,,,,,,,,,,
,Screen_1,canvas.Screen,0_2_7_0,,skipped,8,196396,,,196396,,196396,2021-10-26T12:12:46.235Z,196598.46,1635250159,full,ni_sequenzen,NI_Sequenzen,,,,,,,,,,,,,,
,Screen_2,canvas.Screen,0_2_7_1,,skipped,8,196396,,,196396,,196396,2021-10-26T12:12:46.236Z,196598.46,1635250159,full,ni_sequenzen,NI_Sequenzen,,,,,,,,,,,,,,
,Screen_3,canvas.Screen,0_2_7_2,,skipped,8,196397,,,196396,,196397,2021-10-26T12:12:46.237Z,196598.46,1635250159,full,ni_sequenzen,NI_Sequenzen,,,,,,,,,,,,,,
,Screen_4,canvas.Screen,0_2_7_3,,skipped,8,196399,,,196396,,196399,2021-10-26T12:12:46.238Z,196598.46,1635250159,full,ni_sequenzen,NI_Sequenzen,,,,,,,,,,,,,,
,Screen_5,canvas.Screen,0_2_7_4,,skipped,8,196401,,,196396,,196402,2021-10-26T12:12:46.241Z,196598.46,1635250159,full,ni_sequenzen,NI_Sequenzen,,,,,,,,,,,,,,
,Screen_6,canvas.Screen,0_2_7_5,,skipped,8,196404,,,196396,,196404,2021-10-26T12:12:46.243Z,196598.46,1635250159,full,ni_sequenzen,NI_Sequenzen,,,,,,,,,,,,,,
,Sequence,flow.Sequence,0_2_7,,completion,8,196395,,,196396,,196404,2021-10-26T12:12:46.243Z,196598.46,1635250159,full,ni_sequenzen,NI_Sequenzen,,,,,,,,,,,,,,
,Screen_1,canvas.Screen,0_2_8_0,,skipped,9,196405,,,196405,,196405,2021-10-26T12:12:46.245Z,196598.46,1635250159,full,ni_sequenzen,NI_Sequenzen,,,,,,,,,,,,,,
,Screen_2,canvas.Screen,0_2_8_1,,skipped,9,196407,,,196405,,196407,2021-10-26T12:12:46.246Z,196598.46,1635250159,full,ni_sequenzen,NI_Sequenzen,,,,,,,,,,,,,,
,Screen_3,canvas.Screen,0_2_8_2,,skipped,9,196408,,,196405,,196408,2021-10-26T12:12:46.247Z,196598.46,1635250159,full,ni_sequenzen,NI_Sequenzen,,,,,,,,,,,,,,
,Screen_4,canvas.Screen,0_2_8_3,,skipped,9,196408,,,196405,,196408,2021-10-26T12:12:46.248Z,196598.46,1635250159,full,ni_sequenzen,NI_Sequenzen,,,,,,,,,,,,,,
,Screen_5,canvas.Screen,0_2_8_4,,skipped,9,196409,,,196405,,196409,2021-10-26T12:12:46.249Z,196598.46,1635250159,full,ni_sequenzen,NI_Sequenzen,,,,,,,,,,,,,,
,Screen_6,canvas.Screen,0_2_8_5,,skipped,9,196411,,,196405,,196411,2021-10-26T12:12:46.251Z,196598.46,1635250159,full,ni_sequenzen,NI_Sequenzen,,,,,,,,,,,,,,
,Sequence,flow.Sequence,0_2_8,,completion,9,196405,,,196405,,196411,2021-10-26T12:12:46.251Z,196598.46,1635250159,full,ni_sequenzen,NI_Sequenzen,,,,,,,,,,,,,,
,Screen_1,canvas.Screen,0_2_9_0,,skipped,10,196412,,,196412,,196412,2021-10-26T12:12:46.252Z,196598.46,1635250159,full,ni_sequenzen,NI_Sequenzen,,,,,,,,,,,,,,
,Screen_2,canvas.Screen,0_2_9_1,,skipped,10,196413,,,196412,,196413,2021-10-26T12:12:46.252Z,196598.46,1635250159,full,ni_sequenzen,NI_Sequenzen,,,,,,,,,,,,,,
,Screen_3,canvas.Screen,0_2_9_2,,skipped,10,196414,,,196412,,196414,2021-10-26T12:12:46.253Z,196598.46,1635250159,full,ni_sequenzen,NI_Sequenzen,,,,,,,,,,,,,,
,Screen_4,canvas.Screen,0_2_9_3,,skipped,10,196414,,,196412,,196415,2021-10-26T12:12:46.254Z,196598.46,1635250159,full,ni_sequenzen,NI_Sequenzen,,,,,,,,,,,,,,
,Screen_5,canvas.Screen,0_2_9_4,,skipped,10,196416,,,196412,,196416,2021-10-26T12:12:46.256Z,196598.46,1635250159,full,ni_sequenzen,NI_Sequenzen,,,,,,,,,,,,,,
,Screen_6,canvas.Screen,0_2_9_5,,skipped,10,196419,,,196412,,196419,2021-10-26T12:12:46.259Z,196598.46,1635250159,full,ni_sequenzen,NI_Sequenzen,,,,,,,,,,,,,,
,Sequence,flow.Sequence,0_2_9,,completion,10,196412,,,196412,,196420,2021-10-26T12:12:46.259Z,196598.46,1635250159,full,ni_sequenzen,NI_Sequenzen,,,,,,,,,,,,,,
,Screen_1,canvas.Screen,0_2_10_0,,skipped,11,196421,,,196421,,196421,2021-10-26T12:12:46.260Z,196598.46,1635250159,full,ni_sequenzen,NI_Sequenzen,,,,,,,,,,,,,,
,Screen_2,canvas.Screen,0_2_10_1,,skipped,11,196422,,,196421,,196422,2021-10-26T12:12:46.262Z,196598.46,1635250159,full,ni_sequenzen,NI_Sequenzen,,,,,,,,,,,,,,
,Screen_3,canvas.Screen,0_2_10_2,,skipped,11,196424,,,196421,,196424,2021-10-26T12:12:46.264Z,196598.46,1635250159,full,ni_sequenzen,NI_Sequenzen,,,,,,,,,,,,,,
,Screen_4,canvas.Screen,0_2_10_3,,skipped,11,196425,,,196421,,196425,2021-10-26T12:12:46.264Z,196598.46,1635250159,full,ni_sequenzen,NI_Sequenzen,,,,,,,,,,,,,,
,Screen_5,canvas.Screen,0_2_10_4,,skipped,11,196426,,,196421,,196426,2021-10-26T12:12:46.265Z,196598.46,1635250159,full,ni_sequenzen,NI_Sequenzen,,,,,,,,,,,,,,
,Screen_6,canvas.Screen,0_2_10_5,,skipped,11,196426,,,196421,,196427,2021-10-26T12:12:46.266Z,196598.46,1635250159,full,ni_sequenzen,NI_Sequenzen,,,,,,,,,,,,,,
,Sequence,flow.Sequence,0_2_10,,completion,11,196420,,,196421,,196427,2021-10-26T12:12:46.266Z,196598.46,1635250159,full,ni_sequenzen,NI_Sequenzen,,,,,,,,,,,,,,
,Screen_1,canvas.Screen,0_2_11_0,,skipped,12,196428,,,196428,,196428,2021-10-26T12:12:46.267Z,196598.46,1635250159,full,ni_sequenzen,NI_Sequenzen,,,,,,,,,,,,,,
,Screen_2,canvas.Screen,0_2_11_1,,skipped,12,196429,,,196428,,196429,2021-10-26T12:12:46.268Z,196598.46,1635250159,full,ni_sequenzen,NI_Sequenzen,,,,,,,,,,,,,,
,Screen_3,canvas.Screen,0_2_11_2,,skipped,12,196430,,,196428,,196430,2021-10-26T12:12:46.269Z,196598.46,1635250159,full,ni_sequenzen,NI_Sequenzen,,,,,,,,,,,,,,
,Screen_4,canvas.Screen,0_2_11_3,,skipped,12,196431,,,196428,,196431,2021-10-26T12:12:46.270Z,196598.46,1635250159,full,ni_sequenzen,NI_Sequenzen,,,,,,,,,,,,,,
,Screen_5,canvas.Screen,0_2_11_4,,skipped,12,196431,,,196428,,196431,2021-10-26T12:12:46.270Z,196598.46,1635250159,full,ni_sequenzen,NI_Sequenzen,,,,,,,,,,,,,,
,Screen_6,canvas.Screen,0_2_11_5,,skipped,12,196433,,,196428,,196433,2021-10-26T12:12:46.273Z,196598.46,1635250159,full,ni_sequenzen,NI_Sequenzen,,,,,,,,,,,,,,
,Sequence,flow.Sequence,0_2_11,,completion,12,196428,,,196428,,196434,2021-10-26T12:12:46.274Z,196598.46,1635250159,full,ni_sequenzen,NI_Sequenzen,,,,,,,,,,,,,,
,Screen_1,canvas.Screen,0_2_12_0,,skipped,13,196438,,,196438,,196438,2021-10-26T12:12:46.278Z,196598.46,1635250159,full,ni_sequenzen,NI_Sequenzen,,,,,,,,,,,,,,
,Screen_2,canvas.Screen,0_2_12_1,,skipped,13,196440,,,196438,,196440,2021-10-26T12:12:46.279Z,196598.46,1635250159,full,ni_sequenzen,NI_Sequenzen,,,,,,,,,,,,,,
,Screen_3,canvas.Screen,0_2_12_2,,skipped,13,196441,,,196438,,196441,2021-10-26T12:12:46.280Z,196598.46,1635250159,full,ni_sequenzen,NI_Sequenzen,,,,,,,,,,,,,,
,Screen_4,canvas.Screen,0_2_12_3,,skipped,13,196442,,,196438,,196442,2021-10-26T12:12:46.281Z,196598.46,1635250159,full,ni_sequenzen,NI_Sequenzen,,,,,,,,,,,,,,
,Screen_5,canvas.Screen,0_2_12_4,,skipped,13,196443,,,196438,,196443,2021-10-26T12:12:46.282Z,196598.46,1635250159,full,ni_sequenzen,NI_Sequenzen,,,,,,,,,,,,,,
,Screen_6,canvas.Screen,0_2_12_5,,skipped,13,196444,,,196438,,196444,2021-10-26T12:12:46.284Z,196598.46,1635250159,full,ni_sequenzen,NI_Sequenzen,,,,,,,,,,,,,,
,Sequence,flow.Sequence,0_2_12,,completion,13,196436,,,196438,,196444,2021-10-26T12:12:46.284Z,196598.46,1635250159,full,ni_sequenzen,NI_Sequenzen,,,,,,,,,,,,,,
,Screen_1,canvas.Screen,0_2_13_0,,skipped,14,196447,,,196447,,196447,2021-10-26T12:12:46.287Z,196598.46,1635250159,full,ni_sequenzen,NI_Sequenzen,,,,,,,,,,,,,,
,Screen_2,canvas.Screen,0_2_13_1,,skipped,14,196448,,,196447,,196448,2021-10-26T12:12:46.287Z,196598.46,1635250159,full,ni_sequenzen,NI_Sequenzen,,,,,,,,,,,,,,
,Screen_3,canvas.Screen,0_2_13_2,,skipped,14,196449,,,196447,,196449,2021-10-26T12:12:46.288Z,196598.46,1635250159,full,ni_sequenzen,NI_Sequenzen,,,,,,,,,,,,,,
,Screen_4,canvas.Screen,0_2_13_3,,skipped,14,196451,,,196447,,196451,2021-10-26T12:12:46.290Z,196598.46,1635250159,full,ni_sequenzen,NI_Sequenzen,,,,,,,,,,,,,,
,Screen_5,canvas.Screen,0_2_13_4,,skipped,14,196453,,,196447,,196453,2021-10-26T12:12:46.292Z,196598.46,1635250159,full,ni_sequenzen,NI_Sequenzen,,,,,,,,,,,,,,
,Screen_6,canvas.Screen,0_2_13_5,,skipped,14,196454,,,196447,,196454,2021-10-26T12:12:46.294Z,196598.46,1635250159,full,ni_sequenzen,NI_Sequenzen,,,,,,,,,,,,,,
,Sequence,flow.Sequence,0_2_13,,completion,14,196446,,,196447,,196455,2021-10-26T12:12:46.294Z,196598.46,1635250159,full,ni_sequenzen,NI_Sequenzen,,,,,,,,,,,,,,
,Screen_1,canvas.Screen,0_2_14_0,,skipped,15,196455,,,196455,,196455,2021-10-26T12:12:46.295Z,196598.46,1635250159,full,ni_sequenzen,NI_Sequenzen,,,,,,,,,,,,,,
,Screen_2,canvas.Screen,0_2_14_1,,skipped,15,196456,,,196455,,196456,2021-10-26T12:12:46.296Z,196598.46,1635250159,full,ni_sequenzen,NI_Sequenzen,,,,,,,,,,,,,,
,Screen_3,canvas.Screen,0_2_14_2,,skipped,15,196457,,,196455,,196457,2021-10-26T12:12:46.296Z,196598.46,1635250159,full,ni_sequenzen,NI_Sequenzen,,,,,,,,,,,,,,
,Screen_4,canvas.Screen,0_2_14_3,,skipped,15,196457,,,196455,,196458,2021-10-26T12:12:46.297Z,196598.46,1635250159,full,ni_sequenzen,NI_Sequenzen,,,,,,,,,,,,,,
,Screen_5,canvas.Screen,0_2_14_4,,skipped,15,196458,,,196455,,196458,2021-10-26T12:12:46.298Z,196598.46,1635250159,full,ni_sequenzen,NI_Sequenzen,,,,,,,,,,,,,,
,Screen_6,canvas.Screen,0_2_14_5,,skipped,15,196459,,,196455,,196459,2021-10-26T12:12:46.298Z,196598.46,1635250159,full,ni_sequenzen,NI_Sequenzen,,,,,,,,,,,,,,
,Sequence,flow.Sequence,0_2_14,,completion,15,196455,,,196455,,196459,2021-10-26T12:12:46.298Z,196598.46,1635250159,full,ni_sequenzen,NI_Sequenzen,,,,,,,,,,,,,,
,Screen_1,canvas.Screen,0_2_15_0,,skipped,16,196460,,,196460,,196460,2021-10-26T12:12:46.299Z,196598.46,1635250159,full,ni_sequenzen,NI_Sequenzen,,,,,,,,,,,,,,
,Screen_2,canvas.Screen,0_2_15_1,,skipped,16,196461,,,196460,,196461,2021-10-26T12:12:46.300Z,196598.46,1635250159,full,ni_sequenzen,NI_Sequenzen,,,,,,,,,,,,,,
,Screen_3,canvas.Screen,0_2_15_2,,skipped,16,196462,,,196460,,196462,2021-10-26T12:12:46.301Z,196598.46,1635250159,full,ni_sequenzen,NI_Sequenzen,,,,,,,,,,,,,,
,Screen_4,canvas.Screen,0_2_15_3,,skipped,16,196462,,,196460,,196462,2021-10-26T12:12:46.302Z,196598.46,1635250159,full,ni_sequenzen,NI_Sequenzen,,,,,,,,,,,,,,
,Screen_5,canvas.Screen,0_2_15_4,,skipped,16,196464,,,196460,,196464,2021-10-26T12:12:46.303Z,196598.46,1635250159,full,ni_sequenzen,NI_Sequenzen,,,,,,,,,,,,,,
,Screen_6,canvas.Screen,0_2_15_5,,skipped,16,196465,,,196460,,196465,2021-10-26T12:12:46.304Z,196598.46,1635250159,full,ni_sequenzen,NI_Sequenzen,,,,,,,,,,,,,,
,Sequence,flow.Sequence,0_2_15,,completion,16,196460,,,196460,,196465,2021-10-26T12:12:46.304Z,196598.46,1635250159,full,ni_sequenzen,NI_Sequenzen,,,,,,,,,,,,,,
,Screen_1,canvas.Screen,0_2_16_0,,skipped,17,196466,,,196466,,196466,2021-10-26T12:12:46.305Z,196598.46,1635250159,full,ni_sequenzen,NI_Sequenzen,,,,,,,,,,,,,,
,Screen_2,canvas.Screen,0_2_16_1,,skipped,17,196469,,,196466,,196469,2021-10-26T12:12:46.308Z,196598.46,1635250159,full,ni_sequenzen,NI_Sequenzen,,,,,,,,,,,,,,
,Screen_3,canvas.Screen,0_2_16_2,,skipped,17,196470,,,196466,,196470,2021-10-26T12:12:46.310Z,196598.46,1635250159,full,ni_sequenzen,NI_Sequenzen,,,,,,,,,,,,,,
,Screen_4,canvas.Screen,0_2_16_3,,skipped,17,196472,,,196466,,196472,2021-10-26T12:12:46.311Z,196598.46,1635250159,full,ni_sequenzen,NI_Sequenzen,,,,,,,,,,,,,,
,Screen_5,canvas.Screen,0_2_16_4,,skipped,17,196473,,,196466,,196473,2021-10-26T12:12:46.312Z,196598.46,1635250159,full,ni_sequenzen,NI_Sequenzen,,,,,,,,,,,,,,
,Screen_6,canvas.Screen,0_2_16_5,,skipped,17,196473,,,196466,,196473,2021-10-26T12:12:46.312Z,196598.46,1635250159,full,ni_sequenzen,NI_Sequenzen,,,,,,,,,,,,,,
,Sequence,flow.Sequence,0_2_16,,completion,17,196465,,,196466,,196473,2021-10-26T12:12:46.312Z,196598.46,1635250159,full,ni_sequenzen,NI_Sequenzen,,,,,,,,,,,,,,
,Screen_1,canvas.Screen,0_2_17_0,,skipped,18,196474,,,196474,,196474,2021-10-26T12:12:46.313Z,196598.46,1635250159,full,ni_sequenzen,NI_Sequenzen,,,,,,,,,,,,,,
,Screen_2,canvas.Screen,0_2_17_1,,skipped,18,196474,,,196474,,196474,2021-10-26T12:12:46.314Z,196598.46,1635250159,full,ni_sequenzen,NI_Sequenzen,,,,,,,,,,,,,,
,Screen_3,canvas.Screen,0_2_17_2,,skipped,18,196475,,,196474,,196475,2021-10-26T12:12:46.315Z,196598.46,1635250159,full,ni_sequenzen,NI_Sequenzen,,,,,,,,,,,,,,
,Screen_4,canvas.Screen,0_2_17_3,,skipped,18,196476,,,196474,,196476,2021-10-26T12:12:46.315Z,196598.46,1635250159,full,ni_sequenzen,NI_Sequenzen,,,,,,,,,,,,,,
,Screen_5,canvas.Screen,0_2_17_4,,skipped,18,196477,,,196474,,196477,2021-10-26T12:12:46.316Z,196598.46,1635250159,full,ni_sequenzen,NI_Sequenzen,,,,,,,,,,,,,,
,Screen_6,canvas.Screen,0_2_17_5,,skipped,18,196477,,,196474,,196477,2021-10-26T12:12:46.317Z,196598.46,1635250159,full,ni_sequenzen,NI_Sequenzen,,,,,,,,,,,,,,
,Sequence,flow.Sequence,0_2_17,,completion,18,196474,,,196474,,196477,2021-10-26T12:12:46.317Z,196598.46,1635250159,full,ni_sequenzen,NI_Sequenzen,,,,,,,,,,,,,,
,Screen_1,canvas.Screen,0_2_18_0,,skipped,19,196479,,,196479,,196479,2021-10-26T12:12:46.318Z,196598.46,1635250159,full,ni_sequenzen,NI_Sequenzen,,,,,,,,,,,,,,
,Screen_2,canvas.Screen,0_2_18_1,,skipped,19,196480,,,196479,,196480,2021-10-26T12:12:46.319Z,196598.46,1635250159,full,ni_sequenzen,NI_Sequenzen,,,,,,,,,,,,,,
,Screen_3,canvas.Screen,0_2_18_2,,skipped,19,196480,,,196479,,196480,2021-10-26T12:12:46.320Z,196598.46,1635250159,full,ni_sequenzen,NI_Sequenzen,,,,,,,,,,,,,,
,Screen_4,canvas.Screen,0_2_18_3,,skipped,19,196481,,,196479,,196481,2021-10-26T12:12:46.320Z,196598.46,1635250159,full,ni_sequenzen,NI_Sequenzen,,,,,,,,,,,,,,
,Screen_5,canvas.Screen,0_2_18_4,,skipped,19,196482,,,196479,,196482,2021-10-26T12:12:46.321Z,196598.46,1635250159,full,ni_sequenzen,NI_Sequenzen,,,,,,,,,,,,,,
,Screen_6,canvas.Screen,0_2_18_5,,skipped,19,196483,,,196479,,196484,2021-10-26T12:12:46.323Z,196598.46,1635250159,full,ni_sequenzen,NI_Sequenzen,,,,,,,,,,,,,,
,Sequence,flow.Sequence,0_2_18,,completion,19,196478,,,196479,,196484,2021-10-26T12:12:46.323Z,196598.46,1635250159,full,ni_sequenzen,NI_Sequenzen,,,,,,,,,,,,,,
,Screen_1,canvas.Screen,0_2_19_0,,skipped,20,196487,,,196487,,196487,2021-10-26T12:12:46.326Z,196598.46,1635250159,full,ni_sequenzen,NI_Sequenzen,,,,,,,,,,,,,,
,Screen_2,canvas.Screen,0_2_19_1,,skipped,20,196487,,,196487,,196487,2021-10-26T12:12:46.327Z,196598.46,1635250159,full,ni_sequenzen,NI_Sequenzen,,,,,,,,,,,,,,
,Screen_3,canvas.Screen,0_2_19_2,,skipped,20,196488,,,196487,,196488,2021-10-26T12:12:46.327Z,196598.46,1635250159,full,ni_sequenzen,NI_Sequenzen,,,,,,,,,,,,,,
,Screen_4,canvas.Screen,0_2_19_3,,skipped,20,196489,,,196487,,196489,2021-10-26T12:12:46.328Z,196598.46,1635250159,full,ni_sequenzen,NI_Sequenzen,,,,,,,,,,,,,,
,Screen_5,canvas.Screen,0_2_19_4,,skipped,20,196489,,,196487,,196489,2021-10-26T12:12:46.329Z,196598.46,1635250159,full,ni_sequenzen,NI_Sequenzen,,,,,,,,,,,,,,
,Screen_6,canvas.Screen,0_2_19_5,,skipped,20,196490,,,196487,,196490,2021-10-26T12:12:46.330Z,196598.46,1635250159,full,ni_sequenzen,NI_Sequenzen,,,,,,,,,,,,,,
,Sequence,flow.Sequence,0_2_19,,completion,20,196485,,,196487,,196490,2021-10-26T12:12:46.330Z,196598.46,1635250159,full,ni_sequenzen,NI_Sequenzen,,,,,,,,,,,,,,
,Screen_1,canvas.Screen,0_2_20_0,,skipped,21,196492,,,196492,,196492,2021-10-26T12:12:46.331Z,196598.46,1635250159,full,ni_sequenzen,NI_Sequenzen,,,,,,,,,,,,,,
,Screen_2,canvas.Screen,0_2_20_1,,skipped,21,196492,,,196492,,196492,2021-10-26T12:12:46.331Z,196598.46,1635250159,full,ni_sequenzen,NI_Sequenzen,,,,,,,,,,,,,,
,Screen_3,canvas.Screen,0_2_20_2,,skipped,21,196493,,,196492,,196493,2021-10-26T12:12:46.332Z,196598.46,1635250159,full,ni_sequenzen,NI_Sequenzen,,,,,,,,,,,,,,
,Screen_4,canvas.Screen,0_2_20_3,,skipped,21,196494,,,196492,,196494,2021-10-26T12:12:46.333Z,196598.46,1635250159,full,ni_sequenzen,NI_Sequenzen,,,,,,,,,,,,,,
,Screen_5,canvas.Screen,0_2_20_4,,skipped,21,196495,,,196492,,196495,2021-10-26T12:12:46.333Z,196598.46,1635250159,full,ni_sequenzen,NI_Sequenzen,,,,,,,,,,,,,,
,Screen_6,canvas.Screen,0_2_20_5,,skipped,21,196495,,,196492,,196495,2021-10-26T12:12:46.334Z,196598.46,1635250159,full,ni_sequenzen,NI_Sequenzen,,,,,,,,,,,,,,
,Sequence,flow.Sequence,0_2_20,,completion,21,196491,,,196492,,196495,2021-10-26T12:12:46.334Z,196598.46,1635250159,full,ni_sequenzen,NI_Sequenzen,,,,,,,,,,,,,,
,Screen_1,canvas.Screen,0_2_21_0,,skipped,22,196496,,,196496,,196496,2021-10-26T12:12:46.335Z,196598.46,1635250159,full,ni_sequenzen,NI_Sequenzen,,,,,,,,,,,,,,
,Screen_2,canvas.Screen,0_2_21_1,,skipped,22,196497,,,196496,,196497,2021-10-26T12:12:46.336Z,196598.46,1635250159,full,ni_sequenzen,NI_Sequenzen,,,,,,,,,,,,,,
,Screen_3,canvas.Screen,0_2_21_2,,skipped,22,196497,,,196496,,196497,2021-10-26T12:12:46.337Z,196598.46,1635250159,full,ni_sequenzen,NI_Sequenzen,,,,,,,,,,,,,,
,Screen_4,canvas.Screen,0_2_21_3,,skipped,22,196498,,,196496,,196498,2021-10-26T12:12:46.338Z,196598.46,1635250159,full,ni_sequenzen,NI_Sequenzen,,,,,,,,,,,,,,
,Screen_5,canvas.Screen,0_2_21_4,,skipped,22,196501,,,196496,,196501,2021-10-26T12:12:46.340Z,196598.46,1635250159,full,ni_sequenzen,NI_Sequenzen,,,,,,,,,,,,,,
,Screen_6,canvas.Screen,0_2_21_5,,skipped,22,196504,,,196496,,196504,2021-10-26T12:12:46.343Z,196598.46,1635250159,full,ni_sequenzen,NI_Sequenzen,,,,,,,,,,,,,,
,Sequence,flow.Sequence,0_2_21,,completion,22,196496,,,196496,,196504,2021-10-26T12:12:46.343Z,196598.46,1635250159,full,ni_sequenzen,NI_Sequenzen,,,,,,,,,,,,,,
,Screen_1,canvas.Screen,0_2_22_0,,skipped,23,196505,,,196505,,196505,2021-10-26T12:12:46.345Z,196598.46,1635250159,full,ni_sequenzen,NI_Sequenzen,,,,,,,,,,,,,,
,Screen_2,canvas.Screen,0_2_22_1,,skipped,23,196506,,,196505,,196507,2021-10-26T12:12:46.345Z,196598.46,1635250159,full,ni_sequenzen,NI_Sequenzen,,,,,,,,,,,,,,
,Screen_3,canvas.Screen,0_2_22_2,,skipped,23,196507,,,196505,,196507,2021-10-26T12:12:46.346Z,196598.46,1635250159,full,ni_sequenzen,NI_Sequenzen,,,,,,,,,,,,,,
,Screen_4,canvas.Screen,0_2_22_3,,skipped,23,196508,,,196505,,196508,2021-10-26T12:12:46.347Z,196598.46,1635250159,full,ni_sequenzen,NI_Sequenzen,,,,,,,,,,,,,,
,Screen_5,canvas.Screen,0_2_22_4,,skipped,23,196509,,,196505,,196509,2021-10-26T12:12:46.349Z,196598.46,1635250159,full,ni_sequenzen,NI_Sequenzen,,,,,,,,,,,,,,
,Screen_6,canvas.Screen,0_2_22_5,,skipped,23,196510,,,196505,,196510,2021-10-26T12:12:46.350Z,196598.46,1635250159,full,ni_sequenzen,NI_Sequenzen,,,,,,,,,,,,,,
,Sequence,flow.Sequence,0_2_22,,completion,23,196504,,,196505,,196511,2021-10-26T12:12:46.350Z,196598.46,1635250159,full,ni_sequenzen,NI_Sequenzen,,,,,,,,,,,,,,
,Screen_1,canvas.Screen,0_2_23_0,,skipped,24,196512,,,196512,,196512,2021-10-26T12:12:46.351Z,196598.46,1635250159,full,ni_sequenzen,NI_Sequenzen,,,,,,,,,,,,,,
,Screen_2,canvas.Screen,0_2_23_1,,skipped,24,196512,,,196512,,196512,2021-10-26T12:12:46.351Z,196598.46,1635250159,full,ni_sequenzen,NI_Sequenzen,,,,,,,,,,,,,,
,Screen_3,canvas.Screen,0_2_23_2,,skipped,24,196513,,,196512,,196513,2021-10-26T12:12:46.351Z,196598.46,1635250159,full,ni_sequenzen,NI_Sequenzen,,,,,,,,,,,,,,
,Screen_4,canvas.Screen,0_2_23_3,,skipped,24,196513,,,196512,,196513,2021-10-26T12:12:46.353Z,196598.46,1635250159,full,ni_sequenzen,NI_Sequenzen,,,,,,,,,,,,,,
,Screen_5,canvas.Screen,0_2_23_4,,skipped,24,196514,,,196512,,196514,2021-10-26T12:12:46.353Z,196598.46,1635250159,full,ni_sequenzen,NI_Sequenzen,,,,,,,,,,,,,,
,Screen_6,canvas.Screen,0_2_23_5,,skipped,24,196515,,,196512,,196515,2021-10-26T12:12:46.355Z,196598.46,1635250159,full,ni_sequenzen,NI_Sequenzen,,,,,,,,,,,,,,
,Sequence,flow.Sequence,0_2_23,,completion,24,196511,,,196512,,196515,2021-10-26T12:12:46.355Z,196598.46,1635250159,full,ni_sequenzen,NI_Sequenzen,,,,,,,,,,,,,,
,Screen_1,canvas.Screen,0_2_24_0,,skipped,25,196519,,,196519,,196519,2021-10-26T12:12:46.358Z,196598.46,1635250159,full,ni_sequenzen,NI_Sequenzen,,,,,,,,,,,,,,
,Screen_2,canvas.Screen,0_2_24_1,,skipped,25,196521,,,196519,,196521,2021-10-26T12:12:46.360Z,196598.46,1635250159,full,ni_sequenzen,NI_Sequenzen,,,,,,,,,,,,,,
,Screen_3,canvas.Screen,0_2_24_2,,skipped,25,196521,,,196519,,196521,2021-10-26T12:12:46.361Z,196598.46,1635250159,full,ni_sequenzen,NI_Sequenzen,,,,,,,,,,,,,,
,Screen_4,canvas.Screen,0_2_24_3,,skipped,25,196522,,,196519,,196522,2021-10-26T12:12:46.362Z,196598.46,1635250159,full,ni_sequenzen,NI_Sequenzen,,,,,,,,,,,,,,
,Screen_5,canvas.Screen,0_2_24_4,,skipped,25,196523,,,196519,,196523,2021-10-26T12:12:46.362Z,196598.46,1635250159,full,ni_sequenzen,NI_Sequenzen,,,,,,,,,,,,,,
,Screen_6,canvas.Screen,0_2_24_5,,skipped,25,196523,,,196519,,196523,2021-10-26T12:12:46.362Z,196598.46,1635250159,full,ni_sequenzen,NI_Sequenzen,,,,,,,,,,,,,,
,Sequence,flow.Sequence,0_2_24,,completion,25,196515,,,196519,,196523,2021-10-26T12:12:46.362Z,196598.46,1635250159,full,ni_sequenzen,NI_Sequenzen,,,,,,,,,,,,,,
,Screen_1,canvas.Screen,0_2_25_0,,skipped,26,196525,,,196525,,196525,2021-10-26T12:12:46.365Z,196598.46,1635250159,full,ni_sequenzen,NI_Sequenzen,,,,,,,,,,,,,,
,Screen_2,canvas.Screen,0_2_25_1,,skipped,26,196526,,,196525,,196526,2021-10-26T12:12:46.366Z,196598.46,1635250159,full,ni_sequenzen,NI_Sequenzen,,,,,,,,,,,,,,
,Screen_3,canvas.Screen,0_2_25_2,,skipped,26,196527,,,196525,,196527,2021-10-26T12:12:46.367Z,196598.46,1635250159,full,ni_sequenzen,NI_Sequenzen,,,,,,,,,,,,,,
,Screen_4,canvas.Screen,0_2_25_3,,skipped,26,196528,,,196525,,196528,2021-10-26T12:12:46.367Z,196598.46,1635250159,full,ni_sequenzen,NI_Sequenzen,,,,,,,,,,,,,,
,Screen_5,canvas.Screen,0_2_25_4,,skipped,26,196528,,,196525,,196528,2021-10-26T12:12:46.368Z,196598.46,1635250159,full,ni_sequenzen,NI_Sequenzen,,,,,,,,,,,,,,
,Screen_6,canvas.Screen,0_2_25_5,,skipped,26,196529,,,196525,,196529,2021-10-26T12:12:46.369Z,196598.46,1635250159,full,ni_sequenzen,NI_Sequenzen,,,,,,,,,,,,,,
,Sequence,flow.Sequence,0_2_25,,completion,26,196523,,,196525,,196529,2021-10-26T12:12:46.369Z,196598.46,1635250159,full,ni_sequenzen,NI_Sequenzen,,,,,,,,,,,,,,
,Screen_1,canvas.Screen,0_2_26_0,,skipped,27,196530,,,196530,,196530,2021-10-26T12:12:46.369Z,196598.46,1635250159,full,ni_sequenzen,NI_Sequenzen,,,,,,,,,,,,,,
,Screen_2,canvas.Screen,0_2_26_1,,skipped,27,196531,,,196530,,196531,2021-10-26T12:12:46.370Z,196598.46,1635250159,full,ni_sequenzen,NI_Sequenzen,,,,,,,,,,,,,,
,Screen_3,canvas.Screen,0_2_26_2,,skipped,27,196532,,,196530,,196532,2021-10-26T12:12:46.371Z,196598.46,1635250159,full,ni_sequenzen,NI_Sequenzen,,,,,,,,,,,,,,
,Screen_4,canvas.Screen,0_2_26_3,,skipped,27,196534,,,196530,,196534,2021-10-26T12:12:46.373Z,196598.46,1635250159,full,ni_sequenzen,NI_Sequenzen,,,,,,,,,,,,,,
,Screen_5,canvas.Screen,0_2_26_4,,skipped,27,196536,,,196530,,196536,2021-10-26T12:12:46.376Z,196598.46,1635250159,full,ni_sequenzen,NI_Sequenzen,,,,,,,,,,,,,,
,Screen_6,canvas.Screen,0_2_26_5,,skipped,27,196537,,,196530,,196537,2021-10-26T12:12:46.377Z,196598.46,1635250159,full,ni_sequenzen,NI_Sequenzen,,,,,,,,,,,,,,
,Sequence,flow.Sequence,0_2_26,,completion,27,196530,,,196530,,196537,2021-10-26T12:12:46.377Z,196598.46,1635250159,full,ni_sequenzen,NI_Sequenzen,,,,,,,,,,,,,,
,Screen_1,canvas.Screen,0_2_27_0,,skipped,28,196538,,,196538,,196538,2021-10-26T12:12:46.378Z,196598.46,1635250159,full,ni_sequenzen,NI_Sequenzen,,,,,,,,,,,,,,
,Screen_2,canvas.Screen,0_2_27_1,,skipped,28,196540,,,196538,,196540,2021-10-26T12:12:46.379Z,196598.46,1635250159,full,ni_sequenzen,NI_Sequenzen,,,,,,,,,,,,,,
,Screen_3,canvas.Screen,0_2_27_2,,skipped,28,196541,,,196538,,196541,2021-10-26T12:12:46.380Z,196598.46,1635250159,full,ni_sequenzen,NI_Sequenzen,,,,,,,,,,,,,,
,Screen_4,canvas.Screen,0_2_27_3,,skipped,28,196541,,,196538,,196541,2021-10-26T12:12:46.380Z,196598.46,1635250159,full,ni_sequenzen,NI_Sequenzen,,,,,,,,,,,,,,
,Screen_5,canvas.Screen,0_2_27_4,,skipped,28,196542,,,196538,,196542,2021-10-26T12:12:46.381Z,196598.46,1635250159,full,ni_sequenzen,NI_Sequenzen,,,,,,,,,,,,,,
,Screen_6,canvas.Screen,0_2_27_5,,skipped,28,196543,,,196538,,196543,2021-10-26T12:12:46.382Z,196598.46,1635250159,full,ni_sequenzen,NI_Sequenzen,,,,,,,,,,,,,,
,Sequence,flow.Sequence,0_2_27,,completion,28,196538,,,196538,,196543,2021-10-26T12:12:46.382Z,196598.46,1635250159,full,ni_sequenzen,NI_Sequenzen,,,,,,,,,,,,,,
,Screen_1,canvas.Screen,0_2_28_0,,skipped,29,196543,,,196543,,196543,2021-10-26T12:12:46.383Z,196598.46,1635250159,full,ni_sequenzen,NI_Sequenzen,,,,,,,,,,,,,,
,Screen_2,canvas.Screen,0_2_28_1,,skipped,29,196544,,,196543,,196544,2021-10-26T12:12:46.383Z,196598.46,1635250159,full,ni_sequenzen,NI_Sequenzen,,,,,,,,,,,,,,
,Screen_3,canvas.Screen,0_2_28_2,,skipped,29,196546,,,196543,,196546,2021-10-26T12:12:46.385Z,196598.46,1635250159,full,ni_sequenzen,NI_Sequenzen,,,,,,,,,,,,,,
,Screen_4,canvas.Screen,0_2_28_3,,skipped,29,196547,,,196543,,196547,2021-10-26T12:12:46.386Z,196598.46,1635250159,full,ni_sequenzen,NI_Sequenzen,,,,,,,,,,,,,,
,Screen_5,canvas.Screen,0_2_28_4,,skipped,29,196548,,,196543,,196548,2021-10-26T12:12:46.387Z,196598.46,1635250159,full,ni_sequenzen,NI_Sequenzen,,,,,,,,,,,,,,
,Screen_6,canvas.Screen,0_2_28_5,,skipped,29,196549,,,196543,,196549,2021-10-26T12:12:46.388Z,196598.46,1635250159,full,ni_sequenzen,NI_Sequenzen,,,,,,,,,,,,,,
,Sequence,flow.Sequence,0_2_28,,completion,29,196543,,,196543,,196549,2021-10-26T12:12:46.388Z,196598.46,1635250159,full,ni_sequenzen,NI_Sequenzen,,,,,,,,,,,,,,
,Screen_1,canvas.Screen,0_2_29_0,,skipped,30,196552,,,196552,,196552,2021-10-26T12:12:46.391Z,196598.46,1635250159,full,ni_sequenzen,NI_Sequenzen,,,,,,,,,,,,,,
,Screen_2,canvas.Screen,0_2_29_1,,skipped,30,196553,,,196552,,196553,2021-10-26T12:12:46.393Z,196598.46,1635250159,full,ni_sequenzen,NI_Sequenzen,,,,,,,,,,,,,,
,Screen_3,canvas.Screen,0_2_29_2,,skipped,30,196554,,,196552,,196554,2021-10-26T12:12:46.393Z,196598.46,1635250159,full,ni_sequenzen,NI_Sequenzen,,,,,,,,,,,,,,
,Screen_4,canvas.Screen,0_2_29_3,,skipped,30,196554,,,196552,,196554,2021-10-26T12:12:46.394Z,196598.46,1635250159,full,ni_sequenzen,NI_Sequenzen,,,,,,,,,,,,,,
,Screen_5,canvas.Screen,0_2_29_4,,skipped,30,196555,,,196552,,196555,2021-10-26T12:12:46.395Z,196598.46,1635250159,full,ni_sequenzen,NI_Sequenzen,,,,,,,,,,,,,,
,Screen_6,canvas.Screen,0_2_29_5,,skipped,30,196556,,,196552,,196556,2021-10-26T12:12:46.395Z,196598.46,1635250159,full,ni_sequenzen,NI_Sequenzen,,,,,,,,,,,,,,
,Sequence,flow.Sequence,0_2_29,,completion,30,196550,,,196552,,196556,2021-10-26T12:12:46.395Z,196598.46,1635250159,full,ni_sequenzen,NI_Sequenzen,,,,,,,,,,,,,,
,Instructions_II,flow.Loop,0_2,,completion,,102886,102889.04,102900.18,196552,93651.82,196556,2021-10-26T12:12:46.395Z,196598.46,1635250159,full,ni_sequenzen,NI_Sequenzen,,,,,,,,,,,,,,
,Move,canvas.Screen,0_3_0_0_0_0,right,response,,196587,196587.96,196598.46,209226,12627.540000000008,209240,2021-10-26T12:12:59.079Z,209264.9,1635250159,full,ni_sequenzen,NI_Sequenzen,1,0,,,,,,,,,,,,
,Move,canvas.Screen,0_3_0_0_0_1,down,response,,209253,209253.92,209264.9,209617,352.1000000000058,209624,2021-10-26T12:12:59.463Z,209648.24,1635250159,full,ni_sequenzen,NI_Sequenzen,2,0,,,,,,,,,,,,
,Move,canvas.Screen,0_3_0_0_0_2,left,response,,209636,209636.6,209648.24,213287,3638.7600000000093,213304,2021-10-26T12:13:03.144Z,213331.5,1635250159,full,ni_sequenzen,NI_Sequenzen,3,0,,,,,,,,,,,,
,Move,canvas.Screen,0_3_0_0_0_3,down,response,,213314,213314.74,213331.5,213881,549.5,213891,2021-10-26T12:13:03.731Z,213914.82,1635250159,full,ni_sequenzen,NI_Sequenzen,4,0,,,,,,,,,,,,
,Move,canvas.Screen,0_3_0_0_0_4,left,response,,213903,213903.4,213914.82,215367,1452.179999999993,215378,2021-10-26T12:13:05.217Z,215431.46,1635250159,full,ni_sequenzen,NI_Sequenzen,5,0,,,,,,,,,,,,
,Move,canvas.Screen,0_3_0_0_0_5,-999,skipped,,215388,,,215367,,215388,2021-10-26T12:13:05.228Z,215431.46,1635250159,full,ni_sequenzen,NI_Sequenzen,6,0,,,,,,,,,,,,
,Move,canvas.Screen,0_3_0_0_0_6,-999,skipped,,215392,,,215367,,215392,2021-10-26T12:13:05.232Z,215431.46,1635250159,full,ni_sequenzen,NI_Sequenzen,7,0,,,,,,,,,,,,
,Move,canvas.Screen,0_3_0_0_0_7,-999,skipped,,215395,,,215367,,215395,2021-10-26T12:13:05.234Z,215431.46,1635250159,full,ni_sequenzen,NI_Sequenzen,8,0,,,,,,,,,,,,
,Move,canvas.Screen,0_3_0_0_0_8,-999,skipped,,215398,,,215367,,215398,2021-10-26T12:13:05.238Z,215431.46,1635250159,full,ni_sequenzen,NI_Sequenzen,9,0,,,,,,,,,,,,
,Move,canvas.Screen,0_3_0_0_0_9,-999,skipped,,215404,,,215367,,215405,2021-10-26T12:13:05.244Z,215431.46,1635250159,full,ni_sequenzen,NI_Sequenzen,10,0,,,,,,,,,,,,
,Move,canvas.Screen,0_3_0_0_0_10,-999,skipped,,215407,,,215367,,215407,2021-10-26T12:13:05.247Z,215431.46,1635250159,full,ni_sequenzen,NI_Sequenzen,11,0,,,,,,,,,,,,
,Move,canvas.Screen,0_3_0_0_0_11,-999,skipped,,215410,,,215367,,215410,2021-10-26T12:13:05.249Z,215431.46,1635250159,full,ni_sequenzen,NI_Sequenzen,12,0,,,,,,,,,,,,
,Move,canvas.Screen,0_3_0_0_0_12,-999,skipped,,215413,,,215367,,215413,2021-10-26T12:13:05.252Z,215431.46,1635250159,full,ni_sequenzen,NI_Sequenzen,13,0,,,,,,,,,,,,
,Move,canvas.Screen,0_3_0_0_0_13,-999,skipped,,215418,,,215367,,215418,2021-10-26T12:13:05.258Z,215431.46,1635250159,full,ni_sequenzen,NI_Sequenzen,14,0,,,,,,,,,,,,
,Move,canvas.Screen,0_3_0_0_0_14,-999,skipped,,215424,,,215367,,215424,2021-10-26T12:13:05.263Z,215431.46,1635250159,full,ni_sequenzen,NI_Sequenzen,15,0,,,,,,,,,,,,
,Loop,flow.Loop,0_3_0_0_0,-999,completion,,196580,196587.96,196598.46,215367,18768.540000000008,215424,2021-10-26T12:13:05.263Z,215431.46,1635250159,full,ni_sequenzen,NI_Sequenzen,,0,,,,,,,,,,,,
,Feedback,canvas.Screen,0_3_0_0_1,,timeout,,215427,215427.82,215431.46,219414.74,4009.7000000000116,219416,2021-10-26T12:13:09.256Z,219441.16,1635250159,full,ni_sequenzen,NI_Sequenzen,,0,,,,,,,,,,,,
,Trial,flow.Sequence,0_3_0_0,,completion,,196575,196587.96,196598.46,219414.74,22816.28,219417,2021-10-26T12:13:09.257Z,219448.06,1635250159,full,ni_sequenzen,NI_Sequenzen,,0,,,,,,,,,,,,
,Move,canvas.Screen,0_3_0_1_0_0,right,response,,219441,219441.16,219448.06,242631,23182.940000000002,242638,2021-10-26T12:13:32.477Z,242647.66,1635250159,full,ni_sequenzen,NI_Sequenzen,1,1,,,,,,,,,,,,
,Move,canvas.Screen,0_3_0_1_0_1,down,response,,242643,242643.04,242647.66,242992,344.3399999999965,242999,2021-10-26T12:13:32.838Z,243014.32,1635250159,full,ni_sequenzen,NI_Sequenzen,2,1,,,,,,,,,,,,
,Move,canvas.Screen,0_3_0_1_0_2,right,response,,243008,243008.22,243014.32,243334,319.679999999993,243349,2021-10-26T12:13:33.188Z,243364.32,1635250159,full,ni_sequenzen,NI_Sequenzen,3,1,,,,,,,,,,,,
,Move,canvas.Screen,0_3_0_1_0_3,down,response,,243358,243357.64,243364.32,243584,219.67999999999302,243597,2021-10-26T12:13:33.435Z,243664.32,1635250159,full,ni_sequenzen,NI_Sequenzen,4,1,,,,,,,,,,,,
,Move,canvas.Screen,0_3_0_1_0_4,-999,skipped,,243608,,,243584,,243608,2021-10-26T12:13:33.447Z,243664.32,1635250159,full,ni_sequenzen,NI_Sequenzen,5,1,,,,,,,,,,,,
,Move,canvas.Screen,0_3_0_1_0_5,-999,skipped,,243614,,,243584,,243614,2021-10-26T12:13:33.454Z,243664.32,1635250159,full,ni_sequenzen,NI_Sequenzen,6,1,,,,,,,,,,,,
,Move,canvas.Screen,0_3_0_1_0_6,-999,skipped,,243620,,,243584,,243620,2021-10-26T12:13:33.460Z,243664.32,1635250159,full,ni_sequenzen,NI_Sequenzen,7,1,,,,,,,,,,,,
,Move,canvas.Screen,0_3_0_1_0_7,-999,skipped,,243622,,,243584,,243622,2021-10-26T12:13:33.462Z,243664.32,1635250159,full,ni_sequenzen,NI_Sequenzen,8,1,,,,,,,,,,,,
,Move,canvas.Screen,0_3_0_1_0_8,-999,skipped,,243626,,,243584,,243626,2021-10-26T12:13:33.465Z,243664.32,1635250159,full,ni_sequenzen,NI_Sequenzen,9,1,,,,,,,,,,,,
,Move,canvas.Screen,0_3_0_1_0_9,-999,skipped,,243628,,,243584,,243628,2021-10-26T12:13:33.468Z,243664.32,1635250159,full,ni_sequenzen,NI_Sequenzen,10,1,,,,,,,,,,,,
,Move,canvas.Screen,0_3_0_1_0_10,-999,skipped,,243631,,,243584,,243631,2021-10-26T12:13:33.471Z,243664.32,1635250159,full,ni_sequenzen,NI_Sequenzen,11,1,,,,,,,,,,,,
,Move,canvas.Screen,0_3_0_1_0_11,-999,skipped,,243637,,,243584,,243637,2021-10-26T12:13:33.477Z,243664.32,1635250159,full,ni_sequenzen,NI_Sequenzen,12,1,,,,,,,,,,,,
,Move,canvas.Screen,0_3_0_1_0_12,-999,skipped,,243640,,,243584,,243640,2021-10-26T12:13:33.479Z,243664.32,1635250159,full,ni_sequenzen,NI_Sequenzen,13,1,,,,,,,,,,,,
,Move,canvas.Screen,0_3_0_1_0_13,-999,skipped,,243643,,,243584,,243643,2021-10-26T12:13:33.482Z,243664.32,1635250159,full,ni_sequenzen,NI_Sequenzen,14,1,,,,,,,,,,,,
,Move,canvas.Screen,0_3_0_1_0_14,-999,skipped,,243647,,,243584,,243647,2021-10-26T12:13:33.486Z,243664.32,1635250159,full,ni_sequenzen,NI_Sequenzen,15,1,,,,,,,,,,,,
,Loop,flow.Loop,0_3_0_1_0,-999,completion,,219431,219441.16,219448.06,243584,24135.940000000002,243647,2021-10-26T12:13:33.486Z,243664.32,1635250159,full,ni_sequenzen,NI_Sequenzen,,1,,,,,,,,,,,,
,Feedback,canvas.Screen,0_3_0_1_1,,timeout,,243653,243653.1,243664.32,247647.58,4004.8800000000047,247649,2021-10-26T12:13:37.489Z,247669.2,1635250159,full,ni_sequenzen,NI_Sequenzen,,1,,,,,,,,,,,,
,Trial,flow.Sequence,0_3_0_1,,completion,,219418,219441.16,219448.06,247647.58,28199.51999999999,247650,2021-10-26T12:13:37.490Z,247680.92,1635250159,full,ni_sequenzen,NI_Sequenzen,,1,,,,,,,,,,,,
,Move,canvas.Screen,0_3_0_2_0_0,right,response,,247669,247669.2,247680.92,251757,4076.079999999987,251761,2021-10-26T12:13:41.601Z,251780.84,1635250159,full,ni_sequenzen,NI_Sequenzen,1,2,,,,,,,,,,,,
,Move,canvas.Screen,0_3_0_2_0_1,down,response,,251774,251774.14,251780.84,252037,256.1600000000035,252041,2021-10-26T12:13:41.880Z,252064.16,1635250159,full,ni_sequenzen,NI_Sequenzen,2,2,,,,,,,,,,,,
,Move,canvas.Screen,0_3_0_2_0_2,right,response,,252052,252052.06,252064.16,252366,301.8399999999965,252375,2021-10-26T12:13:42.214Z,252397.5,1635250159,full,ni_sequenzen,NI_Sequenzen,3,2,,,,,,,,,,,,
,Move,canvas.Screen,0_3_0_2_0_3,down,response,,252387,252386.88,252397.5,252866,468.5,252874,2021-10-26T12:13:42.713Z,252980.82,1635250159,full,ni_sequenzen,NI_Sequenzen,4,2,,,,,,,,,,,,
,Move,canvas.Screen,0_3_0_2_0_4,-999,skipped,,252891,,,252866,,252891,2021-10-26T12:13:42.731Z,252980.82,1635250159,full,ni_sequenzen,NI_Sequenzen,5,2,,,,,,,,,,,,
,Move,canvas.Screen,0_3_0_2_0_5,-999,skipped,,252902,,,252866,,252903,2021-10-26T12:13:42.742Z,252980.82,1635250159,full,ni_sequenzen,NI_Sequenzen,6,2,,,,,,,,,,,,
,Move,canvas.Screen,0_3_0_2_0_6,-999,skipped,,252910,,,252866,,252910,2021-10-26T12:13:42.749Z,252980.82,1635250159,full,ni_sequenzen,NI_Sequenzen,7,2,,,,,,,,,,,,
,Move,canvas.Screen,0_3_0_2_0_7,-999,skipped,,252919,,,252866,,252920,2021-10-26T12:13:42.760Z,252980.82,1635250159,full,ni_sequenzen,NI_Sequenzen,8,2,,,,,,,,,,,,
,Move,canvas.Screen,0_3_0_2_0_8,-999,skipped,,252928,,,252866,,252929,2021-10-26T12:13:42.768Z,252980.82,1635250159,full,ni_sequenzen,NI_Sequenzen,9,2,,,,,,,,,,,,
,Move,canvas.Screen,0_3_0_2_0_9,-999,skipped,,252938,,,252866,,252938,2021-10-26T12:13:42.777Z,252980.82,1635250159,full,ni_sequenzen,NI_Sequenzen,10,2,,,,,,,,,,,,
,Move,canvas.Screen,0_3_0_2_0_10,-999,skipped,,252944,,,252866,,252944,2021-10-26T12:13:42.784Z,252980.82,1635250159,full,ni_sequenzen,NI_Sequenzen,11,2,,,,,,,,,,,,
,Move,canvas.Screen,0_3_0_2_0_11,-999,skipped,,252952,,,252866,,252952,2021-10-26T12:13:42.791Z,252980.82,1635250159,full,ni_sequenzen,NI_Sequenzen,12,2,,,,,,,,,,,,
,Move,canvas.Screen,0_3_0_2_0_12,-999,skipped,,252956,,,252866,,252956,2021-10-26T12:13:42.796Z,252980.82,1635250159,full,ni_sequenzen,NI_Sequenzen,13,2,,,,,,,,,,,,
,Move,canvas.Screen,0_3_0_2_0_13,-999,skipped,,252960,,,252866,,252960,2021-10-26T12:13:42.800Z,252980.82,1635250159,full,ni_sequenzen,NI_Sequenzen,14,2,,,,,,,,,,,,
,Move,canvas.Screen,0_3_0_2_0_14,-999,skipped,,252964,,,252866,,252964,2021-10-26T12:13:42.803Z,252980.82,1635250159,full,ni_sequenzen,NI_Sequenzen,15,2,,,,,,,,,,,,
,Loop,flow.Loop,0_3_0_2_0,-999,completion,,247663,247669.2,247680.92,252866,5185.079999999987,252965,2021-10-26T12:13:42.804Z,252980.82,1635250159,full,ni_sequenzen,NI_Sequenzen,,2,,,,,,,,,,,,
,Feedback,canvas.Screen,0_3_0_2_1,,timeout,,252969,252969.78,252980.82,256964.08,4012.899999999994,256967,2021-10-26T12:13:46.806Z,256993.72,1635250159,full,ni_sequenzen,NI_Sequenzen,,2,,,,,,,,,,,,
,Trial,flow.Sequence,0_3_0_2,,completion,,247651,247669.2,247680.92,256964.08,9283.159999999974,256970,2021-10-26T12:13:46.808Z,256997.42,1635250159,full,ni_sequenzen,NI_Sequenzen,,2,,,,,,,,,,,,
,Move,canvas.Screen,0_3_0_3_0_0,left,response,,256993,256993.72,256997.42,262695,5697.579999999987,262701,2021-10-26T12:13:52.540Z,262713.98,1635250159,full,ni_sequenzen,NI_Sequenzen,1,3,,,,,,,,,,,,
,Move,canvas.Screen,0_3_0_3_0_1,down,response,,262711,262710.56,262713.98,263210,496.0200000000186,263212,2021-10-26T12:13:53.052Z,263230.64,1635250159,full,ni_sequenzen,NI_Sequenzen,2,3,,,,,,,,,,,,
,Move,canvas.Screen,0_3_0_3_0_2,right,response,,263224,263224.54,263230.64,263710,479.35999999998603,263714,2021-10-26T12:13:53.554Z,263730.64,1635250159,full,ni_sequenzen,NI_Sequenzen,3,3,,,,,,,,,,,,
,Move,canvas.Screen,0_3_0_3_0_3,right,response,,263726,263726.7,263730.64,265631,1900.359999999986,265643,2021-10-26T12:13:55.483Z,265713.94,1635250159,full,ni_sequenzen,NI_Sequenzen,4,3,,,,,,,,,,,,
,Move,canvas.Screen,0_3_0_3_0_4,-999,skipped,,265652,,,265631,,265654,2021-10-26T12:13:55.492Z,265713.94,1635250159,full,ni_sequenzen,NI_Sequenzen,5,3,,,,,,,,,,,,
,Move,canvas.Screen,0_3_0_3_0_5,-999,skipped,,265656,,,265631,,265657,2021-10-26T12:13:55.496Z,265713.94,1635250159,full,ni_sequenzen,NI_Sequenzen,6,3,,,,,,,,,,,,
,Move,canvas.Screen,0_3_0_3_0_6,-999,skipped,,265662,,,265631,,265662,2021-10-26T12:13:55.502Z,265713.94,1635250159,full,ni_sequenzen,NI_Sequenzen,7,3,,,,,,,,,,,,
,Move,canvas.Screen,0_3_0_3_0_7,-999,skipped,,265669,,,265631,,265669,2021-10-26T12:13:55.509Z,265713.94,1635250159,full,ni_sequenzen,NI_Sequenzen,8,3,,,,,,,,,,,,
,Move,canvas.Screen,0_3_0_3_0_8,-999,skipped,,265674,,,265631,,265674,2021-10-26T12:13:55.513Z,265713.94,1635250159,full,ni_sequenzen,NI_Sequenzen,9,3,,,,,,,,,,,,
,Move,canvas.Screen,0_3_0_3_0_9,-999,skipped,,265677,,,265631,,265677,2021-10-26T12:13:55.517Z,265713.94,1635250159,full,ni_sequenzen,NI_Sequenzen,10,3,,,,,,,,,,,,
,Move,canvas.Screen,0_3_0_3_0_10,-999,skipped,,265680,,,265631,,265681,2021-10-26T12:13:55.520Z,265713.94,1635250159,full,ni_sequenzen,NI_Sequenzen,11,3,,,,,,,,,,,,
,Move,canvas.Screen,0_3_0_3_0_11,-999,skipped,,265688,,,265631,,265688,2021-10-26T12:13:55.527Z,265713.94,1635250159,full,ni_sequenzen,NI_Sequenzen,12,3,,,,,,,,,,,,
,Move,canvas.Screen,0_3_0_3_0_12,-999,skipped,,265693,,,265631,,265693,2021-10-26T12:13:55.532Z,265713.94,1635250159,full,ni_sequenzen,NI_Sequenzen,13,3,,,,,,,,,,,,
,Move,canvas.Screen,0_3_0_3_0_13,-999,skipped,,265699,,,265631,,265699,2021-10-26T12:13:55.538Z,265713.94,1635250159,full,ni_sequenzen,NI_Sequenzen,14,3,,,,,,,,,,,,
,Move,canvas.Screen,0_3_0_3_0_14,-999,skipped,,265705,,,265631,,265705,2021-10-26T12:13:55.544Z,265713.94,1635250159,full,ni_sequenzen,NI_Sequenzen,15,3,,,,,,,,,,,,
,Loop,flow.Loop,0_3_0_3_0,-999,completion,,256986,256993.72,256997.42,265631,8633.579999999987,265705,2021-10-26T12:13:55.544Z,265713.94,1635250159,full,ni_sequenzen,NI_Sequenzen,,3,,,,,,,,,,,,
,Feedback,canvas.Screen,0_3_0_3_1,,timeout,,265708,265707.6,265713.94,269697.2,4007.140000000014,269699,2021-10-26T12:13:59.538Z,269721.08,1635250159,full,ni_sequenzen,NI_Sequenzen,,3,,,,,,,,,,,,
,Trial,flow.Sequence,0_3_0_3,,completion,,256970,256993.72,256997.42,269697.2,12699.779999999999,269700,2021-10-26T12:13:59.539Z,269730.52,1635250159,full,ni_sequenzen,NI_Sequenzen,,3,,,,,,,,,,,,
,Move,canvas.Screen,0_3_0_4_0_0,left,response,,269721,269721.08,269730.52,274054,4323.479999999981,274063,2021-10-26T12:14:03.902Z,274080.46,1635250159,full,ni_sequenzen,NI_Sequenzen,1,4,,,,,,,,,,,,
,Move,canvas.Screen,0_3_0_4_0_1,down,response,,274077,274077.1,274080.46,275678,1597.539999999979,275692,2021-10-26T12:14:05.531Z,275713.76,1635250159,full,ni_sequenzen,NI_Sequenzen,2,4,,,,,,,,,,,,
,Move,canvas.Screen,0_3_0_4_0_2,right,response,,275703,275702.2,275713.76,276398,684.2399999999907,276401,2021-10-26T12:14:06.241Z,276413.74,1635250159,full,ni_sequenzen,NI_Sequenzen,3,4,,,,,,,,,,,,
,Move,canvas.Screen,0_3_0_4_0_3,right,response,,276411,276410.72,276413.74,278522,2108.2600000000093,278524,2021-10-26T12:14:08.364Z,278580.26,1635250159,full,ni_sequenzen,NI_Sequenzen,4,4,,,,,,,,,,,,
,Move,canvas.Screen,0_3_0_4_0_4,-999,skipped,,278535,,,278522,,278536,2021-10-26T12:14:08.375Z,278580.26,1635250159,full,ni_sequenzen,NI_Sequenzen,5,4,,,,,,,,,,,,
,Move,canvas.Screen,0_3_0_4_0_5,-999,skipped,,278539,,,278522,,278539,2021-10-26T12:14:08.378Z,278580.26,1635250159,full,ni_sequenzen,NI_Sequenzen,6,4,,,,,,,,,,,,
,Move,canvas.Screen,0_3_0_4_0_6,-999,skipped,,278543,,,278522,,278543,2021-10-26T12:14:08.381Z,278580.26,1635250159,full,ni_sequenzen,NI_Sequenzen,7,4,,,,,,,,,,,,
,Move,canvas.Screen,0_3_0_4_0_7,-999,skipped,,278545,,,278522,,278545,2021-10-26T12:14:08.384Z,278580.26,1635250159,full,ni_sequenzen,NI_Sequenzen,8,4,,,,,,,,,,,,
,Move,canvas.Screen,0_3_0_4_0_8,-999,skipped,,278551,,,278522,,278552,2021-10-26T12:14:08.390Z,278580.26,1635250159,full,ni_sequenzen,NI_Sequenzen,9,4,,,,,,,,,,,,
,Move,canvas.Screen,0_3_0_4_0_9,-999,skipped,,278555,,,278522,,278555,2021-10-26T12:14:08.393Z,278580.26,1635250159,full,ni_sequenzen,NI_Sequenzen,10,4,,,,,,,,,,,,
,Move,canvas.Screen,0_3_0_4_0_10,-999,skipped,,278558,,,278522,,278558,2021-10-26T12:14:08.396Z,278580.26,1635250159,full,ni_sequenzen,NI_Sequenzen,11,4,,,,,,,,,,,,
,Move,canvas.Screen,0_3_0_4_0_11,-999,skipped,,278560,,,278522,,278560,2021-10-26T12:14:08.399Z,278580.26,1635250159,full,ni_sequenzen,NI_Sequenzen,12,4,,,,,,,,,,,,
,Move,canvas.Screen,0_3_0_4_0_12,-999,skipped,,278563,,,278522,,278563,2021-10-26T12:14:08.402Z,278580.26,1635250159,full,ni_sequenzen,NI_Sequenzen,13,4,,,,,,,,,,,,
,Move,canvas.Screen,0_3_0_4_0_13,-999,skipped,,278569,,,278522,,278569,2021-10-26T12:14:08.409Z,278580.26,1635250159,full,ni_sequenzen,NI_Sequenzen,14,4,,,,,,,,,,,,
,Move,canvas.Screen,0_3_0_4_0_14,-999,skipped,,278572,,,278522,,278572,2021-10-26T12:14:08.412Z,278580.26,1635250159,full,ni_sequenzen,NI_Sequenzen,15,4,,,,,,,,,,,,
,Loop,flow.Loop,0_3_0_4_0,-999,completion,,269717,269721.08,269730.52,278522,8791.479999999981,278573,2021-10-26T12:14:08.412Z,278580.26,1635250159,full,ni_sequenzen,NI_Sequenzen,,4,,,,,,,,,,,,
,Feedback,canvas.Screen,0_3_0_4_1,,timeout,,278575,278575.04,278580.26,282563.52,4002.640000000014,282565,2021-10-26T12:14:12.405Z,282582.9,1635250159,full,ni_sequenzen,NI_Sequenzen,,4,,,,,,,,,,,,
,Trial,flow.Sequence,0_3_0_4,,completion,,269702,269721.08,269730.52,282563.52,12833,282567,2021-10-26T12:14:12.406Z,282596.86,1635250159,full,ni_sequenzen,NI_Sequenzen,,4,,,,,,,,,,,,
,Move,canvas.Screen,0_3_0_5_0_0,right,response,,282582,282582.9,282596.86,286304,3707.140000000014,286319,2021-10-26T12:14:16.160Z,286330.12,1635250159,full,ni_sequenzen,NI_Sequenzen,1,5,,,,,,,,,,,,
,Move,canvas.Screen,0_3_0_5_0_1,down,response,,286325,286324.14,286330.12,286584,253.88000000000466,286601,2021-10-26T12:14:16.440Z,286613.46,1635250159,full,ni_sequenzen,NI_Sequenzen,2,5,,,,,,,,,,,,
,Move,canvas.Screen,0_3_0_5_0_2,right,response,,286610,286609.74,286613.46,286850,236.53999999997905,286870,2021-10-26T12:14:16.709Z,286880.12,1635250159,full,ni_sequenzen,NI_Sequenzen,3,5,,,,,,,,,,,,
,Move,canvas.Screen,0_3_0_5_0_3,down,response,,286879,286879.04,286880.12,287006,125.88000000000466,287016,2021-10-26T12:14:16.854Z,287080.12,1635250159,full,ni_sequenzen,NI_Sequenzen,4,5,,,,,,,,,,,,
,Move,canvas.Screen,0_3_0_5_0_4,-999,skipped,,287029,,,287006,,287029,2021-10-26T12:14:16.867Z,287080.12,1635250159,full,ni_sequenzen,NI_Sequenzen,5,5,,,,,,,,,,,,
,Move,canvas.Screen,0_3_0_5_0_5,-999,skipped,,287037,,,287006,,287037,2021-10-26T12:14:16.876Z,287080.12,1635250159,full,ni_sequenzen,NI_Sequenzen,6,5,,,,,,,,,,,,
,Move,canvas.Screen,0_3_0_5_0_6,-999,skipped,,287039,,,287006,,287039,2021-10-26T12:14:16.879Z,287080.12,1635250159,full,ni_sequenzen,NI_Sequenzen,7,5,,,,,,,,,,,,
,Move,canvas.Screen,0_3_0_5_0_7,-999,skipped,,287041,,,287006,,287042,2021-10-26T12:14:16.881Z,287080.12,1635250159,full,ni_sequenzen,NI_Sequenzen,8,5,,,,,,,,,,,,
,Move,canvas.Screen,0_3_0_5_0_8,-999,skipped,,287044,,,287006,,287044,2021-10-26T12:14:16.884Z,287080.12,1635250159,full,ni_sequenzen,NI_Sequenzen,9,5,,,,,,,,,,,,
,Move,canvas.Screen,0_3_0_5_0_9,-999,skipped,,287048,,,287006,,287048,2021-10-26T12:14:16.887Z,287080.12,1635250159,full,ni_sequenzen,NI_Sequenzen,10,5,,,,,,,,,,,,
,Move,canvas.Screen,0_3_0_5_0_10,-999,skipped,,287054,,,287006,,287054,2021-10-26T12:14:16.893Z,287080.12,1635250159,full,ni_sequenzen,NI_Sequenzen,11,5,,,,,,,,,,,,
,Move,canvas.Screen,0_3_0_5_0_11,-999,skipped,,287058,,,287006,,287058,2021-10-26T12:14:16.897Z,287080.12,1635250159,full,ni_sequenzen,NI_Sequenzen,12,5,,,,,,,,,,,,
,Move,canvas.Screen,0_3_0_5_0_12,-999,skipped,,287063,,,287006,,287063,2021-10-26T12:14:16.902Z,287080.12,1635250159,full,ni_sequenzen,NI_Sequenzen,13,5,,,,,,,,,,,,
,Move,canvas.Screen,0_3_0_5_0_13,-999,skipped,,287069,,,287006,,287069,2021-10-26T12:14:16.908Z,287080.12,1635250159,full,ni_sequenzen,NI_Sequenzen,14,5,,,,,,,,,,,,
,Move,canvas.Screen,0_3_0_5_0_14,-999,skipped,,287071,,,287006,,287071,2021-10-26T12:14:16.911Z,287080.12,1635250159,full,ni_sequenzen,NI_Sequenzen,15,5,,,,,,,,,,,,
,Loop,flow.Loop,0_3_0_5_0,-999,completion,,282578,282582.9,282596.86,287006,4409.140000000014,287072,2021-10-26T12:14:16.911Z,287080.12,1635250159,full,ni_sequenzen,NI_Sequenzen,,5,,,,,,,,,,,,
,Feedback,canvas.Screen,0_3_0_5_1,,timeout,,287074,287073.82,287080.12,291063.38,4006.9799999999814,291066,2021-10-26T12:14:20.905Z,291087.1,1635250159,full,ni_sequenzen,NI_Sequenzen,,5,,,,,,,,,,,,
,Trial,flow.Sequence,0_3_0_5,,completion,,282568,282582.9,282596.86,291063.38,8466.520000000019,291067,2021-10-26T12:14:20.905Z,291096.7,1635250159,full,ni_sequenzen,NI_Sequenzen,,5,,,,,,,,,,,,
,Move,canvas.Screen,0_3_0_6_0_0,down,response,,291087,291087.1,291096.7,292209,1112.2999999999884,292219,2021-10-26T12:14:22.058Z,292230.02,1635250159,full,ni_sequenzen,NI_Sequenzen,1,6,,,,,,,,,,,,
,Move,canvas.Screen,0_3_0_6_0_1,left,response,,292230,292229.3,292230.02,293787,1556.9799999999814,293790,2021-10-26T12:14:23.629Z,293796.66,1635250159,full,ni_sequenzen,NI_Sequenzen,2,6,,,,,,,,,,,,
,Move,canvas.Screen,0_3_0_6_0_2,right,response,,293795,293795.16,293796.66,294678,881.3400000000256,294680,2021-10-26T12:14:24.520Z,294696.64,1635250159,full,ni_sequenzen,NI_Sequenzen,3,6,,,,,,,,,,,,
,Move,canvas.Screen,0_3_0_6_0_3,right,response,,294689,294689.26,294696.64,298037,3340.359999999986,298043,2021-10-26T12:14:27.881Z,298096.58,1635250159,full,ni_sequenzen,NI_Sequenzen,4,6,,,,,,,,,,,,
,Move,canvas.Screen,0_3_0_6_0_4,-999,skipped,,298053,,,298037,,298053,2021-10-26T12:14:27.892Z,298096.58,1635250159,full,ni_sequenzen,NI_Sequenzen,5,6,,,,,,,,,,,,
,Move,canvas.Screen,0_3_0_6_0_5,-999,skipped,,298058,,,298037,,298058,2021-10-26T12:14:27.897Z,298096.58,1635250159,full,ni_sequenzen,NI_Sequenzen,6,6,,,,,,,,,,,,
,Move,canvas.Screen,0_3_0_6_0_6,-999,skipped,,298061,,,298037,,298061,2021-10-26T12:14:27.901Z,298096.58,1635250159,full,ni_sequenzen,NI_Sequenzen,7,6,,,,,,,,,,,,
,Move,canvas.Screen,0_3_0_6_0_7,-999,skipped,,298066,,,298037,,298066,2021-10-26T12:14:27.906Z,298096.58,1635250159,full,ni_sequenzen,NI_Sequenzen,8,6,,,,,,,,,,,,
,Move,canvas.Screen,0_3_0_6_0_8,-999,skipped,,298070,,,298037,,298070,2021-10-26T12:14:27.910Z,298096.58,1635250159,full,ni_sequenzen,NI_Sequenzen,9,6,,,,,,,,,,,,
,Move,canvas.Screen,0_3_0_6_0_9,-999,skipped,,298073,,,298037,,298073,2021-10-26T12:14:27.912Z,298096.58,1635250159,full,ni_sequenzen,NI_Sequenzen,10,6,,,,,,,,,,,,
,Move,canvas.Screen,0_3_0_6_0_10,-999,skipped,,298075,,,298037,,298075,2021-10-26T12:14:27.915Z,298096.58,1635250159,full,ni_sequenzen,NI_Sequenzen,11,6,,,,,,,,,,,,
,Move,canvas.Screen,0_3_0_6_0_11,-999,skipped,,298078,,,298037,,298078,2021-10-26T12:14:27.918Z,298096.58,1635250159,full,ni_sequenzen,NI_Sequenzen,12,6,,,,,,,,,,,,
,Move,canvas.Screen,0_3_0_6_0_12,-999,skipped,,298083,,,298037,,298083,2021-10-26T12:14:27.923Z,298096.58,1635250159,full,ni_sequenzen,NI_Sequenzen,13,6,,,,,,,,,,,,
,Move,canvas.Screen,0_3_0_6_0_13,-999,skipped,,298086,,,298037,,298086,2021-10-26T12:14:27.926Z,298096.58,1635250159,full,ni_sequenzen,NI_Sequenzen,14,6,,,,,,,,,,,,
,Move,canvas.Screen,0_3_0_6_0_14,-999,skipped,,298090,,,298037,,298090,2021-10-26T12:14:27.929Z,298096.58,1635250159,full,ni_sequenzen,NI_Sequenzen,15,6,,,,,,,,,,,,
,Loop,flow.Loop,0_3_0_6_0,-999,completion,,291080,291087.1,291096.7,298037,6940.299999999988,298090,2021-10-26T12:14:27.929Z,298096.58,1635250159,full,ni_sequenzen,NI_Sequenzen,,6,,,,,,,,,,,,
,Feedback,canvas.Screen,0_3_0_6_1,,timeout,,298092,298091.66,298096.58,302079.86,4006.2999999999884,302081,2021-10-26T12:14:31.920Z,302102.88,1635250159,full,ni_sequenzen,NI_Sequenzen,,6,,,,,,,,,,,,
,Trial,flow.Sequence,0_3_0_6,,completion,,291068,291087.1,291096.7,302079.86,10983.159999999974,302082,2021-10-26T12:14:31.922Z,302113.18,1635250159,full,ni_sequenzen,NI_Sequenzen,,6,,,,,,,,,,,,
,Move,canvas.Screen,0_3_0_7_0_0,down,response,,302103,302102.88,302113.18,306226,4112.820000000007,306236,2021-10-26T12:14:36.074Z,306246.44,1635250159,full,ni_sequenzen,NI_Sequenzen,1,7,,,,,,,,,,,,
,Move,canvas.Screen,0_3_0_7_0_1,left,response,,306245,306245.86,306246.44,307553,1306.5599999999977,307567,2021-10-26T12:14:37.407Z,307579.76,1635250159,full,ni_sequenzen,NI_Sequenzen,2,7,,,,,,,,,,,,
,Move,canvas.Screen,0_3_0_7_0_2,right,response,,307575,307575.56,307579.76,308053,473.2399999999907,308068,2021-10-26T12:14:37.908Z,308079.74,1635250159,full,ni_sequenzen,NI_Sequenzen,3,7,,,,,,,,,,,,
,Move,canvas.Screen,0_3_0_7_0_3,left,response,,308078,308077.42,308079.74,309647,1567.2600000000093,309652,2021-10-26T12:14:39.491Z,309713.06,1635250159,full,ni_sequenzen,NI_Sequenzen,4,7,,,,,,,,,,,,
,Move,canvas.Screen,0_3_0_7_0_4,-999,skipped,,309663,,,309647,,309663,2021-10-26T12:14:39.502Z,309713.06,1635250159,full,ni_sequenzen,NI_Sequenzen,5,7,,,,,,,,,,,,
,Move,canvas.Screen,0_3_0_7_0_5,-999,skipped,,309670,,,309647,,309671,2021-10-26T12:14:39.510Z,309713.06,1635250159,full,ni_sequenzen,NI_Sequenzen,6,7,,,,,,,,,,,,
,Move,canvas.Screen,0_3_0_7_0_6,-999,skipped,,309673,,,309647,,309673,2021-10-26T12:14:39.512Z,309713.06,1635250159,full,ni_sequenzen,NI_Sequenzen,7,7,,,,,,,,,,,,
,Move,canvas.Screen,0_3_0_7_0_7,-999,skipped,,309676,,,309647,,309676,2021-10-26T12:14:39.516Z,309713.06,1635250159,full,ni_sequenzen,NI_Sequenzen,8,7,,,,,,,,,,,,
,Move,canvas.Screen,0_3_0_7_0_8,-999,skipped,,309679,,,309647,,309679,2021-10-26T12:14:39.518Z,309713.06,1635250159,full,ni_sequenzen,NI_Sequenzen,9,7,,,,,,,,,,,,
,Move,canvas.Screen,0_3_0_7_0_9,-999,skipped,,309685,,,309647,,309685,2021-10-26T12:14:39.524Z,309713.06,1635250159,full,ni_sequenzen,NI_Sequenzen,10,7,,,,,,,,,,,,
,Move,canvas.Screen,0_3_0_7_0_10,-999,skipped,,309687,,,309647,,309687,2021-10-26T12:14:39.527Z,309713.06,1635250159,full,ni_sequenzen,NI_Sequenzen,11,7,,,,,,,,,,,,
,Move,canvas.Screen,0_3_0_7_0_11,-999,skipped,,309691,,,309647,,309691,2021-10-26T12:14:39.530Z,309713.06,1635250159,full,ni_sequenzen,NI_Sequenzen,12,7,,,,,,,,,,,,
,Move,canvas.Screen,0_3_0_7_0_12,-999,skipped,,309693,,,309647,,309693,2021-10-26T12:14:39.532Z,309713.06,1635250159,full,ni_sequenzen,NI_Sequenzen,13,7,,,,,,,,,,,,
,Move,canvas.Screen,0_3_0_7_0_13,-999,skipped,,309696,,,309647,,309696,2021-10-26T12:14:39.535Z,309713.06,1635250159,full,ni_sequenzen,NI_Sequenzen,14,7,,,,,,,,,,,,
,Move,canvas.Screen,0_3_0_7_0_14,-999,skipped,,309701,,,309647,,309702,2021-10-26T12:14:39.541Z,309713.06,1635250159,full,ni_sequenzen,NI_Sequenzen,15,7,,,,,,,,,,,,
,Loop,flow.Loop,0_3_0_7_0,-999,completion,,302096,302102.88,302113.18,309647,7533.820000000007,309702,2021-10-26T12:14:39.541Z,309713.06,1635250159,full,ni_sequenzen,NI_Sequenzen,,7,,,,,,,,,,,,
,Feedback,canvas.Screen,0_3_0_7_1,,timeout,,309705,309704.68,309713.06,313696.32,4026.320000000007,313701,2021-10-26T12:14:43.540Z,313739.38,1635250159,full,ni_sequenzen,NI_Sequenzen,,7,,,,,,,,,,,,
,Trial,flow.Sequence,0_3_0_7,,completion,,302083,302102.88,302113.18,313696.32,11583.140000000014,313705,2021-10-26T12:14:43.544Z,313746.32,1635250159,full,ni_sequenzen,NI_Sequenzen,,7,,,,,,,,,,,,
,Move,canvas.Screen,0_3_0_8_0_0,left,response,,313740,313739.38,313746.32,317444,3697.679999999993,317462,2021-10-26T12:14:47.301Z,317479.58,1635250159,full,ni_sequenzen,NI_Sequenzen,1,8,,,,,,,,,,,,
,Move,canvas.Screen,0_3_0_8_0_1,right,response,,317474,317474.32,317479.58,317772,292.4199999999837,317785,2021-10-26T12:14:47.624Z,317812.92,1635250159,full,ni_sequenzen,NI_Sequenzen,2,8,,,,,,,,,,,,
,Move,canvas.Screen,0_3_0_8_0_2,down,response,,317797,317797.04,317812.92,320928,3115.0800000000163,320935,2021-10-26T12:14:50.775Z,320962.86,1635250159,full,ni_sequenzen,NI_Sequenzen,3,8,,,,,,,,,,,,
,Move,canvas.Screen,0_3_0_8_0_3,down,response,,320950,320950.32,320962.86,321428,465.14000000001397,321437,2021-10-26T12:14:51.276Z,321446.18,1635250159,full,ni_sequenzen,NI_Sequenzen,4,8,,,,,,,,,,,,
,Move,canvas.Screen,0_3_0_8_0_4,right,response,,321444,321444.02,321446.18,322569,1122.820000000007,322576,2021-10-26T12:14:52.415Z,322646.16,1635250159,full,ni_sequenzen,NI_Sequenzen,5,8,,,,,,,,,,,,
,Move,canvas.Screen,0_3_0_8_0_5,-999,skipped,,322588,,,322569,,322589,2021-10-26T12:14:52.429Z,322646.16,1635250159,full,ni_sequenzen,NI_Sequenzen,6,8,,,,,,,,,,,,
,Move,canvas.Screen,0_3_0_8_0_6,-999,skipped,,322594,,,322569,,322594,2021-10-26T12:14:52.433Z,322646.16,1635250159,full,ni_sequenzen,NI_Sequenzen,7,8,,,,,,,,,,,,
,Move,canvas.Screen,0_3_0_8_0_7,-999,skipped,,322602,,,322569,,322602,2021-10-26T12:14:52.441Z,322646.16,1635250159,full,ni_sequenzen,NI_Sequenzen,8,8,,,,,,,,,,,,
,Move,canvas.Screen,0_3_0_8_0_8,-999,skipped,,322606,,,322569,,322606,2021-10-26T12:14:52.446Z,322646.16,1635250159,full,ni_sequenzen,NI_Sequenzen,9,8,,,,,,,,,,,,
,Move,canvas.Screen,0_3_0_8_0_9,-999,skipped,,322611,,,322569,,322611,2021-10-26T12:14:52.450Z,322646.16,1635250159,full,ni_sequenzen,NI_Sequenzen,10,8,,,,,,,,,,,,
,Move,canvas.Screen,0_3_0_8_0_10,-999,skipped,,322617,,,322569,,322617,2021-10-26T12:14:52.457Z,322646.16,1635250159,full,ni_sequenzen,NI_Sequenzen,11,8,,,,,,,,,,,,
,Move,canvas.Screen,0_3_0_8_0_11,-999,skipped,,322622,,,322569,,322622,2021-10-26T12:14:52.461Z,322646.16,1635250159,full,ni_sequenzen,NI_Sequenzen,12,8,,,,,,,,,,,,
,Move,canvas.Screen,0_3_0_8_0_12,-999,skipped,,322625,,,322569,,322625,2021-10-26T12:14:52.465Z,322646.16,1635250159,full,ni_sequenzen,NI_Sequenzen,13,8,,,,,,,,,,,,
,Move,canvas.Screen,0_3_0_8_0_13,-999,skipped,,322628,,,322569,,322628,2021-10-26T12:14:52.468Z,322646.16,1635250159,full,ni_sequenzen,NI_Sequenzen,14,8,,,,,,,,,,,,
,Move,canvas.Screen,0_3_0_8_0_14,-999,skipped,,322637,,,322569,,322637,2021-10-26T12:14:52.476Z,322646.16,1635250159,full,ni_sequenzen,NI_Sequenzen,15,8,,,,,,,,,,,,
,Loop,flow.Loop,0_3_0_8_0,-999,completion,,313728,313739.38,313746.32,322569,8822.679999999993,322637,2021-10-26T12:14:52.476Z,322646.16,1635250159,full,ni_sequenzen,NI_Sequenzen,,8,,,,,,,,,,,,
,Feedback,canvas.Screen,0_3_0_8_1,,timeout,,322641,322641.64,322646.16,326629.42,4015.420000000042,326632,2021-10-26T12:14:56.471Z,326661.58,1635250159,full,ni_sequenzen,NI_Sequenzen,,8,,,,,,,,,,,,
,Trial,flow.Sequence,0_3_0_8,,completion,,313707,313739.38,313746.32,326629.42,12883.099999999977,326633,2021-10-26T12:14:56.472Z,326662.76,1635250159,full,ni_sequenzen,NI_Sequenzen,,8,,,,,,,,,,,,
,Move,canvas.Screen,0_3_0_9_0_0,down,response,,326662,326661.58,326662.76,329256,2593.2399999999907,329264,2021-10-26T12:14:59.103Z,329279.38,1635250159,full,ni_sequenzen,NI_Sequenzen,1,9,,,,,,,,,,,,
,Move,canvas.Screen,0_3_0_9_0_1,left,response,,329276,329275.96,329279.38,331288,2008.6199999999953,331297,2021-10-26T12:15:01.137Z,331312.68,1635250159,full,ni_sequenzen,NI_Sequenzen,2,9,,,,,,,,,,,,
,Move,canvas.Screen,0_3_0_9_0_2,right,response,,331310,331310.64,331312.68,331787,474.320000000007,331800,2021-10-26T12:15:01.639Z,331812.66,1635250159,full,ni_sequenzen,NI_Sequenzen,3,9,,,,,,,,,,,,
,Move,canvas.Screen,0_3_0_9_0_3,right,response,,331809,331809.72,331812.66,332459,646.3400000000256,332473,2021-10-26T12:15:02.312Z,332545.98,1635250159,full,ni_sequenzen,NI_Sequenzen,4,9,,,,,,,,,,,,
,Move,canvas.Screen,0_3_0_9_0_4,-999,skipped,,332486,,,332459,,332487,2021-10-26T12:15:02.326Z,332545.98,1635250159,full,ni_sequenzen,NI_Sequenzen,5,9,,,,,,,,,,,,
,Move,canvas.Screen,0_3_0_9_0_5,-999,skipped,,332493,,,332459,,332493,2021-10-26T12:15:02.331Z,332545.98,1635250159,full,ni_sequenzen,NI_Sequenzen,6,9,,,,,,,,,,,,
,Move,canvas.Screen,0_3_0_9_0_6,-999,skipped,,332500,,,332459,,332500,2021-10-26T12:15:02.340Z,332545.98,1635250159,full,ni_sequenzen,NI_Sequenzen,7,9,,,,,,,,,,,,
,Move,canvas.Screen,0_3_0_9_0_7,-999,skipped,,332504,,,332459,,332504,2021-10-26T12:15:02.343Z,332545.98,1635250159,full,ni_sequenzen,NI_Sequenzen,8,9,,,,,,,,,,,,
,Move,canvas.Screen,0_3_0_9_0_8,-999,skipped,,332507,,,332459,,332507,2021-10-26T12:15:02.346Z,332545.98,1635250159,full,ni_sequenzen,NI_Sequenzen,9,9,,,,,,,,,,,,
,Move,canvas.Screen,0_3_0_9_0_9,-999,skipped,,332509,,,332459,,332509,2021-10-26T12:15:02.349Z,332545.98,1635250159,full,ni_sequenzen,NI_Sequenzen,10,9,,,,,,,,,,,,
,Move,canvas.Screen,0_3_0_9_0_10,-999,skipped,,332513,,,332459,,332513,2021-10-26T12:15:02.352Z,332545.98,1635250159,full,ni_sequenzen,NI_Sequenzen,11,9,,,,,,,,,,,,
,Move,canvas.Screen,0_3_0_9_0_11,-999,skipped,,332519,,,332459,,332519,2021-10-26T12:15:02.359Z,332545.98,1635250159,full,ni_sequenzen,NI_Sequenzen,12,9,,,,,,,,,,,,
,Move,canvas.Screen,0_3_0_9_0_12,-999,skipped,,332522,,,332459,,332522,2021-10-26T12:15:02.362Z,332545.98,1635250159,full,ni_sequenzen,NI_Sequenzen,13,9,,,,,,,,,,,,
,Move,canvas.Screen,0_3_0_9_0_13,-999,skipped,,332525,,,332459,,332525,2021-10-26T12:15:02.365Z,332545.98,1635250159,full,ni_sequenzen,NI_Sequenzen,14,9,,,,,,,,,,,,
,Move,canvas.Screen,0_3_0_9_0_14,-999,skipped,,332528,,,332459,,332528,2021-10-26T12:15:02.367Z,332545.98,1635250159,full,ni_sequenzen,NI_Sequenzen,15,9,,,,,,,,,,,,
,Loop,flow.Loop,0_3_0_9_0,-999,completion,,326658,326661.58,326662.76,332459,5796.239999999991,332528,2021-10-26T12:15:02.367Z,332545.98,1635250159,full,ni_sequenzen,NI_Sequenzen,,9,,,,,,,,,,,,
,Feedback,canvas.Screen,0_3_0_9_1,,timeout,,332534,332534.02,332545.98,336529.26,4087.0400000000373,336532,2021-10-26T12:15:06.371Z,336633.02,1635250159,full,ni_sequenzen,NI_Sequenzen,,9,,,,,,,,,,,,
,Trial,flow.Sequence,0_3_0_9,,completion,,326636,326661.58,326662.76,336529.26,9866.5,336532,2021-10-26T12:15:06.371Z,336645.92,1635250159,full,ni_sequenzen,NI_Sequenzen,,9,,,,,,,,,,,,
,Block,flow.Loop,0_3_0,,completion,,196575,196587.96,196598.46,336529.26,139930.80000000002,336533,2021-10-26T12:15:06.372Z,336645.92,1635250159,full,ni_sequenzen,NI_Sequenzen,,,,,,,,,,,,,,
,Training_II,flow.Sequence,0_3,,completion,,196557,196587.96,196598.46,336529.26,139930.80000000002,336534,2021-10-26T12:15:06.373Z,336645.92,1635250159,full,ni_sequenzen,NI_Sequenzen,,,,,,,,,,,,,,
,Screen_1,canvas.Screen,0_4_0_0,cont,response,1,336633,336633.02,336645.92,343991,7345.080000000016,343993,2021-10-26T12:15:13.832Z,344012.46,1635250159,full,ni_sequenzen,NI_Sequenzen,,,,,,,,,,,,,,
,Screen_2,canvas.Screen,0_4_0_1,cont,response,1,343997,343996.4,344012.46,356460,12447.539999999979,356465,2021-10-26T12:15:26.304Z,356878.9,1635250159,full,ni_sequenzen,NI_Sequenzen,,,,,,,,,,,,,,
,Screen_3,canvas.Screen,0_4_0_2,cont,response,1,356876,356875.66,356878.9,368117,11238.099999999977,368129,2021-10-26T12:15:37.968Z,368262.04,1635250159,full,ni_sequenzen,NI_Sequenzen,,,,,,,,,,,,,,
,Sequence,flow.Sequence,0_4_0,,completion,1,336565,336633.02,336645.92,368117,31471.080000000016,368130,2021-10-26T12:15:37.969Z,368262.04,1635250159,full,ni_sequenzen,NI_Sequenzen,,,,,,,,,,,,,,
,Screen_1,canvas.Screen,0_4_1_0,,skipped,2,368136,,,368136,,368136,2021-10-26T12:15:37.976Z,368262.04,1635250159,full,ni_sequenzen,NI_Sequenzen,,,,,,,,,,,,,,
,Screen_2,canvas.Screen,0_4_1_1,,skipped,2,368139,,,368136,,368139,2021-10-26T12:15:37.978Z,368262.04,1635250159,full,ni_sequenzen,NI_Sequenzen,,,,,,,,,,,,,,
,Screen_3,canvas.Screen,0_4_1_2,,skipped,2,368140,,,368136,,368140,2021-10-26T12:15:37.980Z,368262.04,1635250159,full,ni_sequenzen,NI_Sequenzen,,,,,,,,,,,,,,
,Sequence,flow.Sequence,0_4_1,,completion,2,368132,,,368136,,368140,2021-10-26T12:15:37.981Z,368262.04,1635250159,full,ni_sequenzen,NI_Sequenzen,,,,,,,,,,,,,,
,Screen_1,canvas.Screen,0_4_2_0,,skipped,3,368143,,,368143,,368143,2021-10-26T12:15:37.983Z,368262.04,1635250159,full,ni_sequenzen,NI_Sequenzen,,,,,,,,,,,,,,
,Screen_2,canvas.Screen,0_4_2_1,,skipped,3,368146,,,368143,,368146,2021-10-26T12:15:37.984Z,368262.04,1635250159,full,ni_sequenzen,NI_Sequenzen,,,,,,,,,,,,,,
,Screen_3,canvas.Screen,0_4_2_2,,skipped,3,368148,,,368143,,368148,2021-10-26T12:15:37.987Z,368262.04,1635250159,full,ni_sequenzen,NI_Sequenzen,,,,,,,,,,,,,,
,Sequence,flow.Sequence,0_4_2,,completion,3,368142,,,368143,,368148,2021-10-26T12:15:37.988Z,368262.04,1635250159,full,ni_sequenzen,NI_Sequenzen,,,,,,,,,,,,,,
,Screen_1,canvas.Screen,0_4_3_0,,skipped,4,368150,,,368150,,368150,2021-10-26T12:15:37.990Z,368262.04,1635250159,full,ni_sequenzen,NI_Sequenzen,,,,,,,,,,,,,,
,Screen_2,canvas.Screen,0_4_3_1,,skipped,4,368152,,,368150,,368152,2021-10-26T12:15:37.991Z,368262.04,1635250159,full,ni_sequenzen,NI_Sequenzen,,,,,,,,,,,,,,
,Screen_3,canvas.Screen,0_4_3_2,,skipped,4,368154,,,368150,,368154,2021-10-26T12:15:37.993Z,368262.04,1635250159,full,ni_sequenzen,NI_Sequenzen,,,,,,,,,,,,,,
,Sequence,flow.Sequence,0_4_3,,completion,4,368149,,,368150,,368154,2021-10-26T12:15:37.993Z,368262.04,1635250159,full,ni_sequenzen,NI_Sequenzen,,,,,,,,,,,,,,
,Screen_1,canvas.Screen,0_4_4_0,,skipped,5,368155,,,368155,,368155,2021-10-26T12:15:37.995Z,368262.04,1635250159,full,ni_sequenzen,NI_Sequenzen,,,,,,,,,,,,,,
,Screen_2,canvas.Screen,0_4_4_1,,skipped,5,368156,,,368155,,368156,2021-10-26T12:15:37.996Z,368262.04,1635250159,full,ni_sequenzen,NI_Sequenzen,,,,,,,,,,,,,,
,Screen_3,canvas.Screen,0_4_4_2,,skipped,5,368157,,,368155,,368157,2021-10-26T12:15:37.997Z,368262.04,1635250159,full,ni_sequenzen,NI_Sequenzen,,,,,,,,,,,,,,
,Sequence,flow.Sequence,0_4_4,,completion,5,368155,,,368155,,368157,2021-10-26T12:15:37.997Z,368262.04,1635250159,full,ni_sequenzen,NI_Sequenzen,,,,,,,,,,,,,,
,Screen_1,canvas.Screen,0_4_5_0,,skipped,6,368158,,,368158,,368158,2021-10-26T12:15:37.998Z,368262.04,1635250159,full,ni_sequenzen,NI_Sequenzen,,,,,,,,,,,,,,
,Screen_2,canvas.Screen,0_4_5_1,,skipped,6,368159,,,368158,,368159,2021-10-26T12:15:37.999Z,368262.04,1635250159,full,ni_sequenzen,NI_Sequenzen,,,,,,,,,,,,,,
,Screen_3,canvas.Screen,0_4_5_2,,skipped,6,368160,,,368158,,368160,2021-10-26T12:15:37.999Z,368262.04,1635250159,full,ni_sequenzen,NI_Sequenzen,,,,,,,,,,,,,,
,Sequence,flow.Sequence,0_4_5,,completion,6,368158,,,368158,,368160,2021-10-26T12:15:37.999Z,368262.04,1635250159,full,ni_sequenzen,NI_Sequenzen,,,,,,,,,,,,,,
,Screen_1,canvas.Screen,0_4_6_0,,skipped,7,368161,,,368161,,368161,2021-10-26T12:15:38.000Z,368262.04,1635250159,full,ni_sequenzen,NI_Sequenzen,,,,,,,,,,,,,,
,Screen_2,canvas.Screen,0_4_6_1,,skipped,7,368162,,,368161,,368162,2021-10-26T12:15:38.001Z,368262.04,1635250159,full,ni_sequenzen,NI_Sequenzen,,,,,,,,,,,,,,
,Screen_3,canvas.Screen,0_4_6_2,,skipped,7,368163,,,368161,,368163,2021-10-26T12:15:38.002Z,368262.04,1635250159,full,ni_sequenzen,NI_Sequenzen,,,,,,,,,,,,,,
,Sequence,flow.Sequence,0_4_6,,completion,7,368160,,,368161,,368163,2021-10-26T12:15:38.003Z,368262.04,1635250159,full,ni_sequenzen,NI_Sequenzen,,,,,,,,,,,,,,
,Screen_1,canvas.Screen,0_4_7_0,,skipped,8,368166,,,368166,,368166,2021-10-26T12:15:38.006Z,368262.04,1635250159,full,ni_sequenzen,NI_Sequenzen,,,,,,,,,,,,,,
,Screen_2,canvas.Screen,0_4_7_1,,skipped,8,368168,,,368166,,368168,2021-10-26T12:15:38.008Z,368262.04,1635250159,full,ni_sequenzen,NI_Sequenzen,,,,,,,,,,,,,,
,Screen_3,canvas.Screen,0_4_7_2,,skipped,8,368169,,,368166,,368169,2021-10-26T12:15:38.008Z,368262.04,1635250159,full,ni_sequenzen,NI_Sequenzen,,,,,,,,,,,,,,
,Sequence,flow.Sequence,0_4_7,,completion,8,368165,,,368166,,368169,2021-10-26T12:15:38.009Z,368262.04,1635250159,full,ni_sequenzen,NI_Sequenzen,,,,,,,,,,,,,,
,Screen_1,canvas.Screen,0_4_8_0,,skipped,9,368170,,,368170,,368170,2021-10-26T12:15:38.010Z,368262.04,1635250159,full,ni_sequenzen,NI_Sequenzen,,,,,,,,,,,,,,
,Screen_2,canvas.Screen,0_4_8_1,,skipped,9,368171,,,368170,,368171,2021-10-26T12:15:38.010Z,368262.04,1635250159,full,ni_sequenzen,NI_Sequenzen,,,,,,,,,,,,,,
,Screen_3,canvas.Screen,0_4_8_2,,skipped,9,368172,,,368170,,368172,2021-10-26T12:15:38.011Z,368262.04,1635250159,full,ni_sequenzen,NI_Sequenzen,,,,,,,,,,,,,,
,Sequence,flow.Sequence,0_4_8,,completion,9,368170,,,368170,,368172,2021-10-26T12:15:38.011Z,368262.04,1635250159,full,ni_sequenzen,NI_Sequenzen,,,,,,,,,,,,,,
,Screen_1,canvas.Screen,0_4_9_0,,skipped,10,368173,,,368173,,368173,2021-10-26T12:15:38.012Z,368262.04,1635250159,full,ni_sequenzen,NI_Sequenzen,,,,,,,,,,,,,,
,Screen_2,canvas.Screen,0_4_9_1,,skipped,10,368174,,,368173,,368174,2021-10-26T12:15:38.013Z,368262.04,1635250159,full,ni_sequenzen,NI_Sequenzen,,,,,,,,,,,,,,
,Screen_3,canvas.Screen,0_4_9_2,,skipped,10,368174,,,368173,,368174,2021-10-26T12:15:38.014Z,368262.04,1635250159,full,ni_sequenzen,NI_Sequenzen,,,,,,,,,,,,,,
,Sequence,flow.Sequence,0_4_9,,completion,10,368172,,,368173,,368175,2021-10-26T12:15:38.014Z,368262.04,1635250159,full,ni_sequenzen,NI_Sequenzen,,,,,,,,,,,,,,
,Screen_1,canvas.Screen,0_4_10_0,,skipped,11,368175,,,368175,,368175,2021-10-26T12:15:38.015Z,368262.04,1635250159,full,ni_sequenzen,NI_Sequenzen,,,,,,,,,,,,,,
,Screen_2,canvas.Screen,0_4_10_1,,skipped,11,368176,,,368175,,368176,2021-10-26T12:15:38.015Z,368262.04,1635250159,full,ni_sequenzen,NI_Sequenzen,,,,,,,,,,,,,,
,Screen_3,canvas.Screen,0_4_10_2,,skipped,11,368177,,,368175,,368177,2021-10-26T12:15:38.016Z,368262.04,1635250159,full,ni_sequenzen,NI_Sequenzen,,,,,,,,,,,,,,
,Sequence,flow.Sequence,0_4_10,,completion,11,368175,,,368175,,368177,2021-10-26T12:15:38.016Z,368262.04,1635250159,full,ni_sequenzen,NI_Sequenzen,,,,,,,,,,,,,,
,Screen_1,canvas.Screen,0_4_11_0,,skipped,12,368178,,,368178,,368178,2021-10-26T12:15:38.017Z,368262.04,1635250159,full,ni_sequenzen,NI_Sequenzen,,,,,,,,,,,,,,
,Screen_2,canvas.Screen,0_4_11_1,,skipped,12,368179,,,368178,,368179,2021-10-26T12:15:38.018Z,368262.04,1635250159,full,ni_sequenzen,NI_Sequenzen,,,,,,,,,,,,,,
,Screen_3,canvas.Screen,0_4_11_2,,skipped,12,368180,,,368178,,368181,2021-10-26T12:15:38.020Z,368262.04,1635250159,full,ni_sequenzen,NI_Sequenzen,,,,,,,,,,,,,,
,Sequence,flow.Sequence,0_4_11,,completion,12,368177,,,368178,,368181,2021-10-26T12:15:38.021Z,368262.04,1635250159,full,ni_sequenzen,NI_Sequenzen,,,,,,,,,,,,,,
,Screen_1,canvas.Screen,0_4_12_0,,skipped,13,368184,,,368184,,368184,2021-10-26T12:15:38.024Z,368262.04,1635250159,full,ni_sequenzen,NI_Sequenzen,,,,,,,,,,,,,,
,Screen_2,canvas.Screen,0_4_12_1,,skipped,13,368185,,,368184,,368185,2021-10-26T12:15:38.024Z,368262.04,1635250159,full,ni_sequenzen,NI_Sequenzen,,,,,,,,,,,,,,
,Screen_3,canvas.Screen,0_4_12_2,,skipped,13,368186,,,368184,,368186,2021-10-26T12:15:38.026Z,368262.04,1635250159,full,ni_sequenzen,NI_Sequenzen,,,,,,,,,,,,,,
,Sequence,flow.Sequence,0_4_12,,completion,13,368182,,,368184,,368186,2021-10-26T12:15:38.026Z,368262.04,1635250159,full,ni_sequenzen,NI_Sequenzen,,,,,,,,,,,,,,
,Screen_1,canvas.Screen,0_4_13_0,,skipped,14,368187,,,368187,,368187,2021-10-26T12:15:38.027Z,368262.04,1635250159,full,ni_sequenzen,NI_Sequenzen,,,,,,,,,,,,,,
,Screen_2,canvas.Screen,0_4_13_1,,skipped,14,368189,,,368187,,368189,2021-10-26T12:15:38.028Z,368262.04,1635250159,full,ni_sequenzen,NI_Sequenzen,,,,,,,,,,,,,,
,Screen_3,canvas.Screen,0_4_13_2,,skipped,14,368189,,,368187,,368189,2021-10-26T12:15:38.028Z,368262.04,1635250159,full,ni_sequenzen,NI_Sequenzen,,,,,,,,,,,,,,
,Sequence,flow.Sequence,0_4_13,,completion,14,368187,,,368187,,368190,2021-10-26T12:15:38.028Z,368262.04,1635250159,full,ni_sequenzen,NI_Sequenzen,,,,,,,,,,,,,,
,Screen_1,canvas.Screen,0_4_14_0,,skipped,15,368190,,,368190,,368190,2021-10-26T12:15:38.029Z,368262.04,1635250159,full,ni_sequenzen,NI_Sequenzen,,,,,,,,,,,,,,
,Screen_2,canvas.Screen,0_4_14_1,,skipped,15,368190,,,368190,,368190,2021-10-26T12:15:38.030Z,368262.04,1635250159,full,ni_sequenzen,NI_Sequenzen,,,,,,,,,,,,,,
,Screen_3,canvas.Screen,0_4_14_2,,skipped,15,368191,,,368190,,368191,2021-10-26T12:15:38.031Z,368262.04,1635250159,full,ni_sequenzen,NI_Sequenzen,,,,,,,,,,,,,,
,Sequence,flow.Sequence,0_4_14,,completion,15,368190,,,368190,,368191,2021-10-26T12:15:38.031Z,368262.04,1635250159,full,ni_sequenzen,NI_Sequenzen,,,,,,,,,,,,,,
,Screen_1,canvas.Screen,0_4_15_0,,skipped,16,368193,,,368193,,368193,2021-10-26T12:15:38.032Z,368262.04,1635250159,full,ni_sequenzen,NI_Sequenzen,,,,,,,,,,,,,,
,Screen_2,canvas.Screen,0_4_15_1,,skipped,16,368193,,,368193,,368193,2021-10-26T12:15:38.033Z,368262.04,1635250159,full,ni_sequenzen,NI_Sequenzen,,,,,,,,,,,,,,
,Screen_3,canvas.Screen,0_4_15_2,,skipped,16,368194,,,368193,,368194,2021-10-26T12:15:38.033Z,368262.04,1635250159,full,ni_sequenzen,NI_Sequenzen,,,,,,,,,,,,,,
,Sequence,flow.Sequence,0_4_15,,completion,16,368191,,,368193,,368194,2021-10-26T12:15:38.033Z,368262.04,1635250159,full,ni_sequenzen,NI_Sequenzen,,,,,,,,,,,,,,
,Screen_1,canvas.Screen,0_4_16_0,,skipped,17,368195,,,368195,,368195,2021-10-26T12:15:38.035Z,368262.04,1635250159,full,ni_sequenzen,NI_Sequenzen,,,,,,,,,,,,,,
,Screen_2,canvas.Screen,0_4_16_1,,skipped,17,368196,,,368195,,368197,2021-10-26T12:15:38.036Z,368262.04,1635250159,full,ni_sequenzen,NI_Sequenzen,,,,,,,,,,,,,,
