meta,sender,sender_type,sender_id,response,ended_on,instrCount,time_run,time_render,time_show,time_end,duration,time_commit,timestamp,time_switch,openLabId,type,task,project,move,trialN,blockN_Train,blockN,moveCount,currPP,points,movesTrial,visitedFields,diff,reward,Strategie,Zweck,Probleme
[object Object],Screen_1,canvas.Screen,0_0_0_0,cont,response,1,624,624.68,656.64,2645,1988.3600000000001,2663,2021-10-25T19:24:17.662Z,2776.04,1635181311,full,ni_sequenzen,NI_Sequenzen,,,,,,,,,,,,,,
,Screen_2,canvas.Screen,0_0_0_1,cont,response,1,2775,2775.08,2776.04,3159,382.96000000000004,3174,2021-10-25T19:24:18.172Z,3223.62,1635181311,full,ni_sequenzen,NI_Sequenzen,,,,,,,,,,,,,,
,Screen_3,canvas.Screen,0_0_0_2,cont,response,1,3223,3222.74,3223.62,3364,140.3800000000001,3378,2021-10-25T19:24:18.377Z,3390.1,1635181311,full,ni_sequenzen,NI_Sequenzen,,,,,,,,,,,,,,
,Screen_4,canvas.Screen,0_0_0_3,cont,response,1,3382,3381.46,3390.1,3585,194.9000000000001,3599,2021-10-25T19:24:18.599Z,3740.5,1635181311,full,ni_sequenzen,NI_Sequenzen,,,,,,,,,,,,,,
,Sequence,flow.Sequence,0_0_0,,completion,1,542,624.68,656.64,3585,2928.36,3600,2021-10-25T19:24:18.600Z,3740.5,1635181311,full,ni_sequenzen,NI_Sequenzen,,,,,,,,,,,,,,
,Screen_1,canvas.Screen,0_0_1_0,,skipped,2,3604,,,3604,,3604,2021-10-25T19:24:18.603Z,3740.5,1635181311,full,ni_sequenzen,NI_Sequenzen,,,,,,,,,,,,,,
,Screen_2,canvas.Screen,0_0_1_1,,skipped,2,3607,,,3604,,3607,2021-10-25T19:24:18.607Z,3740.5,1635181311,full,ni_sequenzen,NI_Sequenzen,,,,,,,,,,,,,,
,Screen_3,canvas.Screen,0_0_1_2,,skipped,2,3610,,,3604,,3610,2021-10-25T19:24:18.609Z,3740.5,1635181311,full,ni_sequenzen,NI_Sequenzen,,,,,,,,,,,,,,
,Screen_4,canvas.Screen,0_0_1_3,,skipped,2,3612,,,3604,,3612,2021-10-25T19:24:18.612Z,3740.5,1635181311,full,ni_sequenzen,NI_Sequenzen,,,,,,,,,,,,,,
,Sequence,flow.Sequence,0_0_1,,completion,2,3602,,,3604,,3612,2021-10-25T19:24:18.612Z,3740.5,1635181311,full,ni_sequenzen,NI_Sequenzen,,,,,,,,,,,,,,
,Screen_1,canvas.Screen,0_0_2_0,,skipped,3,3615,,,3615,,3615,2021-10-25T19:24:18.614Z,3740.5,1635181311,full,ni_sequenzen,NI_Sequenzen,,,,,,,,,,,,,,
,Screen_2,canvas.Screen,0_0_2_1,,skipped,3,3617,,,3615,,3617,2021-10-25T19:24:18.616Z,3740.5,1635181311,full,ni_sequenzen,NI_Sequenzen,,,,,,,,,,,,,,
,Screen_3,canvas.Screen,0_0_2_2,,skipped,3,3621,,,3615,,3621,2021-10-25T19:24:18.619Z,3740.5,1635181311,full,ni_sequenzen,NI_Sequenzen,,,,,,,,,,,,,,
,Screen_4,canvas.Screen,0_0_2_3,,skipped,3,3622,,,3615,,3622,2021-10-25T19:24:18.622Z,3740.5,1635181311,full,ni_sequenzen,NI_Sequenzen,,,,,,,,,,,,,,
,Sequence,flow.Sequence,0_0_2,,completion,3,3613,,,3615,,3622,2021-10-25T19:24:18.622Z,3740.5,1635181311,full,ni_sequenzen,NI_Sequenzen,,,,,,,,,,,,,,
,Screen_1,canvas.Screen,0_0_3_0,,skipped,4,3624,,,3624,,3624,2021-10-25T19:24:18.624Z,3740.5,1635181311,full,ni_sequenzen,NI_Sequenzen,,,,,,,,,,,,,,
,Screen_2,canvas.Screen,0_0_3_1,,skipped,4,3626,,,3624,,3626,2021-10-25T19:24:18.625Z,3740.5,1635181311,full,ni_sequenzen,NI_Sequenzen,,,,,,,,,,,,,,
,Screen_3,canvas.Screen,0_0_3_2,,skipped,4,3627,,,3624,,3627,2021-10-25T19:24:18.627Z,3740.5,1635181311,full,ni_sequenzen,NI_Sequenzen,,,,,,,,,,,,,,
,Screen_4,canvas.Screen,0_0_3_3,,skipped,4,3629,,,3624,,3629,2021-10-25T19:24:18.629Z,3740.5,1635181311,full,ni_sequenzen,NI_Sequenzen,,,,,,,,,,,,,,
,Sequence,flow.Sequence,0_0_3,,completion,4,3623,,,3624,,3629,2021-10-25T19:24:18.629Z,3740.5,1635181311,full,ni_sequenzen,NI_Sequenzen,,,,,,,,,,,,,,
,Screen_1,canvas.Screen,0_0_4_0,,skipped,5,3632,,,3632,,3632,2021-10-25T19:24:18.631Z,3740.5,1635181311,full,ni_sequenzen,NI_Sequenzen,,,,,,,,,,,,,,
,Screen_2,canvas.Screen,0_0_4_1,,skipped,5,3633,,,3632,,3633,2021-10-25T19:24:18.632Z,3740.5,1635181311,full,ni_sequenzen,NI_Sequenzen,,,,,,,,,,,,,,
,Screen_3,canvas.Screen,0_0_4_2,,skipped,5,3634,,,3632,,3634,2021-10-25T19:24:18.634Z,3740.5,1635181311,full,ni_sequenzen,NI_Sequenzen,,,,,,,,,,,,,,
,Screen_4,canvas.Screen,0_0_4_3,,skipped,5,3636,,,3632,,3636,2021-10-25T19:24:18.635Z,3740.5,1635181311,full,ni_sequenzen,NI_Sequenzen,,,,,,,,,,,,,,
,Sequence,flow.Sequence,0_0_4,,completion,5,3631,,,3632,,3636,2021-10-25T19:24:18.635Z,3740.5,1635181311,full,ni_sequenzen,NI_Sequenzen,,,,,,,,,,,,,,
,Screen_1,canvas.Screen,0_0_5_0,,skipped,6,3638,,,3638,,3638,2021-10-25T19:24:18.637Z,3740.5,1635181311,full,ni_sequenzen,NI_Sequenzen,,,,,,,,,,,,,,
,Screen_2,canvas.Screen,0_0_5_1,,skipped,6,3639,,,3638,,3639,2021-10-25T19:24:18.638Z,3740.5,1635181311,full,ni_sequenzen,NI_Sequenzen,,,,,,,,,,,,,,
,Screen_3,canvas.Screen,0_0_5_2,,skipped,6,3641,,,3638,,3641,2021-10-25T19:24:18.640Z,3740.5,1635181311,full,ni_sequenzen,NI_Sequenzen,,,,,,,,,,,,,,
,Screen_4,canvas.Screen,0_0_5_3,,skipped,6,3641,,,3638,,3641,2021-10-25T19:24:18.641Z,3740.5,1635181311,full,ni_sequenzen,NI_Sequenzen,,,,,,,,,,,,,,
,Sequence,flow.Sequence,0_0_5,,completion,6,3637,,,3638,,3642,2021-10-25T19:24:18.641Z,3740.5,1635181311,full,ni_sequenzen,NI_Sequenzen,,,,,,,,,,,,,,
,Screen_1,canvas.Screen,0_0_6_0,,skipped,7,3643,,,3643,,3644,2021-10-25T19:24:18.643Z,3740.5,1635181311,full,ni_sequenzen,NI_Sequenzen,,,,,,,,,,,,,,
,Screen_2,canvas.Screen,0_0_6_1,,skipped,7,3645,,,3643,,3645,2021-10-25T19:24:18.644Z,3740.5,1635181311,full,ni_sequenzen,NI_Sequenzen,,,,,,,,,,,,,,
,Screen_3,canvas.Screen,0_0_6_2,,skipped,7,3646,,,3643,,3646,2021-10-25T19:24:18.645Z,3740.5,1635181311,full,ni_sequenzen,NI_Sequenzen,,,,,,,,,,,,,,
,Screen_4,canvas.Screen,0_0_6_3,,skipped,7,3647,,,3643,,3647,2021-10-25T19:24:18.647Z,3740.5,1635181311,full,ni_sequenzen,NI_Sequenzen,,,,,,,,,,,,,,
,Sequence,flow.Sequence,0_0_6,,completion,7,3643,,,3643,,3647,2021-10-25T19:24:18.647Z,3740.5,1635181311,full,ni_sequenzen,NI_Sequenzen,,,,,,,,,,,,,,
,Screen_1,canvas.Screen,0_0_7_0,,skipped,8,3648,,,3648,,3648,2021-10-25T19:24:18.648Z,3740.5,1635181311,full,ni_sequenzen,NI_Sequenzen,,,,,,,,,,,,,,
,Screen_2,canvas.Screen,0_0_7_1,,skipped,8,3649,,,3648,,3649,2021-10-25T19:24:18.649Z,3740.5,1635181311,full,ni_sequenzen,NI_Sequenzen,,,,,,,,,,,,,,
,Screen_3,canvas.Screen,0_0_7_2,,skipped,8,3650,,,3648,,3650,2021-10-25T19:24:18.650Z,3740.5,1635181311,full,ni_sequenzen,NI_Sequenzen,,,,,,,,,,,,,,
,Screen_4,canvas.Screen,0_0_7_3,,skipped,8,3652,,,3648,,3652,2021-10-25T19:24:18.651Z,3740.5,1635181311,full,ni_sequenzen,NI_Sequenzen,,,,,,,,,,,,,,
,Sequence,flow.Sequence,0_0_7,,completion,8,3647,,,3648,,3652,2021-10-25T19:24:18.651Z,3740.5,1635181311,full,ni_sequenzen,NI_Sequenzen,,,,,,,,,,,,,,
,Screen_1,canvas.Screen,0_0_8_0,,skipped,9,3654,,,3654,,3654,2021-10-25T19:24:18.654Z,3740.5,1635181311,full,ni_sequenzen,NI_Sequenzen,,,,,,,,,,,,,,
,Screen_2,canvas.Screen,0_0_8_1,,skipped,9,3655,,,3654,,3655,2021-10-25T19:24:18.654Z,3740.5,1635181311,full,ni_sequenzen,NI_Sequenzen,,,,,,,,,,,,,,
,Screen_3,canvas.Screen,0_0_8_2,,skipped,9,3656,,,3654,,3656,2021-10-25T19:24:18.655Z,3740.5,1635181311,full,ni_sequenzen,NI_Sequenzen,,,,,,,,,,,,,,
,Screen_4,canvas.Screen,0_0_8_3,,skipped,9,3658,,,3654,,3658,2021-10-25T19:24:18.656Z,3740.5,1635181311,full,ni_sequenzen,NI_Sequenzen,,,,,,,,,,,,,,
,Sequence,flow.Sequence,0_0_8,,completion,9,3653,,,3654,,3658,2021-10-25T19:24:18.656Z,3740.5,1635181311,full,ni_sequenzen,NI_Sequenzen,,,,,,,,,,,,,,
,Screen_1,canvas.Screen,0_0_9_0,,skipped,10,3661,,,3661,,3661,2021-10-25T19:24:18.660Z,3740.5,1635181311,full,ni_sequenzen,NI_Sequenzen,,,,,,,,,,,,,,
,Screen_2,canvas.Screen,0_0_9_1,,skipped,10,3662,,,3661,,3662,2021-10-25T19:24:18.662Z,3740.5,1635181311,full,ni_sequenzen,NI_Sequenzen,,,,,,,,,,,,,,
,Screen_3,canvas.Screen,0_0_9_2,,skipped,10,3663,,,3661,,3663,2021-10-25T19:24:18.662Z,3740.5,1635181311,full,ni_sequenzen,NI_Sequenzen,,,,,,,,,,,,,,
,Screen_4,canvas.Screen,0_0_9_3,,skipped,10,3664,,,3661,,3664,2021-10-25T19:24:18.663Z,3740.5,1635181311,full,ni_sequenzen,NI_Sequenzen,,,,,,,,,,,,,,
,Sequence,flow.Sequence,0_0_9,,completion,10,3660,,,3661,,3664,2021-10-25T19:24:18.663Z,3740.5,1635181311,full,ni_sequenzen,NI_Sequenzen,,,,,,,,,,,,,,
,Screen_1,canvas.Screen,0_0_10_0,,skipped,11,3665,,,3665,,3665,2021-10-25T19:24:18.665Z,3740.5,1635181311,full,ni_sequenzen,NI_Sequenzen,,,,,,,,,,,,,,
,Screen_2,canvas.Screen,0_0_10_1,,skipped,11,3667,,,3665,,3667,2021-10-25T19:24:18.666Z,3740.5,1635181311,full,ni_sequenzen,NI_Sequenzen,,,,,,,,,,,,,,
,Screen_3,canvas.Screen,0_0_10_2,,skipped,11,3668,,,3665,,3668,2021-10-25T19:24:18.667Z,3740.5,1635181311,full,ni_sequenzen,NI_Sequenzen,,,,,,,,,,,,,,
,Screen_4,canvas.Screen,0_0_10_3,,skipped,11,3669,,,3665,,3669,2021-10-25T19:24:18.668Z,3740.5,1635181311,full,ni_sequenzen,NI_Sequenzen,,,,,,,,,,,,,,
,Sequence,flow.Sequence,0_0_10,,completion,11,3665,,,3665,,3669,2021-10-25T19:24:18.668Z,3740.5,1635181311,full,ni_sequenzen,NI_Sequenzen,,,,,,,,,,,,,,
,Screen_1,canvas.Screen,0_0_11_0,,skipped,12,3670,,,3670,,3670,2021-10-25T19:24:18.670Z,3740.5,1635181311,full,ni_sequenzen,NI_Sequenzen,,,,,,,,,,,,,,
,Screen_2,canvas.Screen,0_0_11_1,,skipped,12,3672,,,3670,,3672,2021-10-25T19:24:18.670Z,3740.5,1635181311,full,ni_sequenzen,NI_Sequenzen,,,,,,,,,,,,,,
,Screen_3,canvas.Screen,0_0_11_2,,skipped,12,3673,,,3670,,3673,2021-10-25T19:24:18.673Z,3740.5,1635181311,full,ni_sequenzen,NI_Sequenzen,,,,,,,,,,,,,,
,Screen_4,canvas.Screen,0_0_11_3,,skipped,12,3674,,,3670,,3674,2021-10-25T19:24:18.673Z,3740.5,1635181311,full,ni_sequenzen,NI_Sequenzen,,,,,,,,,,,,,,
,Sequence,flow.Sequence,0_0_11,,completion,12,3669,,,3670,,3674,2021-10-25T19:24:18.673Z,3740.5,1635181311,full,ni_sequenzen,NI_Sequenzen,,,,,,,,,,,,,,
,Screen_1,canvas.Screen,0_0_12_0,,skipped,13,3675,,,3675,,3675,2021-10-25T19:24:18.674Z,3740.5,1635181311,full,ni_sequenzen,NI_Sequenzen,,,,,,,,,,,,,,
,Screen_2,canvas.Screen,0_0_12_1,,skipped,13,3676,,,3675,,3676,2021-10-25T19:24:18.675Z,3740.5,1635181311,full,ni_sequenzen,NI_Sequenzen,,,,,,,,,,,,,,
,Screen_3,canvas.Screen,0_0_12_2,,skipped,13,3678,,,3675,,3678,2021-10-25T19:24:18.676Z,3740.5,1635181311,full,ni_sequenzen,NI_Sequenzen,,,,,,,,,,,,,,
,Screen_4,canvas.Screen,0_0_12_3,,skipped,13,3678,,,3675,,3678,2021-10-25T19:24:18.677Z,3740.5,1635181311,full,ni_sequenzen,NI_Sequenzen,,,,,,,,,,,,,,
,Sequence,flow.Sequence,0_0_12,,completion,13,3674,,,3675,,3678,2021-10-25T19:24:18.677Z,3740.5,1635181311,full,ni_sequenzen,NI_Sequenzen,,,,,,,,,,,,,,
,Screen_1,canvas.Screen,0_0_13_0,,skipped,14,3680,,,3680,,3680,2021-10-25T19:24:18.679Z,3740.5,1635181311,full,ni_sequenzen,NI_Sequenzen,,,,,,,,,,,,,,
,Screen_2,canvas.Screen,0_0_13_1,,skipped,14,3681,,,3680,,3681,2021-10-25T19:24:18.680Z,3740.5,1635181311,full,ni_sequenzen,NI_Sequenzen,,,,,,,,,,,,,,
,Screen_3,canvas.Screen,0_0_13_2,,skipped,14,3682,,,3680,,3682,2021-10-25T19:24:18.681Z,3740.5,1635181311,full,ni_sequenzen,NI_Sequenzen,,,,,,,,,,,,,,
,Screen_4,canvas.Screen,0_0_13_3,,skipped,14,3684,,,3680,,3684,2021-10-25T19:24:18.683Z,3740.5,1635181311,full,ni_sequenzen,NI_Sequenzen,,,,,,,,,,,,,,
,Sequence,flow.Sequence,0_0_13,,completion,14,3678,,,3680,,3684,2021-10-25T19:24:18.683Z,3740.5,1635181311,full,ni_sequenzen,NI_Sequenzen,,,,,,,,,,,,,,
,Screen_1,canvas.Screen,0_0_14_0,,skipped,15,3687,,,3687,,3687,2021-10-25T19:24:18.687Z,3740.5,1635181311,full,ni_sequenzen,NI_Sequenzen,,,,,,,,,,,,,,
,Screen_2,canvas.Screen,0_0_14_1,,skipped,15,3688,,,3687,,3688,2021-10-25T19:24:18.688Z,3740.5,1635181311,full,ni_sequenzen,NI_Sequenzen,,,,,,,,,,,,,,
,Screen_3,canvas.Screen,0_0_14_2,,skipped,15,3689,,,3687,,3689,2021-10-25T19:24:18.689Z,3740.5,1635181311,full,ni_sequenzen,NI_Sequenzen,,,,,,,,,,,,,,
,Screen_4,canvas.Screen,0_0_14_3,,skipped,15,3690,,,3687,,3690,2021-10-25T19:24:18.690Z,3740.5,1635181311,full,ni_sequenzen,NI_Sequenzen,,,,,,,,,,,,,,
,Sequence,flow.Sequence,0_0_14,,completion,15,3686,,,3687,,3690,2021-10-25T19:24:18.690Z,3740.5,1635181311,full,ni_sequenzen,NI_Sequenzen,,,,,,,,,,,,,,
,Screen_1,canvas.Screen,0_0_15_0,,skipped,16,3692,,,3692,,3692,2021-10-25T19:24:18.691Z,3740.5,1635181311,full,ni_sequenzen,NI_Sequenzen,,,,,,,,,,,,,,
,Screen_2,canvas.Screen,0_0_15_1,,skipped,16,3692,,,3692,,3693,2021-10-25T19:24:18.692Z,3740.5,1635181311,full,ni_sequenzen,NI_Sequenzen,,,,,,,,,,,,,,
,Screen_3,canvas.Screen,0_0_15_2,,skipped,16,3693,,,3692,,3693,2021-10-25T19:24:18.693Z,3740.5,1635181311,full,ni_sequenzen,NI_Sequenzen,,,,,,,,,,,,,,
,Screen_4,canvas.Screen,0_0_15_3,,skipped,16,3694,,,3692,,3694,2021-10-25T19:24:18.694Z,3740.5,1635181311,full,ni_sequenzen,NI_Sequenzen,,,,,,,,,,,,,,
,Sequence,flow.Sequence,0_0_15,,completion,16,3691,,,3692,,3695,2021-10-25T19:24:18.694Z,3740.5,1635181311,full,ni_sequenzen,NI_Sequenzen,,,,,,,,,,,,,,
,Screen_1,canvas.Screen,0_0_16_0,,skipped,17,3696,,,3696,,3696,2021-10-25T19:24:18.696Z,3740.5,1635181311,full,ni_sequenzen,NI_Sequenzen,,,,,,,,,,,,,,
,Screen_2,canvas.Screen,0_0_16_1,,skipped,17,3698,,,3696,,3698,2021-10-25T19:24:18.697Z,3740.5,1635181311,full,ni_sequenzen,NI_Sequenzen,,,,,,,,,,,,,,
,Screen_3,canvas.Screen,0_0_16_2,,skipped,17,3699,,,3696,,3699,2021-10-25T19:24:18.698Z,3740.5,1635181311,full,ni_sequenzen,NI_Sequenzen,,,,,,,,,,,,,,
,Screen_4,canvas.Screen,0_0_16_3,,skipped,17,3700,,,3696,,3700,2021-10-25T19:24:18.699Z,3740.5,1635181311,full,ni_sequenzen,NI_Sequenzen,,,,,,,,,,,,,,
,Sequence,flow.Sequence,0_0_16,,completion,17,3695,,,3696,,3700,2021-10-25T19:24:18.699Z,3740.5,1635181311,full,ni_sequenzen,NI_Sequenzen,,,,,,,,,,,,,,
,Screen_1,canvas.Screen,0_0_17_0,,skipped,18,3701,,,3701,,3701,2021-10-25T19:24:18.701Z,3740.5,1635181311,full,ni_sequenzen,NI_Sequenzen,,,,,,,,,,,,,,
,Screen_2,canvas.Screen,0_0_17_1,,skipped,18,3702,,,3701,,3702,2021-10-25T19:24:18.702Z,3740.5,1635181311,full,ni_sequenzen,NI_Sequenzen,,,,,,,,,,,,,,
,Screen_3,canvas.Screen,0_0_17_2,,skipped,18,3703,,,3701,,3703,2021-10-25T19:24:18.702Z,3740.5,1635181311,full,ni_sequenzen,NI_Sequenzen,,,,,,,,,,,,,,
,Screen_4,canvas.Screen,0_0_17_3,,skipped,18,3704,,,3701,,3704,2021-10-25T19:24:18.704Z,3740.5,1635181311,full,ni_sequenzen,NI_Sequenzen,,,,,,,,,,,,,,
,Sequence,flow.Sequence,0_0_17,,completion,18,3701,,,3701,,3704,2021-10-25T19:24:18.704Z,3740.5,1635181311,full,ni_sequenzen,NI_Sequenzen,,,,,,,,,,,,,,
,Screen_1,canvas.Screen,0_0_18_0,,skipped,19,3705,,,3705,,3705,2021-10-25T19:24:18.705Z,3740.5,1635181311,full,ni_sequenzen,NI_Sequenzen,,,,,,,,,,,,,,
,Screen_2,canvas.Screen,0_0_18_1,,skipped,19,3706,,,3705,,3706,2021-10-25T19:24:18.705Z,3740.5,1635181311,full,ni_sequenzen,NI_Sequenzen,,,,,,,,,,,,,,
,Screen_3,canvas.Screen,0_0_18_2,,skipped,19,3710,,,3705,,3710,2021-10-25T19:24:18.709Z,3740.5,1635181311,full,ni_sequenzen,NI_Sequenzen,,,,,,,,,,,,,,
,Screen_4,canvas.Screen,0_0_18_3,,skipped,19,3711,,,3705,,3711,2021-10-25T19:24:18.710Z,3740.5,1635181311,full,ni_sequenzen,NI_Sequenzen,,,,,,,,,,,,,,
,Sequence,flow.Sequence,0_0_18,,completion,19,3704,,,3705,,3711,2021-10-25T19:24:18.711Z,3740.5,1635181311,full,ni_sequenzen,NI_Sequenzen,,,,,,,,,,,,,,
,Screen_1,canvas.Screen,0_0_19_0,,skipped,20,3712,,,3712,,3712,2021-10-25T19:24:18.712Z,3740.5,1635181311,full,ni_sequenzen,NI_Sequenzen,,,,,,,,,,,,,,
,Screen_2,canvas.Screen,0_0_19_1,,skipped,20,3713,,,3712,,3713,2021-10-25T19:24:18.713Z,3740.5,1635181311,full,ni_sequenzen,NI_Sequenzen,,,,,,,,,,,,,,
,Screen_3,canvas.Screen,0_0_19_2,,skipped,20,3714,,,3712,,3714,2021-10-25T19:24:18.714Z,3740.5,1635181311,full,ni_sequenzen,NI_Sequenzen,,,,,,,,,,,,,,
,Screen_4,canvas.Screen,0_0_19_3,,skipped,20,3715,,,3712,,3715,2021-10-25T19:24:18.715Z,3740.5,1635181311,full,ni_sequenzen,NI_Sequenzen,,,,,,,,,,,,,,
,Sequence,flow.Sequence,0_0_19,,completion,20,3711,,,3712,,3716,2021-10-25T19:24:18.715Z,3740.5,1635181311,full,ni_sequenzen,NI_Sequenzen,,,,,,,,,,,,,,
,Instructions_I,flow.Loop,0_0,,completion,,541,624.68,656.64,3712,3055.36,3716,2021-10-25T19:24:18.715Z,3740.5,1635181311,full,ni_sequenzen,NI_Sequenzen,,,,,,,,,,,,,,
,Move,canvas.Screen,0_1_0_0,right,response,,3739,3739.6,3740.5,4347,606.5,4362,2021-10-25T19:24:19.361Z,4366.98,1635181311,full,ni_sequenzen,NI_Sequenzen,1,,,,,,,,,,,,,
,Move,canvas.Screen,0_1_0_1,right,response,,4367,4366.08,4366.98,4595,228.02000000000044,4609,2021-10-25T19:24:19.609Z,4615.76,1635181311,full,ni_sequenzen,NI_Sequenzen,2,,,,,,,,,,,,,
,Move,canvas.Screen,0_1_0_2,down,response,,4615,4614.7,4615.76,4828,212.23999999999978,4842,2021-10-25T19:24:19.842Z,4846.58,1635181311,full,ni_sequenzen,NI_Sequenzen,3,,,,,,,,,,,,,
,Move,canvas.Screen,0_1_0_3,right,response,,4846,4845.64,4846.58,4945,98.42000000000007,4958,2021-10-25T19:24:19.957Z,4974.2,1635181311,full,ni_sequenzen,NI_Sequenzen,4,,,,,,,,,,,,,
,Move,canvas.Screen,0_1_0_4,down,response,,4962,4961.74,4974.2,5196,221.80000000000018,5211,2021-10-25T19:24:20.210Z,5215.46,1635181311,full,ni_sequenzen,NI_Sequenzen,5,,,,,,,,,,,,,
,Move,canvas.Screen,0_1_0_5,right,response,,5215,5214.44,5215.46,5316,100.53999999999996,5330,2021-10-25T19:24:20.329Z,5340.86,1635181311,full,ni_sequenzen,NI_Sequenzen,6,,,,,,,,,,,,,
,Move,canvas.Screen,0_1_0_6,down,response,,5333,5333.88,5340.86,5544,203.14000000000033,5555,2021-10-25T19:24:20.555Z,5559.94,1635181311,full,ni_sequenzen,NI_Sequenzen,7,,,,,,,,,,,,,
,Move,canvas.Screen,0_1_0_7,right,response,,5558,5558.72,5559.94,5596,36.0600000000004,5609,2021-10-25T19:24:20.608Z,5624.18,1635181311,full,ni_sequenzen,NI_Sequenzen,8,,,,,,,,,,,,,
,Move,canvas.Screen,0_1_0_8,right,response,,5614,5613.64,5624.18,6407,782.8199999999997,6420,2021-10-25T19:24:21.420Z,6427.24,1635181311,full,ni_sequenzen,NI_Sequenzen,9,,,,,,,,,,,,,
,Move,canvas.Screen,0_1_0_9,left,response,,6426,6425.88,6427.24,6446,18.76000000000022,6459,2021-10-25T19:24:21.458Z,6474.18,1635181311,full,ni_sequenzen,NI_Sequenzen,10,,,,,,,,,,,,,
,Move,canvas.Screen,0_1_0_10,right,response,,6463,6463.08,6474.18,6612,137.8199999999997,6626,2021-10-25T19:24:21.625Z,6640.84,1635181311,full,ni_sequenzen,NI_Sequenzen,11,,,,,,,,,,,,,
,Move,canvas.Screen,0_1_0_11,left,response,,6629,6629.3,6640.84,6680,39.159999999999854,6694,2021-10-25T19:24:21.694Z,6707.52,1635181311,full,ni_sequenzen,NI_Sequenzen,12,,,,,,,,,,,,,
,Move,canvas.Screen,0_1_0_12,right,response,,6697,6697.2,6707.52,6834,126.47999999999956,6849,2021-10-25T19:24:21.849Z,6853.44,1635181311,full,ni_sequenzen,NI_Sequenzen,13,,,,,,,,,,,,,
,Move,canvas.Screen,0_1_0_13,left,response,,6852,,,6858,,6862,2021-10-25T19:24:21.861Z,6890.94,1635181311,full,ni_sequenzen,NI_Sequenzen,14,,,,,,,,,,,,,
,Move,canvas.Screen,0_1_0_14,right,response,,6866,6853.44,6890.94,7058,167.0600000000004,7072,2021-10-25T19:24:22.072Z,7089.86,1635181311,full,ni_sequenzen,NI_Sequenzen,15,,,,,,,,,,,,,
,Move,canvas.Screen,0_1_0_15,right,response,,7075,7075.16,7089.86,7279,189.14000000000033,7294,2021-10-25T19:24:22.293Z,7297.84,1635181311,full,ni_sequenzen,NI_Sequenzen,16,,,,,,,,,,,,,
,Move,canvas.Screen,0_1_0_16,left,response,,7296,7296.46,7297.84,7327,29.159999999999854,7340,2021-10-25T19:24:22.340Z,7357.5,1635181311,full,ni_sequenzen,NI_Sequenzen,17,,,,,,,,,,,,,
,Move,canvas.Screen,0_1_0_17,right,response,,7344,7343.92,7357.5,8997,1639.5,9011,2021-10-25T19:24:24.011Z,9018.46,1635181311,full,ni_sequenzen,NI_Sequenzen,18,,,,,,,,,,,,,
,Move,canvas.Screen,0_1_0_18,right,response,,9017,9016.96,9018.46,9557,538.5400000000009,9571,2021-10-25T19:24:24.571Z,9575.26,1635181311,full,ni_sequenzen,NI_Sequenzen,19,,,,,,,,,,,,,
,Move,canvas.Screen,0_1_0_19,left,response,,9574,9573.92,9575.26,9914,338.7399999999998,9928,2021-10-25T19:24:24.927Z,9932.2,1635181311,full,ni_sequenzen,NI_Sequenzen,20,,,,,,,,,,,,,
,Move,canvas.Screen,0_1_0_20,down,response,,9931,,,9934,,9940,2021-10-25T19:24:24.939Z,9974.32,1635181311,full,ni_sequenzen,NI_Sequenzen,21,,,,,,,,,,,,,
,Move,canvas.Screen,0_1_0_21,right,response,,9943,9932.2,9974.32,10150,175.6800000000003,10164,2021-10-25T19:24:25.163Z,10174.2,1635181311,full,ni_sequenzen,NI_Sequenzen,22,,,,,,,,,,,,,
,Move,canvas.Screen,0_1_0_22,down,response,,10167,10166.82,10174.2,10350,175.79999999999927,10363,2021-10-25T19:24:25.363Z,10374.2,1635181311,full,ni_sequenzen,NI_Sequenzen,23,,,,,,,,,,,,,
,Move,canvas.Screen,0_1_0_23,left,response,,10366,10365.84,10374.2,10679,304.7999999999993,10692,2021-10-25T19:24:25.692Z,10695.88,1635181311,full,ni_sequenzen,NI_Sequenzen,24,,,,,,,,,,,,,
,Move,canvas.Screen,0_1_0_24,right,response,,10695,10694.7,10695.88,10763,67.1200000000008,10778,2021-10-25T19:24:25.777Z,10790.84,1635181311,full,ni_sequenzen,NI_Sequenzen,25,,,,,,,,,,,,,
,Move,canvas.Screen,0_1_0_25,down,response,,10779,10779.3,10790.84,10883,92.15999999999985,10897,2021-10-25T19:24:25.897Z,10907.52,1635181311,full,ni_sequenzen,NI_Sequenzen,26,,,,,,,,,,,,,
,Move,canvas.Screen,0_1_0_26,left,response,,10900,10900.46,10907.52,10975,67.47999999999956,10989,2021-10-25T19:24:25.989Z,11007.62,1635181311,full,ni_sequenzen,NI_Sequenzen,27,,,,,,,,,,,,,
,Move,canvas.Screen,0_1_0_27,right,response,,10992,10992.04,11007.62,11167,159.3799999999992,11181,2021-10-25T19:24:26.181Z,11190.08,1635181311,full,ni_sequenzen,NI_Sequenzen,28,,,,,,,,,,,,,
,Move,canvas.Screen,0_1_0_28,down,response,,11184,11183.72,11190.08,11271,80.92000000000007,11286,2021-10-25T19:24:26.286Z,11290.82,1635181311,full,ni_sequenzen,NI_Sequenzen,29,,,,,,,,,,,,,
,Move,canvas.Screen,0_1_0_29,left,response,,11289,11288.9,11290.82,11343,52.18000000000029,11357,2021-10-25T19:24:26.356Z,11390.8,1635181311,full,ni_sequenzen,NI_Sequenzen,30,,,,,,,,,,,,,
,Loop,flow.Loop,0_1_0,-999,completion,,3732,3739.6,3740.5,11343,7602.5,11357,2021-10-25T19:24:26.356Z,11390.8,1635181311,full,ni_sequenzen,NI_Sequenzen,,,,,,,,,,,,,,
,Training_I,flow.Sequence,0_1,,completion,,3716,3739.6,3740.5,11343,7602.5,11357,2021-10-25T19:24:26.357Z,11390.8,1635181311,full,ni_sequenzen,NI_Sequenzen,,,,,,,,,,,,,,
,Screen_1,canvas.Screen,0_2_0_0,cont,response,1,11390,11390.5,11390.8,11459,68.20000000000073,11473,2021-10-25T19:24:26.472Z,11590.84,1635181311,full,ni_sequenzen,NI_Sequenzen,,,,,,,,,,,,,,
,Screen_2,canvas.Screen,0_2_0_1,back,response,1,11588,11588.32,11590.84,11611,20.159999999999854,11622,2021-10-25T19:24:26.621Z,11723.2,1635181311,full,ni_sequenzen,NI_Sequenzen,,,,,,,,,,,,,,
,Screen_3,canvas.Screen,0_2_0_2,,skipped,1,11623,,,11611,,11623,2021-10-25T19:24:26.623Z,11723.2,1635181311,full,ni_sequenzen,NI_Sequenzen,,,,,,,,,,,,,,
,Screen_4,canvas.Screen,0_2_0_3,,skipped,1,11668,,,11611,,11668,2021-10-25T19:24:26.667Z,11723.2,1635181311,full,ni_sequenzen,NI_Sequenzen,,,,,,,,,,,,,,
,Screen_5,canvas.Screen,0_2_0_4,,skipped,1,11669,,,11611,,11669,2021-10-25T19:24:26.668Z,11723.2,1635181311,full,ni_sequenzen,NI_Sequenzen,,,,,,,,,,,,,,
,Screen_6,canvas.Screen,0_2_0_5,,skipped,1,11711,,,11611,,11711,2021-10-25T19:24:26.710Z,11723.2,1635181311,full,ni_sequenzen,NI_Sequenzen,,,,,,,,,,,,,,
,Sequence,flow.Sequence,0_2_0,,completion,1,11390,11390.5,11390.8,11611,220.20000000000073,11711,2021-10-25T19:24:26.710Z,11723.2,1635181311,full,ni_sequenzen,NI_Sequenzen,,,,,,,,,,,,,,
,Screen_1,canvas.Screen,0_2_1_0,cont,response,2,11712,11712.64,11723.2,11783,59.79999999999927,11797,2021-10-25T19:24:26.796Z,11807.5,1635181311,full,ni_sequenzen,NI_Sequenzen,,,,,,,,,,,,,,
,Screen_2,canvas.Screen,0_2_1_1,back,response,2,11800,11799.8,11807.5,11951,143.5,11965,2021-10-25T19:24:26.965Z,11973.78,1635181311,full,ni_sequenzen,NI_Sequenzen,,,,,,,,,,,,,,
,Screen_3,canvas.Screen,0_2_1_2,,skipped,2,11967,,,11951,,11968,2021-10-25T19:24:26.967Z,11973.78,1635181311,full,ni_sequenzen,NI_Sequenzen,,,,,,,,,,,,,,
,Screen_4,canvas.Screen,0_2_1_3,,skipped,2,11969,,,11951,,11969,2021-10-25T19:24:26.968Z,11973.78,1635181311,full,ni_sequenzen,NI_Sequenzen,,,,,,,,,,,,,,
,Screen_5,canvas.Screen,0_2_1_4,,skipped,2,11970,,,11951,,11970,2021-10-25T19:24:26.970Z,11973.78,1635181311,full,ni_sequenzen,NI_Sequenzen,,,,,,,,,,,,,,
,Screen_6,canvas.Screen,0_2_1_5,,skipped,2,11972,,,11951,,11972,2021-10-25T19:24:26.971Z,11973.78,1635181311,full,ni_sequenzen,NI_Sequenzen,,,,,,,,,,,,,,
,Sequence,flow.Sequence,0_2_1,,completion,2,11711,11712.64,11723.2,11951,227.79999999999927,11972,2021-10-25T19:24:26.971Z,11973.78,1635181311,full,ni_sequenzen,NI_Sequenzen,,,,,,,,,,,,,,
,Screen_1,canvas.Screen,0_2_2_0,cont,response,3,11973,11973.32,11973.78,12071,97.21999999999935,12084,2021-10-25T19:24:27.084Z,12087.62,1635181311,full,ni_sequenzen,NI_Sequenzen,,,,,,,,,,,,,,
,Screen_2,canvas.Screen,0_2_2_1,cont,response,3,12086,12086.1,12087.62,12372,284.3799999999992,12388,2021-10-25T19:24:27.389Z,12391.88,1635181311,full,ni_sequenzen,NI_Sequenzen,,,,,,,,,,,,,,
,Screen_3,canvas.Screen,0_2_2_2,cont,response,3,12391,12390.58,12391.88,12558,166.1200000000008,12573,2021-10-25T19:24:27.572Z,12590.82,1635181311,full,ni_sequenzen,NI_Sequenzen,,,,,,,,,,,,,,
,Screen_4,canvas.Screen,0_2_2_3,cont,response,3,12575,12574.66,12590.82,12710,119.18000000000029,12723,2021-10-25T19:24:27.723Z,12739.82,1635181311,full,ni_sequenzen,NI_Sequenzen,,,,,,,,,,,,,,
,Screen_5,canvas.Screen,0_2_2_4,cont,response,3,12726,12725.18,12739.82,14118,1378.1800000000003,14131,2021-10-25T19:24:29.130Z,14135.46,1635181311,full,ni_sequenzen,NI_Sequenzen,,,,,,,,,,,,,,
,Screen_6,canvas.Screen,0_2_2_5,cont,response,3,14134,14134.16,14135.46,14327,191.54000000000087,14340,2021-10-25T19:24:29.340Z,14527.86,1635181311,full,ni_sequenzen,NI_Sequenzen,,,,,,,,,,,,,,
,Sequence,flow.Sequence,0_2_2,,completion,3,11972,11973.32,11973.78,14327,2353.2199999999993,14341,2021-10-25T19:24:29.340Z,14527.86,1635181311,full,ni_sequenzen,NI_Sequenzen,,,,,,,,,,,,,,
,Screen_1,canvas.Screen,0_2_3_0,,skipped,4,14342,,,14342,,14342,2021-10-25T19:24:29.341Z,14527.86,1635181311,full,ni_sequenzen,NI_Sequenzen,,,,,,,,,,,,,,
,Screen_2,canvas.Screen,0_2_3_1,,skipped,4,14344,,,14342,,14344,2021-10-25T19:24:29.343Z,14527.86,1635181311,full,ni_sequenzen,NI_Sequenzen,,,,,,,,,,,,,,
,Screen_3,canvas.Screen,0_2_3_2,,skipped,4,14345,,,14342,,14345,2021-10-25T19:24:29.343Z,14527.86,1635181311,full,ni_sequenzen,NI_Sequenzen,,,,,,,,,,,,,,
,Screen_4,canvas.Screen,0_2_3_3,,skipped,4,14345,,,14342,,14345,2021-10-25T19:24:29.344Z,14527.86,1635181311,full,ni_sequenzen,NI_Sequenzen,,,,,,,,,,,,,,
,Screen_5,canvas.Screen,0_2_3_4,,skipped,4,14346,,,14342,,14346,2021-10-25T19:24:29.345Z,14527.86,1635181311,full,ni_sequenzen,NI_Sequenzen,,,,,,,,,,,,,,
,Screen_6,canvas.Screen,0_2_3_5,,skipped,4,14347,,,14342,,14347,2021-10-25T19:24:29.346Z,14527.86,1635181311,full,ni_sequenzen,NI_Sequenzen,,,,,,,,,,,,,,
,Sequence,flow.Sequence,0_2_3,,completion,4,14341,,,14342,,14347,2021-10-25T19:24:29.346Z,14527.86,1635181311,full,ni_sequenzen,NI_Sequenzen,,,,,,,,,,,,,,
,Screen_1,canvas.Screen,0_2_4_0,,skipped,5,14348,,,14348,,14349,2021-10-25T19:24:29.348Z,14527.86,1635181311,full,ni_sequenzen,NI_Sequenzen,,,,,,,,,,,,,,
,Screen_2,canvas.Screen,0_2_4_1,,skipped,5,14349,,,14348,,14349,2021-10-25T19:24:29.349Z,14527.86,1635181311,full,ni_sequenzen,NI_Sequenzen,,,,,,,,,,,,,,
,Screen_3,canvas.Screen,0_2_4_2,,skipped,5,14350,,,14348,,14350,2021-10-25T19:24:29.350Z,14527.86,1635181311,full,ni_sequenzen,NI_Sequenzen,,,,,,,,,,,,,,
,Screen_4,canvas.Screen,0_2_4_3,,skipped,5,14351,,,14348,,14351,2021-10-25T19:24:29.350Z,14527.86,1635181311,full,ni_sequenzen,NI_Sequenzen,,,,,,,,,,,,,,
,Screen_5,canvas.Screen,0_2_4_4,,skipped,5,14354,,,14348,,14354,2021-10-25T19:24:29.353Z,14527.86,1635181311,full,ni_sequenzen,NI_Sequenzen,,,,,,,,,,,,,,
,Screen_6,canvas.Screen,0_2_4_5,,skipped,5,14355,,,14348,,14355,2021-10-25T19:24:29.354Z,14527.86,1635181311,full,ni_sequenzen,NI_Sequenzen,,,,,,,,,,,,,,
,Sequence,flow.Sequence,0_2_4,,completion,5,14348,,,14348,,14355,2021-10-25T19:24:29.354Z,14527.86,1635181311,full,ni_sequenzen,NI_Sequenzen,,,,,,,,,,,,,,
,Screen_1,canvas.Screen,0_2_5_0,,skipped,6,14356,,,14356,,14356,2021-10-25T19:24:29.356Z,14527.86,1635181311,full,ni_sequenzen,NI_Sequenzen,,,,,,,,,,,,,,
,Screen_2,canvas.Screen,0_2_5_1,,skipped,6,14357,,,14356,,14357,2021-10-25T19:24:29.356Z,14527.86,1635181311,full,ni_sequenzen,NI_Sequenzen,,,,,,,,,,,,,,
,Screen_3,canvas.Screen,0_2_5_2,,skipped,6,14359,,,14356,,14359,2021-10-25T19:24:29.358Z,14527.86,1635181311,full,ni_sequenzen,NI_Sequenzen,,,,,,,,,,,,,,
,Screen_4,canvas.Screen,0_2_5_3,,skipped,6,14360,,,14356,,14360,2021-10-25T19:24:29.359Z,14527.86,1635181311,full,ni_sequenzen,NI_Sequenzen,,,,,,,,,,,,,,
,Screen_5,canvas.Screen,0_2_5_4,,skipped,6,14361,,,14356,,14361,2021-10-25T19:24:29.361Z,14527.86,1635181311,full,ni_sequenzen,NI_Sequenzen,,,,,,,,,,,,,,
,Screen_6,canvas.Screen,0_2_5_5,,skipped,6,14362,,,14356,,14362,2021-10-25T19:24:29.361Z,14527.86,1635181311,full,ni_sequenzen,NI_Sequenzen,,,,,,,,,,,,,,
,Sequence,flow.Sequence,0_2_5,,completion,6,14356,,,14356,,14362,2021-10-25T19:24:29.361Z,14527.86,1635181311,full,ni_sequenzen,NI_Sequenzen,,,,,,,,,,,,,,
,Screen_1,canvas.Screen,0_2_6_0,,skipped,7,14363,,,14363,,14363,2021-10-25T19:24:29.362Z,14527.86,1635181311,full,ni_sequenzen,NI_Sequenzen,,,,,,,,,,,,,,
,Screen_2,canvas.Screen,0_2_6_1,,skipped,7,14363,,,14363,,14363,2021-10-25T19:24:29.364Z,14527.86,1635181311,full,ni_sequenzen,NI_Sequenzen,,,,,,,,,,,,,,
,Screen_3,canvas.Screen,0_2_6_2,,skipped,7,14364,,,14363,,14364,2021-10-25T19:24:29.364Z,14527.86,1635181311,full,ni_sequenzen,NI_Sequenzen,,,,,,,,,,,,,,
,Screen_4,canvas.Screen,0_2_6_3,,skipped,7,14366,,,14363,,14366,2021-10-25T19:24:29.365Z,14527.86,1635181311,full,ni_sequenzen,NI_Sequenzen,,,,,,,,,,,,,,
,Screen_5,canvas.Screen,0_2_6_4,,skipped,7,14366,,,14363,,14366,2021-10-25T19:24:29.366Z,14527.86,1635181311,full,ni_sequenzen,NI_Sequenzen,,,,,,,,,,,,,,
,Screen_6,canvas.Screen,0_2_6_5,,skipped,7,14368,,,14363,,14368,2021-10-25T19:24:29.367Z,14527.86,1635181311,full,ni_sequenzen,NI_Sequenzen,,,,,,,,,,,,,,
,Sequence,flow.Sequence,0_2_6,,completion,7,14362,,,14363,,14368,2021-10-25T19:24:29.367Z,14527.86,1635181311,full,ni_sequenzen,NI_Sequenzen,,,,,,,,,,,,,,
,Screen_1,canvas.Screen,0_2_7_0,,skipped,8,14371,,,14371,,14371,2021-10-25T19:24:29.370Z,14527.86,1635181311,full,ni_sequenzen,NI_Sequenzen,,,,,,,,,,,,,,
,Screen_2,canvas.Screen,0_2_7_1,,skipped,8,14371,,,14371,,14371,2021-10-25T19:24:29.371Z,14527.86,1635181311,full,ni_sequenzen,NI_Sequenzen,,,,,,,,,,,,,,
,Screen_3,canvas.Screen,0_2_7_2,,skipped,8,14372,,,14371,,14372,2021-10-25T19:24:29.372Z,14527.86,1635181311,full,ni_sequenzen,NI_Sequenzen,,,,,,,,,,,,,,
,Screen_4,canvas.Screen,0_2_7_3,,skipped,8,14374,,,14371,,14374,2021-10-25T19:24:29.373Z,14527.86,1635181311,full,ni_sequenzen,NI_Sequenzen,,,,,,,,,,,,,,
,Screen_5,canvas.Screen,0_2_7_4,,skipped,8,14374,,,14371,,14374,2021-10-25T19:24:29.374Z,14527.86,1635181311,full,ni_sequenzen,NI_Sequenzen,,,,,,,,,,,,,,
,Screen_6,canvas.Screen,0_2_7_5,,skipped,8,14377,,,14371,,14377,2021-10-25T19:24:29.376Z,14527.86,1635181311,full,ni_sequenzen,NI_Sequenzen,,,,,,,,,,,,,,
,Sequence,flow.Sequence,0_2_7,,completion,8,14368,,,14371,,14377,2021-10-25T19:24:29.376Z,14527.86,1635181311,full,ni_sequenzen,NI_Sequenzen,,,,,,,,,,,,,,
,Screen_1,canvas.Screen,0_2_8_0,,skipped,9,14378,,,14378,,14378,2021-10-25T19:24:29.378Z,14527.86,1635181311,full,ni_sequenzen,NI_Sequenzen,,,,,,,,,,,,,,
,Screen_2,canvas.Screen,0_2_8_1,,skipped,9,14379,,,14378,,14379,2021-10-25T19:24:29.379Z,14527.86,1635181311,full,ni_sequenzen,NI_Sequenzen,,,,,,,,,,,,,,
,Screen_3,canvas.Screen,0_2_8_2,,skipped,9,14380,,,14378,,14380,2021-10-25T19:24:29.379Z,14527.86,1635181311,full,ni_sequenzen,NI_Sequenzen,,,,,,,,,,,,,,
,Screen_4,canvas.Screen,0_2_8_3,,skipped,9,14381,,,14378,,14381,2021-10-25T19:24:29.380Z,14527.86,1635181311,full,ni_sequenzen,NI_Sequenzen,,,,,,,,,,,,,,
,Screen_5,canvas.Screen,0_2_8_4,,skipped,9,14381,,,14378,,14382,2021-10-25T19:24:29.381Z,14527.86,1635181311,full,ni_sequenzen,NI_Sequenzen,,,,,,,,,,,,,,
,Screen_6,canvas.Screen,0_2_8_5,,skipped,9,14382,,,14378,,14382,2021-10-25T19:24:29.382Z,14527.86,1635181311,full,ni_sequenzen,NI_Sequenzen,,,,,,,,,,,,,,
,Sequence,flow.Sequence,0_2_8,,completion,9,14377,,,14378,,14382,2021-10-25T19:24:29.382Z,14527.86,1635181311,full,ni_sequenzen,NI_Sequenzen,,,,,,,,,,,,,,
,Screen_1,canvas.Screen,0_2_9_0,,skipped,10,14384,,,14384,,14384,2021-10-25T19:24:29.383Z,14527.86,1635181311,full,ni_sequenzen,NI_Sequenzen,,,,,,,,,,,,,,
,Screen_2,canvas.Screen,0_2_9_1,,skipped,10,14384,,,14384,,14384,2021-10-25T19:24:29.384Z,14527.86,1635181311,full,ni_sequenzen,NI_Sequenzen,,,,,,,,,,,,,,
,Screen_3,canvas.Screen,0_2_9_2,,skipped,10,14386,,,14384,,14386,2021-10-25T19:24:29.385Z,14527.86,1635181311,full,ni_sequenzen,NI_Sequenzen,,,,,,,,,,,,,,
,Screen_4,canvas.Screen,0_2_9_3,,skipped,10,14388,,,14384,,14388,2021-10-25T19:24:29.388Z,14527.86,1635181311,full,ni_sequenzen,NI_Sequenzen,,,,,,,,,,,,,,
,Screen_5,canvas.Screen,0_2_9_4,,skipped,10,14389,,,14384,,14389,2021-10-25T19:24:29.389Z,14527.86,1635181311,full,ni_sequenzen,NI_Sequenzen,,,,,,,,,,,,,,
,Screen_6,canvas.Screen,0_2_9_5,,skipped,10,14390,,,14384,,14390,2021-10-25T19:24:29.390Z,14527.86,1635181311,full,ni_sequenzen,NI_Sequenzen,,,,,,,,,,,,,,
,Sequence,flow.Sequence,0_2_9,,completion,10,14383,,,14384,,14390,2021-10-25T19:24:29.390Z,14527.86,1635181311,full,ni_sequenzen,NI_Sequenzen,,,,,,,,,,,,,,
,Screen_1,canvas.Screen,0_2_10_0,,skipped,11,14392,,,14392,,14392,2021-10-25T19:24:29.391Z,14527.86,1635181311,full,ni_sequenzen,NI_Sequenzen,,,,,,,,,,,,,,
,Screen_2,canvas.Screen,0_2_10_1,,skipped,11,14392,,,14392,,14392,2021-10-25T19:24:29.392Z,14527.86,1635181311,full,ni_sequenzen,NI_Sequenzen,,,,,,,,,,,,,,
,Screen_3,canvas.Screen,0_2_10_2,,skipped,11,14393,,,14392,,14393,2021-10-25T19:24:29.393Z,14527.86,1635181311,full,ni_sequenzen,NI_Sequenzen,,,,,,,,,,,,,,
,Screen_4,canvas.Screen,0_2_10_3,,skipped,11,14395,,,14392,,14395,2021-10-25T19:24:29.394Z,14527.86,1635181311,full,ni_sequenzen,NI_Sequenzen,,,,,,,,,,,,,,
,Screen_5,canvas.Screen,0_2_10_4,,skipped,11,14395,,,14392,,14395,2021-10-25T19:24:29.395Z,14527.86,1635181311,full,ni_sequenzen,NI_Sequenzen,,,,,,,,,,,,,,
,Screen_6,canvas.Screen,0_2_10_5,,skipped,11,14396,,,14392,,14396,2021-10-25T19:24:29.395Z,14527.86,1635181311,full,ni_sequenzen,NI_Sequenzen,,,,,,,,,,,,,,
,Sequence,flow.Sequence,0_2_10,,completion,11,14391,,,14392,,14396,2021-10-25T19:24:29.395Z,14527.86,1635181311,full,ni_sequenzen,NI_Sequenzen,,,,,,,,,,,,,,
,Screen_1,canvas.Screen,0_2_11_0,,skipped,12,14397,,,14397,,14397,2021-10-25T19:24:29.397Z,14527.86,1635181311,full,ni_sequenzen,NI_Sequenzen,,,,,,,,,,,,,,
,Screen_2,canvas.Screen,0_2_11_1,,skipped,12,14398,,,14397,,14398,2021-10-25T19:24:29.398Z,14527.86,1635181311,full,ni_sequenzen,NI_Sequenzen,,,,,,,,,,,,,,
,Screen_3,canvas.Screen,0_2_11_2,,skipped,12,14399,,,14397,,14399,2021-10-25T19:24:29.399Z,14527.86,1635181311,full,ni_sequenzen,NI_Sequenzen,,,,,,,,,,,,,,
,Screen_4,canvas.Screen,0_2_11_3,,skipped,12,14400,,,14397,,14400,2021-10-25T19:24:29.400Z,14527.86,1635181311,full,ni_sequenzen,NI_Sequenzen,,,,,,,,,,,,,,
,Screen_5,canvas.Screen,0_2_11_4,,skipped,12,14401,,,14397,,14401,2021-10-25T19:24:29.401Z,14527.86,1635181311,full,ni_sequenzen,NI_Sequenzen,,,,,,,,,,,,,,
,Screen_6,canvas.Screen,0_2_11_5,,skipped,12,14402,,,14397,,14402,2021-10-25T19:24:29.401Z,14527.86,1635181311,full,ni_sequenzen,NI_Sequenzen,,,,,,,,,,,,,,
,Sequence,flow.Sequence,0_2_11,,completion,12,14397,,,14397,,14402,2021-10-25T19:24:29.402Z,14527.86,1635181311,full,ni_sequenzen,NI_Sequenzen,,,,,,,,,,,,,,
,Screen_1,canvas.Screen,0_2_12_0,,skipped,13,14403,,,14403,,14403,2021-10-25T19:24:29.402Z,14527.86,1635181311,full,ni_sequenzen,NI_Sequenzen,,,,,,,,,,,,,,
,Screen_2,canvas.Screen,0_2_12_1,,skipped,13,14404,,,14403,,14404,2021-10-25T19:24:29.403Z,14527.86,1635181311,full,ni_sequenzen,NI_Sequenzen,,,,,,,,,,,,,,
,Screen_3,canvas.Screen,0_2_12_2,,skipped,13,14404,,,14403,,14404,2021-10-25T19:24:29.404Z,14527.86,1635181311,full,ni_sequenzen,NI_Sequenzen,,,,,,,,,,,,,,
,Screen_4,canvas.Screen,0_2_12_3,,skipped,13,14405,,,14403,,14406,2021-10-25T19:24:29.405Z,14527.86,1635181311,full,ni_sequenzen,NI_Sequenzen,,,,,,,,,,,,,,
,Screen_5,canvas.Screen,0_2_12_4,,skipped,13,14406,,,14403,,14406,2021-10-25T19:24:29.405Z,14527.86,1635181311,full,ni_sequenzen,NI_Sequenzen,,,,,,,,,,,,,,
,Screen_6,canvas.Screen,0_2_12_5,,skipped,13,14407,,,14403,,14407,2021-10-25T19:24:29.406Z,14527.86,1635181311,full,ni_sequenzen,NI_Sequenzen,,,,,,,,,,,,,,
,Sequence,flow.Sequence,0_2_12,,completion,13,14402,,,14403,,14407,2021-10-25T19:24:29.407Z,14527.86,1635181311,full,ni_sequenzen,NI_Sequenzen,,,,,,,,,,,,,,
,Screen_1,canvas.Screen,0_2_13_0,,skipped,14,14409,,,14409,,14409,2021-10-25T19:24:29.408Z,14527.86,1635181311,full,ni_sequenzen,NI_Sequenzen,,,,,,,,,,,,,,
,Screen_2,canvas.Screen,0_2_13_1,,skipped,14,14409,,,14409,,14409,2021-10-25T19:24:29.409Z,14527.86,1635181311,full,ni_sequenzen,NI_Sequenzen,,,,,,,,,,,,,,
,Screen_3,canvas.Screen,0_2_13_2,,skipped,14,14411,,,14409,,14411,2021-10-25T19:24:29.410Z,14527.86,1635181311,full,ni_sequenzen,NI_Sequenzen,,,,,,,,,,,,,,
,Screen_4,canvas.Screen,0_2_13_3,,skipped,14,14412,,,14409,,14412,2021-10-25T19:24:29.410Z,14527.86,1635181311,full,ni_sequenzen,NI_Sequenzen,,,,,,,,,,,,,,
,Screen_5,canvas.Screen,0_2_13_4,,skipped,14,14412,,,14409,,14413,2021-10-25T19:24:29.411Z,14527.86,1635181311,full,ni_sequenzen,NI_Sequenzen,,,,,,,,,,,,,,
,Screen_6,canvas.Screen,0_2_13_5,,skipped,14,14413,,,14409,,14413,2021-10-25T19:24:29.412Z,14527.86,1635181311,full,ni_sequenzen,NI_Sequenzen,,,,,,,,,,,,,,
,Sequence,flow.Sequence,0_2_13,,completion,14,14407,,,14409,,14414,2021-10-25T19:24:29.412Z,14527.86,1635181311,full,ni_sequenzen,NI_Sequenzen,,,,,,,,,,,,,,
,Screen_1,canvas.Screen,0_2_14_0,,skipped,15,14415,,,14415,,14415,2021-10-25T19:24:29.414Z,14527.86,1635181311,full,ni_sequenzen,NI_Sequenzen,,,,,,,,,,,,,,
,Screen_2,canvas.Screen,0_2_14_1,,skipped,15,14416,,,14415,,14416,2021-10-25T19:24:29.414Z,14527.86,1635181311,full,ni_sequenzen,NI_Sequenzen,,,,,,,,,,,,,,
,Screen_3,canvas.Screen,0_2_14_2,,skipped,15,14416,,,14415,,14416,2021-10-25T19:24:29.415Z,14527.86,1635181311,full,ni_sequenzen,NI_Sequenzen,,,,,,,,,,,,,,
,Screen_4,canvas.Screen,0_2_14_3,,skipped,15,14417,,,14415,,14417,2021-10-25T19:24:29.416Z,14527.86,1635181311,full,ni_sequenzen,NI_Sequenzen,,,,,,,,,,,,,,
,Screen_5,canvas.Screen,0_2_14_4,,skipped,15,14418,,,14415,,14418,2021-10-25T19:24:29.417Z,14527.86,1635181311,full,ni_sequenzen,NI_Sequenzen,,,,,,,,,,,,,,
,Screen_6,canvas.Screen,0_2_14_5,,skipped,15,14419,,,14415,,14419,2021-10-25T19:24:29.418Z,14527.86,1635181311,full,ni_sequenzen,NI_Sequenzen,,,,,,,,,,,,,,
,Sequence,flow.Sequence,0_2_14,,completion,15,14414,,,14415,,14419,2021-10-25T19:24:29.418Z,14527.86,1635181311,full,ni_sequenzen,NI_Sequenzen,,,,,,,,,,,,,,
,Screen_1,canvas.Screen,0_2_15_0,,skipped,16,14420,,,14420,,14420,2021-10-25T19:24:29.419Z,14527.86,1635181311,full,ni_sequenzen,NI_Sequenzen,,,,,,,,,,,,,,
,Screen_2,canvas.Screen,0_2_15_1,,skipped,16,14421,,,14420,,14421,2021-10-25T19:24:29.420Z,14527.86,1635181311,full,ni_sequenzen,NI_Sequenzen,,,,,,,,,,,,,,
,Screen_3,canvas.Screen,0_2_15_2,,skipped,16,14422,,,14420,,14422,2021-10-25T19:24:29.422Z,14527.86,1635181311,full,ni_sequenzen,NI_Sequenzen,,,,,,,,,,,,,,
,Screen_4,canvas.Screen,0_2_15_3,,skipped,16,14422,,,14420,,14422,2021-10-25T19:24:29.422Z,14527.86,1635181311,full,ni_sequenzen,NI_Sequenzen,,,,,,,,,,,,,,
,Screen_5,canvas.Screen,0_2_15_4,,skipped,16,14424,,,14420,,14424,2021-10-25T19:24:29.424Z,14527.86,1635181311,full,ni_sequenzen,NI_Sequenzen,,,,,,,,,,,,,,
,Screen_6,canvas.Screen,0_2_15_5,,skipped,16,14425,,,14420,,14425,2021-10-25T19:24:29.425Z,14527.86,1635181311,full,ni_sequenzen,NI_Sequenzen,,,,,,,,,,,,,,
,Sequence,flow.Sequence,0_2_15,,completion,16,14419,,,14420,,14425,2021-10-25T19:24:29.425Z,14527.86,1635181311,full,ni_sequenzen,NI_Sequenzen,,,,,,,,,,,,,,
,Screen_1,canvas.Screen,0_2_16_0,,skipped,17,14426,,,14426,,14426,2021-10-25T19:24:29.425Z,14527.86,1635181311,full,ni_sequenzen,NI_Sequenzen,,,,,,,,,,,,,,
,Screen_2,canvas.Screen,0_2_16_1,,skipped,17,14427,,,14426,,14427,2021-10-25T19:24:29.426Z,14527.86,1635181311,full,ni_sequenzen,NI_Sequenzen,,,,,,,,,,,,,,
,Screen_3,canvas.Screen,0_2_16_2,,skipped,17,14427,,,14426,,14427,2021-10-25T19:24:29.427Z,14527.86,1635181311,full,ni_sequenzen,NI_Sequenzen,,,,,,,,,,,,,,
,Screen_4,canvas.Screen,0_2_16_3,,skipped,17,14428,,,14426,,14428,2021-10-25T19:24:29.428Z,14527.86,1635181311,full,ni_sequenzen,NI_Sequenzen,,,,,,,,,,,,,,
,Screen_5,canvas.Screen,0_2_16_4,,skipped,17,14429,,,14426,,14429,2021-10-25T19:24:29.429Z,14527.86,1635181311,full,ni_sequenzen,NI_Sequenzen,,,,,,,,,,,,,,
,Screen_6,canvas.Screen,0_2_16_5,,skipped,17,14430,,,14426,,14430,2021-10-25T19:24:29.429Z,14527.86,1635181311,full,ni_sequenzen,NI_Sequenzen,,,,,,,,,,,,,,
,Sequence,flow.Sequence,0_2_16,,completion,17,14426,,,14426,,14430,2021-10-25T19:24:29.429Z,14527.86,1635181311,full,ni_sequenzen,NI_Sequenzen,,,,,,,,,,,,,,
,Screen_1,canvas.Screen,0_2_17_0,,skipped,18,14431,,,14431,,14431,2021-10-25T19:24:29.431Z,14527.86,1635181311,full,ni_sequenzen,NI_Sequenzen,,,,,,,,,,,,,,
,Screen_2,canvas.Screen,0_2_17_1,,skipped,18,14432,,,14431,,14432,2021-10-25T19:24:29.431Z,14527.86,1635181311,full,ni_sequenzen,NI_Sequenzen,,,,,,,,,,,,,,
,Screen_3,canvas.Screen,0_2_17_2,,skipped,18,14433,,,14431,,14433,2021-10-25T19:24:29.433Z,14527.86,1635181311,full,ni_sequenzen,NI_Sequenzen,,,,,,,,,,,,,,
,Screen_4,canvas.Screen,0_2_17_3,,skipped,18,14434,,,14431,,14434,2021-10-25T19:24:29.433Z,14527.86,1635181311,full,ni_sequenzen,NI_Sequenzen,,,,,,,,,,,,,,
,Screen_5,canvas.Screen,0_2_17_4,,skipped,18,14434,,,14431,,14435,2021-10-25T19:24:29.434Z,14527.86,1635181311,full,ni_sequenzen,NI_Sequenzen,,,,,,,,,,,,,,
,Screen_6,canvas.Screen,0_2_17_5,,skipped,18,14435,,,14431,,14435,2021-10-25T19:24:29.435Z,14527.86,1635181311,full,ni_sequenzen,NI_Sequenzen,,,,,,,,,,,,,,
,Sequence,flow.Sequence,0_2_17,,completion,18,14430,,,14431,,14436,2021-10-25T19:24:29.435Z,14527.86,1635181311,full,ni_sequenzen,NI_Sequenzen,,,,,,,,,,,,,,
,Screen_1,canvas.Screen,0_2_18_0,,skipped,19,14437,,,14437,,14437,2021-10-25T19:24:29.436Z,14527.86,1635181311,full,ni_sequenzen,NI_Sequenzen,,,,,,,,,,,,,,
,Screen_2,canvas.Screen,0_2_18_1,,skipped,19,14439,,,14437,,14439,2021-10-25T19:24:29.438Z,14527.86,1635181311,full,ni_sequenzen,NI_Sequenzen,,,,,,,,,,,,,,
,Screen_3,canvas.Screen,0_2_18_2,,skipped,19,14439,,,14437,,14439,2021-10-25T19:24:29.439Z,14527.86,1635181311,full,ni_sequenzen,NI_Sequenzen,,,,,,,,,,,,,,
,Screen_4,canvas.Screen,0_2_18_3,,skipped,19,14440,,,14437,,14440,2021-10-25T19:24:29.440Z,14527.86,1635181311,full,ni_sequenzen,NI_Sequenzen,,,,,,,,,,,,,,
,Screen_5,canvas.Screen,0_2_18_4,,skipped,19,14441,,,14437,,14441,2021-10-25T19:24:29.440Z,14527.86,1635181311,full,ni_sequenzen,NI_Sequenzen,,,,,,,,,,,,,,
,Screen_6,canvas.Screen,0_2_18_5,,skipped,19,14442,,,14437,,14442,2021-10-25T19:24:29.442Z,14527.86,1635181311,full,ni_sequenzen,NI_Sequenzen,,,,,,,,,,,,,,
,Sequence,flow.Sequence,0_2_18,,completion,19,14436,,,14437,,14442,2021-10-25T19:24:29.442Z,14527.86,1635181311,full,ni_sequenzen,NI_Sequenzen,,,,,,,,,,,,,,
,Screen_1,canvas.Screen,0_2_19_0,,skipped,20,14443,,,14443,,14443,2021-10-25T19:24:29.442Z,14527.86,1635181311,full,ni_sequenzen,NI_Sequenzen,,,,,,,,,,,,,,
,Screen_2,canvas.Screen,0_2_19_1,,skipped,20,14444,,,14443,,14444,2021-10-25T19:24:29.444Z,14527.86,1635181311,full,ni_sequenzen,NI_Sequenzen,,,,,,,,,,,,,,
,Screen_3,canvas.Screen,0_2_19_2,,skipped,20,14445,,,14443,,14445,2021-10-25T19:24:29.444Z,14527.86,1635181311,full,ni_sequenzen,NI_Sequenzen,,,,,,,,,,,,,,
,Screen_4,canvas.Screen,0_2_19_3,,skipped,20,14445,,,14443,,14445,2021-10-25T19:24:29.445Z,14527.86,1635181311,full,ni_sequenzen,NI_Sequenzen,,,,,,,,,,,,,,
,Screen_5,canvas.Screen,0_2_19_4,,skipped,20,14446,,,14443,,14446,2021-10-25T19:24:29.446Z,14527.86,1635181311,full,ni_sequenzen,NI_Sequenzen,,,,,,,,,,,,,,
,Screen_6,canvas.Screen,0_2_19_5,,skipped,20,14447,,,14443,,14447,2021-10-25T19:24:29.447Z,14527.86,1635181311,full,ni_sequenzen,NI_Sequenzen,,,,,,,,,,,,,,
,Sequence,flow.Sequence,0_2_19,,completion,20,14442,,,14443,,14447,2021-10-25T19:24:29.447Z,14527.86,1635181311,full,ni_sequenzen,NI_Sequenzen,,,,,,,,,,,,,,
,Screen_1,canvas.Screen,0_2_20_0,,skipped,21,14448,,,14448,,14449,2021-10-25T19:24:29.448Z,14527.86,1635181311,full,ni_sequenzen,NI_Sequenzen,,,,,,,,,,,,,,
,Screen_2,canvas.Screen,0_2_20_1,,skipped,21,14450,,,14448,,14450,2021-10-25T19:24:29.449Z,14527.86,1635181311,full,ni_sequenzen,NI_Sequenzen,,,,,,,,,,,,,,
,Screen_3,canvas.Screen,0_2_20_2,,skipped,21,14451,,,14448,,14451,2021-10-25T19:24:29.450Z,14527.86,1635181311,full,ni_sequenzen,NI_Sequenzen,,,,,,,,,,,,,,
,Screen_4,canvas.Screen,0_2_20_3,,skipped,21,14451,,,14448,,14451,2021-10-25T19:24:29.451Z,14527.86,1635181311,full,ni_sequenzen,NI_Sequenzen,,,,,,,,,,,,,,
,Screen_5,canvas.Screen,0_2_20_4,,skipped,21,14452,,,14448,,14452,2021-10-25T19:24:29.452Z,14527.86,1635181311,full,ni_sequenzen,NI_Sequenzen,,,,,,,,,,,,,,
,Screen_6,canvas.Screen,0_2_20_5,,skipped,21,14453,,,14448,,14453,2021-10-25T19:24:29.453Z,14527.86,1635181311,full,ni_sequenzen,NI_Sequenzen,,,,,,,,,,,,,,
,Sequence,flow.Sequence,0_2_20,,completion,21,14448,,,14448,,14453,2021-10-25T19:24:29.453Z,14527.86,1635181311,full,ni_sequenzen,NI_Sequenzen,,,,,,,,,,,,,,
,Screen_1,canvas.Screen,0_2_21_0,,skipped,22,14454,,,14454,,14454,2021-10-25T19:24:29.454Z,14527.86,1635181311,full,ni_sequenzen,NI_Sequenzen,,,,,,,,,,,,,,
,Screen_2,canvas.Screen,0_2_21_1,,skipped,22,14455,,,14454,,14455,2021-10-25T19:24:29.454Z,14527.86,1635181311,full,ni_sequenzen,NI_Sequenzen,,,,,,,,,,,,,,
,Screen_3,canvas.Screen,0_2_21_2,,skipped,22,14456,,,14454,,14456,2021-10-25T19:24:29.455Z,14527.86,1635181311,full,ni_sequenzen,NI_Sequenzen,,,,,,,,,,,,,,
,Screen_4,canvas.Screen,0_2_21_3,,skipped,22,14456,,,14454,,14456,2021-10-25T19:24:29.456Z,14527.86,1635181311,full,ni_sequenzen,NI_Sequenzen,,,,,,,,,,,,,,
,Screen_5,canvas.Screen,0_2_21_4,,skipped,22,14457,,,14454,,14457,2021-10-25T19:24:29.457Z,14527.86,1635181311,full,ni_sequenzen,NI_Sequenzen,,,,,,,,,,,,,,
,Screen_6,canvas.Screen,0_2_21_5,,skipped,22,14458,,,14454,,14458,2021-10-25T19:24:29.457Z,14527.86,1635181311,full,ni_sequenzen,NI_Sequenzen,,,,,,,,,,,,,,
,Sequence,flow.Sequence,0_2_21,,completion,22,14453,,,14454,,14458,2021-10-25T19:24:29.458Z,14527.86,1635181311,full,ni_sequenzen,NI_Sequenzen,,,,,,,,,,,,,,
,Screen_1,canvas.Screen,0_2_22_0,,skipped,23,14460,,,14460,,14460,2021-10-25T19:24:29.459Z,14527.86,1635181311,full,ni_sequenzen,NI_Sequenzen,,,,,,,,,,,,,,
,Screen_2,canvas.Screen,0_2_22_1,,skipped,23,14461,,,14460,,14461,2021-10-25T19:24:29.459Z,14527.86,1635181311,full,ni_sequenzen,NI_Sequenzen,,,,,,,,,,,,,,
,Screen_3,canvas.Screen,0_2_22_2,,skipped,23,14461,,,14460,,14461,2021-10-25T19:24:29.460Z,14527.86,1635181311,full,ni_sequenzen,NI_Sequenzen,,,,,,,,,,,,,,
,Screen_4,canvas.Screen,0_2_22_3,,skipped,23,14462,,,14460,,14462,2021-10-25T19:24:29.461Z,14527.86,1635181311,full,ni_sequenzen,NI_Sequenzen,,,,,,,,,,,,,,
,Screen_5,canvas.Screen,0_2_22_4,,skipped,23,14463,,,14460,,14463,2021-10-25T19:24:29.462Z,14527.86,1635181311,full,ni_sequenzen,NI_Sequenzen,,,,,,,,,,,,,,
,Screen_6,canvas.Screen,0_2_22_5,,skipped,23,14464,,,14460,,14464,2021-10-25T19:24:29.463Z,14527.86,1635181311,full,ni_sequenzen,NI_Sequenzen,,,,,,,,,,,,,,
,Sequence,flow.Sequence,0_2_22,,completion,23,14459,,,14460,,14464,2021-10-25T19:24:29.463Z,14527.86,1635181311,full,ni_sequenzen,NI_Sequenzen,,,,,,,,,,,,,,
,Screen_1,canvas.Screen,0_2_23_0,,skipped,24,14465,,,14465,,14465,2021-10-25T19:24:29.465Z,14527.86,1635181311,full,ni_sequenzen,NI_Sequenzen,,,,,,,,,,,,,,
,Screen_2,canvas.Screen,0_2_23_1,,skipped,24,14466,,,14465,,14466,2021-10-25T19:24:29.465Z,14527.86,1635181311,full,ni_sequenzen,NI_Sequenzen,,,,,,,,,,,,,,
,Screen_3,canvas.Screen,0_2_23_2,,skipped,24,14467,,,14465,,14467,2021-10-25T19:24:29.466Z,14527.86,1635181311,full,ni_sequenzen,NI_Sequenzen,,,,,,,,,,,,,,
,Screen_4,canvas.Screen,0_2_23_3,,skipped,24,14468,,,14465,,14468,2021-10-25T19:24:29.467Z,14527.86,1635181311,full,ni_sequenzen,NI_Sequenzen,,,,,,,,,,,,,,
,Screen_5,canvas.Screen,0_2_23_4,,skipped,24,14469,,,14465,,14469,2021-10-25T19:24:29.468Z,14527.86,1635181311,full,ni_sequenzen,NI_Sequenzen,,,,,,,,,,,,,,
,Screen_6,canvas.Screen,0_2_23_5,,skipped,24,14470,,,14465,,14470,2021-10-25T19:24:29.469Z,14527.86,1635181311,full,ni_sequenzen,NI_Sequenzen,,,,,,,,,,,,,,
,Sequence,flow.Sequence,0_2_23,,completion,24,14464,,,14465,,14470,2021-10-25T19:24:29.469Z,14527.86,1635181311,full,ni_sequenzen,NI_Sequenzen,,,,,,,,,,,,,,
,Screen_1,canvas.Screen,0_2_24_0,,skipped,25,14471,,,14471,,14471,2021-10-25T19:24:29.470Z,14527.86,1635181311,full,ni_sequenzen,NI_Sequenzen,,,,,,,,,,,,,,
,Screen_2,canvas.Screen,0_2_24_1,,skipped,25,14472,,,14471,,14472,2021-10-25T19:24:29.471Z,14527.86,1635181311,full,ni_sequenzen,NI_Sequenzen,,,,,,,,,,,,,,
,Screen_3,canvas.Screen,0_2_24_2,,skipped,25,14476,,,14471,,14476,2021-10-25T19:24:29.475Z,14527.86,1635181311,full,ni_sequenzen,NI_Sequenzen,,,,,,,,,,,,,,
,Screen_4,canvas.Screen,0_2_24_3,,skipped,25,14477,,,14471,,14477,2021-10-25T19:24:29.476Z,14527.86,1635181311,full,ni_sequenzen,NI_Sequenzen,,,,,,,,,,,,,,
,Screen_5,canvas.Screen,0_2_24_4,,skipped,25,14477,,,14471,,14477,2021-10-25T19:24:29.477Z,14527.86,1635181311,full,ni_sequenzen,NI_Sequenzen,,,,,,,,,,,,,,
,Screen_6,canvas.Screen,0_2_24_5,,skipped,25,14478,,,14471,,14478,2021-10-25T19:24:29.478Z,14527.86,1635181311,full,ni_sequenzen,NI_Sequenzen,,,,,,,,,,,,,,
,Sequence,flow.Sequence,0_2_24,,completion,25,14470,,,14471,,14479,2021-10-25T19:24:29.478Z,14527.86,1635181311,full,ni_sequenzen,NI_Sequenzen,,,,,,,,,,,,,,
,Screen_1,canvas.Screen,0_2_25_0,,skipped,26,14481,,,14481,,14481,2021-10-25T19:24:29.479Z,14527.86,1635181311,full,ni_sequenzen,NI_Sequenzen,,,,,,,,,,,,,,
,Screen_2,canvas.Screen,0_2_25_1,,skipped,26,14481,,,14481,,14481,2021-10-25T19:24:29.480Z,14527.86,1635181311,full,ni_sequenzen,NI_Sequenzen,,,,,,,,,,,,,,
,Screen_3,canvas.Screen,0_2_25_2,,skipped,26,14482,,,14481,,14482,2021-10-25T19:24:29.481Z,14527.86,1635181311,full,ni_sequenzen,NI_Sequenzen,,,,,,,,,,,,,,
,Screen_4,canvas.Screen,0_2_25_3,,skipped,26,14483,,,14481,,14483,2021-10-25T19:24:29.482Z,14527.86,1635181311,full,ni_sequenzen,NI_Sequenzen,,,,,,,,,,,,,,
,Screen_5,canvas.Screen,0_2_25_4,,skipped,26,14484,,,14481,,14484,2021-10-25T19:24:29.483Z,14527.86,1635181311,full,ni_sequenzen,NI_Sequenzen,,,,,,,,,,,,,,
,Screen_6,canvas.Screen,0_2_25_5,,skipped,26,14484,,,14481,,14484,2021-10-25T19:24:29.484Z,14527.86,1635181311,full,ni_sequenzen,NI_Sequenzen,,,,,,,,,,,,,,
,Sequence,flow.Sequence,0_2_25,,completion,26,14479,,,14481,,14484,2021-10-25T19:24:29.484Z,14527.86,1635181311,full,ni_sequenzen,NI_Sequenzen,,,,,,,,,,,,,,
,Screen_1,canvas.Screen,0_2_26_0,,skipped,27,14485,,,14485,,14485,2021-10-25T19:24:29.485Z,14527.86,1635181311,full,ni_sequenzen,NI_Sequenzen,,,,,,,,,,,,,,
,Screen_2,canvas.Screen,0_2_26_1,,skipped,27,14486,,,14485,,14486,2021-10-25T19:24:29.486Z,14527.86,1635181311,full,ni_sequenzen,NI_Sequenzen,,,,,,,,,,,,,,
,Screen_3,canvas.Screen,0_2_26_2,,skipped,27,14487,,,14485,,14487,2021-10-25T19:24:29.487Z,14527.86,1635181311,full,ni_sequenzen,NI_Sequenzen,,,,,,,,,,,,,,
,Screen_4,canvas.Screen,0_2_26_3,,skipped,27,14489,,,14485,,14489,2021-10-25T19:24:29.488Z,14527.86,1635181311,full,ni_sequenzen,NI_Sequenzen,,,,,,,,,,,,,,
,Screen_5,canvas.Screen,0_2_26_4,,skipped,27,14490,,,14485,,14490,2021-10-25T19:24:29.490Z,14527.86,1635181311,full,ni_sequenzen,NI_Sequenzen,,,,,,,,,,,,,,
,Screen_6,canvas.Screen,0_2_26_5,,skipped,27,14491,,,14485,,14491,2021-10-25T19:24:29.491Z,14527.86,1635181311,full,ni_sequenzen,NI_Sequenzen,,,,,,,,,,,,,,
,Sequence,flow.Sequence,0_2_26,,completion,27,14484,,,14485,,14491,2021-10-25T19:24:29.491Z,14527.86,1635181311,full,ni_sequenzen,NI_Sequenzen,,,,,,,,,,,,,,
,Screen_1,canvas.Screen,0_2_27_0,,skipped,28,14494,,,14494,,14494,2021-10-25T19:24:29.493Z,14527.86,1635181311,full,ni_sequenzen,NI_Sequenzen,,,,,,,,,,,,,,
,Screen_2,canvas.Screen,0_2_27_1,,skipped,28,14494,,,14494,,14495,2021-10-25T19:24:29.494Z,14527.86,1635181311,full,ni_sequenzen,NI_Sequenzen,,,,,,,,,,,,,,
,Screen_3,canvas.Screen,0_2_27_2,,skipped,28,14495,,,14494,,14495,2021-10-25T19:24:29.495Z,14527.86,1635181311,full,ni_sequenzen,NI_Sequenzen,,,,,,,,,,,,,,
,Screen_4,canvas.Screen,0_2_27_3,,skipped,28,14496,,,14494,,14496,2021-10-25T19:24:29.496Z,14527.86,1635181311,full,ni_sequenzen,NI_Sequenzen,,,,,,,,,,,,,,
,Screen_5,canvas.Screen,0_2_27_4,,skipped,28,14497,,,14494,,14497,2021-10-25T19:24:29.497Z,14527.86,1635181311,full,ni_sequenzen,NI_Sequenzen,,,,,,,,,,,,,,
,Screen_6,canvas.Screen,0_2_27_5,,skipped,28,14498,,,14494,,14498,2021-10-25T19:24:29.497Z,14527.86,1635181311,full,ni_sequenzen,NI_Sequenzen,,,,,,,,,,,,,,
,Sequence,flow.Sequence,0_2_27,,completion,28,14492,,,14494,,14498,2021-10-25T19:24:29.498Z,14527.86,1635181311,full,ni_sequenzen,NI_Sequenzen,,,,,,,,,,,,,,
,Screen_1,canvas.Screen,0_2_28_0,,skipped,29,14499,,,14499,,14499,2021-10-25T19:24:29.499Z,14527.86,1635181311,full,ni_sequenzen,NI_Sequenzen,,,,,,,,,,,,,,
,Screen_2,canvas.Screen,0_2_28_1,,skipped,29,14500,,,14499,,14500,2021-10-25T19:24:29.499Z,14527.86,1635181311,full,ni_sequenzen,NI_Sequenzen,,,,,,,,,,,,,,
,Screen_3,canvas.Screen,0_2_28_2,,skipped,29,14500,,,14499,,14500,2021-10-25T19:24:29.500Z,14527.86,1635181311,full,ni_sequenzen,NI_Sequenzen,,,,,,,,,,,,,,
,Screen_4,canvas.Screen,0_2_28_3,,skipped,29,14501,,,14499,,14501,2021-10-25T19:24:29.500Z,14527.86,1635181311,full,ni_sequenzen,NI_Sequenzen,,,,,,,,,,,,,,
,Screen_5,canvas.Screen,0_2_28_4,,skipped,29,14502,,,14499,,14502,2021-10-25T19:24:29.501Z,14527.86,1635181311,full,ni_sequenzen,NI_Sequenzen,,,,,,,,,,,,,,
,Screen_6,canvas.Screen,0_2_28_5,,skipped,29,14503,,,14499,,14503,2021-10-25T19:24:29.502Z,14527.86,1635181311,full,ni_sequenzen,NI_Sequenzen,,,,,,,,,,,,,,
,Sequence,flow.Sequence,0_2_28,,completion,29,14498,,,14499,,14503,2021-10-25T19:24:29.502Z,14527.86,1635181311,full,ni_sequenzen,NI_Sequenzen,,,,,,,,,,,,,,
,Screen_1,canvas.Screen,0_2_29_0,,skipped,30,14504,,,14504,,14504,2021-10-25T19:24:29.504Z,14527.86,1635181311,full,ni_sequenzen,NI_Sequenzen,,,,,,,,,,,,,,
,Screen_2,canvas.Screen,0_2_29_1,,skipped,30,14505,,,14504,,14505,2021-10-25T19:24:29.505Z,14527.86,1635181311,full,ni_sequenzen,NI_Sequenzen,,,,,,,,,,,,,,
,Screen_3,canvas.Screen,0_2_29_2,,skipped,30,14506,,,14504,,14506,2021-10-25T19:24:29.506Z,14527.86,1635181311,full,ni_sequenzen,NI_Sequenzen,,,,,,,,,,,,,,
,Screen_4,canvas.Screen,0_2_29_3,,skipped,30,14507,,,14504,,14507,2021-10-25T19:24:29.506Z,14527.86,1635181311,full,ni_sequenzen,NI_Sequenzen,,,,,,,,,,,,,,
,Screen_5,canvas.Screen,0_2_29_4,,skipped,30,14508,,,14504,,14508,2021-10-25T19:24:29.507Z,14527.86,1635181311,full,ni_sequenzen,NI_Sequenzen,,,,,,,,,,,,,,
,Screen_6,canvas.Screen,0_2_29_5,,skipped,30,14509,,,14504,,14509,2021-10-25T19:24:29.508Z,14527.86,1635181311,full,ni_sequenzen,NI_Sequenzen,,,,,,,,,,,,,,
,Sequence,flow.Sequence,0_2_29,,completion,30,14504,,,14504,,14509,2021-10-25T19:24:29.508Z,14527.86,1635181311,full,ni_sequenzen,NI_Sequenzen,,,,,,,,,,,,,,
,Instructions_II,flow.Loop,0_2,,completion,,11388,11390.5,11390.8,14504,3113.2000000000007,14509,2021-10-25T19:24:29.508Z,14527.86,1635181311,full,ni_sequenzen,NI_Sequenzen,,,,,,,,,,,,,,
,Move,canvas.Screen,0_3_0_0_0_0,right,response,,14527,14526.34,14527.86,14565,37.13999999999942,14577,2021-10-25T19:24:29.577Z,14590.66,1635181311,full,ni_sequenzen,NI_Sequenzen,1,0,,,,,,,,,,,,
,Move,canvas.Screen,0_3_0_0_0_1,right,response,,14584,14584.36,14590.66,14743,152.34000000000015,14757,2021-10-25T19:24:29.756Z,14774.02,1635181311,full,ni_sequenzen,NI_Sequenzen,2,0,,,,,,,,,,,,
,Move,canvas.Screen,0_3_0_0_0_2,right,response,,14765,14764.72,14774.02,14939,164.97999999999956,14954,2021-10-25T19:24:29.953Z,14973.04,1635181311,full,ni_sequenzen,NI_Sequenzen,3,0,,,,,,,,,,,,
,Move,canvas.Screen,0_3_0_0_0_3,right,response,,14959,14959.3,14973.04,15127,153.95999999999913,15141,2021-10-25T19:24:30.141Z,15147.62,1635181311,full,ni_sequenzen,NI_Sequenzen,4,0,,,,,,,,,,,,
,Move,canvas.Screen,0_3_0_0_0_4,down,response,,15146,15146.28,15147.62,15347,199.3799999999992,15361,2021-10-25T19:24:30.361Z,15369.88,1635181311,full,ni_sequenzen,NI_Sequenzen,5,0,,,,,,,,,,,,
,Move,canvas.Screen,0_3_0_0_0_5,left,response,,15368,15368.64,15369.88,15515,145.1200000000008,15529,2021-10-25T19:24:30.529Z,15572.98,1635181311,full,ni_sequenzen,NI_Sequenzen,6,0,,,,,,,,,,,,
,Move,canvas.Screen,0_3_0_0_0_6,-999,skipped,,15535,,,15515,,15535,2021-10-25T19:24:30.534Z,15572.98,1635181311,full,ni_sequenzen,NI_Sequenzen,7,0,,,,,,,,,,,,
,Move,canvas.Screen,0_3_0_0_0_7,-999,skipped,,15539,,,15515,,15539,2021-10-25T19:24:30.539Z,15572.98,1635181311,full,ni_sequenzen,NI_Sequenzen,8,0,,,,,,,,,,,,
,Move,canvas.Screen,0_3_0_0_0_8,-999,skipped,,15545,,,15515,,15545,2021-10-25T19:24:30.544Z,15572.98,1635181311,full,ni_sequenzen,NI_Sequenzen,9,0,,,,,,,,,,,,
,Move,canvas.Screen,0_3_0_0_0_9,-999,skipped,,15549,,,15515,,15549,2021-10-25T19:24:30.548Z,15572.98,1635181311,full,ni_sequenzen,NI_Sequenzen,10,0,,,,,,,,,,,,
,Move,canvas.Screen,0_3_0_0_0_10,-999,skipped,,15553,,,15515,,15553,2021-10-25T19:24:30.552Z,15572.98,1635181311,full,ni_sequenzen,NI_Sequenzen,11,0,,,,,,,,,,,,
,Move,canvas.Screen,0_3_0_0_0_11,-999,skipped,,15557,,,15515,,15557,2021-10-25T19:24:30.557Z,15572.98,1635181311,full,ni_sequenzen,NI_Sequenzen,12,0,,,,,,,,,,,,
,Move,canvas.Screen,0_3_0_0_0_12,-999,skipped,,15562,,,15515,,15562,2021-10-25T19:24:30.561Z,15572.98,1635181311,full,ni_sequenzen,NI_Sequenzen,13,0,,,,,,,,,,,,
,Move,canvas.Screen,0_3_0_0_0_13,-999,skipped,,15565,,,15515,,15565,2021-10-25T19:24:30.565Z,15572.98,1635181311,full,ni_sequenzen,NI_Sequenzen,14,0,,,,,,,,,,,,
,Move,canvas.Screen,0_3_0_0_0_14,-999,skipped,,15569,,,15515,,15569,2021-10-25T19:24:30.569Z,15572.98,1635181311,full,ni_sequenzen,NI_Sequenzen,15,0,,,,,,,,,,,,
,Loop,flow.Loop,0_3_0_0_0,-999,completion,,14522,14526.34,14527.86,15515,987.1399999999994,15570,2021-10-25T19:24:30.569Z,15572.98,1635181311,full,ni_sequenzen,NI_Sequenzen,,0,,,,,,,,,,,,
,Feedback,canvas.Screen,0_3_0_0_1,,timeout,,15573,15572.2,15572.98,19557.04,4008.8600000000006,19568,2021-10-25T19:24:34.568Z,19581.84,1635181311,full,ni_sequenzen,NI_Sequenzen,,0,,,,,,,,,,,,
,Trial,flow.Sequence,0_3_0_0,,completion,,14517,14526.34,14527.86,19557.04,5029.18,19568,2021-10-25T19:24:34.568Z,19583.04,1635181311,full,ni_sequenzen,NI_Sequenzen,,0,,,,,,,,,,,,
,Move,canvas.Screen,0_3_0_1_0_0,right,response,,19582,19581.84,19583.04,19904,320.9599999999991,19919,2021-10-25T19:24:34.919Z,19928.36,1635181311,full,ni_sequenzen,NI_Sequenzen,1,1,,,,,,,,,,,,
,Move,canvas.Screen,0_3_0_1_0_1,down,response,,19927,19926.92,19928.36,20040,111.63999999999942,20054,2021-10-25T19:24:35.053Z,20074.02,1635181311,full,ni_sequenzen,NI_Sequenzen,2,1,,,,,,,,,,,,
,Move,canvas.Screen,0_3_0_1_0_2,right,response,,20061,20061.52,20074.02,20304,229.97999999999956,20318,2021-10-25T19:24:35.317Z,20324.22,1635181311,full,ni_sequenzen,NI_Sequenzen,3,1,,,,,,,,,,,,
,Move,canvas.Screen,0_3_0_1_0_3,down,response,,20323,20322.96,20324.22,20404,79.77999999999884,20418,2021-10-25T19:24:35.418Z,20473.02,1635181311,full,ni_sequenzen,NI_Sequenzen,4,1,,,,,,,,,,,,
,Move,canvas.Screen,0_3_0_1_0_4,-999,skipped,,20424,,,20404,,20424,2021-10-25T19:24:35.424Z,20473.02,1635181311,full,ni_sequenzen,NI_Sequenzen,5,1,,,,,,,,,,,,
,Move,canvas.Screen,0_3_0_1_0_5,-999,skipped,,20430,,,20404,,20430,2021-10-25T19:24:35.429Z,20473.02,1635181311,full,ni_sequenzen,NI_Sequenzen,6,1,,,,,,,,,,,,
,Move,canvas.Screen,0_3_0_1_0_6,-999,skipped,,20434,,,20404,,20434,2021-10-25T19:24:35.434Z,20473.02,1635181311,full,ni_sequenzen,NI_Sequenzen,7,1,,,,,,,,,,,,
,Move,canvas.Screen,0_3_0_1_0_7,-999,skipped,,20437,,,20404,,20437,2021-10-25T19:24:35.437Z,20473.02,1635181311,full,ni_sequenzen,NI_Sequenzen,8,1,,,,,,,,,,,,
,Move,canvas.Screen,0_3_0_1_0_8,-999,skipped,,20441,,,20404,,20441,2021-10-25T19:24:35.442Z,20473.02,1635181311,full,ni_sequenzen,NI_Sequenzen,9,1,,,,,,,,,,,,
,Move,canvas.Screen,0_3_0_1_0_9,-999,skipped,,20445,,,20404,,20445,2021-10-25T19:24:35.445Z,20473.02,1635181311,full,ni_sequenzen,NI_Sequenzen,10,1,,,,,,,,,,,,
,Move,canvas.Screen,0_3_0_1_0_10,-999,skipped,,20449,,,20404,,20449,2021-10-25T19:24:35.448Z,20473.02,1635181311,full,ni_sequenzen,NI_Sequenzen,11,1,,,,,,,,,,,,
,Move,canvas.Screen,0_3_0_1_0_11,-999,skipped,,20453,,,20404,,20453,2021-10-25T19:24:35.453Z,20473.02,1635181311,full,ni_sequenzen,NI_Sequenzen,12,1,,,,,,,,,,,,
,Move,canvas.Screen,0_3_0_1_0_12,-999,skipped,,20456,,,20404,,20456,2021-10-25T19:24:35.456Z,20473.02,1635181311,full,ni_sequenzen,NI_Sequenzen,13,1,,,,,,,,,,,,
,Move,canvas.Screen,0_3_0_1_0_13,-999,skipped,,20460,,,20404,,20460,2021-10-25T19:24:35.460Z,20473.02,1635181311,full,ni_sequenzen,NI_Sequenzen,14,1,,,,,,,,,,,,
,Move,canvas.Screen,0_3_0_1_0_14,-999,skipped,,20464,,,20404,,20464,2021-10-25T19:24:35.464Z,20473.02,1635181311,full,ni_sequenzen,NI_Sequenzen,15,1,,,,,,,,,,,,
,Loop,flow.Loop,0_3_0_1_0,-999,completion,,19576,19581.84,19583.04,20404,820.9599999999991,20464,2021-10-25T19:24:35.464Z,20473.02,1635181311,full,ni_sequenzen,NI_Sequenzen,,1,,,,,,,,,,,,
,Feedback,canvas.Screen,0_3_0_1_1,,timeout,,20470,20470.12,20473.02,24457.4,4005.5600000000013,24469,2021-10-25T19:24:39.467Z,24478.58,1635181311,full,ni_sequenzen,NI_Sequenzen,,1,,,,,,,,,,,,
,Trial,flow.Sequence,0_3_0_1,,completion,,19569,19581.84,19583.04,24457.4,4874.360000000001,24469,2021-10-25T19:24:39.468Z,24490.62,1635181311,full,ni_sequenzen,NI_Sequenzen,,1,,,,,,,,,,,,
,Move,canvas.Screen,0_3_0_2_0_0,right,response,,24479,24478.58,24490.62,24864,373.380000000001,24879,2021-10-25T19:24:39.879Z,24885.8,1635181311,full,ni_sequenzen,NI_Sequenzen,1,2,,,,,,,,,,,,
,Move,canvas.Screen,0_3_0_2_0_1,down,response,,24885,24884.56,24885.8,24991,105.20000000000073,25004,2021-10-25T19:24:40.004Z,25023.82,1635181311,full,ni_sequenzen,NI_Sequenzen,2,2,,,,,,,,,,,,
,Move,canvas.Screen,0_3_0_2_0_2,left,response,,25009,25009.3,25023.82,25098,74.18000000000029,25112,2021-10-25T19:24:40.112Z,25118.64,1635181311,full,ni_sequenzen,NI_Sequenzen,3,2,,,,,,,,,,,,
,Move,canvas.Screen,0_3_0_2_0_3,right,response,,25118,25117.42,25118.64,25274,155.36000000000058,25289,2021-10-25T19:24:40.288Z,25339.88,1635181311,full,ni_sequenzen,NI_Sequenzen,4,2,,,,,,,,,,,,
,Move,canvas.Screen,0_3_0_2_0_4,-999,skipped,,25293,,,25274,,25293,2021-10-25T19:24:40.293Z,25339.88,1635181311,full,ni_sequenzen,NI_Sequenzen,5,2,,,,,,,,,,,,
,Move,canvas.Screen,0_3_0_2_0_5,-999,skipped,,25299,,,25274,,25299,2021-10-25T19:24:40.298Z,25339.88,1635181311,full,ni_sequenzen,NI_Sequenzen,6,2,,,,,,,,,,,,
,Move,canvas.Screen,0_3_0_2_0_6,-999,skipped,,25303,,,25274,,25303,2021-10-25T19:24:40.303Z,25339.88,1635181311,full,ni_sequenzen,NI_Sequenzen,7,2,,,,,,,,,,,,
,Move,canvas.Screen,0_3_0_2_0_7,-999,skipped,,25308,,,25274,,25308,2021-10-25T19:24:40.307Z,25339.88,1635181311,full,ni_sequenzen,NI_Sequenzen,8,2,,,,,,,,,,,,
,Move,canvas.Screen,0_3_0_2_0_8,-999,skipped,,25312,,,25274,,25312,2021-10-25T19:24:40.312Z,25339.88,1635181311,full,ni_sequenzen,NI_Sequenzen,9,2,,,,,,,,,,,,
,Move,canvas.Screen,0_3_0_2_0_9,-999,skipped,,25316,,,25274,,25316,2021-10-25T19:24:40.316Z,25339.88,1635181311,full,ni_sequenzen,NI_Sequenzen,10,2,,,,,,,,,,,,
,Move,canvas.Screen,0_3_0_2_0_10,-999,skipped,,25320,,,25274,,25320,2021-10-25T19:24:40.319Z,25339.88,1635181311,full,ni_sequenzen,NI_Sequenzen,11,2,,,,,,,,,,,,
,Move,canvas.Screen,0_3_0_2_0_11,-999,skipped,,25324,,,25274,,25324,2021-10-25T19:24:40.323Z,25339.88,1635181311,full,ni_sequenzen,NI_Sequenzen,12,2,,,,,,,,,,,,
,Move,canvas.Screen,0_3_0_2_0_12,-999,skipped,,25327,,,25274,,25327,2021-10-25T19:24:40.327Z,25339.88,1635181311,full,ni_sequenzen,NI_Sequenzen,13,2,,,,,,,,,,,,
,Move,canvas.Screen,0_3_0_2_0_13,-999,skipped,,25331,,,25274,,25331,2021-10-25T19:24:40.330Z,25339.88,1635181311,full,ni_sequenzen,NI_Sequenzen,14,2,,,,,,,,,,,,
,Move,canvas.Screen,0_3_0_2_0_14,-999,skipped,,25334,,,25274,,25334,2021-10-25T19:24:40.334Z,25339.88,1635181311,full,ni_sequenzen,NI_Sequenzen,15,2,,,,,,,,,,,,
,Loop,flow.Loop,0_3_0_2_0,-999,completion,,24474,24478.58,24490.62,25274,783.380000000001,25334,2021-10-25T19:24:40.334Z,25339.88,1635181311,full,ni_sequenzen,NI_Sequenzen,,2,,,,,,,,,,,,
,Feedback,canvas.Screen,0_3_0_2_1,,timeout,,25337,25337.28,25339.88,29323.3,4025.6399999999994,29335,2021-10-25T19:24:44.334Z,29365.52,1635181311,full,ni_sequenzen,NI_Sequenzen,,2,,,,,,,,,,,,
,Trial,flow.Sequence,0_3_0_2,,completion,,24469,24478.58,24490.62,29323.3,4832.68,29336,2021-10-25T19:24:44.335Z,29366.78,1635181311,full,ni_sequenzen,NI_Sequenzen,,2,,,,,,,,,,,,
,Move,canvas.Screen,0_3_0_3_0_0,right,response,,29365,29365.52,29366.78,29755,388.22000000000116,29770,2021-10-25T19:24:44.770Z,29784.84,1635181311,full,ni_sequenzen,NI_Sequenzen,1,3,,,,,,,,,,,,
,Move,canvas.Screen,0_3_0_3_0_1,down,response,,29783,29783.58,29784.84,29927,142.15999999999985,29941,2021-10-25T19:24:44.941Z,29957.16,1635181311,full,ni_sequenzen,NI_Sequenzen,2,3,,,,,,,,,,,,
,Move,canvas.Screen,0_3_0_3_0_2,left,response,,29950,,,29951,,29960,2021-10-25T19:24:44.960Z,29989.48,1635181311,full,ni_sequenzen,NI_Sequenzen,3,3,,,,,,,,,,,,
,Move,canvas.Screen,0_3_0_3_0_3,right,response,,29972,29973.08,29989.48,30163,173.52000000000044,30177,2021-10-25T19:24:45.176Z,30246.3,1635181311,full,ni_sequenzen,NI_Sequenzen,4,3,,,,,,,,,,,,
,Move,canvas.Screen,0_3_0_3_0_4,-999,skipped,,30187,,,30163,,30187,2021-10-25T19:24:45.187Z,30246.3,1635181311,full,ni_sequenzen,NI_Sequenzen,5,3,,,,,,,,,,,,
,Move,canvas.Screen,0_3_0_3_0_5,-999,skipped,,30194,,,30163,,30194,2021-10-25T19:24:45.193Z,30246.3,1635181311,full,ni_sequenzen,NI_Sequenzen,6,3,,,,,,,,,,,,
,Move,canvas.Screen,0_3_0_3_0_6,-999,skipped,,30200,,,30163,,30200,2021-10-25T19:24:45.199Z,30246.3,1635181311,full,ni_sequenzen,NI_Sequenzen,7,3,,,,,,,,,,,,
,Move,canvas.Screen,0_3_0_3_0_7,-999,skipped,,30204,,,30163,,30204,2021-10-25T19:24:45.204Z,30246.3,1635181311,full,ni_sequenzen,NI_Sequenzen,8,3,,,,,,,,,,,,
,Move,canvas.Screen,0_3_0_3_0_8,-999,skipped,,30209,,,30163,,30209,2021-10-25T19:24:45.210Z,30246.3,1635181311,full,ni_sequenzen,NI_Sequenzen,9,3,,,,,,,,,,,,
,Move,canvas.Screen,0_3_0_3_0_9,-999,skipped,,30214,,,30163,,30214,2021-10-25T19:24:45.214Z,30246.3,1635181311,full,ni_sequenzen,NI_Sequenzen,10,3,,,,,,,,,,,,
,Move,canvas.Screen,0_3_0_3_0_10,-999,skipped,,30219,,,30163,,30219,2021-10-25T19:24:45.218Z,30246.3,1635181311,full,ni_sequenzen,NI_Sequenzen,11,3,,,,,,,,,,,,
,Move,canvas.Screen,0_3_0_3_0_11,-999,skipped,,30225,,,30163,,30226,2021-10-25T19:24:45.225Z,30246.3,1635181311,full,ni_sequenzen,NI_Sequenzen,12,3,,,,,,,,,,,,
,Move,canvas.Screen,0_3_0_3_0_12,-999,skipped,,30230,,,30163,,30230,2021-10-25T19:24:45.230Z,30246.3,1635181311,full,ni_sequenzen,NI_Sequenzen,13,3,,,,,,,,,,,,
,Move,canvas.Screen,0_3_0_3_0_13,-999,skipped,,30237,,,30163,,30237,2021-10-25T19:24:45.237Z,30246.3,1635181311,full,ni_sequenzen,NI_Sequenzen,14,3,,,,,,,,,,,,
,Move,canvas.Screen,0_3_0_3_0_14,-999,skipped,,30241,,,30163,,30241,2021-10-25T19:24:45.240Z,30246.3,1635181311,full,ni_sequenzen,NI_Sequenzen,15,3,,,,,,,,,,,,
,Loop,flow.Loop,0_3_0_3_0,-999,completion,,29356,29365.52,29366.78,30163,796.2200000000012,30242,2021-10-25T19:24:45.241Z,30246.3,1635181311,full,ni_sequenzen,NI_Sequenzen,,3,,,,,,,,,,,,
,Feedback,canvas.Screen,0_3_0_3_1,,timeout,,30245,30245.12,30246.3,34223.92,4004.399999999998,34235,2021-10-25T19:24:49.235Z,34250.7,1635181311,full,ni_sequenzen,NI_Sequenzen,,3,,,,,,,,,,,,
,Trial,flow.Sequence,0_3_0_3,,completion,,29337,29365.52,29366.78,34223.92,4857.139999999999,34236,2021-10-25T19:24:49.235Z,34252.04,1635181311,full,ni_sequenzen,NI_Sequenzen,,3,,,,,,,,,,,,
,Move,canvas.Screen,0_3_0_4_0_0,right,response,,34251,34250.7,34252.04,34678,425.9599999999991,34693,2021-10-25T19:24:49.692Z,34699.32,1635181311,full,ni_sequenzen,NI_Sequenzen,1,4,,,,,,,,,,,,
,Move,canvas.Screen,0_3_0_4_0_1,down,response,,34698,34697.94,34699.32,34826,126.68000000000029,34842,2021-10-25T19:24:49.841Z,34856.98,1635181311,full,ni_sequenzen,NI_Sequenzen,2,4,,,,,,,,,,,,
,Move,canvas.Screen,0_3_0_4_0_2,left,response,,34847,34846.72,34856.98,34906,49.0199999999968,34921,2021-10-25T19:24:49.920Z,34939.98,1635181311,full,ni_sequenzen,NI_Sequenzen,3,4,,,,,,,,,,,,
,Move,canvas.Screen,0_3_0_4_0_3,right,response,,34926,34925.56,34939.98,35070,130.0199999999968,35087,2021-10-25T19:24:50.086Z,35141.88,1635181311,full,ni_sequenzen,NI_Sequenzen,4,4,,,,,,,,,,,,
,Move,canvas.Screen,0_3_0_4_0_4,-999,skipped,,35093,,,35070,,35093,2021-10-25T19:24:50.093Z,35141.88,1635181311,full,ni_sequenzen,NI_Sequenzen,5,4,,,,,,,,,,,,
,Move,canvas.Screen,0_3_0_4_0_5,-999,skipped,,35100,,,35070,,35100,2021-10-25T19:24:50.099Z,35141.88,1635181311,full,ni_sequenzen,NI_Sequenzen,6,4,,,,,,,,,,,,
,Move,canvas.Screen,0_3_0_4_0_6,-999,skipped,,35104,,,35070,,35104,2021-10-25T19:24:50.104Z,35141.88,1635181311,full,ni_sequenzen,NI_Sequenzen,7,4,,,,,,,,,,,,
,Move,canvas.Screen,0_3_0_4_0_7,-999,skipped,,35108,,,35070,,35108,2021-10-25T19:24:50.108Z,35141.88,1635181311,full,ni_sequenzen,NI_Sequenzen,8,4,,,,,,,,,,,,
,Move,canvas.Screen,0_3_0_4_0_8,-999,skipped,,35112,,,35070,,35112,2021-10-25T19:24:50.112Z,35141.88,1635181311,full,ni_sequenzen,NI_Sequenzen,9,4,,,,,,,,,,,,
,Move,canvas.Screen,0_3_0_4_0_9,-999,skipped,,35116,,,35070,,35116,2021-10-25T19:24:50.116Z,35141.88,1635181311,full,ni_sequenzen,NI_Sequenzen,10,4,,,,,,,,,,,,
,Move,canvas.Screen,0_3_0_4_0_10,-999,skipped,,35121,,,35070,,35121,2021-10-25T19:24:50.120Z,35141.88,1635181311,full,ni_sequenzen,NI_Sequenzen,11,4,,,,,,,,,,,,
,Move,canvas.Screen,0_3_0_4_0_11,-999,skipped,,35124,,,35070,,35124,2021-10-25T19:24:50.124Z,35141.88,1635181311,full,ni_sequenzen,NI_Sequenzen,12,4,,,,,,,,,,,,
,Move,canvas.Screen,0_3_0_4_0_12,-999,skipped,,35131,,,35070,,35131,2021-10-25T19:24:50.130Z,35141.88,1635181311,full,ni_sequenzen,NI_Sequenzen,13,4,,,,,,,,,,,,
,Move,canvas.Screen,0_3_0_4_0_13,-999,skipped,,35134,,,35070,,35134,2021-10-25T19:24:50.134Z,35141.88,1635181311,full,ni_sequenzen,NI_Sequenzen,14,4,,,,,,,,,,,,
,Move,canvas.Screen,0_3_0_4_0_14,-999,skipped,,35137,,,35070,,35137,2021-10-25T19:24:50.137Z,35141.88,1635181311,full,ni_sequenzen,NI_Sequenzen,15,4,,,,,,,,,,,,
,Loop,flow.Loop,0_3_0_4_0,-999,completion,,34245,34250.7,34252.04,35070,817.9599999999991,35138,2021-10-25T19:24:50.137Z,35141.88,1635181311,full,ni_sequenzen,NI_Sequenzen,,4,,,,,,,,,,,,
,Feedback,canvas.Screen,0_3_0_4_1,,timeout,,35140,35140.6,35141.88,39122.62,4004.1600000000035,39133,2021-10-25T19:24:54.133Z,39146.04,1635181311,full,ni_sequenzen,NI_Sequenzen,,4,,,,,,,,,,,,
,Trial,flow.Sequence,0_3_0_4,,completion,,34236,34250.7,34252.04,39122.62,4870.580000000002,39133,2021-10-25T19:24:54.133Z,39147.38,1635181311,full,ni_sequenzen,NI_Sequenzen,,4,,,,,,,,,,,,
,Move,canvas.Screen,0_3_0_5_0_0,down,response,,39146,39146.04,39147.38,39217,69.62000000000262,39232,2021-10-25T19:24:54.231Z,39239.74,1635181311,full,ni_sequenzen,NI_Sequenzen,1,5,,,,,,,,,,,,
,Move,canvas.Screen,0_3_0_5_0_1,left,response,,39236,39236.38,39239.74,39301,61.26000000000204,39315,2021-10-25T19:24:54.315Z,39323.7,1635181311,full,ni_sequenzen,NI_Sequenzen,2,5,,,,,,,,,,,,
,Move,canvas.Screen,0_3_0_5_0_2,right,response,,39320,39319.94,39323.7,39517,193.3000000000029,39532,2021-10-25T19:24:54.532Z,39540.34,1635181311,full,ni_sequenzen,NI_Sequenzen,3,5,,,,,,,,,,,,
,Move,canvas.Screen,0_3_0_5_0_3,down,response,,39538,39537.76,39540.34,39653,112.66000000000349,39668,2021-10-25T19:24:54.667Z,39690.46,1635181311,full,ni_sequenzen,NI_Sequenzen,4,5,,,,,,,,,,,,
,Move,canvas.Screen,0_3_0_5_0_4,left,response,,39673,39672.58,39690.46,39697,6.540000000000873,39712,2021-10-25T19:24:54.712Z,39772.94,1635181311,full,ni_sequenzen,NI_Sequenzen,5,5,,,,,,,,,,,,
,Move,canvas.Screen,0_3_0_5_0_5,-999,skipped,,39718,,,39697,,39718,2021-10-25T19:24:54.718Z,39772.94,1635181311,full,ni_sequenzen,NI_Sequenzen,6,5,,,,,,,,,,,,
,Move,canvas.Screen,0_3_0_5_0_6,-999,skipped,,39724,,,39697,,39724,2021-10-25T19:24:54.723Z,39772.94,1635181311,full,ni_sequenzen,NI_Sequenzen,7,5,,,,,,,,,,,,
,Move,canvas.Screen,0_3_0_5_0_7,-999,skipped,,39729,,,39697,,39729,2021-10-25T19:24:54.728Z,39772.94,1635181311,full,ni_sequenzen,NI_Sequenzen,8,5,,,,,,,,,,,,
,Move,canvas.Screen,0_3_0_5_0_8,-999,skipped,,39733,,,39697,,39733,2021-10-25T19:24:54.733Z,39772.94,1635181311,full,ni_sequenzen,NI_Sequenzen,9,5,,,,,,,,,,,,
,Move,canvas.Screen,0_3_0_5_0_9,-999,skipped,,39738,,,39697,,39738,2021-10-25T19:24:54.738Z,39772.94,1635181311,full,ni_sequenzen,NI_Sequenzen,10,5,,,,,,,,,,,,
,Move,canvas.Screen,0_3_0_5_0_10,-999,skipped,,39744,,,39697,,39744,2021-10-25T19:24:54.743Z,39772.94,1635181311,full,ni_sequenzen,NI_Sequenzen,11,5,,,,,,,,,,,,
,Move,canvas.Screen,0_3_0_5_0_11,-999,skipped,,39748,,,39697,,39748,2021-10-25T19:24:54.748Z,39772.94,1635181311,full,ni_sequenzen,NI_Sequenzen,12,5,,,,,,,,,,,,
,Move,canvas.Screen,0_3_0_5_0_12,-999,skipped,,39753,,,39697,,39753,2021-10-25T19:24:54.752Z,39772.94,1635181311,full,ni_sequenzen,NI_Sequenzen,13,5,,,,,,,,,,,,
,Move,canvas.Screen,0_3_0_5_0_13,-999,skipped,,39757,,,39697,,39757,2021-10-25T19:24:54.756Z,39772.94,1635181311,full,ni_sequenzen,NI_Sequenzen,14,5,,,,,,,,,,,,
,Move,canvas.Screen,0_3_0_5_0_14,-999,skipped,,39763,,,39697,,39763,2021-10-25T19:24:54.762Z,39772.94,1635181311,full,ni_sequenzen,NI_Sequenzen,15,5,,,,,,,,,,,,
,Loop,flow.Loop,0_3_0_5_0,-999,completion,,39141,39146.04,39147.38,39697,549.6200000000026,39763,2021-10-25T19:24:54.763Z,39772.94,1635181311,full,ni_sequenzen,NI_Sequenzen,,5,,,,,,,,,,,,
,Feedback,canvas.Screen,0_3_0_5_1,,timeout,,39766,39766.24,39772.94,43757.08,4023.220000000001,43769,2021-10-25T19:24:58.769Z,43796.16,1635181311,full,ni_sequenzen,NI_Sequenzen,,5,,,,,,,,,,,,
,Trial,flow.Sequence,0_3_0_5,,completion,,39134,39146.04,39147.38,43757.08,4609.700000000004,43771,2021-10-25T19:24:58.770Z,43797.36,1635181311,full,ni_sequenzen,NI_Sequenzen,,5,,,,,,,,,,,,
,Move,canvas.Screen,0_3_0_6_0_0,down,response,,43796,43796.16,43797.36,43996,198.63999999999942,44010,2021-10-25T19:24:59.009Z,44022.28,1635181311,full,ni_sequenzen,NI_Sequenzen,1,6,,,,,,,,,,,,
,Move,canvas.Screen,0_3_0_6_0_1,left,response,,44020,,,44016,,44030,2021-10-25T19:24:59.030Z,44056.88,1635181311,full,ni_sequenzen,NI_Sequenzen,2,6,,,,,,,,,,,,
,Move,canvas.Screen,0_3_0_6_0_2,right,response,,44039,44022.28,44056.88,44231,174.12000000000262,44246,2021-10-25T19:24:59.245Z,44256.94,1635181311,full,ni_sequenzen,NI_Sequenzen,3,6,,,,,,,,,,,,
,Move,canvas.Screen,0_3_0_6_0_3,down,response,,44255,44254.96,44256.94,44376,119.05999999999767,44390,2021-10-25T19:24:59.390Z,44406.36,1635181311,full,ni_sequenzen,NI_Sequenzen,4,6,,,,,,,,,,,,
,Move,canvas.Screen,0_3_0_6_0_4,left,response,,44401,44401.26,44406.36,44424,17.639999999999418,44439,2021-10-25T19:24:59.439Z,44505.94,1635181311,full,ni_sequenzen,NI_Sequenzen,5,6,,,,,,,,,,,,
,Move,canvas.Screen,0_3_0_6_0_5,-999,skipped,,44447,,,44424,,44447,2021-10-25T19:24:59.447Z,44505.94,1635181311,full,ni_sequenzen,NI_Sequenzen,6,6,,,,,,,,,,,,
,Move,canvas.Screen,0_3_0_6_0_6,-999,skipped,,44453,,,44424,,44453,2021-10-25T19:24:59.453Z,44505.94,1635181311,full,ni_sequenzen,NI_Sequenzen,7,6,,,,,,,,,,,,
,Move,canvas.Screen,0_3_0_6_0_7,-999,skipped,,44458,,,44424,,44458,2021-10-25T19:24:59.458Z,44505.94,1635181311,full,ni_sequenzen,NI_Sequenzen,8,6,,,,,,,,,,,,
,Move,canvas.Screen,0_3_0_6_0_8,-999,skipped,,44463,,,44424,,44463,2021-10-25T19:24:59.462Z,44505.94,1635181311,full,ni_sequenzen,NI_Sequenzen,9,6,,,,,,,,,,,,
,Move,canvas.Screen,0_3_0_6_0_9,-999,skipped,,44467,,,44424,,44468,2021-10-25T19:24:59.467Z,44505.94,1635181311,full,ni_sequenzen,NI_Sequenzen,10,6,,,,,,,,,,,,
,Move,canvas.Screen,0_3_0_6_0_10,-999,skipped,,44471,,,44424,,44471,2021-10-25T19:24:59.471Z,44505.94,1635181311,full,ni_sequenzen,NI_Sequenzen,11,6,,,,,,,,,,,,
,Move,canvas.Screen,0_3_0_6_0_11,-999,skipped,,44477,,,44424,,44477,2021-10-25T19:24:59.477Z,44505.94,1635181311,full,ni_sequenzen,NI_Sequenzen,12,6,,,,,,,,,,,,
,Move,canvas.Screen,0_3_0_6_0_12,-999,skipped,,44481,,,44424,,44481,2021-10-25T19:24:59.481Z,44505.94,1635181311,full,ni_sequenzen,NI_Sequenzen,13,6,,,,,,,,,,,,
,Move,canvas.Screen,0_3_0_6_0_13,-999,skipped,,44487,,,44424,,44487,2021-10-25T19:24:59.487Z,44505.94,1635181311,full,ni_sequenzen,NI_Sequenzen,14,6,,,,,,,,,,,,
,Move,canvas.Screen,0_3_0_6_0_14,-999,skipped,,44491,,,44424,,44491,2021-10-25T19:24:59.490Z,44505.94,1635181311,full,ni_sequenzen,NI_Sequenzen,15,6,,,,,,,,,,,,
,Loop,flow.Loop,0_3_0_6_0,-999,completion,,43786,43796.16,43797.36,44424,626.6399999999994,44491,2021-10-25T19:24:59.490Z,44505.94,1635181311,full,ni_sequenzen,NI_Sequenzen,,6,,,,,,,,,,,,
,Feedback,canvas.Screen,0_3_0_6_1,,timeout,,44494,44494.06,44505.94,48490.32,4008.519999999997,48501,2021-10-25T19:25:03.501Z,48514.46,1635181311,full,ni_sequenzen,NI_Sequenzen,,6,,,,,,,,,,,,
,Trial,flow.Sequence,0_3_0_6,,completion,,43772,43796.16,43797.36,48490.32,4692.959999999999,48501,2021-10-25T19:25:03.501Z,48523.5,1635181311,full,ni_sequenzen,NI_Sequenzen,,6,,,,,,,,,,,,
,Move,canvas.Screen,0_3_0_7_0_0,right,response,,48514,48514.46,48523.5,48926,402.5,48939,2021-10-25T19:25:03.939Z,48945.4,1635181311,full,ni_sequenzen,NI_Sequenzen,1,7,,,,,,,,,,,,
,Move,canvas.Screen,0_3_0_7_0_1,down,response,,48945,,,48946,,48953,2021-10-25T19:25:03.953Z,48990.3,1635181311,full,ni_sequenzen,NI_Sequenzen,2,7,,,,,,,,,,,,
,Move,canvas.Screen,0_3_0_7_0_2,left,response,,48958,48973.34,48990.3,49169,178.6999999999971,49184,2021-10-25T19:25:04.183Z,49190.14,1635181311,full,ni_sequenzen,NI_Sequenzen,3,7,,,,,,,,,,,,
,Move,canvas.Screen,0_3_0_7_0_3,right,response,,49190,49189.16,49190.14,49362,171.86000000000058,49377,2021-10-25T19:25:04.377Z,49435.92,1635181311,full,ni_sequenzen,NI_Sequenzen,4,7,,,,,,,,,,,,
,Move,canvas.Screen,0_3_0_7_0_4,-999,skipped,,49383,,,49362,,49383,2021-10-25T19:25:04.383Z,49435.92,1635181311,full,ni_sequenzen,NI_Sequenzen,5,7,,,,,,,,,,,,
,Move,canvas.Screen,0_3_0_7_0_5,-999,skipped,,49391,,,49362,,49391,2021-10-25T19:25:04.391Z,49435.92,1635181311,full,ni_sequenzen,NI_Sequenzen,6,7,,,,,,,,,,,,
,Move,canvas.Screen,0_3_0_7_0_6,-999,skipped,,49399,,,49362,,49399,2021-10-25T19:25:04.399Z,49435.92,1635181311,full,ni_sequenzen,NI_Sequenzen,7,7,,,,,,,,,,,,
,Move,canvas.Screen,0_3_0_7_0_7,-999,skipped,,49403,,,49362,,49403,2021-10-25T19:25:04.403Z,49435.92,1635181311,full,ni_sequenzen,NI_Sequenzen,8,7,,,,,,,,,,,,
,Move,canvas.Screen,0_3_0_7_0_8,-999,skipped,,49408,,,49362,,49408,2021-10-25T19:25:04.407Z,49435.92,1635181311,full,ni_sequenzen,NI_Sequenzen,9,7,,,,,,,,,,,,
,Move,canvas.Screen,0_3_0_7_0_9,-999,skipped,,49412,,,49362,,49412,2021-10-25T19:25:04.411Z,49435.92,1635181311,full,ni_sequenzen,NI_Sequenzen,10,7,,,,,,,,,,,,
,Move,canvas.Screen,0_3_0_7_0_10,-999,skipped,,49415,,,49362,,49415,2021-10-25T19:25:04.415Z,49435.92,1635181311,full,ni_sequenzen,NI_Sequenzen,11,7,,,,,,,,,,,,
,Move,canvas.Screen,0_3_0_7_0_11,-999,skipped,,49419,,,49362,,49419,2021-10-25T19:25:04.419Z,49435.92,1635181311,full,ni_sequenzen,NI_Sequenzen,12,7,,,,,,,,,,,,
,Move,canvas.Screen,0_3_0_7_0_12,-999,skipped,,49422,,,49362,,49422,2021-10-25T19:25:04.422Z,49435.92,1635181311,full,ni_sequenzen,NI_Sequenzen,13,7,,,,,,,,,,,,
,Move,canvas.Screen,0_3_0_7_0_13,-999,skipped,,49426,,,49362,,49426,2021-10-25T19:25:04.426Z,49435.92,1635181311,full,ni_sequenzen,NI_Sequenzen,14,7,,,,,,,,,,,,
,Move,canvas.Screen,0_3_0_7_0_14,-999,skipped,,49430,,,49362,,49430,2021-10-25T19:25:04.429Z,49435.92,1635181311,full,ni_sequenzen,NI_Sequenzen,15,7,,,,,,,,,,,,
,Loop,flow.Loop,0_3_0_7_0,-999,completion,,48510,48514.46,48523.5,49362,838.5,49430,2021-10-25T19:25:04.430Z,49435.92,1635181311,full,ni_sequenzen,NI_Sequenzen,,7,,,,,,,,,,,,
,Feedback,canvas.Screen,0_3_0_7_1,,timeout,,49434,49434.02,49435.92,53423.58,4013.7400000000052,53435,2021-10-25T19:25:08.435Z,53449.66,1635181311,full,ni_sequenzen,NI_Sequenzen,,7,,,,,,,,,,,,
,Trial,flow.Sequence,0_3_0_7,,completion,,48502,48514.46,48523.5,53423.58,4900.080000000002,53435,2021-10-25T19:25:08.435Z,53456.78,1635181311,full,ni_sequenzen,NI_Sequenzen,,7,,,,,,,,,,,,
,Move,canvas.Screen,0_3_0_8_0_0,right,response,,53449,53449.66,53456.78,53665,208.22000000000116,53681,2021-10-25T19:25:08.680Z,53686.52,1635181311,full,ni_sequenzen,NI_Sequenzen,1,8,,,,,,,,,,,,
,Move,canvas.Screen,0_3_0_8_0_1,down,response,,53685,53685.26,53686.52,53818,131.4800000000032,53832,2021-10-25T19:25:08.832Z,53840.1,1635181311,full,ni_sequenzen,NI_Sequenzen,2,8,,,,,,,,,,,,
,Move,canvas.Screen,0_3_0_8_0_2,right,response,,53838,53837.94,53840.1,54081,240.90000000000146,54096,2021-10-25T19:25:09.096Z,54103.8,1635181311,full,ni_sequenzen,NI_Sequenzen,3,8,,,,,,,,,,,,
,Move,canvas.Screen,0_3_0_8_0_3,left,response,,54102,54102.4,54103.8,54253,149.1999999999971,54268,2021-10-25T19:25:09.268Z,54322.26,1635181311,full,ni_sequenzen,NI_Sequenzen,4,8,,,,,,,,,,,,
,Move,canvas.Screen,0_3_0_8_0_4,-999,skipped,,54273,,,54253,,54274,2021-10-25T19:25:09.273Z,54322.26,1635181311,full,ni_sequenzen,NI_Sequenzen,5,8,,,,,,,,,,,,
,Move,canvas.Screen,0_3_0_8_0_5,-999,skipped,,54282,,,54253,,54282,2021-10-25T19:25:09.282Z,54322.26,1635181311,full,ni_sequenzen,NI_Sequenzen,6,8,,,,,,,,,,,,
,Move,canvas.Screen,0_3_0_8_0_6,-999,skipped,,54286,,,54253,,54287,2021-10-25T19:25:09.286Z,54322.26,1635181311,full,ni_sequenzen,NI_Sequenzen,7,8,,,,,,,,,,,,
,Move,canvas.Screen,0_3_0_8_0_7,-999,skipped,,54290,,,54253,,54290,2021-10-25T19:25:09.291Z,54322.26,1635181311,full,ni_sequenzen,NI_Sequenzen,8,8,,,,,,,,,,,,
,Move,canvas.Screen,0_3_0_8_0_8,-999,skipped,,54294,,,54253,,54294,2021-10-25T19:25:09.295Z,54322.26,1635181311,full,ni_sequenzen,NI_Sequenzen,9,8,,,,,,,,,,,,
,Move,canvas.Screen,0_3_0_8_0_9,-999,skipped,,54299,,,54253,,54299,2021-10-25T19:25:09.299Z,54322.26,1635181311,full,ni_sequenzen,NI_Sequenzen,10,8,,,,,,,,,,,,
,Move,canvas.Screen,0_3_0_8_0_10,-999,skipped,,54302,,,54253,,54303,2021-10-25T19:25:09.303Z,54322.26,1635181311,full,ni_sequenzen,NI_Sequenzen,11,8,,,,,,,,,,,,
,Move,canvas.Screen,0_3_0_8_0_11,-999,skipped,,54308,,,54253,,54308,2021-10-25T19:25:09.308Z,54322.26,1635181311,full,ni_sequenzen,NI_Sequenzen,12,8,,,,,,,,,,,,
,Move,canvas.Screen,0_3_0_8_0_12,-999,skipped,,54312,,,54253,,54312,2021-10-25T19:25:09.312Z,54322.26,1635181311,full,ni_sequenzen,NI_Sequenzen,13,8,,,,,,,,,,,,
,Move,canvas.Screen,0_3_0_8_0_13,-999,skipped,,54316,,,54253,,54316,2021-10-25T19:25:09.315Z,54322.26,1635181311,full,ni_sequenzen,NI_Sequenzen,14,8,,,,,,,,,,,,
,Move,canvas.Screen,0_3_0_8_0_14,-999,skipped,,54319,,,54253,,54319,2021-10-25T19:25:09.319Z,54322.26,1635181311,full,ni_sequenzen,NI_Sequenzen,15,8,,,,,,,,,,,,
,Loop,flow.Loop,0_3_0_8_0,-999,completion,,53444,53449.66,53456.78,54253,796.2200000000012,54319,2021-10-25T19:25:09.319Z,54322.26,1635181311,full,ni_sequenzen,NI_Sequenzen,,8,,,,,,,,,,,,
,Feedback,canvas.Screen,0_3_0_8_1,,timeout,,54322,54322.14,54322.26,58305.8,4004.3799999999974,58316,2021-10-25T19:25:13.316Z,58326.64,1635181311,full,ni_sequenzen,NI_Sequenzen,,8,,,,,,,,,,,,
,Trial,flow.Sequence,0_3_0_8,,completion,,53435,53449.66,53456.78,58305.8,4849.020000000004,58317,2021-10-25T19:25:13.316Z,58339.9,1635181311,full,ni_sequenzen,NI_Sequenzen,,8,,,,,,,,,,,,
,Move,canvas.Screen,0_3_0_9_0_0,left,response,,58327,58326.64,58339.9,58500,160.09999999999854,58515,2021-10-25T19:25:13.515Z,58523.2,1635181311,full,ni_sequenzen,NI_Sequenzen,1,9,,,,,,,,,,,,
,Move,canvas.Screen,0_3_0_9_0_1,right,response,,58520,58520,58523.2,58670,146.8000000000029,58685,2021-10-25T19:25:13.684Z,58705.68,1635181311,full,ni_sequenzen,NI_Sequenzen,2,9,,,,,,,,,,,,
,Move,canvas.Screen,0_3_0_9_0_2,down,response,,58690,58689.46,58705.68,58759,53.31999999999971,58773,2021-10-25T19:25:13.772Z,58779.28,1635181311,full,ni_sequenzen,NI_Sequenzen,3,9,,,,,,,,,,,,
,Move,canvas.Screen,0_3_0_9_0_3,left,response,,58778,58777.92,58779.28,58827,47.720000000001164,58842,2021-10-25T19:25:13.841Z,58905.54,1635181311,full,ni_sequenzen,NI_Sequenzen,4,9,,,,,,,,,,,,
,Move,canvas.Screen,0_3_0_9_0_4,-999,skipped,,58846,,,58827,,58847,2021-10-25T19:25:13.847Z,58905.54,1635181311,full,ni_sequenzen,NI_Sequenzen,5,9,,,,,,,,,,,,
,Move,canvas.Screen,0_3_0_9_0_5,-999,skipped,,58855,,,58827,,58855,2021-10-25T19:25:13.855Z,58905.54,1635181311,full,ni_sequenzen,NI_Sequenzen,6,9,,,,,,,,,,,,
,Move,canvas.Screen,0_3_0_9_0_6,-999,skipped,,58859,,,58827,,58859,2021-10-25T19:25:13.859Z,58905.54,1635181311,full,ni_sequenzen,NI_Sequenzen,7,9,,,,,,,,,,,,
,Move,canvas.Screen,0_3_0_9_0_7,-999,skipped,,58863,,,58827,,58863,2021-10-25T19:25:13.863Z,58905.54,1635181311,full,ni_sequenzen,NI_Sequenzen,8,9,,,,,,,,,,,,
,Move,canvas.Screen,0_3_0_9_0_8,-999,skipped,,58867,,,58827,,58867,2021-10-25T19:25:13.867Z,58905.54,1635181311,full,ni_sequenzen,NI_Sequenzen,9,9,,,,,,,,,,,,
,Move,canvas.Screen,0_3_0_9_0_9,-999,skipped,,58870,,,58827,,58870,2021-10-25T19:25:13.871Z,58905.54,1635181311,full,ni_sequenzen,NI_Sequenzen,10,9,,,,,,,,,,,,
,Move,canvas.Screen,0_3_0_9_0_10,-999,skipped,,58875,,,58827,,58875,2021-10-25T19:25:13.874Z,58905.54,1635181311,full,ni_sequenzen,NI_Sequenzen,11,9,,,,,,,,,,,,
,Move,canvas.Screen,0_3_0_9_0_11,-999,skipped,,58878,,,58827,,58878,2021-10-25T19:25:13.878Z,58905.54,1635181311,full,ni_sequenzen,NI_Sequenzen,12,9,,,,,,,,,,,,
,Move,canvas.Screen,0_3_0_9_0_12,-999,skipped,,58881,,,58827,,58881,2021-10-25T19:25:13.881Z,58905.54,1635181311,full,ni_sequenzen,NI_Sequenzen,13,9,,,,,,,,,,,,
,Move,canvas.Screen,0_3_0_9_0_13,-999,skipped,,58884,,,58827,,58884,2021-10-25T19:25:13.885Z,58905.54,1635181311,full,ni_sequenzen,NI_Sequenzen,14,9,,,,,,,,,,,,
,Move,canvas.Screen,0_3_0_9_0_14,-999,skipped,,58888,,,58827,,58888,2021-10-25T19:25:13.887Z,58905.54,1635181311,full,ni_sequenzen,NI_Sequenzen,15,9,,,,,,,,,,,,
,Loop,flow.Loop,0_3_0_9_0,-999,completion,,58322,58326.64,58339.9,58827,487.09999999999854,58888,2021-10-25T19:25:13.888Z,58905.54,1635181311,full,ni_sequenzen,NI_Sequenzen,,9,,,,,,,,,,,,
,Feedback,canvas.Screen,0_3_0_9_1,,timeout,,58891,58890.62,58905.54,62890.06,4060.220000000001,62901,2021-10-25T19:25:17.901Z,62965.76,1635181311,full,ni_sequenzen,NI_Sequenzen,,9,,,,,,,,,,,,
,Trial,flow.Sequence,0_3_0_9,,completion,,58317,58326.64,58339.9,62890.06,4550.159999999996,62901,2021-10-25T19:25:17.901Z,62967.28,1635181311,full,ni_sequenzen,NI_Sequenzen,,9,,,,,,,,,,,,
,Block,flow.Loop,0_3_0,,completion,,14517,14526.34,14527.86,62890.06,48362.2,62902,2021-10-25T19:25:17.901Z,62967.28,1635181311,full,ni_sequenzen,NI_Sequenzen,,,,,,,,,,,,,,
,Training_II,flow.Sequence,0_3,,completion,,14509,14526.34,14527.86,62890.06,48362.2,62902,2021-10-25T19:25:17.901Z,62967.28,1635181311,full,ni_sequenzen,NI_Sequenzen,,,,,,,,,,,,,,
,Screen_1,canvas.Screen,0_4_0_0,cont,response,1,62966,62965.76,62967.28,63231,263.72000000000116,63245,2021-10-25T19:25:18.245Z,63248.3,1635181311,full,ni_sequenzen,NI_Sequenzen,,,,,,,,,,,,,,
,Screen_2,canvas.Screen,0_4_0_1,cont,response,1,63247,63246.82,63248.3,63731,482.6999999999971,63746,2021-10-25T19:25:18.746Z,63825.18,1635181311,full,ni_sequenzen,NI_Sequenzen,,,,,,,,,,,,,,
,Screen_3,canvas.Screen,0_4_0_2,cont,response,1,63824,63823.8,63825.18,63953,127.81999999999971,63967,2021-10-25T19:25:18.968Z,64074.2,1635181311,full,ni_sequenzen,NI_Sequenzen,,,,,,,,,,,,,,
,Sequence,flow.Sequence,0_4_0,,completion,1,62923,62965.76,62967.28,63953,985.7200000000012,63968,2021-10-25T19:25:18.968Z,64074.2,1635181311,full,ni_sequenzen,NI_Sequenzen,,,,,,,,,,,,,,
,Screen_1,canvas.Screen,0_4_1_0,,skipped,2,63969,,,63970,,63970,2021-10-25T19:25:18.969Z,64074.2,1635181311,full,ni_sequenzen,NI_Sequenzen,,,,,,,,,,,,,,
,Screen_2,canvas.Screen,0_4_1_1,,skipped,2,63971,,,63970,,63971,2021-10-25T19:25:18.971Z,64074.2,1635181311,full,ni_sequenzen,NI_Sequenzen,,,,,,,,,,,,,,
,Screen_3,canvas.Screen,0_4_1_2,,skipped,2,63972,,,63970,,63972,2021-10-25T19:25:18.972Z,64074.2,1635181311,full,ni_sequenzen,NI_Sequenzen,,,,,,,,,,,,,,
,Sequence,flow.Sequence,0_4_1,,completion,2,63968,,,63970,,63972,2021-10-25T19:25:18.972Z,64074.2,1635181311,full,ni_sequenzen,NI_Sequenzen,,,,,,,,,,,,,,
,Screen_1,canvas.Screen,0_4_2_0,,skipped,3,63973,,,63973,,63973,2021-10-25T19:25:18.974Z,64074.2,1635181311,full,ni_sequenzen,NI_Sequenzen,,,,,,,,,,,,,,
,Screen_2,canvas.Screen,0_4_2_1,,skipped,3,63975,,,63973,,63975,2021-10-25T19:25:18.974Z,64074.2,1635181311,full,ni_sequenzen,NI_Sequenzen,,,,,,,,,,,,,,
,Screen_3,canvas.Screen,0_4_2_2,,skipped,3,63976,,,63973,,63976,2021-10-25T19:25:18.975Z,64074.2,1635181311,full,ni_sequenzen,NI_Sequenzen,,,,,,,,,,,,,,
,Sequence,flow.Sequence,0_4_2,,completion,3,63972,,,63973,,63976,2021-10-25T19:25:18.976Z,64074.2,1635181311,full,ni_sequenzen,NI_Sequenzen,,,,,,,,,,,,,,
,Screen_1,canvas.Screen,0_4_3_0,,skipped,4,63977,,,63977,,63977,2021-10-25T19:25:18.977Z,64074.2,1635181311,full,ni_sequenzen,NI_Sequenzen,,,,,,,,,,,,,,
,Screen_2,canvas.Screen,0_4_3_1,,skipped,4,63978,,,63977,,63978,2021-10-25T19:25:18.978Z,64074.2,1635181311,full,ni_sequenzen,NI_Sequenzen,,,,,,,,,,,,,,
,Screen_3,canvas.Screen,0_4_3_2,,skipped,4,63979,,,63977,,63980,2021-10-25T19:25:18.979Z,64074.2,1635181311,full,ni_sequenzen,NI_Sequenzen,,,,,,,,,,,,,,
,Sequence,flow.Sequence,0_4_3,,completion,4,63976,,,63977,,63980,2021-10-25T19:25:18.979Z,64074.2,1635181311,full,ni_sequenzen,NI_Sequenzen,,,,,,,,,,,,,,
,Screen_1,canvas.Screen,0_4_4_0,,skipped,5,63981,,,63981,,63981,2021-10-25T19:25:18.981Z,64074.2,1635181311,full,ni_sequenzen,NI_Sequenzen,,,,,,,,,,,,,,
,Screen_2,canvas.Screen,0_4_4_1,,skipped,5,63982,,,63981,,63982,2021-10-25T19:25:18.982Z,64074.2,1635181311,full,ni_sequenzen,NI_Sequenzen,,,,,,,,,,,,,,
,Screen_3,canvas.Screen,0_4_4_2,,skipped,5,63983,,,63981,,63983,2021-10-25T19:25:18.982Z,64074.2,1635181311,full,ni_sequenzen,NI_Sequenzen,,,,,,,,,,,,,,
,Sequence,flow.Sequence,0_4_4,,completion,5,63980,,,63981,,63983,2021-10-25T19:25:18.982Z,64074.2,1635181311,full,ni_sequenzen,NI_Sequenzen,,,,,,,,,,,,,,
,Screen_1,canvas.Screen,0_4_5_0,,skipped,6,63984,,,63984,,63984,2021-10-25T19:25:18.984Z,64074.2,1635181311,full,ni_sequenzen,NI_Sequenzen,,,,,,,,,,,,,,
,Screen_2,canvas.Screen,0_4_5_1,,skipped,6,63985,,,63984,,63985,2021-10-25T19:25:18.986Z,64074.2,1635181311,full,ni_sequenzen,NI_Sequenzen,,,,,,,,,,,,,,
,Screen_3,canvas.Screen,0_4_5_2,,skipped,6,63987,,,63984,,63987,2021-10-25T19:25:18.987Z,64074.2,1635181311,full,ni_sequenzen,NI_Sequenzen,,,,,,,,,,,,,,
,Sequence,flow.Sequence,0_4_5,,completion,6,63984,,,63984,,63987,2021-10-25T19:25:18.987Z,64074.2,1635181311,full,ni_sequenzen,NI_Sequenzen,,,,,,,,,,,,,,
,Screen_1,canvas.Screen,0_4_6_0,,skipped,7,63989,,,63989,,63989,2021-10-25T19:25:18.988Z,64074.2,1635181311,full,ni_sequenzen,NI_Sequenzen,,,,,,,,,,,,,,
,Screen_2,canvas.Screen,0_4_6_1,,skipped,7,63990,,,63989,,63990,2021-10-25T19:25:18.990Z,64074.2,1635181311,full,ni_sequenzen,NI_Sequenzen,,,,,,,,,,,,,,
,Screen_3,canvas.Screen,0_4_6_2,,skipped,7,63991,,,63989,,63991,2021-10-25T19:25:18.991Z,64074.2,1635181311,full,ni_sequenzen,NI_Sequenzen,,,,,,,,,,,,,,
,Sequence,flow.Sequence,0_4_6,,completion,7,63987,,,63989,,63991,2021-10-25T19:25:18.991Z,64074.2,1635181311,full,ni_sequenzen,NI_Sequenzen,,,,,,,,,,,,,,
,Screen_1,canvas.Screen,0_4_7_0,,skipped,8,63992,,,63992,,63992,2021-10-25T19:25:18.991Z,64074.2,1635181311,full,ni_sequenzen,NI_Sequenzen,,,,,,,,,,,,,,
,Screen_2,canvas.Screen,0_4_7_1,,skipped,8,63993,,,63992,,63993,2021-10-25T19:25:18.992Z,64074.2,1635181311,full,ni_sequenzen,NI_Sequenzen,,,,,,,,,,,,,,
,Screen_3,canvas.Screen,0_4_7_2,,skipped,8,63994,,,63992,,63994,2021-10-25T19:25:18.994Z,64074.2,1635181311,full,ni_sequenzen,NI_Sequenzen,,,,,,,,,,,,,,
,Sequence,flow.Sequence,0_4_7,,completion,8,63991,,,63992,,63994,2021-10-25T19:25:18.994Z,64074.2,1635181311,full,ni_sequenzen,NI_Sequenzen,,,,,,,,,,,,,,
,Screen_1,canvas.Screen,0_4_8_0,,skipped,9,63995,,,63995,,63995,2021-10-25T19:25:18.995Z,64074.2,1635181311,full,ni_sequenzen,NI_Sequenzen,,,,,,,,,,,,,,
,Screen_2,canvas.Screen,0_4_8_1,,skipped,9,63996,,,63995,,63996,2021-10-25T19:25:18.996Z,64074.2,1635181311,full,ni_sequenzen,NI_Sequenzen,,,,,,,,,,,,,,
,Screen_3,canvas.Screen,0_4_8_2,,skipped,9,63997,,,63995,,63997,2021-10-25T19:25:18.997Z,64074.2,1635181311,full,ni_sequenzen,NI_Sequenzen,,,,,,,,,,,,,,
,Sequence,flow.Sequence,0_4_8,,completion,9,63994,,,63995,,63997,2021-10-25T19:25:18.997Z,64074.2,1635181311,full,ni_sequenzen,NI_Sequenzen,,,,,,,,,,,,,,
,Screen_1,canvas.Screen,0_4_9_0,,skipped,10,63999,,,63999,,63999,2021-10-25T19:25:18.998Z,64074.2,1635181311,full,ni_sequenzen,NI_Sequenzen,,,,,,,,,,,,,,
,Screen_2,canvas.Screen,0_4_9_1,,skipped,10,63999,,,63999,,63999,2021-10-25T19:25:18.999Z,64074.2,1635181311,full,ni_sequenzen,NI_Sequenzen,,,,,,,,,,,,,,
,Screen_3,canvas.Screen,0_4_9_2,,skipped,10,64000,,,63999,,64000,2021-10-25T19:25:19.000Z,64074.2,1635181311,full,ni_sequenzen,NI_Sequenzen,,,,,,,,,,,,,,
,Sequence,flow.Sequence,0_4_9,,completion,10,63998,,,63999,,64000,2021-10-25T19:25:19.000Z,64074.2,1635181311,full,ni_sequenzen,NI_Sequenzen,,,,,,,,,,,,,,
,Screen_1,canvas.Screen,0_4_10_0,,skipped,11,64002,,,64002,,64002,2021-10-25T19:25:19.001Z,64074.2,1635181311,full,ni_sequenzen,NI_Sequenzen,,,,,,,,,,,,,,
,Screen_2,canvas.Screen,0_4_10_1,,skipped,11,64002,,,64002,,64002,2021-10-25T19:25:19.002Z,64074.2,1635181311,full,ni_sequenzen,NI_Sequenzen,,,,,,,,,,,,,,
,Screen_3,canvas.Screen,0_4_10_2,,skipped,11,64003,,,64002,,64003,2021-10-25T19:25:19.003Z,64074.2,1635181311,full,ni_sequenzen,NI_Sequenzen,,,,,,,,,,,,,,
,Sequence,flow.Sequence,0_4_10,,completion,11,64001,,,64002,,64003,2021-10-25T19:25:19.003Z,64074.2,1635181311,full,ni_sequenzen,NI_Sequenzen,,,,,,,,,,,,,,
,Screen_1,canvas.Screen,0_4_11_0,,skipped,12,64005,,,64005,,64005,2021-10-25T19:25:19.004Z,64074.2,1635181311,full,ni_sequenzen,NI_Sequenzen,,,,,,,,,,,,,,
,Screen_2,canvas.Screen,0_4_11_1,,skipped,12,64005,,,64005,,64005,2021-10-25T19:25:19.004Z,64074.2,1635181311,full,ni_sequenzen,NI_Sequenzen,,,,,,,,,,,,,,
,Screen_3,canvas.Screen,0_4_11_2,,skipped,12,64006,,,64005,,64006,2021-10-25T19:25:19.006Z,64074.2,1635181311,full,ni_sequenzen,NI_Sequenzen,,,,,,,,,,,,,,
,Sequence,flow.Sequence,0_4_11,,completion,12,64004,,,64005,,64006,2021-10-25T19:25:19.006Z,64074.2,1635181311,full,ni_sequenzen,NI_Sequenzen,,,,,,,,,,,,,,
,Screen_1,canvas.Screen,0_4_12_0,,skipped,13,64007,,,64007,,64007,2021-10-25T19:25:19.007Z,64074.2,1635181311,full,ni_sequenzen,NI_Sequenzen,,,,,,,,,,,,,,
,Screen_2,canvas.Screen,0_4_12_1,,skipped,13,64008,,,64007,,64008,2021-10-25T19:25:19.008Z,64074.2,1635181311,full,ni_sequenzen,NI_Sequenzen,,,,,,,,,,,,,,
,Screen_3,canvas.Screen,0_4_12_2,,skipped,13,64008,,,64007,,64008,2021-10-25T19:25:19.009Z,64074.2,1635181311,full,ni_sequenzen,NI_Sequenzen,,,,,,,,,,,,,,
,Sequence,flow.Sequence,0_4_12,,completion,13,64006,,,64007,,64009,2021-10-25T19:25:19.009Z,64074.2,1635181311,full,ni_sequenzen,NI_Sequenzen,,,,,,,,,,,,,,
,Screen_1,canvas.Screen,0_4_13_0,,skipped,14,64010,,,64010,,64010,2021-10-25T19:25:19.010Z,64074.2,1635181311,full,ni_sequenzen,NI_Sequenzen,,,,,,,,,,,,,,
,Screen_2,canvas.Screen,0_4_13_1,,skipped,14,64011,,,64010,,64011,2021-10-25T19:25:19.010Z,64074.2,1635181311,full,ni_sequenzen,NI_Sequenzen,,,,,,,,,,,,,,
,Screen_3,canvas.Screen,0_4_13_2,,skipped,14,64011,,,64010,,64011,2021-10-25T19:25:19.012Z,64074.2,1635181311,full,ni_sequenzen,NI_Sequenzen,,,,,,,,,,,,,,
,Sequence,flow.Sequence,0_4_13,,completion,14,64009,,,64010,,64012,2021-10-25T19:25:19.012Z,64074.2,1635181311,full,ni_sequenzen,NI_Sequenzen,,,,,,,,,,,,,,
,Screen_1,canvas.Screen,0_4_14_0,,skipped,15,64013,,,64013,,64013,2021-10-25T19:25:19.012Z,64074.2,1635181311,full,ni_sequenzen,NI_Sequenzen,,,,,,,,,,,,,,
,Screen_2,canvas.Screen,0_4_14_1,,skipped,15,64013,,,64013,,64013,2021-10-25T19:25:19.014Z,64074.2,1635181311,full,ni_sequenzen,NI_Sequenzen,,,,,,,,,,,,,,
,Screen_3,canvas.Screen,0_4_14_2,,skipped,15,64014,,,64013,,64014,2021-10-25T19:25:19.014Z,64074.2,1635181311,full,ni_sequenzen,NI_Sequenzen,,,,,,,,,,,,,,
,Sequence,flow.Sequence,0_4_14,,completion,15,64012,,,64013,,64014,2021-10-25T19:25:19.015Z,64074.2,1635181311,full,ni_sequenzen,NI_Sequenzen,,,,,,,,,,,,,,
,Screen_1,canvas.Screen,0_4_15_0,,skipped,16,64015,,,64015,,64015,2021-10-25T19:25:19.015Z,64074.2,1635181311,full,ni_sequenzen,NI_Sequenzen,,,,,,,,,,,,,,
,Screen_2,canvas.Screen,0_4_15_1,,skipped,16,64016,,,64015,,64016,2021-10-25T19:25:19.016Z,64074.2,1635181311,full,ni_sequenzen,NI_Sequenzen,,,,,,,,,,,,,,
,Screen_3,canvas.Screen,0_4_15_2,,skipped,16,64017,,,64015,,64017,2021-10-25T19:25:19.017Z,64074.2,1635181311,full,ni_sequenzen,NI_Sequenzen,,,,,,,,,,,,,,
,Sequence,flow.Sequence,0_4_15,,completion,16,64015,,,64015,,64017,2021-10-25T19:25:19.017Z,64074.2,1635181311,full,ni_sequenzen,NI_Sequenzen,,,,,,,,,,,,,,
,Screen_1,canvas.Screen,0_4_16_0,,skipped,17,64018,,,64018,,64018,2021-10-25T19:25:19.018Z,64074.2,1635181311,full,ni_sequenzen,NI_Sequenzen,,,,,,,,,,,,,,
,Screen_2,canvas.Screen,0_4_16_1,,skipped,17,64019,,,64018,,64019,2021-10-25T19:25:19.019Z,64074.2,1635181311,full,ni_sequenzen,NI_Sequenzen,,,,,,,,,,,,,,
,Screen_3,canvas.Screen,0_4_16_2,,skipped,17,64020,,,64018,,64020,2021-10-25T19:25:19.020Z,64074.2,1635181311,full,ni_sequenzen,NI_Sequenzen,,,,,,,,,,,,,,
,Sequence,flow.Sequence,0_4_16,,completion,17,64018,,,64018,,64020,2021-10-25T19:25:19.020Z,64074.2,1635181311,full,ni_sequenzen,NI_Sequenzen,,,,,,,,,,,,,,
,Screen_1,canvas.Screen,0_4_17_0,,skipped,18,64021,,,64021,,64021,2021-10-25T19:25:19.021Z,64074.2,1635181311,full,ni_sequenzen,NI_Sequenzen,,,,,,,,,,,,,,
,Screen_2,canvas.Screen,0_4_17_1,,skipped,18,64021,,,64021,,64022,2021-10-25T19:25:19.021Z,64074.2,1635181311,full,ni_sequenzen,NI_Sequenzen,,,,,,,,,,,,,,
,Screen_3,canvas.Screen,0_4_17_2,,skipped,18,64022,,,64021,,64023,2021-10-25T19:25:19.022Z,64074.2,1635181311,full,ni_sequenzen,NI_Sequenzen,,,,,,,,,,,,,,
,Sequence,flow.Sequence,0_4_17,,completion,18,64020,,,64021,,64023,2021-10-25T19:25:19.022Z,64074.2,1635181311,full,ni_sequenzen,NI_Sequenzen,,,,,,,,,,,,,,
,Screen_1,canvas.Screen,0_4_18_0,,skipped,19,64023,,,64023,,64023,2021-10-25T19:25:19.023Z,64074.2,1635181311,full,ni_sequenzen,NI_Sequenzen,,,,,,,,,,,,,,
,Screen_2,canvas.Screen,0_4_18_1,,skipped,19,64024,,,64023,,64024,2021-10-25T19:25:19.024Z,64074.2,1635181311,full,ni_sequenzen,NI_Sequenzen,,,,,,,,,,,,,,
,Screen_3,canvas.Screen,0_4_18_2,,skipped,19,64025,,,64023,,64025,2021-10-25T19:25:19.025Z,64074.2,1635181311,full,ni_sequenzen,NI_Sequenzen,,,,,,,,,,,,,,
,Sequence,flow.Sequence,0_4_18,,completion,19,64023,,,64023,,64025,2021-10-25T19:25:19.025Z,64074.2,1635181311,full,ni_sequenzen,NI_Sequenzen,,,,,,,,,,,,,,
,Screen_1,canvas.Screen,0_4_19_0,,skipped,20,64026,,,64026,,64026,2021-10-25T19:25:19.026Z,64074.2,1635181311,full,ni_sequenzen,NI_Sequenzen,,,,,,,,,,,,,,
,Screen_2,canvas.Screen,0_4_19_1,,skipped,20,64028,,,64026,,64028,2021-10-25T19:25:19.027Z,64074.2,1635181311,full,ni_sequenzen,NI_Sequenzen,,,,,,,,,,,,,,
,Screen_3,canvas.Screen,0_4_19_2,,skipped,20,64028,,,64026,,64028,2021-10-25T19:25:19.028Z,64074.2,1635181311,full,ni_sequenzen,NI_Sequenzen,,,,,,,,,,,,,,
,Sequence,flow.Sequence,0_4_19,,completion,20,64026,,,64026,,64029,2021-10-25T19:25:19.028Z,64074.2,1635181311,full,ni_sequenzen,NI_Sequenzen,,,,,,,,,,,,,,
,Screen_1,canvas.Screen,0_4_20_0,,skipped,21,64029,,,64029,,64029,2021-10-25T19:25:19.029Z,64074.2,1635181311,full,ni_sequenzen,NI_Sequenzen,,,,,,,,,,,,,,
,Screen_2,canvas.Screen,0_4_20_1,,skipped,21,64030,,,64029,,64030,2021-10-25T19:25:19.030Z,64074.2,1635181311,full,ni_sequenzen,NI_Sequenzen,,,,,,,,,,,,,,
,Screen_3,canvas.Screen,0_4_20_2,,skipped,21,64031,,,64029,,64031,2021-10-25T19:25:19.030Z,64074.2,1635181311,full,ni_sequenzen,NI_Sequenzen,,,,,,,,,,,,,,
,Sequence,flow.Sequence,0_4_20,,completion,21,64029,,,64029,,64031,2021-10-25T19:25:19.031Z,64074.2,1635181311,full,ni_sequenzen,NI_Sequenzen,,,,,,,,,,,,,,
