meta,sender,sender_type,sender_id,response,ended_on,instrCount,time_run,time_render,time_show,time_end,duration,time_commit,timestamp,time_switch,openLabId,type,task,project,move,trialN,blockN_Train,blockN,moveCount,currPP,points,movesTrial,visitedFields,diff,reward,Strategie,Zweck,Probleme
[object Object],Screen_1,canvas.Screen,0_0_0_0,cont,response,1,1200.7999999523163,1191.511,1208.034,38356,37147.966,38359.90000009537,2021-11-01T14:53:28.095Z,38556.017,1635778362,full,ni_sequenzen,NI_Sequenzen,,,,,,,,,,,,,,
,Screen_2,canvas.Screen,0_0_0_1,cont,response,1,38547.700000047684,38539.746,38556.017,144167.5,105611.48300000001,144168.70000004768,2021-11-01T14:55:13.903Z,144516.805,1635778362,full,ni_sequenzen,NI_Sequenzen,,,,,,,,,,,,,,
,Screen_3,canvas.Screen,0_0_0_2,cont,response,1,144502,144500.445,144516.805,189609.20000004768,45092.39500004769,189610.29999995232,2021-11-01T14:55:59.336Z,189627.056,1635778362,full,ni_sequenzen,NI_Sequenzen,,,,,,,,,,,,,,
,Screen_4,canvas.Screen,0_0_0_3,cont,response,1,189614.70000004768,189609.847,189627.056,200956.70000004768,11329.644000047672,200957.5,2021-11-01T14:56:10.683Z,201128.865,1635778362,full,ni_sequenzen,NI_Sequenzen,,,,,,,,,,,,,,
,Sequence,flow.Sequence,0_0_0,,completion,1,1061.7000000476837,1191.511,1208.034,200956.70000004768,199748.66600004767,200961.90000009537,2021-11-01T14:56:10.687Z,201128.865,1635778362,full,ni_sequenzen,NI_Sequenzen,,,,,,,,,,,,,,
,Screen_1,canvas.Screen,0_0_1_0,,skipped,2,200962.90000009537,,,200962.90000009537,,200963,2021-11-01T14:56:10.688Z,201128.865,1635778362,full,ni_sequenzen,NI_Sequenzen,,,,,,,,,,,,,,
,Screen_2,canvas.Screen,0_0_1_1,,skipped,2,200963.5,,,200962.90000009537,,200963.59999990463,2021-11-01T14:56:10.689Z,201128.865,1635778362,full,ni_sequenzen,NI_Sequenzen,,,,,,,,,,,,,,
,Screen_3,canvas.Screen,0_0_1_2,,skipped,2,200964.09999990463,,,200962.90000009537,,200964.09999990463,2021-11-01T14:56:10.689Z,201128.865,1635778362,full,ni_sequenzen,NI_Sequenzen,,,,,,,,,,,,,,
,Screen_4,canvas.Screen,0_0_1_3,,skipped,2,200964.40000009537,,,200962.90000009537,,200964.59999990463,2021-11-01T14:56:10.690Z,201128.865,1635778362,full,ni_sequenzen,NI_Sequenzen,,,,,,,,,,,,,,
,Sequence,flow.Sequence,0_0_1,,completion,2,200962.40000009537,,,200962.90000009537,,200964.70000004768,2021-11-01T14:56:10.690Z,201128.865,1635778362,full,ni_sequenzen,NI_Sequenzen,,,,,,,,,,,,,,
,Screen_1,canvas.Screen,0_0_2_0,,skipped,3,200965.90000009537,,,200965.90000009537,,200966,2021-11-01T14:56:10.691Z,201128.865,1635778362,full,ni_sequenzen,NI_Sequenzen,,,,,,,,,,,,,,
,Screen_2,canvas.Screen,0_0_2_1,,skipped,3,200966.29999995232,,,200965.90000009537,,200966.40000009537,2021-11-01T14:56:10.692Z,201128.865,1635778362,full,ni_sequenzen,NI_Sequenzen,,,,,,,,,,,,,,
,Screen_3,canvas.Screen,0_0_2_2,,skipped,3,200966.79999995232,,,200965.90000009537,,200966.79999995232,2021-11-01T14:56:10.692Z,201128.865,1635778362,full,ni_sequenzen,NI_Sequenzen,,,,,,,,,,,,,,
,Screen_4,canvas.Screen,0_0_2_3,,skipped,3,200967.20000004768,,,200965.90000009537,,200967.20000004768,2021-11-01T14:56:10.692Z,201128.865,1635778362,full,ni_sequenzen,NI_Sequenzen,,,,,,,,,,,,,,
,Sequence,flow.Sequence,0_0_2,,completion,3,200964.79999995232,,,200965.90000009537,,200967.20000004768,2021-11-01T14:56:10.693Z,201128.865,1635778362,full,ni_sequenzen,NI_Sequenzen,,,,,,,,,,,,,,
,Screen_1,canvas.Screen,0_0_3_0,,skipped,4,200967.79999995232,,,200967.79999995232,,200967.79999995232,2021-11-01T14:56:10.693Z,201128.865,1635778362,full,ni_sequenzen,NI_Sequenzen,,,,,,,,,,,,,,
,Screen_2,canvas.Screen,0_0_3_1,,skipped,4,200968.09999990463,,,200967.79999995232,,200968.20000004768,2021-11-01T14:56:10.693Z,201128.865,1635778362,full,ni_sequenzen,NI_Sequenzen,,,,,,,,,,,,,,
,Screen_3,canvas.Screen,0_0_3_2,,skipped,4,200968.59999990463,,,200967.79999995232,,200968.59999990463,2021-11-01T14:56:10.694Z,201128.865,1635778362,full,ni_sequenzen,NI_Sequenzen,,,,,,,,,,,,,,
,Screen_4,canvas.Screen,0_0_3_3,,skipped,4,200968.90000009537,,,200967.79999995232,,200969,2021-11-01T14:56:10.694Z,201128.865,1635778362,full,ni_sequenzen,NI_Sequenzen,,,,,,,,,,,,,,
,Sequence,flow.Sequence,0_0_3,,completion,4,200967.40000009537,,,200967.79999995232,,200969,2021-11-01T14:56:10.694Z,201128.865,1635778362,full,ni_sequenzen,NI_Sequenzen,,,,,,,,,,,,,,
,Screen_1,canvas.Screen,0_0_4_0,,skipped,5,200969.5,,,200969.5,,200969.5,2021-11-01T14:56:10.695Z,201128.865,1635778362,full,ni_sequenzen,NI_Sequenzen,,,,,,,,,,,,,,
,Screen_2,canvas.Screen,0_0_4_1,,skipped,5,200969.90000009537,,,200969.5,,200969.90000009537,2021-11-01T14:56:10.695Z,201128.865,1635778362,full,ni_sequenzen,NI_Sequenzen,,,,,,,,,,,,,,
,Screen_3,canvas.Screen,0_0_4_2,,skipped,5,200970.29999995232,,,200969.5,,200970.29999995232,2021-11-01T14:56:10.696Z,201128.865,1635778362,full,ni_sequenzen,NI_Sequenzen,,,,,,,,,,,,,,
,Screen_4,canvas.Screen,0_0_4_3,,skipped,5,200970.79999995232,,,200969.5,,200970.90000009537,2021-11-01T14:56:10.696Z,201128.865,1635778362,full,ni_sequenzen,NI_Sequenzen,,,,,,,,,,,,,,
,Sequence,flow.Sequence,0_0_4,,completion,5,200969.09999990463,,,200969.5,,200971,2021-11-01T14:56:10.696Z,201128.865,1635778362,full,ni_sequenzen,NI_Sequenzen,,,,,,,,,,,,,,
,Screen_1,canvas.Screen,0_0_5_0,,skipped,6,200971.90000009537,,,200971.90000009537,,200971.90000009537,2021-11-01T14:56:10.697Z,201128.865,1635778362,full,ni_sequenzen,NI_Sequenzen,,,,,,,,,,,,,,
,Screen_2,canvas.Screen,0_0_5_1,,skipped,6,200972.20000004768,,,200971.90000009537,,200972.29999995232,2021-11-01T14:56:10.697Z,201128.865,1635778362,full,ni_sequenzen,NI_Sequenzen,,,,,,,,,,,,,,
,Screen_3,canvas.Screen,0_0_5_2,,skipped,6,200975.40000009537,,,200971.90000009537,,200975.40000009537,2021-11-01T14:56:10.701Z,201128.865,1635778362,full,ni_sequenzen,NI_Sequenzen,,,,,,,,,,,,,,
,Screen_4,canvas.Screen,0_0_5_3,,skipped,6,200975.90000009537,,,200971.90000009537,,200975.90000009537,2021-11-01T14:56:10.701Z,201128.865,1635778362,full,ni_sequenzen,NI_Sequenzen,,,,,,,,,,,,,,
,Sequence,flow.Sequence,0_0_5,,completion,6,200971.09999990463,,,200971.90000009537,,200976,2021-11-01T14:56:10.701Z,201128.865,1635778362,full,ni_sequenzen,NI_Sequenzen,,,,,,,,,,,,,,
,Screen_1,canvas.Screen,0_0_6_0,,skipped,7,200976.5,,,200976.5,,200976.5,2021-11-01T14:56:10.702Z,201128.865,1635778362,full,ni_sequenzen,NI_Sequenzen,,,,,,,,,,,,,,
,Screen_2,canvas.Screen,0_0_6_1,,skipped,7,200976.90000009537,,,200976.5,,200976.90000009537,2021-11-01T14:56:10.702Z,201128.865,1635778362,full,ni_sequenzen,NI_Sequenzen,,,,,,,,,,,,,,
,Screen_3,canvas.Screen,0_0_6_2,,skipped,7,200977.20000004768,,,200976.5,,200977.20000004768,2021-11-01T14:56:10.702Z,201128.865,1635778362,full,ni_sequenzen,NI_Sequenzen,,,,,,,,,,,,,,
,Screen_4,canvas.Screen,0_0_6_3,,skipped,7,200977.5,,,200976.5,,200977.59999990463,2021-11-01T14:56:10.703Z,201128.865,1635778362,full,ni_sequenzen,NI_Sequenzen,,,,,,,,,,,,,,
,Sequence,flow.Sequence,0_0_6,,completion,7,200976.20000004768,,,200976.5,,200977.59999990463,2021-11-01T14:56:10.703Z,201128.865,1635778362,full,ni_sequenzen,NI_Sequenzen,,,,,,,,,,,,,,
,Screen_1,canvas.Screen,0_0_7_0,,skipped,8,200978.09999990463,,,200978.09999990463,,200978.09999990463,2021-11-01T14:56:10.703Z,201128.865,1635778362,full,ni_sequenzen,NI_Sequenzen,,,,,,,,,,,,,,
,Screen_2,canvas.Screen,0_0_7_1,,skipped,8,200978.40000009537,,,200978.09999990463,,200978.40000009537,2021-11-01T14:56:10.704Z,201128.865,1635778362,full,ni_sequenzen,NI_Sequenzen,,,,,,,,,,,,,,
,Screen_3,canvas.Screen,0_0_7_2,,skipped,8,200979,,,200978.09999990463,,200979,2021-11-01T14:56:10.704Z,201128.865,1635778362,full,ni_sequenzen,NI_Sequenzen,,,,,,,,,,,,,,
,Screen_4,canvas.Screen,0_0_7_3,,skipped,8,200979.29999995232,,,200978.09999990463,,200979.29999995232,2021-11-01T14:56:10.705Z,201128.865,1635778362,full,ni_sequenzen,NI_Sequenzen,,,,,,,,,,,,,,
,Sequence,flow.Sequence,0_0_7,,completion,8,200977.70000004768,,,200978.09999990463,,200979.40000009537,2021-11-01T14:56:10.705Z,201128.865,1635778362,full,ni_sequenzen,NI_Sequenzen,,,,,,,,,,,,,,
,Screen_1,canvas.Screen,0_0_8_0,,skipped,9,200980,,,200980,,200980,2021-11-01T14:56:10.705Z,201128.865,1635778362,full,ni_sequenzen,NI_Sequenzen,,,,,,,,,,,,,,
,Screen_2,canvas.Screen,0_0_8_1,,skipped,9,200980.29999995232,,,200980,,200980.29999995232,2021-11-01T14:56:10.706Z,201128.865,1635778362,full,ni_sequenzen,NI_Sequenzen,,,,,,,,,,,,,,
,Screen_3,canvas.Screen,0_0_8_2,,skipped,9,200980.59999990463,,,200980,,200980.70000004768,2021-11-01T14:56:10.706Z,201128.865,1635778362,full,ni_sequenzen,NI_Sequenzen,,,,,,,,,,,,,,
,Screen_4,canvas.Screen,0_0_8_3,,skipped,9,200980.90000009537,,,200980,,200981,2021-11-01T14:56:10.706Z,201128.865,1635778362,full,ni_sequenzen,NI_Sequenzen,,,,,,,,,,,,,,
,Sequence,flow.Sequence,0_0_8,,completion,9,200979.5,,,200980,,200981.09999990463,2021-11-01T14:56:10.706Z,201128.865,1635778362,full,ni_sequenzen,NI_Sequenzen,,,,,,,,,,,,,,
,Screen_1,canvas.Screen,0_0_9_0,,skipped,10,200981.40000009537,,,200981.40000009537,,200981.40000009537,2021-11-01T14:56:10.707Z,201128.865,1635778362,full,ni_sequenzen,NI_Sequenzen,,,,,,,,,,,,,,
,Screen_2,canvas.Screen,0_0_9_1,,skipped,10,200982.20000004768,,,200981.40000009537,,200982.20000004768,2021-11-01T14:56:10.707Z,201128.865,1635778362,full,ni_sequenzen,NI_Sequenzen,,,,,,,,,,,,,,
,Screen_3,canvas.Screen,0_0_9_2,,skipped,10,200982.59999990463,,,200981.40000009537,,200982.59999990463,2021-11-01T14:56:10.708Z,201128.865,1635778362,full,ni_sequenzen,NI_Sequenzen,,,,,,,,,,,,,,
,Screen_4,canvas.Screen,0_0_9_3,,skipped,10,200982.90000009537,,,200981.40000009537,,200982.90000009537,2021-11-01T14:56:10.708Z,201128.865,1635778362,full,ni_sequenzen,NI_Sequenzen,,,,,,,,,,,,,,
,Sequence,flow.Sequence,0_0_9,,completion,10,200981.09999990463,,,200981.40000009537,,200983,2021-11-01T14:56:10.708Z,201128.865,1635778362,full,ni_sequenzen,NI_Sequenzen,,,,,,,,,,,,,,
,Screen_1,canvas.Screen,0_0_10_0,,skipped,11,200983.5,,,200983.5,,200983.5,2021-11-01T14:56:10.709Z,201128.865,1635778362,full,ni_sequenzen,NI_Sequenzen,,,,,,,,,,,,,,
,Screen_2,canvas.Screen,0_0_10_1,,skipped,11,200983.79999995232,,,200983.5,,200983.79999995232,2021-11-01T14:56:10.709Z,201128.865,1635778362,full,ni_sequenzen,NI_Sequenzen,,,,,,,,,,,,,,
,Screen_3,canvas.Screen,0_0_10_2,,skipped,11,200984.09999990463,,,200983.5,,200984.09999990463,2021-11-01T14:56:10.709Z,201128.865,1635778362,full,ni_sequenzen,NI_Sequenzen,,,,,,,,,,,,,,
,Screen_4,canvas.Screen,0_0_10_3,,skipped,11,200984.5,,,200983.5,,200984.5,2021-11-01T14:56:10.710Z,201128.865,1635778362,full,ni_sequenzen,NI_Sequenzen,,,,,,,,,,,,,,
,Sequence,flow.Sequence,0_0_10,,completion,11,200983.09999990463,,,200983.5,,200984.5,2021-11-01T14:56:10.710Z,201128.865,1635778362,full,ni_sequenzen,NI_Sequenzen,,,,,,,,,,,,,,
,Screen_1,canvas.Screen,0_0_11_0,,skipped,12,200984.90000009537,,,200984.90000009537,,200984.90000009537,2021-11-01T14:56:10.710Z,201128.865,1635778362,full,ni_sequenzen,NI_Sequenzen,,,,,,,,,,,,,,
,Screen_2,canvas.Screen,0_0_11_1,,skipped,12,200985.79999995232,,,200984.90000009537,,200986,2021-11-01T14:56:10.711Z,201128.865,1635778362,full,ni_sequenzen,NI_Sequenzen,,,,,,,,,,,,,,
,Screen_3,canvas.Screen,0_0_11_2,,skipped,12,200986.29999995232,,,200984.90000009537,,200986.29999995232,2021-11-01T14:56:10.712Z,201128.865,1635778362,full,ni_sequenzen,NI_Sequenzen,,,,,,,,,,,,,,
,Screen_4,canvas.Screen,0_0_11_3,,skipped,12,200986.70000004768,,,200984.90000009537,,200986.70000004768,2021-11-01T14:56:10.712Z,201128.865,1635778362,full,ni_sequenzen,NI_Sequenzen,,,,,,,,,,,,,,
,Sequence,flow.Sequence,0_0_11,,completion,12,200984.59999990463,,,200984.90000009537,,200986.79999995232,2021-11-01T14:56:10.712Z,201128.865,1635778362,full,ni_sequenzen,NI_Sequenzen,,,,,,,,,,,,,,
,Screen_1,canvas.Screen,0_0_12_0,,skipped,13,200987.40000009537,,,200987.40000009537,,200987.40000009537,2021-11-01T14:56:10.713Z,201128.865,1635778362,full,ni_sequenzen,NI_Sequenzen,,,,,,,,,,,,,,
,Screen_2,canvas.Screen,0_0_12_1,,skipped,13,200987.70000004768,,,200987.40000009537,,200987.70000004768,2021-11-01T14:56:10.713Z,201128.865,1635778362,full,ni_sequenzen,NI_Sequenzen,,,,,,,,,,,,,,
,Screen_3,canvas.Screen,0_0_12_2,,skipped,13,200988.70000004768,,,200987.40000009537,,200988.70000004768,2021-11-01T14:56:10.714Z,201128.865,1635778362,full,ni_sequenzen,NI_Sequenzen,,,,,,,,,,,,,,
,Screen_4,canvas.Screen,0_0_12_3,,skipped,13,200989,,,200987.40000009537,,200989,2021-11-01T14:56:10.714Z,201128.865,1635778362,full,ni_sequenzen,NI_Sequenzen,,,,,,,,,,,,,,
,Sequence,flow.Sequence,0_0_12,,completion,13,200987,,,200987.40000009537,,200989.09999990463,2021-11-01T14:56:10.714Z,201128.865,1635778362,full,ni_sequenzen,NI_Sequenzen,,,,,,,,,,,,,,
,Screen_1,canvas.Screen,0_0_13_0,,skipped,14,200989.70000004768,,,200989.70000004768,,200989.70000004768,2021-11-01T14:56:10.715Z,201128.865,1635778362,full,ni_sequenzen,NI_Sequenzen,,,,,,,,,,,,,,
,Screen_2,canvas.Screen,0_0_13_1,,skipped,14,200990.09999990463,,,200989.70000004768,,200990.09999990463,2021-11-01T14:56:10.715Z,201128.865,1635778362,full,ni_sequenzen,NI_Sequenzen,,,,,,,,,,,,,,
,Screen_3,canvas.Screen,0_0_13_2,,skipped,14,200990.40000009537,,,200989.70000004768,,200990.40000009537,2021-11-01T14:56:10.716Z,201128.865,1635778362,full,ni_sequenzen,NI_Sequenzen,,,,,,,,,,,,,,
,Screen_4,canvas.Screen,0_0_13_3,,skipped,14,200990.79999995232,,,200989.70000004768,,200990.79999995232,2021-11-01T14:56:10.716Z,201128.865,1635778362,full,ni_sequenzen,NI_Sequenzen,,,,,,,,,,,,,,
,Sequence,flow.Sequence,0_0_13,,completion,14,200989.29999995232,,,200989.70000004768,,200990.90000009537,2021-11-01T14:56:10.716Z,201128.865,1635778362,full,ni_sequenzen,NI_Sequenzen,,,,,,,,,,,,,,
,Screen_1,canvas.Screen,0_0_14_0,,skipped,15,200991.40000009537,,,200991.40000009537,,200991.40000009537,2021-11-01T14:56:10.717Z,201128.865,1635778362,full,ni_sequenzen,NI_Sequenzen,,,,,,,,,,,,,,
,Screen_2,canvas.Screen,0_0_14_1,,skipped,15,200991.70000004768,,,200991.40000009537,,200991.70000004768,2021-11-01T14:56:10.717Z,201128.865,1635778362,full,ni_sequenzen,NI_Sequenzen,,,,,,,,,,,,,,
,Screen_3,canvas.Screen,0_0_14_2,,skipped,15,200992.09999990463,,,200991.40000009537,,200992.20000004768,2021-11-01T14:56:10.717Z,201128.865,1635778362,full,ni_sequenzen,NI_Sequenzen,,,,,,,,,,,,,,
,Screen_4,canvas.Screen,0_0_14_3,,skipped,15,200992.5,,,200991.40000009537,,200992.5,2021-11-01T14:56:10.718Z,201128.865,1635778362,full,ni_sequenzen,NI_Sequenzen,,,,,,,,,,,,,,
,Sequence,flow.Sequence,0_0_14,,completion,15,200991,,,200991.40000009537,,200992.5,2021-11-01T14:56:10.718Z,201128.865,1635778362,full,ni_sequenzen,NI_Sequenzen,,,,,,,,,,,,,,
,Screen_1,canvas.Screen,0_0_15_0,,skipped,16,200993,,,200993,,200993,2021-11-01T14:56:10.718Z,201128.865,1635778362,full,ni_sequenzen,NI_Sequenzen,,,,,,,,,,,,,,
,Screen_2,canvas.Screen,0_0_15_1,,skipped,16,200993.29999995232,,,200993,,200993.40000009537,2021-11-01T14:56:10.719Z,201128.865,1635778362,full,ni_sequenzen,NI_Sequenzen,,,,,,,,,,,,,,
,Screen_3,canvas.Screen,0_0_15_2,,skipped,16,200993.59999990463,,,200993,,200993.59999990463,2021-11-01T14:56:10.719Z,201128.865,1635778362,full,ni_sequenzen,NI_Sequenzen,,,,,,,,,,,,,,
,Screen_4,canvas.Screen,0_0_15_3,,skipped,16,200994.70000004768,,,200993,,200994.70000004768,2021-11-01T14:56:10.720Z,201128.865,1635778362,full,ni_sequenzen,NI_Sequenzen,,,,,,,,,,,,,,
,Sequence,flow.Sequence,0_0_15,,completion,16,200992.70000004768,,,200993,,200995.20000004768,2021-11-01T14:56:10.720Z,201128.865,1635778362,full,ni_sequenzen,NI_Sequenzen,,,,,,,,,,,,,,
,Screen_1,canvas.Screen,0_0_16_0,,skipped,17,200995.79999995232,,,200995.79999995232,,200995.79999995232,2021-11-01T14:56:10.721Z,201128.865,1635778362,full,ni_sequenzen,NI_Sequenzen,,,,,,,,,,,,,,
,Screen_2,canvas.Screen,0_0_16_1,,skipped,17,200996.20000004768,,,200995.79999995232,,200996.20000004768,2021-11-01T14:56:10.721Z,201128.865,1635778362,full,ni_sequenzen,NI_Sequenzen,,,,,,,,,,,,,,
,Screen_3,canvas.Screen,0_0_16_2,,skipped,17,200996.5,,,200995.79999995232,,200996.5,2021-11-01T14:56:10.722Z,201128.865,1635778362,full,ni_sequenzen,NI_Sequenzen,,,,,,,,,,,,,,
,Screen_4,canvas.Screen,0_0_16_3,,skipped,17,200997,,,200995.79999995232,,200997.09999990463,2021-11-01T14:56:10.722Z,201128.865,1635778362,full,ni_sequenzen,NI_Sequenzen,,,,,,,,,,,,,,
,Sequence,flow.Sequence,0_0_16,,completion,17,200995.5,,,200995.79999995232,,200997.09999990463,2021-11-01T14:56:10.722Z,201128.865,1635778362,full,ni_sequenzen,NI_Sequenzen,,,,,,,,,,,,,,
,Screen_1,canvas.Screen,0_0_17_0,,skipped,18,200997.5,,,200997.5,,200997.5,2021-11-01T14:56:10.723Z,201128.865,1635778362,full,ni_sequenzen,NI_Sequenzen,,,,,,,,,,,,,,
,Screen_2,canvas.Screen,0_0_17_1,,skipped,18,200997.79999995232,,,200997.5,,200997.90000009537,2021-11-01T14:56:10.723Z,201128.865,1635778362,full,ni_sequenzen,NI_Sequenzen,,,,,,,,,,,,,,
,Screen_3,canvas.Screen,0_0_17_2,,skipped,18,200998.20000004768,,,200997.5,,200998.20000004768,2021-11-01T14:56:10.723Z,201128.865,1635778362,full,ni_sequenzen,NI_Sequenzen,,,,,,,,,,,,,,
,Screen_4,canvas.Screen,0_0_17_3,,skipped,18,200998.5,,,200997.5,,200998.5,2021-11-01T14:56:10.724Z,201128.865,1635778362,full,ni_sequenzen,NI_Sequenzen,,,,,,,,,,,,,,
,Sequence,flow.Sequence,0_0_17,,completion,18,200997.20000004768,,,200997.5,,200998.5,2021-11-01T14:56:10.724Z,201128.865,1635778362,full,ni_sequenzen,NI_Sequenzen,,,,,,,,,,,,,,
,Screen_1,canvas.Screen,0_0_18_0,,skipped,19,200999,,,200999,,200999,2021-11-01T14:56:10.724Z,201128.865,1635778362,full,ni_sequenzen,NI_Sequenzen,,,,,,,,,,,,,,
,Screen_2,canvas.Screen,0_0_18_1,,skipped,19,200999.29999995232,,,200999,,200999.29999995232,2021-11-01T14:56:10.725Z,201128.865,1635778362,full,ni_sequenzen,NI_Sequenzen,,,,,,,,,,,,,,
,Screen_3,canvas.Screen,0_0_18_2,,skipped,19,200999.70000004768,,,200999,,200999.70000004768,2021-11-01T14:56:10.725Z,201128.865,1635778362,full,ni_sequenzen,NI_Sequenzen,,,,,,,,,,,,,,
,Screen_4,canvas.Screen,0_0_18_3,,skipped,19,201000,,,200999,,201000.09999990463,2021-11-01T14:56:10.725Z,201128.865,1635778362,full,ni_sequenzen,NI_Sequenzen,,,,,,,,,,,,,,
,Sequence,flow.Sequence,0_0_18,,completion,19,200998.70000004768,,,200999,,201000.20000004768,2021-11-01T14:56:10.725Z,201128.865,1635778362,full,ni_sequenzen,NI_Sequenzen,,,,,,,,,,,,,,
,Screen_1,canvas.Screen,0_0_19_0,,skipped,20,201000.59999990463,,,201000.59999990463,,201000.59999990463,2021-11-01T14:56:10.726Z,201128.865,1635778362,full,ni_sequenzen,NI_Sequenzen,,,,,,,,,,,,,,
,Screen_2,canvas.Screen,0_0_19_1,,skipped,20,201000.90000009537,,,201000.59999990463,,201000.90000009537,2021-11-01T14:56:10.726Z,201128.865,1635778362,full,ni_sequenzen,NI_Sequenzen,,,,,,,,,,,,,,
,Screen_3,canvas.Screen,0_0_19_2,,skipped,20,201001.70000004768,,,201000.59999990463,,201001.70000004768,2021-11-01T14:56:10.727Z,201128.865,1635778362,full,ni_sequenzen,NI_Sequenzen,,,,,,,,,,,,,,
,Screen_4,canvas.Screen,0_0_19_3,,skipped,20,201002,,,201000.59999990463,,201002,2021-11-01T14:56:10.727Z,201128.865,1635778362,full,ni_sequenzen,NI_Sequenzen,,,,,,,,,,,,,,
,Sequence,flow.Sequence,0_0_19,,completion,20,201000.29999995232,,,201000.59999990463,,201002.09999990463,2021-11-01T14:56:10.727Z,201128.865,1635778362,full,ni_sequenzen,NI_Sequenzen,,,,,,,,,,,,,,
,Instructions_I,flow.Loop,0_0,,completion,,1061.0999999046326,1191.511,1208.034,201000.59999990463,199792.56599990462,201002.09999990463,2021-11-01T14:56:10.727Z,201128.865,1635778362,full,ni_sequenzen,NI_Sequenzen,,,,,,,,,,,,,,
,Move,canvas.Screen,0_1_0_0,right,response,,201115.40000009537,201112.292,201128.865,201964.20000004768,835.335000047693,201965.29999995232,2021-11-01T14:56:11.691Z,201976.534,1635778362,full,ni_sequenzen,NI_Sequenzen,1,,,,,,,,,,,,,
,Move,canvas.Screen,0_1_0_1,left,response,,201968.29999995232,201960.275,201976.534,202473.70000004768,497.1660000476695,202474.40000009537,2021-11-01T14:56:12.200Z,202491.798,1635778362,full,ni_sequenzen,NI_Sequenzen,2,,,,,,,,,,,,,
,Move,canvas.Screen,0_1_0_2,down,response,,202477.59999990463,202475.399,202491.798,203984.70000004768,1492.902000047674,203985.5,2021-11-01T14:56:13.711Z,204004.717,1635778362,full,ni_sequenzen,NI_Sequenzen,3,,,,,,,,,,,,,
,Move,canvas.Screen,0_1_0_3,left,response,,203988,203987.93,204004.717,204698.79999995232,694.0829999523121,204699.59999990463,2021-11-01T14:56:14.425Z,204728.834,1635778362,full,ni_sequenzen,NI_Sequenzen,4,,,,,,,,,,,,,
,Move,canvas.Screen,0_1_0_4,down,response,,204701.59999990463,204686.02,204728.834,205148,419.16599999999744,205148.70000004768,2021-11-01T14:56:14.874Z,205168.182,1635778362,full,ni_sequenzen,NI_Sequenzen,5,,,,,,,,,,,,,
,Move,canvas.Screen,0_1_0_5,left,response,,205150.70000004768,205134.952,205168.182,205493.20000004768,325.018000047683,205493.90000009537,2021-11-01T14:56:15.219Z,205500.295,1635778362,full,ni_sequenzen,NI_Sequenzen,6,,,,,,,,,,,,,
,Move,canvas.Screen,0_1_0_6,down,response,,205496.40000009537,205483.997,205500.295,205806.70000004768,306.4050000476709,205807.40000009537,2021-11-01T14:56:15.533Z,205816.15,1635778362,full,ni_sequenzen,NI_Sequenzen,7,,,,,,,,,,,,,
,Move,canvas.Screen,0_1_0_7,right,response,,205809.40000009537,205799.802,205816.15,206714.70000004768,898.5500000476895,206715.40000009537,2021-11-01T14:56:16.441Z,206730.269,1635778362,full,ni_sequenzen,NI_Sequenzen,8,,,,,,,,,,,,,
,Move,canvas.Screen,0_1_0_8,right,response,,206717.5,206713.968,206730.269,207388.59999990463,658.3309999046323,207389.59999990463,2021-11-01T14:56:17.115Z,207395.117,1635778362,full,ni_sequenzen,NI_Sequenzen,9,,,,,,,,,,,,,
,Move,canvas.Screen,0_1_0_9,down,response,,207392,207378.671,207395.117,208621.09999990463,1225.9829999046342,208621.79999995232,2021-11-01T14:56:18.347Z,208649.55,1635778362,full,ni_sequenzen,NI_Sequenzen,10,,,,,,,,,,,,,
,Move,canvas.Screen,0_1_0_10,down,response,,208623.90000009537,208608.528,208649.55,209214.79999995232,565.2499999523279,209215.5,2021-11-01T14:56:18.941Z,209223.419,1635778362,full,ni_sequenzen,NI_Sequenzen,11,,,,,,,,,,,,,
,Move,canvas.Screen,0_1_0_11,down,response,,209217.5,209207.174,209223.419,209654,430.5810000000056,209654.79999995232,2021-11-01T14:56:19.380Z,209672.311,1635778362,full,ni_sequenzen,NI_Sequenzen,12,,,,,,,,,,,,,
,Move,canvas.Screen,0_1_0_12,left,response,,209657.20000004768,209655.924,209672.311,210118.09999990463,445.7889999046456,210118.59999990463,2021-11-01T14:56:19.844Z,210137.731,1635778362,full,ni_sequenzen,NI_Sequenzen,13,,,,,,,,,,,,,
,Move,canvas.Screen,0_1_0_13,right,response,,210120.79999995232,210121.212,210137.731,210537.40000009537,399.66900009536766,210538.09999990463,2021-11-01T14:56:20.263Z,210553.122,1635778362,full,ni_sequenzen,NI_Sequenzen,14,,,,,,,,,,,,,
,Move,canvas.Screen,0_1_0_14,down,response,,210540.09999990463,210536.655,210553.122,211036.5,483.377999999997,211037.20000004768,2021-11-01T14:56:20.762Z,211051.931,1635778362,full,ni_sequenzen,NI_Sequenzen,15,,,,,,,,,,,,,
,Move,canvas.Screen,0_1_0_15,left,response,,211039.59999990463,211035.41,211051.931,211500.40000009537,448.469000095356,211501,2021-11-01T14:56:21.226Z,211517.523,1635778362,full,ni_sequenzen,NI_Sequenzen,16,,,,,,,,,,,,,
,Move,canvas.Screen,0_1_0_16,right,response,,211503.20000004768,211500.762,211517.523,213521.40000009537,2003.877000095381,213522.20000004768,2021-11-01T14:56:23.247Z,213528.494,1635778362,full,ni_sequenzen,NI_Sequenzen,17,,,,,,,,,,,,,
,Move,canvas.Screen,0_1_0_17,left,response,,213524.20000004768,213511.901,213528.494,214799,1270.505999999994,214799.79999995232,2021-11-01T14:56:24.525Z,214808.256,1635778362,full,ni_sequenzen,NI_Sequenzen,18,,,,,,,,,,,,,
,Move,canvas.Screen,0_1_0_18,down,response,,214802.20000004768,214791.895,214808.256,216979.70000004768,2171.4440000476898,216980.40000009537,2021-11-01T14:56:26.706Z,216985.558,1635778362,full,ni_sequenzen,NI_Sequenzen,19,,,,,,,,,,,,,
,Move,canvas.Screen,0_1_0_19,down,response,,216982.40000009537,216969.266,216985.558,217459.59999990463,474.0419999046426,217460.20000004768,2021-11-01T14:56:27.185Z,217467.618,1635778362,full,ni_sequenzen,NI_Sequenzen,20,,,,,,,,,,,,,
,Move,canvas.Screen,0_1_0_20,down,response,,217462.20000004768,217451.325,217467.618,217638.40000009537,170.78200009537977,217639.09999990463,2021-11-01T14:56:27.364Z,217650.415,1635778362,full,ni_sequenzen,NI_Sequenzen,21,,,,,,,,,,,,,
,Move,canvas.Screen,0_1_0_21,left,response,,217641.90000009537,217634.143,217650.415,218087.29999995232,436.88499995230814,218088,2021-11-01T14:56:27.813Z,218099.189,1635778362,full,ni_sequenzen,NI_Sequenzen,22,,,,,,,,,,,,,
,Move,canvas.Screen,0_1_0_22,down,response,,218090.20000004768,218082.837,218099.189,218601.70000004768,502.5110000476707,218602.40000009537,2021-11-01T14:56:28.328Z,218614.451,1635778362,full,ni_sequenzen,NI_Sequenzen,23,,,,,,,,,,,,,
,Move,canvas.Screen,0_1_0_23,right,response,,218604.40000009537,218598.054,218614.451,219819.09999990463,1204.6489999046316,219819.90000009537,2021-11-01T14:56:29.545Z,219827.91,1635778362,full,ni_sequenzen,NI_Sequenzen,24,,,,,,,,,,,,,
,Move,canvas.Screen,0_1_0_24,down,response,,219822.59999990463,219811.438,219827.91,220438.5,610.5899999999965,220439.09999990463,2021-11-01T14:56:30.164Z,220442.845,1635778362,full,ni_sequenzen,NI_Sequenzen,25,,,,,,,,,,,,,
,Move,canvas.Screen,0_1_0_25,left,response,,220441,220426.512,220442.845,220907.20000004768,464.35500004768255,220907.90000009537,2021-11-01T14:56:30.633Z,220924.845,1635778362,full,ni_sequenzen,NI_Sequenzen,26,,,,,,,,,,,,,
,Move,canvas.Screen,0_1_0_26,left,response,,220910.29999995232,220908.467,220924.845,221516.40000009537,591.5550000953663,221517,2021-11-01T14:56:31.242Z,221523.171,1635778362,full,ni_sequenzen,NI_Sequenzen,27,,,,,,,,,,,,,
,Move,canvas.Screen,0_1_0_27,right,response,,221519.5,221506.784,221523.171,224085.5,2562.328999999998,224086.09999990463,2021-11-01T14:56:33.811Z,224099.559,1635778362,full,ni_sequenzen,NI_Sequenzen,28,,,,,,,,,,,,,
,Move,canvas.Screen,0_1_0_28,right,response,,224086.79999995232,224083.225,224099.559,226605.79999995232,2506.240999952308,226606.5,2021-11-01T14:56:36.332Z,226625.908,1635778362,full,ni_sequenzen,NI_Sequenzen,29,,,,,,,,,,,,,
,Move,canvas.Screen,0_1_0_29,down,response,,226612.59999990463,226609.524,226625.908,227244.79999995232,618.8919999523205,227245.40000009537,2021-11-01T14:56:36.971Z,227274.298,1635778362,full,ni_sequenzen,NI_Sequenzen,30,,,,,,,,,,,,,
,Loop,flow.Loop,0_1_0,-999,completion,,201006.90000009537,201112.292,201128.865,227244.79999995232,26115.934999952326,227245.59999990463,2021-11-01T14:56:36.971Z,227274.298,1635778362,full,ni_sequenzen,NI_Sequenzen,,,,,,,,,,,,,,
,Training_I,flow.Sequence,0_1,,completion,,201002.29999995232,201112.292,201128.865,227244.79999995232,26115.934999952326,227245.70000004768,2021-11-01T14:56:36.971Z,227274.298,1635778362,full,ni_sequenzen,NI_Sequenzen,,,,,,,,,,,,,,
,Screen_1,canvas.Screen,0_2_0_0,cont,response,1,227268.5,227257.754,227274.298,236945.70000004768,9671.402000047674,236946.40000009537,2021-11-01T14:56:46.672Z,237114.008,1635778362,full,ni_sequenzen,NI_Sequenzen,,,,,,,,,,,,,,
,Screen_2,canvas.Screen,0_2_0_1,cont,response,1,237110.79999995232,237097.511,237114.008,248233,11118.991999999998,248233.70000004768,2021-11-01T14:56:57.959Z,248250.391,1635778362,full,ni_sequenzen,NI_Sequenzen,,,,,,,,,,,,,,
,Screen_3,canvas.Screen,0_2_0_2,cont,response,1,248239,248233.762,248250.391,258647.20000004768,10396.80900004768,258648,2021-11-01T14:57:08.383Z,258771.567,1635778362,full,ni_sequenzen,NI_Sequenzen,,,,,,,,,,,,,,
,Screen_4,canvas.Screen,0_2_0_3,cont,response,1,258769.5,258755.037,258771.567,269575.40000009537,10803.833000095357,269576,2021-11-01T14:57:19.311Z,269592.024,1635778362,full,ni_sequenzen,NI_Sequenzen,,,,,,,,,,,,,,
,Screen_5,canvas.Screen,0_2_0_4,cont,response,1,269580.09999990463,269575.515,269592.024,275423.09999990463,5831.075999904657,275423.90000009537,2021-11-01T14:57:25.159Z,275608.845,1635778362,full,ni_sequenzen,NI_Sequenzen,,,,,,,,,,,,,,
,Screen_6,canvas.Screen,0_2_0_5,cont,response,1,275597.2000000477,275592.357,275608.845,281501.40000009537,5892.555000095395,281502.09999990463,2021-11-01T14:57:31.237Z,281592.558,1635778362,full,ni_sequenzen,NI_Sequenzen,,,,,,,,,,,,,,
,Sequence,flow.Sequence,0_2_0,,completion,1,227267.90000009537,227257.754,227274.298,281501.40000009537,54227.10200009536,281504.59999990463,2021-11-01T14:57:31.240Z,281592.558,1635778362,full,ni_sequenzen,NI_Sequenzen,,,,,,,,,,,,,,
,Screen_1,canvas.Screen,0_2_1_0,,skipped,2,281507.40000009537,,,281507.40000009537,,281507.40000009537,2021-11-01T14:57:31.243Z,281592.558,1635778362,full,ni_sequenzen,NI_Sequenzen,,,,,,,,,,,,,,
,Screen_2,canvas.Screen,0_2_1_1,,skipped,2,281507.90000009537,,,281507.40000009537,,281507.90000009537,2021-11-01T14:57:31.243Z,281592.558,1635778362,full,ni_sequenzen,NI_Sequenzen,,,,,,,,,,,,,,
,Screen_3,canvas.Screen,0_2_1_2,,skipped,2,281508.2000000477,,,281507.40000009537,,281508.2000000477,2021-11-01T14:57:31.243Z,281592.558,1635778362,full,ni_sequenzen,NI_Sequenzen,,,,,,,,,,,,,,
,Screen_4,canvas.Screen,0_2_1_3,,skipped,2,281508.59999990463,,,281507.40000009537,,281508.59999990463,2021-11-01T14:57:31.244Z,281592.558,1635778362,full,ni_sequenzen,NI_Sequenzen,,,,,,,,,,,,,,
,Screen_5,canvas.Screen,0_2_1_4,,skipped,2,281508.90000009537,,,281507.40000009537,,281509,2021-11-01T14:57:31.244Z,281592.558,1635778362,full,ni_sequenzen,NI_Sequenzen,,,,,,,,,,,,,,
,Screen_6,canvas.Screen,0_2_1_5,,skipped,2,281509.2999999523,,,281507.40000009537,,281509.2999999523,2021-11-01T14:57:31.244Z,281592.558,1635778362,full,ni_sequenzen,NI_Sequenzen,,,,,,,,,,,,,,
,Sequence,flow.Sequence,0_2_1,,completion,2,281506.7999999523,,,281507.40000009537,,281509.5,2021-11-01T14:57:31.245Z,281592.558,1635778362,full,ni_sequenzen,NI_Sequenzen,,,,,,,,,,,,,,
,Screen_1,canvas.Screen,0_2_2_0,,skipped,3,281509.90000009537,,,281509.90000009537,,281509.90000009537,2021-11-01T14:57:31.245Z,281592.558,1635778362,full,ni_sequenzen,NI_Sequenzen,,,,,,,,,,,,,,
,Screen_2,canvas.Screen,0_2_2_1,,skipped,3,281510.2999999523,,,281509.90000009537,,281510.2999999523,2021-11-01T14:57:31.245Z,281592.558,1635778362,full,ni_sequenzen,NI_Sequenzen,,,,,,,,,,,,,,
,Screen_3,canvas.Screen,0_2_2_2,,skipped,3,281510.59999990463,,,281509.90000009537,,281510.59999990463,2021-11-01T14:57:31.246Z,281592.558,1635778362,full,ni_sequenzen,NI_Sequenzen,,,,,,,,,,,,,,
,Screen_4,canvas.Screen,0_2_2_3,,skipped,3,281510.90000009537,,,281509.90000009537,,281510.90000009537,2021-11-01T14:57:31.246Z,281592.558,1635778362,full,ni_sequenzen,NI_Sequenzen,,,,,,,,,,,,,,
,Screen_5,canvas.Screen,0_2_2_4,,skipped,3,281511.09999990463,,,281509.90000009537,,281511.2000000477,2021-11-01T14:57:31.246Z,281592.558,1635778362,full,ni_sequenzen,NI_Sequenzen,,,,,,,,,,,,,,
,Screen_6,canvas.Screen,0_2_2_5,,skipped,3,281511.5,,,281509.90000009537,,281511.5,2021-11-01T14:57:31.247Z,281592.558,1635778362,full,ni_sequenzen,NI_Sequenzen,,,,,,,,,,,,,,
,Sequence,flow.Sequence,0_2_2,,completion,3,281509.59999990463,,,281509.90000009537,,281511.5,2021-11-01T14:57:31.247Z,281592.558,1635778362,full,ni_sequenzen,NI_Sequenzen,,,,,,,,,,,,,,
,Screen_1,canvas.Screen,0_2_3_0,,skipped,4,281512.2999999523,,,281512.2999999523,,281512.2999999523,2021-11-01T14:57:31.247Z,281592.558,1635778362,full,ni_sequenzen,NI_Sequenzen,,,,,,,,,,,,,,
,Screen_2,canvas.Screen,0_2_3_1,,skipped,4,281512.59999990463,,,281512.2999999523,,281512.59999990463,2021-11-01T14:57:31.248Z,281592.558,1635778362,full,ni_sequenzen,NI_Sequenzen,,,,,,,,,,,,,,
,Screen_3,canvas.Screen,0_2_3_2,,skipped,4,281513,,,281512.2999999523,,281513,2021-11-01T14:57:31.248Z,281592.558,1635778362,full,ni_sequenzen,NI_Sequenzen,,,,,,,,,,,,,,
,Screen_4,canvas.Screen,0_2_3_3,,skipped,4,281513.2000000477,,,281512.2999999523,,281513.2000000477,2021-11-01T14:57:31.248Z,281592.558,1635778362,full,ni_sequenzen,NI_Sequenzen,,,,,,,,,,,,,,
,Screen_5,canvas.Screen,0_2_3_4,,skipped,4,281513.5,,,281512.2999999523,,281513.59999990463,2021-11-01T14:57:31.249Z,281592.558,1635778362,full,ni_sequenzen,NI_Sequenzen,,,,,,,,,,,,,,
,Screen_6,canvas.Screen,0_2_3_5,,skipped,4,281513.7999999523,,,281512.2999999523,,281513.7999999523,2021-11-01T14:57:31.249Z,281592.558,1635778362,full,ni_sequenzen,NI_Sequenzen,,,,,,,,,,,,,,
,Sequence,flow.Sequence,0_2_3,,completion,4,281511.59999990463,,,281512.2999999523,,281513.90000009537,2021-11-01T14:57:31.249Z,281592.558,1635778362,full,ni_sequenzen,NI_Sequenzen,,,,,,,,,,,,,,
,Screen_1,canvas.Screen,0_2_4_0,,skipped,5,281514.2999999523,,,281514.2999999523,,281514.2999999523,2021-11-01T14:57:31.249Z,281592.558,1635778362,full,ni_sequenzen,NI_Sequenzen,,,,,,,,,,,,,,
,Screen_2,canvas.Screen,0_2_4_1,,skipped,5,281514.59999990463,,,281514.2999999523,,281514.59999990463,2021-11-01T14:57:31.250Z,281592.558,1635778362,full,ni_sequenzen,NI_Sequenzen,,,,,,,,,,,,,,
,Screen_3,canvas.Screen,0_2_4_2,,skipped,5,281514.7999999523,,,281514.2999999523,,281514.7999999523,2021-11-01T14:57:31.250Z,281592.558,1635778362,full,ni_sequenzen,NI_Sequenzen,,,,,,,,,,,,,,
,Screen_4,canvas.Screen,0_2_4_3,,skipped,5,281515.09999990463,,,281514.2999999523,,281515.09999990463,2021-11-01T14:57:31.250Z,281592.558,1635778362,full,ni_sequenzen,NI_Sequenzen,,,,,,,,,,,,,,
,Screen_5,canvas.Screen,0_2_4_4,,skipped,5,281515.40000009537,,,281514.2999999523,,281515.40000009537,2021-11-01T14:57:31.250Z,281592.558,1635778362,full,ni_sequenzen,NI_Sequenzen,,,,,,,,,,,,,,
,Screen_6,canvas.Screen,0_2_4_5,,skipped,5,281515.59999990463,,,281514.2999999523,,281515.59999990463,2021-11-01T14:57:31.251Z,281592.558,1635778362,full,ni_sequenzen,NI_Sequenzen,,,,,,,,,,,,,,
,Sequence,flow.Sequence,0_2_4,,completion,5,281514,,,281514.2999999523,,281515.7000000477,2021-11-01T14:57:31.251Z,281592.558,1635778362,full,ni_sequenzen,NI_Sequenzen,,,,,,,,,,,,,,
,Screen_1,canvas.Screen,0_2_5_0,,skipped,6,281516,,,281516,,281516.09999990463,2021-11-01T14:57:31.251Z,281592.558,1635778362,full,ni_sequenzen,NI_Sequenzen,,,,,,,,,,,,,,
,Screen_2,canvas.Screen,0_2_5_1,,skipped,6,281516.7999999523,,,281516,,281516.90000009537,2021-11-01T14:57:31.252Z,281592.558,1635778362,full,ni_sequenzen,NI_Sequenzen,,,,,,,,,,,,,,
,Screen_3,canvas.Screen,0_2_5_2,,skipped,6,281517.2000000477,,,281516,,281517.2000000477,2021-11-01T14:57:31.252Z,281592.558,1635778362,full,ni_sequenzen,NI_Sequenzen,,,,,,,,,,,,,,
,Screen_4,canvas.Screen,0_2_5_3,,skipped,6,281517.59999990463,,,281516,,281517.59999990463,2021-11-01T14:57:31.253Z,281592.558,1635778362,full,ni_sequenzen,NI_Sequenzen,,,,,,,,,,,,,,
,Screen_5,canvas.Screen,0_2_5_4,,skipped,6,281517.90000009537,,,281516,,281517.90000009537,2021-11-01T14:57:31.253Z,281592.558,1635778362,full,ni_sequenzen,NI_Sequenzen,,,,,,,,,,,,,,
,Screen_6,canvas.Screen,0_2_5_5,,skipped,6,281518.2000000477,,,281516,,281518.2000000477,2021-11-01T14:57:31.253Z,281592.558,1635778362,full,ni_sequenzen,NI_Sequenzen,,,,,,,,,,,,,,
,Sequence,flow.Sequence,0_2_5,,completion,6,281515.90000009537,,,281516,,281518.2000000477,2021-11-01T14:57:31.253Z,281592.558,1635778362,full,ni_sequenzen,NI_Sequenzen,,,,,,,,,,,,,,
,Screen_1,canvas.Screen,0_2_6_0,,skipped,7,281518.59999990463,,,281518.59999990463,,281518.7000000477,2021-11-01T14:57:31.254Z,281592.558,1635778362,full,ni_sequenzen,NI_Sequenzen,,,,,,,,,,,,,,
,Screen_2,canvas.Screen,0_2_6_1,,skipped,7,281518.90000009537,,,281518.59999990463,,281518.90000009537,2021-11-01T14:57:31.254Z,281592.558,1635778362,full,ni_sequenzen,NI_Sequenzen,,,,,,,,,,,,,,
,Screen_3,canvas.Screen,0_2_6_2,,skipped,7,281519.2000000477,,,281518.59999990463,,281519.2000000477,2021-11-01T14:57:31.254Z,281592.558,1635778362,full,ni_sequenzen,NI_Sequenzen,,,,,,,,,,,,,,
,Screen_4,canvas.Screen,0_2_6_3,,skipped,7,281519.5,,,281518.59999990463,,281519.5,2021-11-01T14:57:31.255Z,281592.558,1635778362,full,ni_sequenzen,NI_Sequenzen,,,,,,,,,,,,,,
,Screen_5,canvas.Screen,0_2_6_4,,skipped,7,281519.7999999523,,,281518.59999990463,,281519.7999999523,2021-11-01T14:57:31.255Z,281592.558,1635778362,full,ni_sequenzen,NI_Sequenzen,,,,,,,,,,,,,,
,Screen_6,canvas.Screen,0_2_6_5,,skipped,7,281520,,,281518.59999990463,,281520.09999990463,2021-11-01T14:57:31.255Z,281592.558,1635778362,full,ni_sequenzen,NI_Sequenzen,,,,,,,,,,,,,,
,Sequence,flow.Sequence,0_2_6,,completion,7,281518.2999999523,,,281518.59999990463,,281520.09999990463,2021-11-01T14:57:31.255Z,281592.558,1635778362,full,ni_sequenzen,NI_Sequenzen,,,,,,,,,,,,,,
,Screen_1,canvas.Screen,0_2_7_0,,skipped,8,281520.59999990463,,,281520.59999990463,,281520.59999990463,2021-11-01T14:57:31.256Z,281592.558,1635778362,full,ni_sequenzen,NI_Sequenzen,,,,,,,,,,,,,,
,Screen_2,canvas.Screen,0_2_7_1,,skipped,8,281520.90000009537,,,281520.59999990463,,281520.90000009537,2021-11-01T14:57:31.256Z,281592.558,1635778362,full,ni_sequenzen,NI_Sequenzen,,,,,,,,,,,,,,
,Screen_3,canvas.Screen,0_2_7_2,,skipped,8,281521.09999990463,,,281520.59999990463,,281521.09999990463,2021-11-01T14:57:31.256Z,281592.558,1635778362,full,ni_sequenzen,NI_Sequenzen,,,,,,,,,,,,,,
,Screen_4,canvas.Screen,0_2_7_3,,skipped,8,281521.7999999523,,,281520.59999990463,,281521.7999999523,2021-11-01T14:57:31.257Z,281592.558,1635778362,full,ni_sequenzen,NI_Sequenzen,,,,,,,,,,,,,,
,Screen_5,canvas.Screen,0_2_7_4,,skipped,8,281522.09999990463,,,281520.59999990463,,281522.2000000477,2021-11-01T14:57:31.257Z,281592.558,1635778362,full,ni_sequenzen,NI_Sequenzen,,,,,,,,,,,,,,
,Screen_6,canvas.Screen,0_2_7_5,,skipped,8,281522.5,,,281520.59999990463,,281522.5,2021-11-01T14:57:31.258Z,281592.558,1635778362,full,ni_sequenzen,NI_Sequenzen,,,,,,,,,,,,,,
,Sequence,flow.Sequence,0_2_7,,completion,8,281520.2000000477,,,281520.59999990463,,281522.5,2021-11-01T14:57:31.258Z,281592.558,1635778362,full,ni_sequenzen,NI_Sequenzen,,,,,,,,,,,,,,
,Screen_1,canvas.Screen,0_2_8_0,,skipped,9,281523,,,281523,,281523,2021-11-01T14:57:31.258Z,281592.558,1635778362,full,ni_sequenzen,NI_Sequenzen,,,,,,,,,,,,,,
,Screen_2,canvas.Screen,0_2_8_1,,skipped,9,281523.2000000477,,,281523,,281523.2999999523,2021-11-01T14:57:31.258Z,281592.558,1635778362,full,ni_sequenzen,NI_Sequenzen,,,,,,,,,,,,,,
,Screen_3,canvas.Screen,0_2_8_2,,skipped,9,281523.59999990463,,,281523,,281523.59999990463,2021-11-01T14:57:31.259Z,281592.558,1635778362,full,ni_sequenzen,NI_Sequenzen,,,,,,,,,,,,,,
,Screen_4,canvas.Screen,0_2_8_3,,skipped,9,281523.7999999523,,,281523,,281523.90000009537,2021-11-01T14:57:31.259Z,281592.558,1635778362,full,ni_sequenzen,NI_Sequenzen,,,,,,,,,,,,,,
,Screen_5,canvas.Screen,0_2_8_4,,skipped,9,281524.09999990463,,,281523,,281524.09999990463,2021-11-01T14:57:31.259Z,281592.558,1635778362,full,ni_sequenzen,NI_Sequenzen,,,,,,,,,,,,,,
,Screen_6,canvas.Screen,0_2_8_5,,skipped,9,281524.40000009537,,,281523,,281524.5,2021-11-01T14:57:31.260Z,281592.558,1635778362,full,ni_sequenzen,NI_Sequenzen,,,,,,,,,,,,,,
,Sequence,flow.Sequence,0_2_8,,completion,9,281522.7000000477,,,281523,,281524.5,2021-11-01T14:57:31.260Z,281592.558,1635778362,full,ni_sequenzen,NI_Sequenzen,,,,,,,,,,,,,,
,Screen_1,canvas.Screen,0_2_9_0,,skipped,10,281525,,,281525,,281525,2021-11-01T14:57:31.260Z,281592.558,1635778362,full,ni_sequenzen,NI_Sequenzen,,,,,,,,,,,,,,
,Screen_2,canvas.Screen,0_2_9_1,,skipped,10,281525.2999999523,,,281525,,281525.2999999523,2021-11-01T14:57:31.260Z,281592.558,1635778362,full,ni_sequenzen,NI_Sequenzen,,,,,,,,,,,,,,
,Screen_3,canvas.Screen,0_2_9_2,,skipped,10,281525.59999990463,,,281525,,281525.7000000477,2021-11-01T14:57:31.261Z,281592.558,1635778362,full,ni_sequenzen,NI_Sequenzen,,,,,,,,,,,,,,
,Screen_4,canvas.Screen,0_2_9_3,,skipped,10,281525.90000009537,,,281525,,281526,2021-11-01T14:57:31.261Z,281592.558,1635778362,full,ni_sequenzen,NI_Sequenzen,,,,,,,,,,,,,,
,Screen_5,canvas.Screen,0_2_9_4,,skipped,10,281526.7000000477,,,281525,,281526.7000000477,2021-11-01T14:57:31.262Z,281592.558,1635778362,full,ni_sequenzen,NI_Sequenzen,,,,,,,,,,,,,,
,Screen_6,canvas.Screen,0_2_9_5,,skipped,10,281527.09999990463,,,281525,,281527.2000000477,2021-11-01T14:57:31.262Z,281592.558,1635778362,full,ni_sequenzen,NI_Sequenzen,,,,,,,,,,,,,,
,Sequence,flow.Sequence,0_2_9,,completion,10,281524.59999990463,,,281525,,281527.2000000477,2021-11-01T14:57:31.262Z,281592.558,1635778362,full,ni_sequenzen,NI_Sequenzen,,,,,,,,,,,,,,
,Screen_1,canvas.Screen,0_2_10_0,,skipped,11,281527.59999990463,,,281527.59999990463,,281527.7000000477,2021-11-01T14:57:31.263Z,281592.558,1635778362,full,ni_sequenzen,NI_Sequenzen,,,,,,,,,,,,,,
,Screen_2,canvas.Screen,0_2_10_1,,skipped,11,281528,,,281527.59999990463,,281528,2021-11-01T14:57:31.263Z,281592.558,1635778362,full,ni_sequenzen,NI_Sequenzen,,,,,,,,,,,,,,
,Screen_3,canvas.Screen,0_2_10_2,,skipped,11,281528.2999999523,,,281527.59999990463,,281528.2999999523,2021-11-01T14:57:31.263Z,281592.558,1635778362,full,ni_sequenzen,NI_Sequenzen,,,,,,,,,,,,,,
,Screen_4,canvas.Screen,0_2_10_3,,skipped,11,281528.59999990463,,,281527.59999990463,,281528.59999990463,2021-11-01T14:57:31.264Z,281592.558,1635778362,full,ni_sequenzen,NI_Sequenzen,,,,,,,,,,,,,,
,Screen_5,canvas.Screen,0_2_10_4,,skipped,11,281528.90000009537,,,281527.59999990463,,281529,2021-11-01T14:57:31.264Z,281592.558,1635778362,full,ni_sequenzen,NI_Sequenzen,,,,,,,,,,,,,,
,Screen_6,canvas.Screen,0_2_10_5,,skipped,11,281529.2000000477,,,281527.59999990463,,281529.2000000477,2021-11-01T14:57:31.264Z,281592.558,1635778362,full,ni_sequenzen,NI_Sequenzen,,,,,,,,,,,,,,
,Sequence,flow.Sequence,0_2_10,,completion,11,281527.2999999523,,,281527.59999990463,,281529.2000000477,2021-11-01T14:57:31.264Z,281592.558,1635778362,full,ni_sequenzen,NI_Sequenzen,,,,,,,,,,,,,,
,Screen_1,canvas.Screen,0_2_11_0,,skipped,12,281529.7000000477,,,281529.7000000477,,281529.7000000477,2021-11-01T14:57:31.265Z,281592.558,1635778362,full,ni_sequenzen,NI_Sequenzen,,,,,,,,,,,,,,
,Screen_2,canvas.Screen,0_2_11_1,,skipped,12,281529.90000009537,,,281529.7000000477,,281529.90000009537,2021-11-01T14:57:31.265Z,281592.558,1635778362,full,ni_sequenzen,NI_Sequenzen,,,,,,,,,,,,,,
,Screen_3,canvas.Screen,0_2_11_2,,skipped,12,281530.2000000477,,,281529.7000000477,,281530.2000000477,2021-11-01T14:57:31.265Z,281592.558,1635778362,full,ni_sequenzen,NI_Sequenzen,,,,,,,,,,,,,,
,Screen_4,canvas.Screen,0_2_11_3,,skipped,12,281530.59999990463,,,281529.7000000477,,281530.59999990463,2021-11-01T14:57:31.266Z,281592.558,1635778362,full,ni_sequenzen,NI_Sequenzen,,,,,,,,,,,,,,
,Screen_5,canvas.Screen,0_2_11_4,,skipped,12,281530.7999999523,,,281529.7000000477,,281530.7999999523,2021-11-01T14:57:31.266Z,281592.558,1635778362,full,ni_sequenzen,NI_Sequenzen,,,,,,,,,,,,,,
,Screen_6,canvas.Screen,0_2_11_5,,skipped,12,281531,,,281529.7000000477,,281531.09999990463,2021-11-01T14:57:31.266Z,281592.558,1635778362,full,ni_sequenzen,NI_Sequenzen,,,,,,,,,,,,,,
,Sequence,flow.Sequence,0_2_11,,completion,12,281529.40000009537,,,281529.7000000477,,281531.09999990463,2021-11-01T14:57:31.266Z,281592.558,1635778362,full,ni_sequenzen,NI_Sequenzen,,,,,,,,,,,,,,
,Screen_1,canvas.Screen,0_2_12_0,,skipped,13,281531.90000009537,,,281532,,281532,2021-11-01T14:57:31.267Z,281592.558,1635778362,full,ni_sequenzen,NI_Sequenzen,,,,,,,,,,,,,,
,Screen_2,canvas.Screen,0_2_12_1,,skipped,13,281532.2999999523,,,281532,,281532.40000009537,2021-11-01T14:57:31.267Z,281592.558,1635778362,full,ni_sequenzen,NI_Sequenzen,,,,,,,,,,,,,,
,Screen_3,canvas.Screen,0_2_12_2,,skipped,13,281532.59999990463,,,281532,,281532.7000000477,2021-11-01T14:57:31.268Z,281592.558,1635778362,full,ni_sequenzen,NI_Sequenzen,,,,,,,,,,,,,,
,Screen_4,canvas.Screen,0_2_12_3,,skipped,13,281532.90000009537,,,281532,,281533,2021-11-01T14:57:31.268Z,281592.558,1635778362,full,ni_sequenzen,NI_Sequenzen,,,,,,,,,,,,,,
,Screen_5,canvas.Screen,0_2_12_4,,skipped,13,281533.2999999523,,,281532,,281533.2999999523,2021-11-01T14:57:31.268Z,281592.558,1635778362,full,ni_sequenzen,NI_Sequenzen,,,,,,,,,,,,,,
,Screen_6,canvas.Screen,0_2_12_5,,skipped,13,281533.59999990463,,,281532,,281533.59999990463,2021-11-01T14:57:31.269Z,281592.558,1635778362,full,ni_sequenzen,NI_Sequenzen,,,,,,,,,,,,,,
,Sequence,flow.Sequence,0_2_12,,completion,13,281531.2000000477,,,281532,,281533.59999990463,2021-11-01T14:57:31.269Z,281592.558,1635778362,full,ni_sequenzen,NI_Sequenzen,,,,,,,,,,,,,,
,Screen_1,canvas.Screen,0_2_13_0,,skipped,14,281534,,,281534,,281534,2021-11-01T14:57:31.269Z,281592.558,1635778362,full,ni_sequenzen,NI_Sequenzen,,,,,,,,,,,,,,
,Screen_2,canvas.Screen,0_2_13_1,,skipped,14,281534.2999999523,,,281534,,281534.40000009537,2021-11-01T14:57:31.269Z,281592.558,1635778362,full,ni_sequenzen,NI_Sequenzen,,,,,,,,,,,,,,
,Screen_3,canvas.Screen,0_2_13_2,,skipped,14,281534.59999990463,,,281534,,281534.7000000477,2021-11-01T14:57:31.270Z,281592.558,1635778362,full,ni_sequenzen,NI_Sequenzen,,,,,,,,,,,,,,
,Screen_4,canvas.Screen,0_2_13_3,,skipped,14,281534.90000009537,,,281534,,281534.90000009537,2021-11-01T14:57:31.270Z,281592.558,1635778362,full,ni_sequenzen,NI_Sequenzen,,,,,,,,,,,,,,
,Screen_5,canvas.Screen,0_2_13_4,,skipped,14,281535.2000000477,,,281534,,281535.2000000477,2021-11-01T14:57:31.270Z,281592.558,1635778362,full,ni_sequenzen,NI_Sequenzen,,,,,,,,,,,,,,
,Screen_6,canvas.Screen,0_2_13_5,,skipped,14,281535.40000009537,,,281534,,281535.40000009537,2021-11-01T14:57:31.271Z,281592.558,1635778362,full,ni_sequenzen,NI_Sequenzen,,,,,,,,,,,,,,
,Sequence,flow.Sequence,0_2_13,,completion,14,281533.7000000477,,,281534,,281535.5,2021-11-01T14:57:31.271Z,281592.558,1635778362,full,ni_sequenzen,NI_Sequenzen,,,,,,,,,,,,,,
,Screen_1,canvas.Screen,0_2_14_0,,skipped,15,281536,,,281536,,281536,2021-11-01T14:57:31.271Z,281592.558,1635778362,full,ni_sequenzen,NI_Sequenzen,,,,,,,,,,,,,,
,Screen_2,canvas.Screen,0_2_14_1,,skipped,15,281536.40000009537,,,281536,,281536.40000009537,2021-11-01T14:57:31.272Z,281592.558,1635778362,full,ni_sequenzen,NI_Sequenzen,,,,,,,,,,,,,,
,Screen_3,canvas.Screen,0_2_14_2,,skipped,15,281536.7000000477,,,281536,,281536.7000000477,2021-11-01T14:57:31.272Z,281592.558,1635778362,full,ni_sequenzen,NI_Sequenzen,,,,,,,,,,,,,,
,Screen_4,canvas.Screen,0_2_14_3,,skipped,15,281537,,,281536,,281537,2021-11-01T14:57:31.272Z,281592.558,1635778362,full,ni_sequenzen,NI_Sequenzen,,,,,,,,,,,,,,
,Screen_5,canvas.Screen,0_2_14_4,,skipped,15,281537.7000000477,,,281536,,281537.7000000477,2021-11-01T14:57:31.273Z,281592.558,1635778362,full,ni_sequenzen,NI_Sequenzen,,,,,,,,,,,,,,
,Screen_6,canvas.Screen,0_2_14_5,,skipped,15,281538,,,281536,,281538,2021-11-01T14:57:31.273Z,281592.558,1635778362,full,ni_sequenzen,NI_Sequenzen,,,,,,,,,,,,,,
,Sequence,flow.Sequence,0_2_14,,completion,15,281535.59999990463,,,281536,,281538.09999990463,2021-11-01T14:57:31.273Z,281592.558,1635778362,full,ni_sequenzen,NI_Sequenzen,,,,,,,,,,,,,,
,Screen_1,canvas.Screen,0_2_15_0,,skipped,16,281538.5,,,281538.5,,281538.59999990463,2021-11-01T14:57:31.274Z,281592.558,1635778362,full,ni_sequenzen,NI_Sequenzen,,,,,,,,,,,,,,
,Screen_2,canvas.Screen,0_2_15_1,,skipped,16,281538.90000009537,,,281538.5,,281538.90000009537,2021-11-01T14:57:31.274Z,281592.558,1635778362,full,ni_sequenzen,NI_Sequenzen,,,,,,,,,,,,,,
,Screen_3,canvas.Screen,0_2_15_2,,skipped,16,281539.09999990463,,,281538.5,,281539.09999990463,2021-11-01T14:57:31.274Z,281592.558,1635778362,full,ni_sequenzen,NI_Sequenzen,,,,,,,,,,,,,,
,Screen_4,canvas.Screen,0_2_15_3,,skipped,16,281539.40000009537,,,281538.5,,281539.40000009537,2021-11-01T14:57:31.275Z,281592.558,1635778362,full,ni_sequenzen,NI_Sequenzen,,,,,,,,,,,,,,
,Screen_5,canvas.Screen,0_2_15_4,,skipped,16,281539.7000000477,,,281538.5,,281539.7000000477,2021-11-01T14:57:31.275Z,281592.558,1635778362,full,ni_sequenzen,NI_Sequenzen,,,,,,,,,,,,,,
,Screen_6,canvas.Screen,0_2_15_5,,skipped,16,281540,,,281538.5,,281540,2021-11-01T14:57:31.275Z,281592.558,1635778362,full,ni_sequenzen,NI_Sequenzen,,,,,,,,,,,,,,
,Sequence,flow.Sequence,0_2_15,,completion,16,281538.2999999523,,,281538.5,,281540,2021-11-01T14:57:31.275Z,281592.558,1635778362,full,ni_sequenzen,NI_Sequenzen,,,,,,,,,,,,,,
,Screen_1,canvas.Screen,0_2_16_0,,skipped,17,281540.40000009537,,,281540.40000009537,,281540.5,2021-11-01T14:57:31.276Z,281592.558,1635778362,full,ni_sequenzen,NI_Sequenzen,,,,,,,,,,,,,,
,Screen_2,canvas.Screen,0_2_16_1,,skipped,17,281540.7999999523,,,281540.40000009537,,281540.7999999523,2021-11-01T14:57:31.276Z,281592.558,1635778362,full,ni_sequenzen,NI_Sequenzen,,,,,,,,,,,,,,
,Screen_3,canvas.Screen,0_2_16_2,,skipped,17,281541,,,281540.40000009537,,281541,2021-11-01T14:57:31.276Z,281592.558,1635778362,full,ni_sequenzen,NI_Sequenzen,,,,,,,,,,,,,,
,Screen_4,canvas.Screen,0_2_16_3,,skipped,17,281541.2000000477,,,281540.40000009537,,281541.40000009537,2021-11-01T14:57:31.276Z,281592.558,1635778362,full,ni_sequenzen,NI_Sequenzen,,,,,,,,,,,,,,
,Screen_5,canvas.Screen,0_2_16_4,,skipped,17,281541.5,,,281540.40000009537,,281541.59999990463,2021-11-01T14:57:31.277Z,281592.558,1635778362,full,ni_sequenzen,NI_Sequenzen,,,,,,,,,,,,,,
,Screen_6,canvas.Screen,0_2_16_5,,skipped,17,281541.90000009537,,,281540.40000009537,,281541.90000009537,2021-11-01T14:57:31.277Z,281592.558,1635778362,full,ni_sequenzen,NI_Sequenzen,,,,,,,,,,,,,,
,Sequence,flow.Sequence,0_2_16,,completion,17,281540.2000000477,,,281540.40000009537,,281541.90000009537,2021-11-01T14:57:31.277Z,281592.558,1635778362,full,ni_sequenzen,NI_Sequenzen,,,,,,,,,,,,,,
,Screen_1,canvas.Screen,0_2_17_0,,skipped,18,281542.2999999523,,,281542.2999999523,,281542.40000009537,2021-11-01T14:57:31.277Z,281592.558,1635778362,full,ni_sequenzen,NI_Sequenzen,,,,,,,,,,,,,,
,Screen_2,canvas.Screen,0_2_17_1,,skipped,18,281543,,,281542.2999999523,,281543,2021-11-01T14:57:31.278Z,281592.558,1635778362,full,ni_sequenzen,NI_Sequenzen,,,,,,,,,,,,,,
,Screen_3,canvas.Screen,0_2_17_2,,skipped,18,281543.2999999523,,,281542.2999999523,,281543.40000009537,2021-11-01T14:57:31.278Z,281592.558,1635778362,full,ni_sequenzen,NI_Sequenzen,,,,,,,,,,,,,,
,Screen_4,canvas.Screen,0_2_17_3,,skipped,18,281543.59999990463,,,281542.2999999523,,281543.59999990463,2021-11-01T14:57:31.279Z,281592.558,1635778362,full,ni_sequenzen,NI_Sequenzen,,,,,,,,,,,,,,
,Screen_5,canvas.Screen,0_2_17_4,,skipped,18,281543.90000009537,,,281542.2999999523,,281543.90000009537,2021-11-01T14:57:31.279Z,281592.558,1635778362,full,ni_sequenzen,NI_Sequenzen,,,,,,,,,,,,,,
,Screen_6,canvas.Screen,0_2_17_5,,skipped,18,281544.09999990463,,,281542.2999999523,,281544.09999990463,2021-11-01T14:57:31.279Z,281592.558,1635778362,full,ni_sequenzen,NI_Sequenzen,,,,,,,,,,,,,,
,Sequence,flow.Sequence,0_2_17,,completion,18,281542,,,281542.2999999523,,281544.2000000477,2021-11-01T14:57:31.279Z,281592.558,1635778362,full,ni_sequenzen,NI_Sequenzen,,,,,,,,,,,,,,
,Screen_1,canvas.Screen,0_2_18_0,,skipped,19,281544.59999990463,,,281544.59999990463,,281544.7000000477,2021-11-01T14:57:31.280Z,281592.558,1635778362,full,ni_sequenzen,NI_Sequenzen,,,,,,,,,,,,,,
,Screen_2,canvas.Screen,0_2_18_1,,skipped,19,281544.7999999523,,,281544.59999990463,,281544.90000009537,2021-11-01T14:57:31.280Z,281592.558,1635778362,full,ni_sequenzen,NI_Sequenzen,,,,,,,,,,,,,,
,Screen_3,canvas.Screen,0_2_18_2,,skipped,19,281545.09999990463,,,281544.59999990463,,281545.2000000477,2021-11-01T14:57:31.280Z,281592.558,1635778362,full,ni_sequenzen,NI_Sequenzen,,,,,,,,,,,,,,
,Screen_4,canvas.Screen,0_2_18_3,,skipped,19,281545.40000009537,,,281544.59999990463,,281545.5,2021-11-01T14:57:31.281Z,281592.558,1635778362,full,ni_sequenzen,NI_Sequenzen,,,,,,,,,,,,,,
,Screen_5,canvas.Screen,0_2_18_4,,skipped,19,281545.7000000477,,,281544.59999990463,,281545.7000000477,2021-11-01T14:57:31.281Z,281592.558,1635778362,full,ni_sequenzen,NI_Sequenzen,,,,,,,,,,,,,,
,Screen_6,canvas.Screen,0_2_18_5,,skipped,19,281546,,,281544.59999990463,,281546,2021-11-01T14:57:31.281Z,281592.558,1635778362,full,ni_sequenzen,NI_Sequenzen,,,,,,,,,,,,,,
,Sequence,flow.Sequence,0_2_18,,completion,19,281544.40000009537,,,281544.59999990463,,281546,2021-11-01T14:57:31.281Z,281592.558,1635778362,full,ni_sequenzen,NI_Sequenzen,,,,,,,,,,,,,,
,Screen_1,canvas.Screen,0_2_19_0,,skipped,20,281546.40000009537,,,281546.40000009537,,281546.40000009537,2021-11-01T14:57:31.282Z,281592.558,1635778362,full,ni_sequenzen,NI_Sequenzen,,,,,,,,,,,,,,
,Screen_2,canvas.Screen,0_2_19_1,,skipped,20,281546.7000000477,,,281546.40000009537,,281546.7000000477,2021-11-01T14:57:31.282Z,281592.558,1635778362,full,ni_sequenzen,NI_Sequenzen,,,,,,,,,,,,,,
,Screen_3,canvas.Screen,0_2_19_2,,skipped,20,281547,,,281546.40000009537,,281547,2021-11-01T14:57:31.282Z,281592.558,1635778362,full,ni_sequenzen,NI_Sequenzen,,,,,,,,,,,,,,
,Screen_4,canvas.Screen,0_2_19_3,,skipped,20,281547.2000000477,,,281546.40000009537,,281547.2000000477,2021-11-01T14:57:31.282Z,281592.558,1635778362,full,ni_sequenzen,NI_Sequenzen,,,,,,,,,,,,,,
,Screen_5,canvas.Screen,0_2_19_4,,skipped,20,281547.90000009537,,,281546.40000009537,,281547.90000009537,2021-11-01T14:57:31.283Z,281592.558,1635778362,full,ni_sequenzen,NI_Sequenzen,,,,,,,,,,,,,,
,Screen_6,canvas.Screen,0_2_19_5,,skipped,20,281548.2000000477,,,281546.40000009537,,281548.2000000477,2021-11-01T14:57:31.283Z,281592.558,1635778362,full,ni_sequenzen,NI_Sequenzen,,,,,,,,,,,,,,
,Sequence,flow.Sequence,0_2_19,,completion,20,281546.09999990463,,,281546.40000009537,,281548.2999999523,2021-11-01T14:57:31.283Z,281592.558,1635778362,full,ni_sequenzen,NI_Sequenzen,,,,,,,,,,,,,,
,Screen_1,canvas.Screen,0_2_20_0,,skipped,21,281548.7000000477,,,281548.7000000477,,281548.7000000477,2021-11-01T14:57:31.284Z,281592.558,1635778362,full,ni_sequenzen,NI_Sequenzen,,,,,,,,,,,,,,
,Screen_2,canvas.Screen,0_2_20_1,,skipped,21,281549,,,281548.7000000477,,281549,2021-11-01T14:57:31.284Z,281592.558,1635778362,full,ni_sequenzen,NI_Sequenzen,,,,,,,,,,,,,,
,Screen_3,canvas.Screen,0_2_20_2,,skipped,21,281549.2000000477,,,281548.7000000477,,281549.2999999523,2021-11-01T14:57:31.284Z,281592.558,1635778362,full,ni_sequenzen,NI_Sequenzen,,,,,,,,,,,,,,
,Screen_4,canvas.Screen,0_2_20_3,,skipped,21,281549.5,,,281548.7000000477,,281549.5,2021-11-01T14:57:31.285Z,281592.558,1635778362,full,ni_sequenzen,NI_Sequenzen,,,,,,,,,,,,,,
,Screen_5,canvas.Screen,0_2_20_4,,skipped,21,281549.7999999523,,,281548.7000000477,,281549.7999999523,2021-11-01T14:57:31.285Z,281592.558,1635778362,full,ni_sequenzen,NI_Sequenzen,,,,,,,,,,,,,,
,Screen_6,canvas.Screen,0_2_20_5,,skipped,21,281550,,,281548.7000000477,,281550.09999990463,2021-11-01T14:57:31.285Z,281592.558,1635778362,full,ni_sequenzen,NI_Sequenzen,,,,,,,,,,,,,,
,Sequence,flow.Sequence,0_2_20,,completion,21,281548.40000009537,,,281548.7000000477,,281550.09999990463,2021-11-01T14:57:31.285Z,281592.558,1635778362,full,ni_sequenzen,NI_Sequenzen,,,,,,,,,,,,,,
,Screen_1,canvas.Screen,0_2_21_0,,skipped,22,281550.5,,,281550.5,,281550.5,2021-11-01T14:57:31.286Z,281592.558,1635778362,full,ni_sequenzen,NI_Sequenzen,,,,,,,,,,,,,,
,Screen_2,canvas.Screen,0_2_21_1,,skipped,22,281550.7999999523,,,281550.5,,281550.7999999523,2021-11-01T14:57:31.286Z,281592.558,1635778362,full,ni_sequenzen,NI_Sequenzen,,,,,,,,,,,,,,
,Screen_3,canvas.Screen,0_2_21_2,,skipped,22,281551,,,281550.5,,281551,2021-11-01T14:57:31.286Z,281592.558,1635778362,full,ni_sequenzen,NI_Sequenzen,,,,,,,,,,,,,,
,Screen_4,canvas.Screen,0_2_21_3,,skipped,22,281551.2000000477,,,281550.5,,281551.2999999523,2021-11-01T14:57:31.286Z,281592.558,1635778362,full,ni_sequenzen,NI_Sequenzen,,,,,,,,,,,,,,
,Screen_5,canvas.Screen,0_2_21_4,,skipped,22,281551.5,,,281550.5,,281551.59999990463,2021-11-01T14:57:31.287Z,281592.558,1635778362,full,ni_sequenzen,NI_Sequenzen,,,,,,,,,,,,,,
,Screen_6,canvas.Screen,0_2_21_5,,skipped,22,281552.09999990463,,,281550.5,,281552.2000000477,2021-11-01T14:57:31.287Z,281592.558,1635778362,full,ni_sequenzen,NI_Sequenzen,,,,,,,,,,,,,,
,Sequence,flow.Sequence,0_2_21,,completion,22,281550.2999999523,,,281550.5,,281552.2000000477,2021-11-01T14:57:31.287Z,281592.558,1635778362,full,ni_sequenzen,NI_Sequenzen,,,,,,,,,,,,,,
,Screen_1,canvas.Screen,0_2_22_0,,skipped,23,281552.7000000477,,,281552.7000000477,,281552.7000000477,2021-11-01T14:57:31.288Z,281592.558,1635778362,full,ni_sequenzen,NI_Sequenzen,,,,,,,,,,,,,,
,Screen_2,canvas.Screen,0_2_22_1,,skipped,23,281553,,,281552.7000000477,,281553,2021-11-01T14:57:31.288Z,281592.558,1635778362,full,ni_sequenzen,NI_Sequenzen,,,,,,,,,,,,,,
,Screen_3,canvas.Screen,0_2_22_2,,skipped,23,281553.59999990463,,,281552.7000000477,,281553.7000000477,2021-11-01T14:57:31.289Z,281592.558,1635778362,full,ni_sequenzen,NI_Sequenzen,,,,,,,,,,,,,,
,Screen_4,canvas.Screen,0_2_22_3,,skipped,23,281554,,,281552.7000000477,,281554,2021-11-01T14:57:31.289Z,281592.558,1635778362,full,ni_sequenzen,NI_Sequenzen,,,,,,,,,,,,,,
,Screen_5,canvas.Screen,0_2_22_4,,skipped,23,281554.2999999523,,,281552.7000000477,,281554.2999999523,2021-11-01T14:57:31.289Z,281592.558,1635778362,full,ni_sequenzen,NI_Sequenzen,,,,,,,,,,,,,,
,Screen_6,canvas.Screen,0_2_22_5,,skipped,23,281554.59999990463,,,281552.7000000477,,281554.59999990463,2021-11-01T14:57:31.290Z,281592.558,1635778362,full,ni_sequenzen,NI_Sequenzen,,,,,,,,,,,,,,
,Sequence,flow.Sequence,0_2_22,,completion,23,281552.2999999523,,,281552.7000000477,,281554.7000000477,2021-11-01T14:57:31.290Z,281592.558,1635778362,full,ni_sequenzen,NI_Sequenzen,,,,,,,,,,,,,,
,Screen_1,canvas.Screen,0_2_23_0,,skipped,24,281555,,,281555.09999990463,,281555.09999990463,2021-11-01T14:57:31.290Z,281592.558,1635778362,full,ni_sequenzen,NI_Sequenzen,,,,,,,,,,,,,,
,Screen_2,canvas.Screen,0_2_23_1,,skipped,24,281555.40000009537,,,281555.09999990463,,281555.40000009537,2021-11-01T14:57:31.290Z,281592.558,1635778362,full,ni_sequenzen,NI_Sequenzen,,,,,,,,,,,,,,
,Screen_3,canvas.Screen,0_2_23_2,,skipped,24,281555.7000000477,,,281555.09999990463,,281555.7000000477,2021-11-01T14:57:31.291Z,281592.558,1635778362,full,ni_sequenzen,NI_Sequenzen,,,,,,,,,,,,,,
,Screen_4,canvas.Screen,0_2_23_3,,skipped,24,281556,,,281555.09999990463,,281556.09999990463,2021-11-01T14:57:31.291Z,281592.558,1635778362,full,ni_sequenzen,NI_Sequenzen,,,,,,,,,,,,,,
,Screen_5,canvas.Screen,0_2_23_4,,skipped,24,281556.2999999523,,,281555.09999990463,,281556.2999999523,2021-11-01T14:57:31.291Z,281592.558,1635778362,full,ni_sequenzen,NI_Sequenzen,,,,,,,,,,,,,,
,Screen_6,canvas.Screen,0_2_23_5,,skipped,24,281556.5,,,281555.09999990463,,281556.5,2021-11-01T14:57:31.292Z,281592.558,1635778362,full,ni_sequenzen,NI_Sequenzen,,,,,,,,,,,,,,
,Sequence,flow.Sequence,0_2_23,,completion,24,281554.7999999523,,,281555.09999990463,,281556.59999990463,2021-11-01T14:57:31.292Z,281592.558,1635778362,full,ni_sequenzen,NI_Sequenzen,,,,,,,,,,,,,,
,Screen_1,canvas.Screen,0_2_24_0,,skipped,25,281557,,,281557,,281557,2021-11-01T14:57:31.292Z,281592.558,1635778362,full,ni_sequenzen,NI_Sequenzen,,,,,,,,,,,,,,
,Screen_2,canvas.Screen,0_2_24_1,,skipped,25,281557.2999999523,,,281557,,281557.2999999523,2021-11-01T14:57:31.292Z,281592.558,1635778362,full,ni_sequenzen,NI_Sequenzen,,,,,,,,,,,,,,
,Screen_3,canvas.Screen,0_2_24_2,,skipped,25,281557.59999990463,,,281557,,281557.59999990463,2021-11-01T14:57:31.293Z,281592.558,1635778362,full,ni_sequenzen,NI_Sequenzen,,,,,,,,,,,,,,
,Screen_4,canvas.Screen,0_2_24_3,,skipped,25,281557.7999999523,,,281557,,281557.7999999523,2021-11-01T14:57:31.293Z,281592.558,1635778362,full,ni_sequenzen,NI_Sequenzen,,,,,,,,,,,,,,
,Screen_5,canvas.Screen,0_2_24_4,,skipped,25,281558,,,281557,,281558.09999990463,2021-11-01T14:57:31.293Z,281592.558,1635778362,full,ni_sequenzen,NI_Sequenzen,,,,,,,,,,,,,,
,Screen_6,canvas.Screen,0_2_24_5,,skipped,25,281558.7000000477,,,281557,,281558.7999999523,2021-11-01T14:57:31.294Z,281592.558,1635778362,full,ni_sequenzen,NI_Sequenzen,,,,,,,,,,,,,,
,Sequence,flow.Sequence,0_2_24,,completion,25,281556.7000000477,,,281557,,281558.7999999523,2021-11-01T14:57:31.294Z,281592.558,1635778362,full,ni_sequenzen,NI_Sequenzen,,,,,,,,,,,,,,
,Screen_1,canvas.Screen,0_2_25_0,,skipped,26,281559.2000000477,,,281559.2000000477,,281559.2000000477,2021-11-01T14:57:31.294Z,281592.558,1635778362,full,ni_sequenzen,NI_Sequenzen,,,,,,,,,,,,,,
,Screen_2,canvas.Screen,0_2_25_1,,skipped,26,281559.5,,,281559.2000000477,,281559.5,2021-11-01T14:57:31.295Z,281592.558,1635778362,full,ni_sequenzen,NI_Sequenzen,,,,,,,,,,,,,,
,Screen_3,canvas.Screen,0_2_25_2,,skipped,26,281559.7999999523,,,281559.2000000477,,281559.7999999523,2021-11-01T14:57:31.295Z,281592.558,1635778362,full,ni_sequenzen,NI_Sequenzen,,,,,,,,,,,,,,
,Screen_4,canvas.Screen,0_2_25_3,,skipped,26,281560,,,281559.2000000477,,281560,2021-11-01T14:57:31.295Z,281592.558,1635778362,full,ni_sequenzen,NI_Sequenzen,,,,,,,,,,,,,,
,Screen_5,canvas.Screen,0_2_25_4,,skipped,26,281560.2999999523,,,281559.2000000477,,281560.2999999523,2021-11-01T14:57:31.295Z,281592.558,1635778362,full,ni_sequenzen,NI_Sequenzen,,,,,,,,,,,,,,
,Screen_6,canvas.Screen,0_2_25_5,,skipped,26,281560.5,,,281559.2000000477,,281560.5,2021-11-01T14:57:31.296Z,281592.558,1635778362,full,ni_sequenzen,NI_Sequenzen,,,,,,,,,,,,,,
,Sequence,flow.Sequence,0_2_25,,completion,26,281559,,,281559.2000000477,,281560.7000000477,2021-11-01T14:57:31.296Z,281592.558,1635778362,full,ni_sequenzen,NI_Sequenzen,,,,,,,,,,,,,,
,Screen_1,canvas.Screen,0_2_26_0,,skipped,27,281561,,,281561.09999990463,,281561.09999990463,2021-11-01T14:57:31.296Z,281592.558,1635778362,full,ni_sequenzen,NI_Sequenzen,,,,,,,,,,,,,,
,Screen_2,canvas.Screen,0_2_26_1,,skipped,27,281561.2999999523,,,281561.09999990463,,281561.2999999523,2021-11-01T14:57:31.296Z,281592.558,1635778362,full,ni_sequenzen,NI_Sequenzen,,,,,,,,,,,,,,
,Screen_3,canvas.Screen,0_2_26_2,,skipped,27,281561.5,,,281561.09999990463,,281561.5,2021-11-01T14:57:31.297Z,281592.558,1635778362,full,ni_sequenzen,NI_Sequenzen,,,,,,,,,,,,,,
,Screen_4,canvas.Screen,0_2_26_3,,skipped,27,281561.90000009537,,,281561.09999990463,,281561.90000009537,2021-11-01T14:57:31.297Z,281592.558,1635778362,full,ni_sequenzen,NI_Sequenzen,,,,,,,,,,,,,,
,Screen_5,canvas.Screen,0_2_26_4,,skipped,27,281562.2000000477,,,281561.09999990463,,281562.2000000477,2021-11-01T14:57:31.297Z,281592.558,1635778362,full,ni_sequenzen,NI_Sequenzen,,,,,,,,,,,,,,
,Screen_6,canvas.Screen,0_2_26_5,,skipped,27,281562.5,,,281561.09999990463,,281562.5,2021-11-01T14:57:31.298Z,281592.558,1635778362,full,ni_sequenzen,NI_Sequenzen,,,,,,,,,,,,,,
,Sequence,flow.Sequence,0_2_26,,completion,27,281560.7000000477,,,281561.09999990463,,281562.59999990463,2021-11-01T14:57:31.298Z,281592.558,1635778362,full,ni_sequenzen,NI_Sequenzen,,,,,,,,,,,,,,
,Screen_1,canvas.Screen,0_2_27_0,,skipped,28,281563,,,281563,,281563,2021-11-01T14:57:31.298Z,281592.558,1635778362,full,ni_sequenzen,NI_Sequenzen,,,,,,,,,,,,,,
,Screen_2,canvas.Screen,0_2_27_1,,skipped,28,281563.2000000477,,,281563,,281563.2000000477,2021-11-01T14:57:31.298Z,281592.558,1635778362,full,ni_sequenzen,NI_Sequenzen,,,,,,,,,,,,,,
,Screen_3,canvas.Screen,0_2_27_2,,skipped,28,281563.90000009537,,,281563,,281563.90000009537,2021-11-01T14:57:31.299Z,281592.558,1635778362,full,ni_sequenzen,NI_Sequenzen,,,,,,,,,,,,,,
,Screen_4,canvas.Screen,0_2_27_3,,skipped,28,281564.2000000477,,,281563,,281564.2000000477,2021-11-01T14:57:31.299Z,281592.558,1635778362,full,ni_sequenzen,NI_Sequenzen,,,,,,,,,,,,,,
,Screen_5,canvas.Screen,0_2_27_4,,skipped,28,281564.5,,,281563,,281564.59999990463,2021-11-01T14:57:31.300Z,281592.558,1635778362,full,ni_sequenzen,NI_Sequenzen,,,,,,,,,,,,,,
,Screen_6,canvas.Screen,0_2_27_5,,skipped,28,281564.7999999523,,,281563,,281564.7999999523,2021-11-01T14:57:31.300Z,281592.558,1635778362,full,ni_sequenzen,NI_Sequenzen,,,,,,,,,,,,,,
,Sequence,flow.Sequence,0_2_27,,completion,28,281562.7000000477,,,281563,,281564.90000009537,2021-11-01T14:57:31.300Z,281592.558,1635778362,full,ni_sequenzen,NI_Sequenzen,,,,,,,,,,,,,,
,Screen_1,canvas.Screen,0_2_28_0,,skipped,29,281565.2999999523,,,281565.2999999523,,281565.2999999523,2021-11-01T14:57:31.300Z,281592.558,1635778362,full,ni_sequenzen,NI_Sequenzen,,,,,,,,,,,,,,
,Screen_2,canvas.Screen,0_2_28_1,,skipped,29,281565.5,,,281565.2999999523,,281565.5,2021-11-01T14:57:31.301Z,281592.558,1635778362,full,ni_sequenzen,NI_Sequenzen,,,,,,,,,,,,,,
,Screen_3,canvas.Screen,0_2_28_2,,skipped,29,281565.7999999523,,,281565.2999999523,,281565.7999999523,2021-11-01T14:57:31.301Z,281592.558,1635778362,full,ni_sequenzen,NI_Sequenzen,,,,,,,,,,,,,,
,Screen_4,canvas.Screen,0_2_28_3,,skipped,29,281566.09999990463,,,281565.2999999523,,281566.09999990463,2021-11-01T14:57:31.301Z,281592.558,1635778362,full,ni_sequenzen,NI_Sequenzen,,,,,,,,,,,,,,
,Screen_5,canvas.Screen,0_2_28_4,,skipped,29,281566.40000009537,,,281565.2999999523,,281566.40000009537,2021-11-01T14:57:31.301Z,281592.558,1635778362,full,ni_sequenzen,NI_Sequenzen,,,,,,,,,,,,,,
,Screen_6,canvas.Screen,0_2_28_5,,skipped,29,281566.59999990463,,,281565.2999999523,,281566.59999990463,2021-11-01T14:57:31.302Z,281592.558,1635778362,full,ni_sequenzen,NI_Sequenzen,,,,,,,,,,,,,,
,Sequence,flow.Sequence,0_2_28,,completion,29,281565,,,281565.2999999523,,281566.59999990463,2021-11-01T14:57:31.302Z,281592.558,1635778362,full,ni_sequenzen,NI_Sequenzen,,,,,,,,,,,,,,
,Screen_1,canvas.Screen,0_2_29_0,,skipped,30,281567.09999990463,,,281567.09999990463,,281567.09999990463,2021-11-01T14:57:31.302Z,281592.558,1635778362,full,ni_sequenzen,NI_Sequenzen,,,,,,,,,,,,,,
,Screen_2,canvas.Screen,0_2_29_1,,skipped,30,281567.40000009537,,,281567.09999990463,,281567.40000009537,2021-11-01T14:57:31.302Z,281592.558,1635778362,full,ni_sequenzen,NI_Sequenzen,,,,,,,,,,,,,,
,Screen_3,canvas.Screen,0_2_29_2,,skipped,30,281567.59999990463,,,281567.09999990463,,281567.59999990463,2021-11-01T14:57:31.303Z,281592.558,1635778362,full,ni_sequenzen,NI_Sequenzen,,,,,,,,,,,,,,
,Screen_4,canvas.Screen,0_2_29_3,,skipped,30,281567.7999999523,,,281567.09999990463,,281567.90000009537,2021-11-01T14:57:31.303Z,281592.558,1635778362,full,ni_sequenzen,NI_Sequenzen,,,,,,,,,,,,,,
,Screen_5,canvas.Screen,0_2_29_4,,skipped,30,281568.09999990463,,,281567.09999990463,,281568.2000000477,2021-11-01T14:57:31.303Z,281592.558,1635778362,full,ni_sequenzen,NI_Sequenzen,,,,,,,,,,,,,,
,Screen_6,canvas.Screen,0_2_29_5,,skipped,30,281568.2999999523,,,281567.09999990463,,281568.40000009537,2021-11-01T14:57:31.303Z,281592.558,1635778362,full,ni_sequenzen,NI_Sequenzen,,,,,,,,,,,,,,
,Sequence,flow.Sequence,0_2_29,,completion,30,281566.7000000477,,,281567.09999990463,,281568.40000009537,2021-11-01T14:57:31.304Z,281592.558,1635778362,full,ni_sequenzen,NI_Sequenzen,,,,,,,,,,,,,,
,Instructions_II,flow.Loop,0_2,,completion,,227267.5,227257.754,227274.298,281567.09999990463,54292.80199990462,281568.90000009537,2021-11-01T14:57:31.304Z,281592.558,1635778362,full,ni_sequenzen,NI_Sequenzen,,,,,,,,,,,,,,
,Move,canvas.Screen,0_3_0_0_0_0,right,response,,281582.5,281576.164,281592.558,285517.7999999523,3925.241999952297,285518.40000009537,2021-11-01T14:57:35.254Z,285531.939,1635778362,full,ni_sequenzen,NI_Sequenzen,1,0,,,,,,,,,,,,
,Move,canvas.Screen,0_3_0_0_0_1,down,response,,285524.7999999523,285515.402,285531.939,286840.2000000477,1308.2610000476707,286840.7999999523,2021-11-01T14:57:36.576Z,286873.953,1635778362,full,ni_sequenzen,NI_Sequenzen,2,0,,,,,,,,,,,,
,Move,canvas.Screen,0_3_0_0_0_2,right,response,,286844.2000000477,286828.554,286873.953,288248.2999999523,1374.3469999523368,288249,2021-11-01T14:57:37.984Z,288257.802,1635778362,full,ni_sequenzen,NI_Sequenzen,3,0,,,,,,,,,,,,
,Move,canvas.Screen,0_3_0_0_0_3,down,response,,288252.7999999523,288241.379,288257.802,288706.5,448.69799999997485,288707.2000000477,2021-11-01T14:57:38.442Z,288739.788,1635778362,full,ni_sequenzen,NI_Sequenzen,4,0,,,,,,,,,,,,
,Move,canvas.Screen,0_3_0_0_0_4,-999,skipped,,288710.2999999523,,,288706.5,,288710.40000009537,2021-11-01T14:57:38.446Z,288739.788,1635778362,full,ni_sequenzen,NI_Sequenzen,5,0,,,,,,,,,,,,
,Move,canvas.Screen,0_3_0_0_0_5,-999,skipped,,288712.2999999523,,,288706.5,,288712.2999999523,2021-11-01T14:57:38.447Z,288739.788,1635778362,full,ni_sequenzen,NI_Sequenzen,6,0,,,,,,,,,,,,
,Move,canvas.Screen,0_3_0_0_0_6,-999,skipped,,288713.5,,,288706.5,,288713.5,2021-11-01T14:57:38.449Z,288739.788,1635778362,full,ni_sequenzen,NI_Sequenzen,7,0,,,,,,,,,,,,
,Move,canvas.Screen,0_3_0_0_0_7,-999,skipped,,288714.40000009537,,,288706.5,,288714.5,2021-11-01T14:57:38.450Z,288739.788,1635778362,full,ni_sequenzen,NI_Sequenzen,8,0,,,,,,,,,,,,
,Move,canvas.Screen,0_3_0_0_0_8,-999,skipped,,288715.2999999523,,,288706.5,,288715.40000009537,2021-11-01T14:57:38.450Z,288739.788,1635778362,full,ni_sequenzen,NI_Sequenzen,9,0,,,,,,,,,,,,
,Move,canvas.Screen,0_3_0_0_0_9,-999,skipped,,288716.5,,,288706.5,,288716.5,2021-11-01T14:57:38.452Z,288739.788,1635778362,full,ni_sequenzen,NI_Sequenzen,10,0,,,,,,,,,,,,
,Move,canvas.Screen,0_3_0_0_0_10,-999,skipped,,288717.2999999523,,,288706.5,,288717.2999999523,2021-11-01T14:57:38.452Z,288739.788,1635778362,full,ni_sequenzen,NI_Sequenzen,11,0,,,,,,,,,,,,
,Move,canvas.Screen,0_3_0_0_0_11,-999,skipped,,288718.59999990463,,,288706.5,,288718.59999990463,2021-11-01T14:57:38.454Z,288739.788,1635778362,full,ni_sequenzen,NI_Sequenzen,12,0,,,,,,,,,,,,
,Move,canvas.Screen,0_3_0_0_0_12,-999,skipped,,288719.90000009537,,,288706.5,,288719.90000009537,2021-11-01T14:57:38.455Z,288739.788,1635778362,full,ni_sequenzen,NI_Sequenzen,13,0,,,,,,,,,,,,
,Move,canvas.Screen,0_3_0_0_0_13,-999,skipped,,288720.7000000477,,,288706.5,,288720.7000000477,2021-11-01T14:57:38.456Z,288739.788,1635778362,full,ni_sequenzen,NI_Sequenzen,14,0,,,,,,,,,,,,
,Move,canvas.Screen,0_3_0_0_0_14,-999,skipped,,288721.7000000477,,,288706.5,,288721.7000000477,2021-11-01T14:57:38.457Z,288739.788,1635778362,full,ni_sequenzen,NI_Sequenzen,15,0,,,,,,,,,,,,
,Loop,flow.Loop,0_3_0_0_0,-999,completion,,281580,281576.164,281592.558,288706.5,7113.941999999981,288721.7000000477,2021-11-01T14:57:38.457Z,288739.788,1635778362,full,ni_sequenzen,NI_Sequenzen,,0,,,,,,,,,,,,
,Feedback,canvas.Screen,0_3_0_0_1,,timeout,,288723.2999999523,288723.401,288739.788,292729.157,4005.9749999999767,292730.09999990463,2021-11-01T14:57:42.465Z,292745.763,1635778362,full,ni_sequenzen,NI_Sequenzen,,0,,,,,,,,,,,,
,Trial,flow.Sequence,0_3_0_0,,completion,,281575.2999999523,281576.164,281592.558,292729.157,11136.598999999987,292730.2999999523,2021-11-01T14:57:42.465Z,292762.373,1635778362,full,ni_sequenzen,NI_Sequenzen,,0,,,,,,,,,,,,
,Move,canvas.Screen,0_3_0_1_0_0,down,response,,292738.40000009537,292745.763,292762.373,295688,2925.6269999999786,295688.59999990463,2021-11-01T14:57:45.424Z,295703.989,1635778362,full,ni_sequenzen,NI_Sequenzen,1,1,,,,,,,,,,,,
,Move,canvas.Screen,0_3_0_1_0_1,right,response,,295691.7000000477,295687.561,295703.989,297918.40000009537,2214.411000095366,297919.09999990463,2021-11-01T14:57:47.654Z,297931.244,1635778362,full,ni_sequenzen,NI_Sequenzen,2,1,,,,,,,,,,,,
,Move,canvas.Screen,0_3_0_1_0_2,right,response,,297922.09999990463,297914.821,297931.244,299694.7999999523,1763.5559999523102,299695.5,2021-11-01T14:57:49.431Z,299709.723,1635778362,full,ni_sequenzen,NI_Sequenzen,3,1,,,,,,,,,,,,
,Move,canvas.Screen,0_3_0_1_0_3,down,response,,299699,299693.437,299709.723,300508.2000000477,798.4770000476856,300508.90000009537,2021-11-01T14:57:50.244Z,300541.14,1635778362,full,ni_sequenzen,NI_Sequenzen,4,1,,,,,,,,,,,,
,Move,canvas.Screen,0_3_0_1_0_4,-999,skipped,,300512.09999990463,,,300508.2000000477,,300512.2000000477,2021-11-01T14:57:50.247Z,300541.14,1635778362,full,ni_sequenzen,NI_Sequenzen,5,1,,,,,,,,,,,,
,Move,canvas.Screen,0_3_0_1_0_5,-999,skipped,,300514.40000009537,,,300508.2000000477,,300514.5,2021-11-01T14:57:50.250Z,300541.14,1635778362,full,ni_sequenzen,NI_Sequenzen,6,1,,,,,,,,,,,,
,Move,canvas.Screen,0_3_0_1_0_6,-999,skipped,,300515.59999990463,,,300508.2000000477,,300515.59999990463,2021-11-01T14:57:50.251Z,300541.14,1635778362,full,ni_sequenzen,NI_Sequenzen,7,1,,,,,,,,,,,,
,Move,canvas.Screen,0_3_0_1_0_7,-999,skipped,,300516.5,,,300508.2000000477,,300516.5,2021-11-01T14:57:50.252Z,300541.14,1635778362,full,ni_sequenzen,NI_Sequenzen,8,1,,,,,,,,,,,,
,Move,canvas.Screen,0_3_0_1_0_8,-999,skipped,,300517.2999999523,,,300508.2000000477,,300517.40000009537,2021-11-01T14:57:50.252Z,300541.14,1635778362,full,ni_sequenzen,NI_Sequenzen,9,1,,,,,,,,,,,,
,Move,canvas.Screen,0_3_0_1_0_9,-999,skipped,,300518.59999990463,,,300508.2000000477,,300518.7000000477,2021-11-01T14:57:50.254Z,300541.14,1635778362,full,ni_sequenzen,NI_Sequenzen,10,1,,,,,,,,,,,,
,Move,canvas.Screen,0_3_0_1_0_10,-999,skipped,,300519.59999990463,,,300508.2000000477,,300519.59999990463,2021-11-01T14:57:50.255Z,300541.14,1635778362,full,ni_sequenzen,NI_Sequenzen,11,1,,,,,,,,,,,,
,Move,canvas.Screen,0_3_0_1_0_11,-999,skipped,,300520.5,,,300508.2000000477,,300520.59999990463,2021-11-01T14:57:50.256Z,300541.14,1635778362,full,ni_sequenzen,NI_Sequenzen,12,1,,,,,,,,,,,,
,Move,canvas.Screen,0_3_0_1_0_12,-999,skipped,,300521.59999990463,,,300508.2000000477,,300521.59999990463,2021-11-01T14:57:50.257Z,300541.14,1635778362,full,ni_sequenzen,NI_Sequenzen,13,1,,,,,,,,,,,,
,Move,canvas.Screen,0_3_0_1_0_13,-999,skipped,,300522.59999990463,,,300508.2000000477,,300522.7000000477,2021-11-01T14:57:50.258Z,300541.14,1635778362,full,ni_sequenzen,NI_Sequenzen,14,1,,,,,,,,,,,,
,Move,canvas.Screen,0_3_0_1_0_14,-999,skipped,,300523.59999990463,,,300508.2000000477,,300523.7000000477,2021-11-01T14:57:50.259Z,300541.14,1635778362,full,ni_sequenzen,NI_Sequenzen,15,1,,,,,,,,,,,,
,Loop,flow.Loop,0_3_0_1_0,-999,completion,,292737.2999999523,292745.763,292762.373,300508.2000000477,7745.827000047662,300523.7000000477,2021-11-01T14:57:50.259Z,300541.14,1635778362,full,ni_sequenzen,NI_Sequenzen,,1,,,,,,,,,,,,
,Feedback,canvas.Screen,0_3_0_1_1,,timeout,,300524.5,300524.402,300541.14,304530.181,4005.7390000000014,304530.90000009537,2021-11-01T14:57:54.266Z,304546.879,1635778362,full,ni_sequenzen,NI_Sequenzen,,1,,,,,,,,,,,,
,Trial,flow.Sequence,0_3_0_1,,completion,,292730.7000000477,292745.763,292762.373,304530.181,11767.80799999996,304531.09999990463,2021-11-01T14:57:54.266Z,304563.266,1635778362,full,ni_sequenzen,NI_Sequenzen,,1,,,,,,,,,,,,
,Move,canvas.Screen,0_3_0_2_0_0,left,response,,304540.7000000477,304546.879,304563.266,306182.2000000477,1618.9340000476805,306183,2021-11-01T14:57:55.918Z,306192.031,1635778362,full,ni_sequenzen,NI_Sequenzen,1,2,,,,,,,,,,,,
,Move,canvas.Screen,0_3_0_2_0_1,down,response,,306187.59999990463,306175.566,306192.031,307295.59999990463,1103.5689999046153,307296.40000009537,2021-11-01T14:57:57.031Z,307305.651,1635778362,full,ni_sequenzen,NI_Sequenzen,2,2,,,,,,,,,,,,
,Move,canvas.Screen,0_3_0_2_0_2,left,response,,307299.2000000477,307289.382,307305.651,309769.90000009537,2464.249000095355,309770.59999990463,2021-11-01T14:57:59.506Z,309782.365,1635778362,full,ni_sequenzen,NI_Sequenzen,3,2,,,,,,,,,,,,
,Move,canvas.Screen,0_3_0_2_0_3,down,response,,309774.5,309765.669,309782.365,310308.40000009537,526.0350000953767,310308.7999999523,2021-11-01T14:58:00.044Z,310330.839,1635778362,full,ni_sequenzen,NI_Sequenzen,4,2,,,,,,,,,,,,
,Move,canvas.Screen,0_3_0_2_0_4,-999,skipped,,310309.90000009537,,,310308.40000009537,,310309.90000009537,2021-11-01T14:58:00.045Z,310330.839,1635778362,full,ni_sequenzen,NI_Sequenzen,5,2,,,,,,,,,,,,
,Move,canvas.Screen,0_3_0_2_0_5,-999,skipped,,310310.7000000477,,,310308.40000009537,,310310.7000000477,2021-11-01T14:58:00.046Z,310330.839,1635778362,full,ni_sequenzen,NI_Sequenzen,6,2,,,,,,,,,,,,
,Move,canvas.Screen,0_3_0_2_0_6,-999,skipped,,310311.90000009537,,,310308.40000009537,,310311.90000009537,2021-11-01T14:58:00.047Z,310330.839,1635778362,full,ni_sequenzen,NI_Sequenzen,7,2,,,,,,,,,,,,
,Move,canvas.Screen,0_3_0_2_0_7,-999,skipped,,310312.7000000477,,,310308.40000009537,,310312.7000000477,2021-11-01T14:58:00.048Z,310330.839,1635778362,full,ni_sequenzen,NI_Sequenzen,8,2,,,,,,,,,,,,
,Move,canvas.Screen,0_3_0_2_0_8,-999,skipped,,310313.40000009537,,,310308.40000009537,,310313.40000009537,2021-11-01T14:58:00.049Z,310330.839,1635778362,full,ni_sequenzen,NI_Sequenzen,9,2,,,,,,,,,,,,
,Move,canvas.Screen,0_3_0_2_0_9,-999,skipped,,310314.7000000477,,,310308.40000009537,,310314.7000000477,2021-11-01T14:58:00.050Z,310330.839,1635778362,full,ni_sequenzen,NI_Sequenzen,10,2,,,,,,,,,,,,
,Move,canvas.Screen,0_3_0_2_0_10,-999,skipped,,310315.5,,,310308.40000009537,,310315.5,2021-11-01T14:58:00.051Z,310330.839,1635778362,full,ni_sequenzen,NI_Sequenzen,11,2,,,,,,,,,,,,
,Move,canvas.Screen,0_3_0_2_0_11,-999,skipped,,310316.40000009537,,,310308.40000009537,,310316.40000009537,2021-11-01T14:58:00.052Z,310330.839,1635778362,full,ni_sequenzen,NI_Sequenzen,12,2,,,,,,,,,,,,
,Move,canvas.Screen,0_3_0_2_0_12,-999,skipped,,310317.5,,,310308.40000009537,,310317.5,2021-11-01T14:58:00.053Z,310330.839,1635778362,full,ni_sequenzen,NI_Sequenzen,13,2,,,,,,,,,,,,
,Move,canvas.Screen,0_3_0_2_0_13,-999,skipped,,310318.40000009537,,,310308.40000009537,,310318.40000009537,2021-11-01T14:58:00.053Z,310330.839,1635778362,full,ni_sequenzen,NI_Sequenzen,14,2,,,,,,,,,,,,
,Move,canvas.Screen,0_3_0_2_0_14,-999,skipped,,310319.09999990463,,,310308.40000009537,,310319.09999990463,2021-11-01T14:58:00.054Z,310330.839,1635778362,full,ni_sequenzen,NI_Sequenzen,15,2,,,,,,,,,,,,
,Loop,flow.Loop,0_3_0_2_0,-999,completion,,304539.59999990463,304546.879,304563.266,310308.40000009537,5745.134000095364,310319.2000000477,2021-11-01T14:58:00.054Z,310330.839,1635778362,full,ni_sequenzen,NI_Sequenzen,,2,,,,,,,,,,,,
,Feedback,canvas.Screen,0_3_0_2_1,,timeout,,310319.7999999523,310314.451,310330.839,314320.011,4005.9890000000014,314320.7999999523,2021-11-01T14:58:04.056Z,314336.828,1635778362,full,ni_sequenzen,NI_Sequenzen,,2,,,,,,,,,,,,
,Trial,flow.Sequence,0_3_0_2,,completion,,304531.40000009537,304546.879,304563.266,314320.011,9756.744999999995,314320.90000009537,2021-11-01T14:58:04.056Z,314353.37,1635778362,full,ni_sequenzen,NI_Sequenzen,,2,,,,,,,,,,,,
,Move,canvas.Screen,0_3_0_3_0_0,right,response,,314330.59999990463,314336.828,314353.37,316691.5,2338.1300000000047,316692.2000000477,2021-11-01T14:58:06.427Z,316721.159,1635778362,full,ni_sequenzen,NI_Sequenzen,1,3,,,,,,,,,,,,
,Move,canvas.Screen,0_3_0_3_0_1,down,response,,316695.7999999523,316680.261,316721.159,317255.7000000477,534.5410000476986,317256.2999999523,2021-11-01T14:58:06.991Z,317261.84,1635778362,full,ni_sequenzen,NI_Sequenzen,2,3,,,,,,,,,,,,
,Move,canvas.Screen,0_3_0_3_0_2,right,response,,317259.5,317245.563,317261.84,317809,547.1599999999744,317809.7000000477,2021-11-01T14:58:07.545Z,317827.283,1635778362,full,ni_sequenzen,NI_Sequenzen,3,3,,,,,,,,,,,,
,Move,canvas.Screen,0_3_0_3_0_3,down,response,,317812.7999999523,317810.668,317827.283,318153.5,326.2170000000042,318154.09999990463,2021-11-01T14:58:07.889Z,318175.971,1635778362,full,ni_sequenzen,NI_Sequenzen,4,3,,,,,,,,,,,,
,Move,canvas.Screen,0_3_0_3_0_4,-999,skipped,,318157.2000000477,,,318153.5,,318157.2999999523,2021-11-01T14:58:07.892Z,318175.971,1635778362,full,ni_sequenzen,NI_Sequenzen,5,3,,,,,,,,,,,,
,Move,canvas.Screen,0_3_0_3_0_5,-999,skipped,,318159.2999999523,,,318153.5,,318159.2999999523,2021-11-01T14:58:07.894Z,318175.971,1635778362,full,ni_sequenzen,NI_Sequenzen,6,3,,,,,,,,,,,,
,Move,canvas.Screen,0_3_0_3_0_6,-999,skipped,,318160.40000009537,,,318153.5,,318160.40000009537,2021-11-01T14:58:07.895Z,318175.971,1635778362,full,ni_sequenzen,NI_Sequenzen,7,3,,,,,,,,,,,,
,Move,canvas.Screen,0_3_0_3_0_7,-999,skipped,,318161.2000000477,,,318153.5,,318161.2000000477,2021-11-01T14:58:07.896Z,318175.971,1635778362,full,ni_sequenzen,NI_Sequenzen,8,3,,,,,,,,,,,,
,Move,canvas.Screen,0_3_0_3_0_8,-999,skipped,,318162,,,318153.5,,318162,2021-11-01T14:58:07.897Z,318175.971,1635778362,full,ni_sequenzen,NI_Sequenzen,9,3,,,,,,,,,,,,
,Move,canvas.Screen,0_3_0_3_0_9,-999,skipped,,318163.09999990463,,,318153.5,,318163.09999990463,2021-11-01T14:58:07.898Z,318175.971,1635778362,full,ni_sequenzen,NI_Sequenzen,10,3,,,,,,,,,,,,
,Move,canvas.Screen,0_3_0_3_0_10,-999,skipped,,318163.90000009537,,,318153.5,,318163.90000009537,2021-11-01T14:58:07.899Z,318175.971,1635778362,full,ni_sequenzen,NI_Sequenzen,11,3,,,,,,,,,,,,
,Move,canvas.Screen,0_3_0_3_0_11,-999,skipped,,318164.7000000477,,,318153.5,,318164.7000000477,2021-11-01T14:58:07.900Z,318175.971,1635778362,full,ni_sequenzen,NI_Sequenzen,12,3,,,,,,,,,,,,
,Move,canvas.Screen,0_3_0_3_0_12,-999,skipped,,318165.5,,,318153.5,,318165.59999990463,2021-11-01T14:58:07.901Z,318175.971,1635778362,full,ni_sequenzen,NI_Sequenzen,13,3,,,,,,,,,,,,
,Move,canvas.Screen,0_3_0_3_0_13,-999,skipped,,318166.59999990463,,,318153.5,,318166.7000000477,2021-11-01T14:58:07.902Z,318175.971,1635778362,full,ni_sequenzen,NI_Sequenzen,14,3,,,,,,,,,,,,
,Move,canvas.Screen,0_3_0_3_0_14,-999,skipped,,318167.5,,,318153.5,,318167.5,2021-11-01T14:58:07.903Z,318175.971,1635778362,full,ni_sequenzen,NI_Sequenzen,15,3,,,,,,,,,,,,
,Loop,flow.Loop,0_3_0_3_0,-999,completion,,314329.59999990463,314336.828,314353.37,318153.5,3800.1300000000047,318167.59999990463,2021-11-01T14:58:07.903Z,318175.971,1635778362,full,ni_sequenzen,NI_Sequenzen,,3,,,,,,,,,,,,
,Feedback,canvas.Screen,0_3_0_3_1,,timeout,,318168.2999999523,318159.592,318175.971,322165.464,4006.0939999999828,322166.2000000477,2021-11-01T14:58:11.901Z,322182.065,1635778362,full,ni_sequenzen,NI_Sequenzen,,3,,,,,,,,,,,,
,Trial,flow.Sequence,0_3_0_3,,completion,,314321.2999999523,314336.828,314353.37,322165.464,7812.093999999983,322166.2999999523,2021-11-01T14:58:11.901Z,322198.536,1635778362,full,ni_sequenzen,NI_Sequenzen,,3,,,,,,,,,,,,
,Move,canvas.Screen,0_3_0_4_0_0,down,response,,322175.7999999523,322182.065,322198.536,323433.2000000477,1234.6640000476618,323433.90000009537,2021-11-01T14:58:13.169Z,323444.971,1635778362,full,ni_sequenzen,NI_Sequenzen,1,4,,,,,,,,,,,,
,Move,canvas.Screen,0_3_0_4_0_1,right,response,,323437.59999990463,323428.601,323444.971,324550.5,1105.5289999999804,324551.09999990463,2021-11-01T14:58:14.286Z,324558.577,1635778362,full,ni_sequenzen,NI_Sequenzen,2,4,,,,,,,,,,,,
,Move,canvas.Screen,0_3_0_4_0_2,right,response,,324554.2000000477,324542.276,324558.577,325998.2000000477,1439.6230000476935,325999,2021-11-01T14:58:15.734Z,326004.603,1635778362,full,ni_sequenzen,NI_Sequenzen,3,4,,,,,,,,,,,,
,Move,canvas.Screen,0_3_0_4_0_3,down,response,,326002.2000000477,325988.335,326004.603,326347.59999990463,342.9969999046298,326348.2000000477,2021-11-01T14:58:16.083Z,326370.4,1635778362,full,ni_sequenzen,NI_Sequenzen,4,4,,,,,,,,,,,,
,Move,canvas.Screen,0_3_0_4_0_4,-999,skipped,,326351.2000000477,,,326347.59999990463,,326351.40000009537,2021-11-01T14:58:16.086Z,326370.4,1635778362,full,ni_sequenzen,NI_Sequenzen,5,4,,,,,,,,,,,,
,Move,canvas.Screen,0_3_0_4_0_5,-999,skipped,,326353.5,,,326347.59999990463,,326353.5,2021-11-01T14:58:16.089Z,326370.4,1635778362,full,ni_sequenzen,NI_Sequenzen,6,4,,,,,,,,,,,,
,Move,canvas.Screen,0_3_0_4_0_6,-999,skipped,,326354.59999990463,,,326347.59999990463,,326354.7000000477,2021-11-01T14:58:16.090Z,326370.4,1635778362,full,ni_sequenzen,NI_Sequenzen,7,4,,,,,,,,,,,,
,Move,canvas.Screen,0_3_0_4_0_7,-999,skipped,,326355.5,,,326347.59999990463,,326355.5,2021-11-01T14:58:16.091Z,326370.4,1635778362,full,ni_sequenzen,NI_Sequenzen,8,4,,,,,,,,,,,,
,Move,canvas.Screen,0_3_0_4_0_8,-999,skipped,,326356.2999999523,,,326347.59999990463,,326356.2999999523,2021-11-01T14:58:16.091Z,326370.4,1635778362,full,ni_sequenzen,NI_Sequenzen,9,4,,,,,,,,,,,,
,Move,canvas.Screen,0_3_0_4_0_9,-999,skipped,,326358.7000000477,,,326347.59999990463,,326358.7999999523,2021-11-01T14:58:16.094Z,326370.4,1635778362,full,ni_sequenzen,NI_Sequenzen,10,4,,,,,,,,,,,,
,Move,canvas.Screen,0_3_0_4_0_10,-999,skipped,,326359.90000009537,,,326347.59999990463,,326360,2021-11-01T14:58:16.095Z,326370.4,1635778362,full,ni_sequenzen,NI_Sequenzen,11,4,,,,,,,,,,,,
,Move,canvas.Screen,0_3_0_4_0_11,-999,skipped,,326360.7000000477,,,326347.59999990463,,326360.7999999523,2021-11-01T14:58:16.096Z,326370.4,1635778362,full,ni_sequenzen,NI_Sequenzen,12,4,,,,,,,,,,,,
,Move,canvas.Screen,0_3_0_4_0_12,-999,skipped,,326361.7999999523,,,326347.59999990463,,326361.7999999523,2021-11-01T14:58:16.097Z,326370.4,1635778362,full,ni_sequenzen,NI_Sequenzen,13,4,,,,,,,,,,,,
,Move,canvas.Screen,0_3_0_4_0_13,-999,skipped,,326362.59999990463,,,326347.59999990463,,326362.59999990463,2021-11-01T14:58:16.098Z,326370.4,1635778362,full,ni_sequenzen,NI_Sequenzen,14,4,,,,,,,,,,,,
,Move,canvas.Screen,0_3_0_4_0_14,-999,skipped,,326363.2999999523,,,326347.59999990463,,326363.2999999523,2021-11-01T14:58:16.098Z,326370.4,1635778362,full,ni_sequenzen,NI_Sequenzen,15,4,,,,,,,,,,,,
,Loop,flow.Loop,0_3_0_4_0,-999,completion,,322174.7000000477,322182.065,322198.536,326347.59999990463,4149.063999904611,326363.40000009537,2021-11-01T14:58:16.098Z,326370.4,1635778362,full,ni_sequenzen,NI_Sequenzen,,4,,,,,,,,,,,,
,Feedback,canvas.Screen,0_3_0_4_1,,timeout,,326364,326354.011,326370.4,330359.775,4005.710999999952,330360.40000009537,2021-11-01T14:58:20.095Z,330376.111,1635778362,full,ni_sequenzen,NI_Sequenzen,,4,,,,,,,,,,,,
,Trial,flow.Sequence,0_3_0_4,,completion,,322166.59999990463,322182.065,322198.536,330359.775,8161.239000000001,330360.59999990463,2021-11-01T14:58:20.096Z,330392.877,1635778362,full,ni_sequenzen,NI_Sequenzen,,4,,,,,,,,,,,,
,Move,canvas.Screen,0_3_0_5_0_0,right,response,,330369.2999999523,330376.111,330392.877,332669.59999990463,2276.722999904654,332670.2999999523,2021-11-01T14:58:22.405Z,332686.455,1635778362,full,ni_sequenzen,NI_Sequenzen,1,5,,,,,,,,,,,,
,Move,canvas.Screen,0_3_0_5_0_1,down,response,,332673.90000009537,332669.937,332686.455,333129.09999990463,442.64499990461627,333129.7999999523,2021-11-01T14:58:22.865Z,333135.196,1635778362,full,ni_sequenzen,NI_Sequenzen,2,5,,,,,,,,,,,,
,Move,canvas.Screen,0_3_0_5_0_2,right,response,,333133,333118.728,333135.196,333803,667.8040000000037,333803.7000000477,2021-11-01T14:58:23.539Z,333816.696,1635778362,full,ni_sequenzen,NI_Sequenzen,3,5,,,,,,,,,,,,
,Move,canvas.Screen,0_3_0_5_0_3,down,response,,333806.7000000477,333800.193,333816.696,334102.7000000477,286.00400004768744,334103.40000009537,2021-11-01T14:58:23.838Z,334132.769,1635778362,full,ni_sequenzen,NI_Sequenzen,4,5,,,,,,,,,,,,
,Move,canvas.Screen,0_3_0_5_0_4,-999,skipped,,334106.90000009537,,,334102.7000000477,,334107,2021-11-01T14:58:23.842Z,334132.769,1635778362,full,ni_sequenzen,NI_Sequenzen,5,5,,,,,,,,,,,,
,Move,canvas.Screen,0_3_0_5_0_5,-999,skipped,,334108.7000000477,,,334102.7000000477,,334108.7999999523,2021-11-01T14:58:23.844Z,334132.769,1635778362,full,ni_sequenzen,NI_Sequenzen,6,5,,,,,,,,,,,,
,Move,canvas.Screen,0_3_0_5_0_6,-999,skipped,,334109.5,,,334102.7000000477,,334109.5,2021-11-01T14:58:23.845Z,334132.769,1635778362,full,ni_sequenzen,NI_Sequenzen,7,5,,,,,,,,,,,,
,Move,canvas.Screen,0_3_0_5_0_7,-999,skipped,,334110.59999990463,,,334102.7000000477,,334110.59999990463,2021-11-01T14:58:23.846Z,334132.769,1635778362,full,ni_sequenzen,NI_Sequenzen,8,5,,,,,,,,,,,,
,Move,canvas.Screen,0_3_0_5_0_8,-999,skipped,,334111.40000009537,,,334102.7000000477,,334111.5,2021-11-01T14:58:23.846Z,334132.769,1635778362,full,ni_sequenzen,NI_Sequenzen,9,5,,,,,,,,,,,,
,Move,canvas.Screen,0_3_0_5_0_9,-999,skipped,,334112.09999990463,,,334102.7000000477,,334112.2999999523,2021-11-01T14:58:23.847Z,334132.769,1635778362,full,ni_sequenzen,NI_Sequenzen,10,5,,,,,,,,,,,,
,Move,canvas.Screen,0_3_0_5_0_10,-999,skipped,,334113.2000000477,,,334102.7000000477,,334113.2999999523,2021-11-01T14:58:23.848Z,334132.769,1635778362,full,ni_sequenzen,NI_Sequenzen,11,5,,,,,,,,,,,,
,Move,canvas.Screen,0_3_0_5_0_11,-999,skipped,,334114,,,334102.7000000477,,334114,2021-11-01T14:58:23.849Z,334132.769,1635778362,full,ni_sequenzen,NI_Sequenzen,12,5,,,,,,,,,,,,
,Move,canvas.Screen,0_3_0_5_0_12,-999,skipped,,334114.7999999523,,,334102.7000000477,,334114.7999999523,2021-11-01T14:58:23.850Z,334132.769,1635778362,full,ni_sequenzen,NI_Sequenzen,13,5,,,,,,,,,,,,
,Move,canvas.Screen,0_3_0_5_0_13,-999,skipped,,334115.59999990463,,,334102.7000000477,,334115.59999990463,2021-11-01T14:58:23.851Z,334132.769,1635778362,full,ni_sequenzen,NI_Sequenzen,14,5,,,,,,,,,,,,
,Move,canvas.Screen,0_3_0_5_0_14,-999,skipped,,334116.5,,,334102.7000000477,,334116.59999990463,2021-11-01T14:58:23.852Z,334132.769,1635778362,full,ni_sequenzen,NI_Sequenzen,15,5,,,,,,,,,,,,
,Loop,flow.Loop,0_3_0_5_0,-999,completion,,330368.2999999523,330376.111,330392.877,334102.7000000477,3709.823000047705,334116.59999990463,2021-11-01T14:58:23.852Z,334132.769,1635778362,full,ni_sequenzen,NI_Sequenzen,,5,,,,,,,,,,,,
,Feedback,canvas.Screen,0_3_0_5_1,,timeout,,334117.2999999523,334116.151,334132.769,338121.91,4005.7270000000135,338122.59999990463,2021-11-01T14:58:27.858Z,338138.496,1635778362,full,ni_sequenzen,NI_Sequenzen,,5,,,,,,,,,,,,
,Trial,flow.Sequence,0_3_0_5,,completion,,330360.90000009537,330376.111,330392.877,338121.91,7729.032999999996,338122.7000000477,2021-11-01T14:58:27.858Z,338154.92,1635778362,full,ni_sequenzen,NI_Sequenzen,,5,,,,,,,,,,,,
,Move,canvas.Screen,0_3_0_6_0_0,left,response,,338132.5,338138.496,338154.92,339332,1177.0800000000163,339332.7000000477,2021-11-01T14:58:29.068Z,339351.491,1635778362,full,ni_sequenzen,NI_Sequenzen,1,6,,,,,,,,,,,,
,Move,canvas.Screen,0_3_0_6_0_1,down,response,,339335.7000000477,339335.114,339351.491,340176.2000000477,824.7090000477037,340176.7999999523,2021-11-01T14:58:29.912Z,340182.589,1635778362,full,ni_sequenzen,NI_Sequenzen,2,6,,,,,,,,,,,,
,Move,canvas.Screen,0_3_0_6_0_2,down,response,,340180.5,340166.169,340182.589,343124.7000000477,2942.1110000477056,343125.40000009537,2021-11-01T14:58:32.860Z,343141.148,1635778362,full,ni_sequenzen,NI_Sequenzen,3,6,,,,,,,,,,,,
,Move,canvas.Screen,0_3_0_6_0_3,left,response,,343129.2000000477,343124.845,343141.148,343688.40000009537,547.2520000953809,343689,2021-11-01T14:58:33.424Z,343733.221,1635778362,full,ni_sequenzen,NI_Sequenzen,4,6,,,,,,,,,,,,
,Move,canvas.Screen,0_3_0_6_0_4,-999,skipped,,343692.09999990463,,,343688.40000009537,,343692.2000000477,2021-11-01T14:58:33.427Z,343733.221,1635778362,full,ni_sequenzen,NI_Sequenzen,5,6,,,,,,,,,,,,
,Move,canvas.Screen,0_3_0_6_0_5,-999,skipped,,343694.2999999523,,,343688.40000009537,,343694.2999999523,2021-11-01T14:58:33.429Z,343733.221,1635778362,full,ni_sequenzen,NI_Sequenzen,6,6,,,,,,,,,,,,
,Move,canvas.Screen,0_3_0_6_0_6,-999,skipped,,343695.7000000477,,,343688.40000009537,,343695.7000000477,2021-11-01T14:58:33.431Z,343733.221,1635778362,full,ni_sequenzen,NI_Sequenzen,7,6,,,,,,,,,,,,
,Move,canvas.Screen,0_3_0_6_0_7,-999,skipped,,343696.7000000477,,,343688.40000009537,,343696.7000000477,2021-11-01T14:58:33.432Z,343733.221,1635778362,full,ni_sequenzen,NI_Sequenzen,8,6,,,,,,,,,,,,
,Move,canvas.Screen,0_3_0_6_0_8,-999,skipped,,343698.2000000477,,,343688.40000009537,,343698.2999999523,2021-11-01T14:58:33.433Z,343733.221,1635778362,full,ni_sequenzen,NI_Sequenzen,9,6,,,,,,,,,,,,
,Move,canvas.Screen,0_3_0_6_0_9,-999,skipped,,343699.7999999523,,,343688.40000009537,,343699.90000009537,2021-11-01T14:58:33.435Z,343733.221,1635778362,full,ni_sequenzen,NI_Sequenzen,10,6,,,,,,,,,,,,
,Move,canvas.Screen,0_3_0_6_0_10,-999,skipped,,343701.5,,,343688.40000009537,,343701.59999990463,2021-11-01T14:58:33.437Z,343733.221,1635778362,full,ni_sequenzen,NI_Sequenzen,11,6,,,,,,,,,,,,
,Move,canvas.Screen,0_3_0_6_0_11,-999,skipped,,343702.40000009537,,,343688.40000009537,,343702.40000009537,2021-11-01T14:58:33.437Z,343733.221,1635778362,full,ni_sequenzen,NI_Sequenzen,12,6,,,,,,,,,,,,
,Move,canvas.Screen,0_3_0_6_0_12,-999,skipped,,343703.09999990463,,,343688.40000009537,,343703.09999990463,2021-11-01T14:58:33.438Z,343733.221,1635778362,full,ni_sequenzen,NI_Sequenzen,13,6,,,,,,,,,,,,
,Move,canvas.Screen,0_3_0_6_0_13,-999,skipped,,343704.2000000477,,,343688.40000009537,,343704.2000000477,2021-11-01T14:58:33.439Z,343733.221,1635778362,full,ni_sequenzen,NI_Sequenzen,14,6,,,,,,,,,,,,
,Move,canvas.Screen,0_3_0_6_0_14,-999,skipped,,343705,,,343688.40000009537,,343705,2021-11-01T14:58:33.440Z,343733.221,1635778362,full,ni_sequenzen,NI_Sequenzen,15,6,,,,,,,,,,,,
,Loop,flow.Loop,0_3_0_6_0,-999,completion,,338131.40000009537,338138.496,338154.92,343688.40000009537,5533.480000095384,343705,2021-11-01T14:58:33.440Z,343733.221,1635778362,full,ni_sequenzen,NI_Sequenzen,,6,,,,,,,,,,,,
,Feedback,canvas.Screen,0_3_0_6_1,,timeout,,343705.7000000477,343689.897,343733.221,347712.387,3995.7600000000093,347713.2000000477,2021-11-01T14:58:37.448Z,347728.981,1635778362,full,ni_sequenzen,NI_Sequenzen,,6,,,,,,,,,,,,
,Trial,flow.Sequence,0_3_0_6,,completion,,338123,338138.496,338154.92,347712.387,9557.467000000004,347713.2999999523,2021-11-01T14:58:37.448Z,347745.624,1635778362,full,ni_sequenzen,NI_Sequenzen,,6,,,,,,,,,,,,
,Move,canvas.Screen,0_3_0_7_0_0,right,response,,347722.5,347728.981,347745.624,348494,748.3759999999893,348494.7000000477,2021-11-01T14:58:38.230Z,348509.887,1635778362,full,ni_sequenzen,NI_Sequenzen,1,7,,,,,,,,,,,,
,Move,canvas.Screen,0_3_0_7_0_1,down,response,,348499.2000000477,348493.411,348509.887,348963.09999990463,453.2129999046447,348963.7999999523,2021-11-01T14:58:38.699Z,348975.218,1635778362,full,ni_sequenzen,NI_Sequenzen,2,7,,,,,,,,,,,,
,Move,canvas.Screen,0_3_0_7_0_2,right,response,,348966.7000000477,348958.896,348975.218,349322.59999990463,347.3819999046391,349323.40000009537,2021-11-01T14:58:39.058Z,349341.086,1635778362,full,ni_sequenzen,NI_Sequenzen,3,7,,,,,,,,,,,,
,Move,canvas.Screen,0_3_0_7_0_3,left,response,,349326.7000000477,349324.521,349341.086,349976,634.9139999999898,349976.7000000477,2021-11-01T14:58:39.712Z,350006.096,1635778362,full,ni_sequenzen,NI_Sequenzen,4,7,,,,,,,,,,,,
,Move,canvas.Screen,0_3_0_7_0_4,-999,skipped,,349980.2000000477,,,349976,,349980.2999999523,2021-11-01T14:58:39.715Z,350006.096,1635778362,full,ni_sequenzen,NI_Sequenzen,5,7,,,,,,,,,,,,
,Move,canvas.Screen,0_3_0_7_0_5,-999,skipped,,349982.2000000477,,,349976,,349982.2999999523,2021-11-01T14:58:39.717Z,350006.096,1635778362,full,ni_sequenzen,NI_Sequenzen,6,7,,,,,,,,,,,,
,Move,canvas.Screen,0_3_0_7_0_6,-999,skipped,,349983,,,349976,,349983,2021-11-01T14:58:39.718Z,350006.096,1635778362,full,ni_sequenzen,NI_Sequenzen,7,7,,,,,,,,,,,,
,Move,canvas.Screen,0_3_0_7_0_7,-999,skipped,,349984.09999990463,,,349976,,349984.09999990463,2021-11-01T14:58:39.719Z,350006.096,1635778362,full,ni_sequenzen,NI_Sequenzen,8,7,,,,,,,,,,,,
,Move,canvas.Screen,0_3_0_7_0_8,-999,skipped,,349984.7999999523,,,349976,,349984.7999999523,2021-11-01T14:58:39.720Z,350006.096,1635778362,full,ni_sequenzen,NI_Sequenzen,9,7,,,,,,,,,,,,
,Move,canvas.Screen,0_3_0_7_0_9,-999,skipped,,349985.7000000477,,,349976,,349985.7000000477,2021-11-01T14:58:39.721Z,350006.096,1635778362,full,ni_sequenzen,NI_Sequenzen,10,7,,,,,,,,,,,,
,Move,canvas.Screen,0_3_0_7_0_10,-999,skipped,,349987.09999990463,,,349976,,349987.2000000477,2021-11-01T14:58:39.722Z,350006.096,1635778362,full,ni_sequenzen,NI_Sequenzen,11,7,,,,,,,,,,,,
,Move,canvas.Screen,0_3_0_7_0_11,-999,skipped,,349988.09999990463,,,349976,,349988.09999990463,2021-11-01T14:58:39.723Z,350006.096,1635778362,full,ni_sequenzen,NI_Sequenzen,12,7,,,,,,,,,,,,
,Move,canvas.Screen,0_3_0_7_0_12,-999,skipped,,349989,,,349976,,349989,2021-11-01T14:58:39.724Z,350006.096,1635778362,full,ni_sequenzen,NI_Sequenzen,13,7,,,,,,,,,,,,
,Move,canvas.Screen,0_3_0_7_0_13,-999,skipped,,349989.90000009537,,,349976,,349989.90000009537,2021-11-01T14:58:39.725Z,350006.096,1635778362,full,ni_sequenzen,NI_Sequenzen,14,7,,,,,,,,,,,,
,Move,canvas.Screen,0_3_0_7_0_14,-999,skipped,,349990.7000000477,,,349976,,349990.7999999523,2021-11-01T14:58:39.726Z,350006.096,1635778362,full,ni_sequenzen,NI_Sequenzen,15,7,,,,,,,,,,,,
,Loop,flow.Loop,0_3_0_7_0,-999,completion,,347721.40000009537,347728.981,347745.624,349976,2230.3759999999893,349990.7999999523,2021-11-01T14:58:39.726Z,350006.096,1635778362,full,ni_sequenzen,NI_Sequenzen,,7,,,,,,,,,,,,
,Feedback,canvas.Screen,0_3_0_7_1,,timeout,,349991.5,349989.475,350006.096,353995.228,4005.5499999999884,353995.90000009537,2021-11-01T14:58:43.731Z,354011.646,1635778362,full,ni_sequenzen,NI_Sequenzen,,7,,,,,,,,,,,,
,Trial,flow.Sequence,0_3_0_7,,completion,,347713.7000000477,347728.981,347745.624,353995.228,6249.603999999992,353996.09999990463,2021-11-01T14:58:43.731Z,354028.286,1635778362,full,ni_sequenzen,NI_Sequenzen,,7,,,,,,,,,,,,
,Move,canvas.Screen,0_3_0_8_0_0,down,response,,354005,354011.646,354028.286,354482.5,454.2139999999781,354483.2000000477,2021-11-01T14:58:44.218Z,354493.496,1635778362,full,ni_sequenzen,NI_Sequenzen,1,8,,,,,,,,,,,,
,Move,canvas.Screen,0_3_0_8_0_1,right,response,,354486.2000000477,354477.108,354493.496,355669.7999999523,1176.3039999523317,355670.59999990463,2021-11-01T14:58:45.406Z,355690.352,1635778362,full,ni_sequenzen,NI_Sequenzen,2,8,,,,,,,,,,,,
,Move,canvas.Screen,0_3_0_8_0_2,right,response,,355674.2999999523,355673.97,355690.352,356408.59999990463,718.2479999046191,356409.40000009537,2021-11-01T14:58:46.144Z,356421.691,1635778362,full,ni_sequenzen,NI_Sequenzen,3,8,,,,,,,,,,,,
,Move,canvas.Screen,0_3_0_8_0_3,down,response,,356413.2999999523,356405.166,356421.691,356782.7000000477,361.0090000476921,356783.40000009537,2021-11-01T14:58:46.518Z,356803.845,1635778362,full,ni_sequenzen,NI_Sequenzen,4,8,,,,,,,,,,,,
,Move,canvas.Screen,0_3_0_8_0_4,-999,skipped,,356786.90000009537,,,356782.7000000477,,356787,2021-11-01T14:58:46.522Z,356803.845,1635778362,full,ni_sequenzen,NI_Sequenzen,5,8,,,,,,,,,,,,
,Move,canvas.Screen,0_3_0_8_0_5,-999,skipped,,356788.7000000477,,,356782.7000000477,,356788.7999999523,2021-11-01T14:58:46.524Z,356803.845,1635778362,full,ni_sequenzen,NI_Sequenzen,6,8,,,,,,,,,,,,
,Move,canvas.Screen,0_3_0_8_0_6,-999,skipped,,356789.7000000477,,,356782.7000000477,,356789.7000000477,2021-11-01T14:58:46.525Z,356803.845,1635778362,full,ni_sequenzen,NI_Sequenzen,7,8,,,,,,,,,,,,
,Move,canvas.Screen,0_3_0_8_0_7,-999,skipped,,356790.59999990463,,,356782.7000000477,,356790.7999999523,2021-11-01T14:58:46.526Z,356803.845,1635778362,full,ni_sequenzen,NI_Sequenzen,8,8,,,,,,,,,,,,
,Move,canvas.Screen,0_3_0_8_0_8,-999,skipped,,356791.59999990463,,,356782.7000000477,,356791.59999990463,2021-11-01T14:58:46.527Z,356803.845,1635778362,full,ni_sequenzen,NI_Sequenzen,9,8,,,,,,,,,,,,
,Move,canvas.Screen,0_3_0_8_0_9,-999,skipped,,356792.7000000477,,,356782.7000000477,,356792.7000000477,2021-11-01T14:58:46.528Z,356803.845,1635778362,full,ni_sequenzen,NI_Sequenzen,10,8,,,,,,,,,,,,
,Move,canvas.Screen,0_3_0_8_0_10,-999,skipped,,356793.5,,,356782.7000000477,,356793.5,2021-11-01T14:58:46.528Z,356803.845,1635778362,full,ni_sequenzen,NI_Sequenzen,11,8,,,,,,,,,,,,
,Move,canvas.Screen,0_3_0_8_0_11,-999,skipped,,356794.2999999523,,,356782.7000000477,,356794.2999999523,2021-11-01T14:58:46.529Z,356803.845,1635778362,full,ni_sequenzen,NI_Sequenzen,12,8,,,,,,,,,,,,
,Move,canvas.Screen,0_3_0_8_0_12,-999,skipped,,356795.2999999523,,,356782.7000000477,,356795.2999999523,2021-11-01T14:58:46.530Z,356803.845,1635778362,full,ni_sequenzen,NI_Sequenzen,13,8,,,,,,,,,,,,
,Move,canvas.Screen,0_3_0_8_0_13,-999,skipped,,356796.2000000477,,,356782.7000000477,,356796.2000000477,2021-11-01T14:58:46.531Z,356803.845,1635778362,full,ni_sequenzen,NI_Sequenzen,14,8,,,,,,,,,,,,
,Move,canvas.Screen,0_3_0_8_0_14,-999,skipped,,356796.90000009537,,,356782.7000000477,,356797,2021-11-01T14:58:46.532Z,356803.845,1635778362,full,ni_sequenzen,NI_Sequenzen,15,8,,,,,,,,,,,,
,Loop,flow.Loop,0_3_0_8_0,-999,completion,,354003.90000009537,354011.646,354028.286,356782.7000000477,2754.414000047662,356797,2021-11-01T14:58:46.532Z,356803.845,1635778362,full,ni_sequenzen,NI_Sequenzen,,8,,,,,,,,,,,,
,Feedback,canvas.Screen,0_3_0_8_1,,timeout,,356797.59999990463,356787.58,356803.845,360793.343,4006.1100000000442,360794.2999999523,2021-11-01T14:58:50.529Z,360809.955,1635778362,full,ni_sequenzen,NI_Sequenzen,,8,,,,,,,,,,,,
