meta,sender,sender_type,sender_id,response,ended_on,instrCount,time_run,time_render,time_show,time_end,duration,time_commit,timestamp,time_switch,openLabId,type,task,project,move,trialN,blockN_Train,blockN,moveCount,currPP,points,movesTrial,visitedFields,diff,reward,Strategie,Zweck,Probleme
[object Object],Screen_1,canvas.Screen,0_0_0_0,cont,response,1,631.5,623.969,673.864,16284.200000047684,15610.336000047684,16290,2021-10-26T11:55:35.424Z,16421.862,1635249307,full,ni_sequenzen,NI_Sequenzen,,,,,,,,,,,,,,
,Screen_2,canvas.Screen,0_0_0_1,cont,response,1,16409.799999952316,16405.618,16421.862,66050.20000004768,49628.33800004768,66051.70000004768,2021-10-26T11:56:25.185Z,66165.477,1635249307,full,ni_sequenzen,NI_Sequenzen,,,,,,,,,,,,,,
,Screen_3,canvas.Screen,0_0_0_2,cont,response,1,66139.20000004768,66131.654,66165.477,313314.5,247149.023,313315.60000002384,2021-10-26T12:00:32.450Z,313350.47,1635249307,full,ni_sequenzen,NI_Sequenzen,,,,,,,,,,,,,,
,Screen_4,canvas.Screen,0_0_0_3,cont,response,1,313323.89999997616,313316.971,313350.47,317934.89999997616,4584.429999976186,317949.2000000477,2021-10-26T12:00:37.083Z,318066.45,1635249307,full,ni_sequenzen,NI_Sequenzen,,,,,,,,,,,,,,
,Sequence,flow.Sequence,0_0_0,,completion,1,584.3999999761581,623.969,673.864,317934.89999997616,317261.03599997616,317955.60000002384,2021-10-26T12:00:37.090Z,318066.45,1635249307,full,ni_sequenzen,NI_Sequenzen,,,,,,,,,,,,,,
,Screen_1,canvas.Screen,0_0_1_0,,skipped,2,317960.5,,,317960.5,,317960.7999999523,2021-10-26T12:00:37.095Z,318066.45,1635249307,full,ni_sequenzen,NI_Sequenzen,,,,,,,,,,,,,,
,Screen_2,canvas.Screen,0_0_1_1,,skipped,2,317963.60000002384,,,317960.5,,317963.7999999523,2021-10-26T12:00:37.098Z,318066.45,1635249307,full,ni_sequenzen,NI_Sequenzen,,,,,,,,,,,,,,
,Screen_3,canvas.Screen,0_0_1_2,,skipped,2,317967.10000002384,,,317960.5,,317967.39999997616,2021-10-26T12:00:37.101Z,318066.45,1635249307,full,ni_sequenzen,NI_Sequenzen,,,,,,,,,,,,,,
,Screen_4,canvas.Screen,0_0_1_3,,skipped,2,317970.2000000477,,,317960.5,,317970.7000000477,2021-10-26T12:00:37.105Z,318066.45,1635249307,full,ni_sequenzen,NI_Sequenzen,,,,,,,,,,,,,,
,Sequence,flow.Sequence,0_0_1,,completion,2,317957.39999997616,,,317960.5,,317971.10000002384,2021-10-26T12:00:37.105Z,318066.45,1635249307,full,ni_sequenzen,NI_Sequenzen,,,,,,,,,,,,,,
,Screen_1,canvas.Screen,0_0_2_0,,skipped,3,317974.2000000477,,,317974.2000000477,,317974.39999997616,2021-10-26T12:00:37.109Z,318066.45,1635249307,full,ni_sequenzen,NI_Sequenzen,,,,,,,,,,,,,,
,Screen_2,canvas.Screen,0_0_2_1,,skipped,3,317976.2999999523,,,317974.2000000477,,317976.39999997616,2021-10-26T12:00:37.111Z,318066.45,1635249307,full,ni_sequenzen,NI_Sequenzen,,,,,,,,,,,,,,
,Screen_3,canvas.Screen,0_0_2_2,,skipped,3,317978.2999999523,,,317974.2000000477,,317978.39999997616,2021-10-26T12:00:37.113Z,318066.45,1635249307,full,ni_sequenzen,NI_Sequenzen,,,,,,,,,,,,,,
,Screen_4,canvas.Screen,0_0_2_3,,skipped,3,317979.60000002384,,,317974.2000000477,,317979.7999999523,2021-10-26T12:00:37.114Z,318066.45,1635249307,full,ni_sequenzen,NI_Sequenzen,,,,,,,,,,,,,,
,Sequence,flow.Sequence,0_0_2,,completion,3,317972.39999997616,,,317974.2000000477,,317980.10000002384,2021-10-26T12:00:37.114Z,318066.45,1635249307,full,ni_sequenzen,NI_Sequenzen,,,,,,,,,,,,,,
,Screen_1,canvas.Screen,0_0_3_0,,skipped,4,317981.5,,,317981.5,,317981.60000002384,2021-10-26T12:00:37.116Z,318066.45,1635249307,full,ni_sequenzen,NI_Sequenzen,,,,,,,,,,,,,,
,Screen_2,canvas.Screen,0_0_3_1,,skipped,4,317982.89999997616,,,317981.5,,317983,2021-10-26T12:00:37.117Z,318066.45,1635249307,full,ni_sequenzen,NI_Sequenzen,,,,,,,,,,,,,,
,Screen_3,canvas.Screen,0_0_3_2,,skipped,4,317984.2999999523,,,317981.5,,317984.2999999523,2021-10-26T12:00:37.118Z,318066.45,1635249307,full,ni_sequenzen,NI_Sequenzen,,,,,,,,,,,,,,
,Screen_4,canvas.Screen,0_0_3_3,,skipped,4,317985.7999999523,,,317981.5,,317985.7999999523,2021-10-26T12:00:37.120Z,318066.45,1635249307,full,ni_sequenzen,NI_Sequenzen,,,,,,,,,,,,,,
,Sequence,flow.Sequence,0_0_3,,completion,4,317980.60000002384,,,317981.5,,317986.10000002384,2021-10-26T12:00:37.120Z,318066.45,1635249307,full,ni_sequenzen,NI_Sequenzen,,,,,,,,,,,,,,
,Screen_1,canvas.Screen,0_0_4_0,,skipped,5,317987.60000002384,,,317987.60000002384,,317987.7000000477,2021-10-26T12:00:37.122Z,318066.45,1635249307,full,ni_sequenzen,NI_Sequenzen,,,,,,,,,,,,,,
,Screen_2,canvas.Screen,0_0_4_1,,skipped,5,317988.89999997616,,,317987.60000002384,,317989,2021-10-26T12:00:37.123Z,318066.45,1635249307,full,ni_sequenzen,NI_Sequenzen,,,,,,,,,,,,,,
,Screen_3,canvas.Screen,0_0_4_2,,skipped,5,317991.39999997616,,,317987.60000002384,,317991.39999997616,2021-10-26T12:00:37.126Z,318066.45,1635249307,full,ni_sequenzen,NI_Sequenzen,,,,,,,,,,,,,,
,Screen_4,canvas.Screen,0_0_4_3,,skipped,5,317992.7000000477,,,317987.60000002384,,317992.7999999523,2021-10-26T12:00:37.127Z,318066.45,1635249307,full,ni_sequenzen,NI_Sequenzen,,,,,,,,,,,,,,
,Sequence,flow.Sequence,0_0_4,,completion,5,317986.60000002384,,,317987.60000002384,,317993,2021-10-26T12:00:37.127Z,318066.45,1635249307,full,ni_sequenzen,NI_Sequenzen,,,,,,,,,,,,,,
,Screen_1,canvas.Screen,0_0_5_0,,skipped,6,317994.5,,,317994.5,,317994.7000000477,2021-10-26T12:00:37.129Z,318066.45,1635249307,full,ni_sequenzen,NI_Sequenzen,,,,,,,,,,,,,,
,Screen_2,canvas.Screen,0_0_5_1,,skipped,6,317995.7999999523,,,317994.5,,317996,2021-10-26T12:00:37.130Z,318066.45,1635249307,full,ni_sequenzen,NI_Sequenzen,,,,,,,,,,,,,,
,Screen_3,canvas.Screen,0_0_5_2,,skipped,6,317997.5,,,317994.5,,317997.60000002384,2021-10-26T12:00:37.132Z,318066.45,1635249307,full,ni_sequenzen,NI_Sequenzen,,,,,,,,,,,,,,
,Screen_4,canvas.Screen,0_0_5_3,,skipped,6,317998.7999999523,,,317994.5,,317998.89999997616,2021-10-26T12:00:37.133Z,318066.45,1635249307,full,ni_sequenzen,NI_Sequenzen,,,,,,,,,,,,,,
,Sequence,flow.Sequence,0_0_5,,completion,6,317993.5,,,317994.5,,317999.10000002384,2021-10-26T12:00:37.133Z,318066.45,1635249307,full,ni_sequenzen,NI_Sequenzen,,,,,,,,,,,,,,
,Screen_1,canvas.Screen,0_0_6_0,,skipped,7,318000.7000000477,,,318000.7999999523,,318000.89999997616,2021-10-26T12:00:37.135Z,318066.45,1635249307,full,ni_sequenzen,NI_Sequenzen,,,,,,,,,,,,,,
,Screen_2,canvas.Screen,0_0_6_1,,skipped,7,318002.10000002384,,,318000.7999999523,,318002.2000000477,2021-10-26T12:00:37.136Z,318066.45,1635249307,full,ni_sequenzen,NI_Sequenzen,,,,,,,,,,,,,,
,Screen_3,canvas.Screen,0_0_6_2,,skipped,7,318003.39999997616,,,318000.7999999523,,318003.5,2021-10-26T12:00:37.138Z,318066.45,1635249307,full,ni_sequenzen,NI_Sequenzen,,,,,,,,,,,,,,
,Screen_4,canvas.Screen,0_0_6_3,,skipped,7,318004.7999999523,,,318000.7999999523,,318004.89999997616,2021-10-26T12:00:37.139Z,318066.45,1635249307,full,ni_sequenzen,NI_Sequenzen,,,,,,,,,,,,,,
,Sequence,flow.Sequence,0_0_6,,completion,7,317999.60000002384,,,318000.7999999523,,318005.10000002384,2021-10-26T12:00:37.139Z,318066.45,1635249307,full,ni_sequenzen,NI_Sequenzen,,,,,,,,,,,,,,
,Screen_1,canvas.Screen,0_0_7_0,,skipped,8,318006.7000000477,,,318006.7000000477,,318006.7999999523,2021-10-26T12:00:37.141Z,318066.45,1635249307,full,ni_sequenzen,NI_Sequenzen,,,,,,,,,,,,,,
,Screen_2,canvas.Screen,0_0_7_1,,skipped,8,318007.89999997616,,,318006.7000000477,,318008.10000002384,2021-10-26T12:00:37.142Z,318066.45,1635249307,full,ni_sequenzen,NI_Sequenzen,,,,,,,,,,,,,,
,Screen_3,canvas.Screen,0_0_7_2,,skipped,8,318009.2999999523,,,318006.7000000477,,318010.39999997616,2021-10-26T12:00:37.145Z,318066.45,1635249307,full,ni_sequenzen,NI_Sequenzen,,,,,,,,,,,,,,
,Screen_4,canvas.Screen,0_0_7_3,,skipped,8,318011.60000002384,,,318006.7000000477,,318011.60000002384,2021-10-26T12:00:37.146Z,318066.45,1635249307,full,ni_sequenzen,NI_Sequenzen,,,,,,,,,,,,,,
,Sequence,flow.Sequence,0_0_7,,completion,8,318005.60000002384,,,318006.7000000477,,318011.7999999523,2021-10-26T12:00:37.146Z,318066.45,1635249307,full,ni_sequenzen,NI_Sequenzen,,,,,,,,,,,,,,
,Screen_1,canvas.Screen,0_0_8_0,,skipped,9,318013,,,318013,,318013.10000002384,2021-10-26T12:00:37.147Z,318066.45,1635249307,full,ni_sequenzen,NI_Sequenzen,,,,,,,,,,,,,,
,Screen_2,canvas.Screen,0_0_8_1,,skipped,9,318014,,,318013,,318014.10000002384,2021-10-26T12:00:37.148Z,318066.45,1635249307,full,ni_sequenzen,NI_Sequenzen,,,,,,,,,,,,,,
,Screen_3,canvas.Screen,0_0_8_2,,skipped,9,318014.89999997616,,,318013,,318014.89999997616,2021-10-26T12:00:37.149Z,318066.45,1635249307,full,ni_sequenzen,NI_Sequenzen,,,,,,,,,,,,,,
,Screen_4,canvas.Screen,0_0_8_3,,skipped,9,318015.7000000477,,,318013,,318015.7999999523,2021-10-26T12:00:37.150Z,318066.45,1635249307,full,ni_sequenzen,NI_Sequenzen,,,,,,,,,,,,,,
,Sequence,flow.Sequence,0_0_8,,completion,9,318012.2000000477,,,318013,,318015.89999997616,2021-10-26T12:00:37.150Z,318066.45,1635249307,full,ni_sequenzen,NI_Sequenzen,,,,,,,,,,,,,,
,Screen_1,canvas.Screen,0_0_9_0,,skipped,10,318017.10000002384,,,318017.10000002384,,318017.2000000477,2021-10-26T12:00:37.151Z,318066.45,1635249307,full,ni_sequenzen,NI_Sequenzen,,,,,,,,,,,,,,
,Screen_2,canvas.Screen,0_0_9_1,,skipped,10,318018.2000000477,,,318017.10000002384,,318018.2999999523,2021-10-26T12:00:37.152Z,318066.45,1635249307,full,ni_sequenzen,NI_Sequenzen,,,,,,,,,,,,,,
,Screen_3,canvas.Screen,0_0_9_2,,skipped,10,318019.10000002384,,,318017.10000002384,,318019.10000002384,2021-10-26T12:00:37.153Z,318066.45,1635249307,full,ni_sequenzen,NI_Sequenzen,,,,,,,,,,,,,,
,Screen_4,canvas.Screen,0_0_9_3,,skipped,10,318020,,,318017.10000002384,,318020,2021-10-26T12:00:37.154Z,318066.45,1635249307,full,ni_sequenzen,NI_Sequenzen,,,,,,,,,,,,,,
,Sequence,flow.Sequence,0_0_9,,completion,10,318016.2999999523,,,318017.10000002384,,318020.10000002384,2021-10-26T12:00:37.154Z,318066.45,1635249307,full,ni_sequenzen,NI_Sequenzen,,,,,,,,,,,,,,
,Screen_1,canvas.Screen,0_0_10_0,,skipped,11,318021,,,318021,,318021.2000000477,2021-10-26T12:00:37.155Z,318066.45,1635249307,full,ni_sequenzen,NI_Sequenzen,,,,,,,,,,,,,,
,Screen_2,canvas.Screen,0_0_10_1,,skipped,11,318021.7999999523,,,318021,,318021.7999999523,2021-10-26T12:00:37.156Z,318066.45,1635249307,full,ni_sequenzen,NI_Sequenzen,,,,,,,,,,,,,,
,Screen_3,canvas.Screen,0_0_10_2,,skipped,11,318022.5,,,318021,,318022.60000002384,2021-10-26T12:00:37.157Z,318066.45,1635249307,full,ni_sequenzen,NI_Sequenzen,,,,,,,,,,,,,,
,Screen_4,canvas.Screen,0_0_10_3,,skipped,11,318023.2000000477,,,318021,,318023.2999999523,2021-10-26T12:00:37.157Z,318066.45,1635249307,full,ni_sequenzen,NI_Sequenzen,,,,,,,,,,,,,,
,Sequence,flow.Sequence,0_0_10,,completion,11,318020.39999997616,,,318021,,318023.39999997616,2021-10-26T12:00:37.158Z,318066.45,1635249307,full,ni_sequenzen,NI_Sequenzen,,,,,,,,,,,,,,
,Screen_1,canvas.Screen,0_0_11_0,,skipped,12,318026.10000002384,,,318026.10000002384,,318026.2000000477,2021-10-26T12:00:37.160Z,318066.45,1635249307,full,ni_sequenzen,NI_Sequenzen,,,,,,,,,,,,,,
,Screen_2,canvas.Screen,0_0_11_1,,skipped,12,318026.89999997616,,,318026.10000002384,,318026.89999997616,2021-10-26T12:00:37.161Z,318066.45,1635249307,full,ni_sequenzen,NI_Sequenzen,,,,,,,,,,,,,,
,Screen_3,canvas.Screen,0_0_11_2,,skipped,12,318027.60000002384,,,318026.10000002384,,318027.60000002384,2021-10-26T12:00:37.162Z,318066.45,1635249307,full,ni_sequenzen,NI_Sequenzen,,,,,,,,,,,,,,
,Screen_4,canvas.Screen,0_0_11_3,,skipped,12,318028.2999999523,,,318026.10000002384,,318028.2999999523,2021-10-26T12:00:37.162Z,318066.45,1635249307,full,ni_sequenzen,NI_Sequenzen,,,,,,,,,,,,,,
,Sequence,flow.Sequence,0_0_11,,completion,12,318024.2000000477,,,318026.10000002384,,318028.39999997616,2021-10-26T12:00:37.163Z,318066.45,1635249307,full,ni_sequenzen,NI_Sequenzen,,,,,,,,,,,,,,
,Screen_1,canvas.Screen,0_0_12_0,,skipped,13,318029.2000000477,,,318029.2000000477,,318029.2000000477,2021-10-26T12:00:37.163Z,318066.45,1635249307,full,ni_sequenzen,NI_Sequenzen,,,,,,,,,,,,,,
,Screen_2,canvas.Screen,0_0_12_1,,skipped,13,318029.7999999523,,,318029.2000000477,,318029.89999997616,2021-10-26T12:00:37.164Z,318066.45,1635249307,full,ni_sequenzen,NI_Sequenzen,,,,,,,,,,,,,,
,Screen_3,canvas.Screen,0_0_12_2,,skipped,13,318030.39999997616,,,318029.2000000477,,318030.5,2021-10-26T12:00:37.165Z,318066.45,1635249307,full,ni_sequenzen,NI_Sequenzen,,,,,,,,,,,,,,
,Screen_4,canvas.Screen,0_0_12_3,,skipped,13,318031.10000002384,,,318029.2000000477,,318031.2000000477,2021-10-26T12:00:37.165Z,318066.45,1635249307,full,ni_sequenzen,NI_Sequenzen,,,,,,,,,,,,,,
,Sequence,flow.Sequence,0_0_12,,completion,13,318028.7000000477,,,318029.2000000477,,318031.2999999523,2021-10-26T12:00:37.165Z,318066.45,1635249307,full,ni_sequenzen,NI_Sequenzen,,,,,,,,,,,,,,
,Screen_1,canvas.Screen,0_0_13_0,,skipped,14,318032,,,318032,,318032.10000002384,2021-10-26T12:00:37.166Z,318066.45,1635249307,full,ni_sequenzen,NI_Sequenzen,,,,,,,,,,,,,,
,Screen_2,canvas.Screen,0_0_13_1,,skipped,14,318032.60000002384,,,318032,,318032.7000000477,2021-10-26T12:00:37.167Z,318066.45,1635249307,full,ni_sequenzen,NI_Sequenzen,,,,,,,,,,,,,,
,Screen_3,canvas.Screen,0_0_13_2,,skipped,14,318033.2000000477,,,318032,,318033.2999999523,2021-10-26T12:00:37.167Z,318066.45,1635249307,full,ni_sequenzen,NI_Sequenzen,,,,,,,,,,,,,,
,Screen_4,canvas.Screen,0_0_13_3,,skipped,14,318033.7999999523,,,318032,,318033.7999999523,2021-10-26T12:00:37.168Z,318066.45,1635249307,full,ni_sequenzen,NI_Sequenzen,,,,,,,,,,,,,,
,Sequence,flow.Sequence,0_0_13,,completion,14,318031.60000002384,,,318032,,318033.89999997616,2021-10-26T12:00:37.168Z,318066.45,1635249307,full,ni_sequenzen,NI_Sequenzen,,,,,,,,,,,,,,
,Screen_1,canvas.Screen,0_0_14_0,,skipped,15,318034.60000002384,,,318034.60000002384,,318034.60000002384,2021-10-26T12:00:37.169Z,318066.45,1635249307,full,ni_sequenzen,NI_Sequenzen,,,,,,,,,,,,,,
,Screen_2,canvas.Screen,0_0_14_1,,skipped,15,318035.2000000477,,,318034.60000002384,,318035.2999999523,2021-10-26T12:00:37.169Z,318066.45,1635249307,full,ni_sequenzen,NI_Sequenzen,,,,,,,,,,,,,,
,Screen_3,canvas.Screen,0_0_14_2,,skipped,15,318036.60000002384,,,318034.60000002384,,318036.60000002384,2021-10-26T12:00:37.171Z,318066.45,1635249307,full,ni_sequenzen,NI_Sequenzen,,,,,,,,,,,,,,
,Screen_4,canvas.Screen,0_0_14_3,,skipped,15,318037.2000000477,,,318034.60000002384,,318037.2000000477,2021-10-26T12:00:37.171Z,318066.45,1635249307,full,ni_sequenzen,NI_Sequenzen,,,,,,,,,,,,,,
,Sequence,flow.Sequence,0_0_14,,completion,15,318034.10000002384,,,318034.60000002384,,318037.39999997616,2021-10-26T12:00:37.172Z,318066.45,1635249307,full,ni_sequenzen,NI_Sequenzen,,,,,,,,,,,,,,
,Screen_1,canvas.Screen,0_0_15_0,,skipped,16,318038.10000002384,,,318038.10000002384,,318038.10000002384,2021-10-26T12:00:37.172Z,318066.45,1635249307,full,ni_sequenzen,NI_Sequenzen,,,,,,,,,,,,,,
,Screen_2,canvas.Screen,0_0_15_1,,skipped,16,318039.10000002384,,,318038.10000002384,,318039.2000000477,2021-10-26T12:00:37.173Z,318066.45,1635249307,full,ni_sequenzen,NI_Sequenzen,,,,,,,,,,,,,,
,Screen_3,canvas.Screen,0_0_15_2,,skipped,16,318040.39999997616,,,318038.10000002384,,318040.5,2021-10-26T12:00:37.175Z,318066.45,1635249307,full,ni_sequenzen,NI_Sequenzen,,,,,,,,,,,,,,
,Screen_4,canvas.Screen,0_0_15_3,,skipped,16,318041.2000000477,,,318038.10000002384,,318041.2000000477,2021-10-26T12:00:37.175Z,318066.45,1635249307,full,ni_sequenzen,NI_Sequenzen,,,,,,,,,,,,,,
,Sequence,flow.Sequence,0_0_15,,completion,16,318037.60000002384,,,318038.10000002384,,318041.2999999523,2021-10-26T12:00:37.175Z,318066.45,1635249307,full,ni_sequenzen,NI_Sequenzen,,,,,,,,,,,,,,
,Screen_1,canvas.Screen,0_0_16_0,,skipped,17,318042.10000002384,,,318042.10000002384,,318042.2000000477,2021-10-26T12:00:37.176Z,318066.45,1635249307,full,ni_sequenzen,NI_Sequenzen,,,,,,,,,,,,,,
,Screen_2,canvas.Screen,0_0_16_1,,skipped,17,318042.60000002384,,,318042.10000002384,,318042.7999999523,2021-10-26T12:00:37.177Z,318066.45,1635249307,full,ni_sequenzen,NI_Sequenzen,,,,,,,,,,,,,,
,Screen_3,canvas.Screen,0_0_16_2,,skipped,17,318043.2999999523,,,318042.10000002384,,318043.2999999523,2021-10-26T12:00:37.177Z,318066.45,1635249307,full,ni_sequenzen,NI_Sequenzen,,,,,,,,,,,,,,
,Screen_4,canvas.Screen,0_0_16_3,,skipped,17,318043.89999997616,,,318042.10000002384,,318043.89999997616,2021-10-26T12:00:37.178Z,318066.45,1635249307,full,ni_sequenzen,NI_Sequenzen,,,,,,,,,,,,,,
,Sequence,flow.Sequence,0_0_16,,completion,17,318041.60000002384,,,318042.10000002384,,318044,2021-10-26T12:00:37.178Z,318066.45,1635249307,full,ni_sequenzen,NI_Sequenzen,,,,,,,,,,,,,,
,Screen_1,canvas.Screen,0_0_17_0,,skipped,18,318044.60000002384,,,318044.60000002384,,318044.7000000477,2021-10-26T12:00:37.179Z,318066.45,1635249307,full,ni_sequenzen,NI_Sequenzen,,,,,,,,,,,,,,
,Screen_2,canvas.Screen,0_0_17_1,,skipped,18,318045.2000000477,,,318044.60000002384,,318045.2000000477,2021-10-26T12:00:37.179Z,318066.45,1635249307,full,ni_sequenzen,NI_Sequenzen,,,,,,,,,,,,,,
,Screen_3,canvas.Screen,0_0_17_2,,skipped,18,318045.7999999523,,,318044.60000002384,,318045.89999997616,2021-10-26T12:00:37.180Z,318066.45,1635249307,full,ni_sequenzen,NI_Sequenzen,,,,,,,,,,,,,,
,Screen_4,canvas.Screen,0_0_17_3,,skipped,18,318046.39999997616,,,318044.60000002384,,318046.39999997616,2021-10-26T12:00:37.181Z,318066.45,1635249307,full,ni_sequenzen,NI_Sequenzen,,,,,,,,,,,,,,
,Sequence,flow.Sequence,0_0_17,,completion,18,318044.2000000477,,,318044.60000002384,,318047.10000002384,2021-10-26T12:00:37.181Z,318066.45,1635249307,full,ni_sequenzen,NI_Sequenzen,,,,,,,,,,,,,,
,Screen_1,canvas.Screen,0_0_18_0,,skipped,19,318048.60000002384,,,318048.60000002384,,318048.60000002384,2021-10-26T12:00:37.183Z,318066.45,1635249307,full,ni_sequenzen,NI_Sequenzen,,,,,,,,,,,,,,
,Screen_2,canvas.Screen,0_0_18_1,,skipped,19,318049.10000002384,,,318048.60000002384,,318049.10000002384,2021-10-26T12:00:37.183Z,318066.45,1635249307,full,ni_sequenzen,NI_Sequenzen,,,,,,,,,,,,,,
,Screen_3,canvas.Screen,0_0_18_2,,skipped,19,318049.7000000477,,,318048.60000002384,,318049.7000000477,2021-10-26T12:00:37.184Z,318066.45,1635249307,full,ni_sequenzen,NI_Sequenzen,,,,,,,,,,,,,,
,Screen_4,canvas.Screen,0_0_18_3,,skipped,19,318050.2999999523,,,318048.60000002384,,318050.2999999523,2021-10-26T12:00:37.184Z,318066.45,1635249307,full,ni_sequenzen,NI_Sequenzen,,,,,,,,,,,,,,
,Sequence,flow.Sequence,0_0_18,,completion,19,318048,,,318048.60000002384,,318050.39999997616,2021-10-26T12:00:37.184Z,318066.45,1635249307,full,ni_sequenzen,NI_Sequenzen,,,,,,,,,,,,,,
,Screen_1,canvas.Screen,0_0_19_0,,skipped,20,318051,,,318051,,318051.10000002384,2021-10-26T12:00:37.185Z,318066.45,1635249307,full,ni_sequenzen,NI_Sequenzen,,,,,,,,,,,,,,
,Screen_2,canvas.Screen,0_0_19_1,,skipped,20,318051.60000002384,,,318051,,318051.60000002384,2021-10-26T12:00:37.186Z,318066.45,1635249307,full,ni_sequenzen,NI_Sequenzen,,,,,,,,,,,,,,
,Screen_3,canvas.Screen,0_0_19_2,,skipped,20,318052.2000000477,,,318051,,318052.2000000477,2021-10-26T12:00:37.186Z,318066.45,1635249307,full,ni_sequenzen,NI_Sequenzen,,,,,,,,,,,,,,
,Screen_4,canvas.Screen,0_0_19_3,,skipped,20,318052.7000000477,,,318051,,318052.7999999523,2021-10-26T12:00:37.187Z,318066.45,1635249307,full,ni_sequenzen,NI_Sequenzen,,,,,,,,,,,,,,
,Sequence,flow.Sequence,0_0_19,,completion,20,318050.60000002384,,,318051,,318052.7999999523,2021-10-26T12:00:37.187Z,318066.45,1635249307,full,ni_sequenzen,NI_Sequenzen,,,,,,,,,,,,,,
,Instructions_I,flow.Loop,0_0,,completion,,581.8999999761581,623.969,673.864,318051,317377.136,318053,2021-10-26T12:00:37.187Z,318066.45,1635249307,full,ni_sequenzen,NI_Sequenzen,,,,,,,,,,,,,,
,Move,canvas.Screen,0_1_0_0,left,response,,318063.2000000477,318050.344,318066.45,318972.5,906.0499999999884,318973.5,2021-10-26T12:00:38.108Z,318983.044,1635249307,full,ni_sequenzen,NI_Sequenzen,1,,,,,,,,,,,,,
,Move,canvas.Screen,0_1_0_1,left,response,,318978.7999999523,318966.391,318983.044,319535.5,552.4560000000056,319536.7000000477,2021-10-26T12:00:38.671Z,319566.305,1635249307,full,ni_sequenzen,NI_Sequenzen,2,,,,,,,,,,,,,
,Move,canvas.Screen,0_1_0_2,right,response,,319559.2999999523,319549.872,319566.305,319979.60000002384,413.29500002384884,319981,2021-10-26T12:00:39.115Z,319999.589,1635249307,full,ni_sequenzen,NI_Sequenzen,3,,,,,,,,,,,,,
,Move,canvas.Screen,0_1_0_3,right,response,,319985.2000000477,319983.388,319999.589,320223.89999997616,224.31099997618003,320224.7999999523,2021-10-26T12:00:39.359Z,320232.967,1635249307,full,ni_sequenzen,NI_Sequenzen,4,,,,,,,,,,,,,
,Move,canvas.Screen,0_1_0_4,down,response,,320228.39999997616,320216.696,320232.967,322464.2000000477,2231.2330000476795,322465.10000002384,2021-10-26T12:00:41.599Z,322482.581,1635249307,full,ni_sequenzen,NI_Sequenzen,5,,,,,,,,,,,,,
,Move,canvas.Screen,0_1_0_5,down,response,,322468.7000000477,322466.33,322482.581,323158.89999997616,676.3189999761526,323159.89999997616,2021-10-26T12:00:42.294Z,323165.869,1635249307,full,ni_sequenzen,NI_Sequenzen,6,,,,,,,,,,,,,
,Move,canvas.Screen,0_1_0_6,right,response,,323164.10000002384,323149.612,323165.869,323540,374.13099999999395,323541,2021-10-26T12:00:42.675Z,323549.105,1635249307,full,ni_sequenzen,NI_Sequenzen,7,,,,,,,,,,,,,
,Move,canvas.Screen,0_1_0_7,right,response,,323544.39999997616,323532.933,323549.105,324403.10000002384,853.9950000238605,324404,2021-10-26T12:00:43.538Z,324415.707,1635249307,full,ni_sequenzen,NI_Sequenzen,8,,,,,,,,,,,,,
,Move,canvas.Screen,0_1_0_8,down,response,,324407.60000002384,324399.465,324415.707,324857,441.2930000000051,324858,2021-10-26T12:00:43.992Z,324865.603,1635249307,full,ni_sequenzen,NI_Sequenzen,9,,,,,,,,,,,,,
,Move,canvas.Screen,0_1_0_9,down,response,,324861.2000000477,324849.397,324865.603,325141.89999997616,276.29699997615535,325142.89999997616,2021-10-26T12:00:44.277Z,325148.98,1635249307,full,ni_sequenzen,NI_Sequenzen,10,,,,,,,,,,,,,
,Move,canvas.Screen,0_1_0_10,right,response,,325147,325132.735,325148.98,325424.10000002384,275.1200000238605,325425,2021-10-26T12:00:44.559Z,325432.271,1635249307,full,ni_sequenzen,NI_Sequenzen,11,,,,,,,,,,,,,
,Move,canvas.Screen,0_1_0_11,right,response,,325428.89999997616,325416.064,325432.271,325894.10000002384,461.82900002383394,325895,2021-10-26T12:00:45.029Z,325915.942,1635249307,full,ni_sequenzen,NI_Sequenzen,12,,,,,,,,,,,,,
,Move,canvas.Screen,0_1_0_12,down,response,,325898.60000002384,325882.63,325915.942,326266.7000000477,350.7580000477028,326267.5,2021-10-26T12:00:45.402Z,326282.112,1635249307,full,ni_sequenzen,NI_Sequenzen,13,,,,,,,,,,,,,
,Move,canvas.Screen,0_1_0_13,down,response,,326271.10000002384,326265.467,326282.112,326509.7999999523,227.68799995229347,326510.7999999523,2021-10-26T12:00:45.645Z,326548.747,1635249307,full,ni_sequenzen,NI_Sequenzen,14,,,,,,,,,,,,,
,Move,canvas.Screen,0_1_0_14,left,response,,326514.7999999523,326532.607,326548.747,326921.89999997616,373.1529999761842,326922.7000000477,2021-10-26T12:00:46.057Z,326932.05,1635249307,full,ni_sequenzen,NI_Sequenzen,15,,,,,,,,,,,,,
,Move,canvas.Screen,0_1_0_15,left,response,,326926.2000000477,326915.804,326932.05,327361.2000000477,429.15000004769536,327362.10000002384,2021-10-26T12:00:46.496Z,327382.423,1635249307,full,ni_sequenzen,NI_Sequenzen,16,,,,,,,,,,,,,
,Move,canvas.Screen,0_1_0_16,down,response,,327365.89999997616,327365.811,327382.423,327816.2000000477,433.77700004767394,327817.10000002384,2021-10-26T12:00:46.951Z,327831.985,1635249307,full,ni_sequenzen,NI_Sequenzen,17,,,,,,,,,,,,,
,Move,canvas.Screen,0_1_0_17,down,response,,327820.39999997616,327815.699,327831.985,328038.60000002384,206.61500002385583,328039.5,2021-10-26T12:00:47.174Z,328048.6,1635249307,full,ni_sequenzen,NI_Sequenzen,18,,,,,,,,,,,,,
,Move,canvas.Screen,0_1_0_18,right,response,,328043.60000002384,328032.353,328048.6,328451.7999999523,403.19999995233957,328452.7000000477,2021-10-26T12:00:47.587Z,328465.155,1635249307,full,ni_sequenzen,NI_Sequenzen,19,,,,,,,,,,,,,
,Move,canvas.Screen,0_1_0_19,right,response,,328456.2999999523,328448.962,328465.155,328773.5,308.34499999997206,328774.39999997616,2021-10-26T12:00:47.908Z,328781.841,1635249307,full,ni_sequenzen,NI_Sequenzen,20,,,,,,,,,,,,,
,Move,canvas.Screen,0_1_0_20,down,response,,328777.89999997616,328765.606,328781.841,329180.5,398.6589999999851,329181.2999999523,2021-10-26T12:00:48.315Z,329198.409,1635249307,full,ni_sequenzen,NI_Sequenzen,21,,,,,,,,,,,,,
,Move,canvas.Screen,0_1_0_21,down,response,,329184.2999999523,329182.209,329198.409,329420.89999997616,222.49099997617304,329421.7999999523,2021-10-26T12:00:48.556Z,329431.707,1635249307,full,ni_sequenzen,NI_Sequenzen,22,,,,,,,,,,,,,
,Move,canvas.Screen,0_1_0_22,down,response,,329426.10000002384,329415.518,329431.707,329590.2999999523,158.5929999523214,329591,2021-10-26T12:00:48.725Z,329598.36,1635249307,full,ni_sequenzen,NI_Sequenzen,23,,,,,,,,,,,,,
,Move,canvas.Screen,0_1_0_23,down,response,,329594.5,329582.173,329598.36,329787.5,189.14000000001397,329788,2021-10-26T12:00:48.922Z,329798.371,1635249307,full,ni_sequenzen,NI_Sequenzen,24,,,,,,,,,,,,,
,Move,canvas.Screen,0_1_0_24,left,response,,329789.89999997616,329781.718,329798.371,330200.10000002384,401.7290000238572,330200.89999997616,2021-10-26T12:00:49.335Z,330214.985,1635249307,full,ni_sequenzen,NI_Sequenzen,25,,,,,,,,,,,,,
,Move,canvas.Screen,0_1_0_25,left,response,,330204.2000000477,330198.26,330214.985,330369.89999997616,154.9149999761721,330370.7000000477,2021-10-26T12:00:49.505Z,330381.569,1635249307,full,ni_sequenzen,NI_Sequenzen,26,,,,,,,,,,,,,
,Move,canvas.Screen,0_1_0_26,left,response,,330374.60000002384,330365.403,330381.569,330529.10000002384,147.53100002382416,330530,2021-10-26T12:00:49.664Z,330548.279,1635249307,full,ni_sequenzen,NI_Sequenzen,27,,,,,,,,,,,,,
,Move,canvas.Screen,0_1_0_27,left,response,,330534.10000002384,330531.581,330548.279,330699.7000000477,151.42100004770327,330700.39999997616,2021-10-26T12:00:49.835Z,330715.475,1635249307,full,ni_sequenzen,NI_Sequenzen,28,,,,,,,,,,,,,
,Move,canvas.Screen,0_1_0_28,left,response,,330703.7000000477,330698.314,330715.475,330856.2999999523,140.82499995233957,330857.10000002384,2021-10-26T12:00:49.991Z,330864.824,1635249307,full,ni_sequenzen,NI_Sequenzen,29,,,,,,,,,,,,,
,Move,canvas.Screen,0_1_0_29,down,response,,330860.2999999523,330848.65,330864.824,331241.7999999523,376.97599995229393,331242.60000002384,2021-10-26T12:00:50.377Z,331331.49,1635249307,full,ni_sequenzen,NI_Sequenzen,30,,,,,,,,,,,,,
,Loop,flow.Loop,0_1_0,-999,completion,,318061.5,318050.344,318066.45,331241.7999999523,13175.349999952305,331243.10000002384,2021-10-26T12:00:50.377Z,331331.49,1635249307,full,ni_sequenzen,NI_Sequenzen,,,,,,,,,,,,,,
,Training_I,flow.Sequence,0_1,,completion,,318053.2000000477,318050.344,318066.45,331241.7999999523,13175.349999952305,331243.2999999523,2021-10-26T12:00:50.377Z,331331.49,1635249307,full,ni_sequenzen,NI_Sequenzen,,,,,,,,,,,,,,
,Screen_1,canvas.Screen,0_2_0_0,cont,response,1,331317.2999999523,331314.77,331331.49,342010.10000002384,10678.610000023851,342011.2000000477,2021-10-26T12:01:01.145Z,342130.114,1635249307,full,ni_sequenzen,NI_Sequenzen,,,,,,,,,,,,,,
,Screen_2,canvas.Screen,0_2_0_1,cont,response,1,342123,342113.174,342130.114,355174.89999997616,13044.785999976157,355175.7999999523,2021-10-26T12:01:14.309Z,355195.123,1635249307,full,ni_sequenzen,NI_Sequenzen,,,,,,,,,,,,,,
,Screen_3,canvas.Screen,0_2_0_2,cont,response,1,355186.2000000477,355178.459,355195.123,366104.5,10909.376999999979,366105.2999999523,2021-10-26T12:01:25.239Z,366210.344,1635249307,full,ni_sequenzen,NI_Sequenzen,,,,,,,,,,,,,,
,Screen_4,canvas.Screen,0_2_0_3,cont,response,1,366190.39999997616,366176.893,366210.344,371145.2999999523,4934.9559999523335,371146.2999999523,2021-10-26T12:01:30.280Z,371159.758,1635249307,full,ni_sequenzen,NI_Sequenzen,,,,,,,,,,,,,,
,Screen_5,canvas.Screen,0_2_0_4,cont,response,1,371152.60000002384,371143.265,371159.758,375702.10000002384,4542.342000023869,375703,2021-10-26T12:01:34.836Z,375842.457,1635249307,full,ni_sequenzen,NI_Sequenzen,,,,,,,,,,,,,,
,Screen_6,canvas.Screen,0_2_0_5,cont,response,1,375826.5,375826.002,375842.457,381700,5857.543000000005,381700.7999999523,2021-10-26T12:01:40.834Z,381891.588,1635249307,full,ni_sequenzen,NI_Sequenzen,,,,,,,,,,,,,,
,Sequence,flow.Sequence,0_2_0,,completion,1,331316.5,331314.77,331331.49,381700,50368.51000000001,381704.2000000477,2021-10-26T12:01:40.838Z,381891.588,1635249307,full,ni_sequenzen,NI_Sequenzen,,,,,,,,,,,,,,
,Screen_1,canvas.Screen,0_2_1_0,,skipped,2,381710.7000000477,,,381710.7000000477,,381710.89999997616,2021-10-26T12:01:40.844Z,381891.588,1635249307,full,ni_sequenzen,NI_Sequenzen,,,,,,,,,,,,,,
,Screen_2,canvas.Screen,0_2_1_1,,skipped,2,381712.89999997616,,,381710.7000000477,,381713.10000002384,2021-10-26T12:01:40.847Z,381891.588,1635249307,full,ni_sequenzen,NI_Sequenzen,,,,,,,,,,,,,,
,Screen_3,canvas.Screen,0_2_1_2,,skipped,2,381715.2000000477,,,381710.7000000477,,381715.2999999523,2021-10-26T12:01:40.849Z,381891.588,1635249307,full,ni_sequenzen,NI_Sequenzen,,,,,,,,,,,,,,
,Screen_4,canvas.Screen,0_2_1_3,,skipped,2,381717.2999999523,,,381710.7000000477,,381717.5,2021-10-26T12:01:40.851Z,381891.588,1635249307,full,ni_sequenzen,NI_Sequenzen,,,,,,,,,,,,,,
,Screen_5,canvas.Screen,0_2_1_4,,skipped,2,381719.5,,,381710.7000000477,,381719.7000000477,2021-10-26T12:01:40.853Z,381891.588,1635249307,full,ni_sequenzen,NI_Sequenzen,,,,,,,,,,,,,,
,Screen_6,canvas.Screen,0_2_1_5,,skipped,2,381723.10000002384,,,381710.7000000477,,381723.2999999523,2021-10-26T12:01:40.857Z,381891.588,1635249307,full,ni_sequenzen,NI_Sequenzen,,,,,,,,,,,,,,
,Sequence,flow.Sequence,0_2_1,,completion,2,381708.10000002384,,,381710.7000000477,,381723.60000002384,2021-10-26T12:01:40.857Z,381891.588,1635249307,full,ni_sequenzen,NI_Sequenzen,,,,,,,,,,,,,,
,Screen_1,canvas.Screen,0_2_2_0,,skipped,3,381725.89999997616,,,381725.89999997616,,381726.10000002384,2021-10-26T12:01:40.860Z,381891.588,1635249307,full,ni_sequenzen,NI_Sequenzen,,,,,,,,,,,,,,
,Screen_2,canvas.Screen,0_2_2_1,,skipped,3,381727.7000000477,,,381725.89999997616,,381727.89999997616,2021-10-26T12:01:40.861Z,381891.588,1635249307,full,ni_sequenzen,NI_Sequenzen,,,,,,,,,,,,,,
,Screen_3,canvas.Screen,0_2_2_2,,skipped,3,381744,,,381725.89999997616,,381744.2000000477,2021-10-26T12:01:40.878Z,381891.588,1635249307,full,ni_sequenzen,NI_Sequenzen,,,,,,,,,,,,,,
,Screen_4,canvas.Screen,0_2_2_3,,skipped,3,381747.10000002384,,,381725.89999997616,,381747.2000000477,2021-10-26T12:01:40.881Z,381891.588,1635249307,full,ni_sequenzen,NI_Sequenzen,,,,,,,,,,,,,,
,Screen_5,canvas.Screen,0_2_2_4,,skipped,3,381749.39999997616,,,381725.89999997616,,381749.60000002384,2021-10-26T12:01:40.883Z,381891.588,1635249307,full,ni_sequenzen,NI_Sequenzen,,,,,,,,,,,,,,
,Screen_6,canvas.Screen,0_2_2_5,,skipped,3,381751.2999999523,,,381725.89999997616,,381751.5,2021-10-26T12:01:40.885Z,381891.588,1635249307,full,ni_sequenzen,NI_Sequenzen,,,,,,,,,,,,,,
,Sequence,flow.Sequence,0_2_2,,completion,3,381724.39999997616,,,381725.89999997616,,381751.7999999523,2021-10-26T12:01:40.885Z,381891.588,1635249307,full,ni_sequenzen,NI_Sequenzen,,,,,,,,,,,,,,
,Screen_1,canvas.Screen,0_2_3_0,,skipped,4,381754.10000002384,,,381754.10000002384,,381754.2000000477,2021-10-26T12:01:40.888Z,381891.588,1635249307,full,ni_sequenzen,NI_Sequenzen,,,,,,,,,,,,,,
,Screen_2,canvas.Screen,0_2_3_1,,skipped,4,381755.2999999523,,,381754.10000002384,,381755.39999997616,2021-10-26T12:01:40.889Z,381891.588,1635249307,full,ni_sequenzen,NI_Sequenzen,,,,,,,,,,,,,,
,Screen_3,canvas.Screen,0_2_3_2,,skipped,4,381756.5,,,381754.10000002384,,381756.60000002384,2021-10-26T12:01:40.890Z,381891.588,1635249307,full,ni_sequenzen,NI_Sequenzen,,,,,,,,,,,,,,
,Screen_4,canvas.Screen,0_2_3_3,,skipped,4,381757.7000000477,,,381754.10000002384,,381757.7999999523,2021-10-26T12:01:40.891Z,381891.588,1635249307,full,ni_sequenzen,NI_Sequenzen,,,,,,,,,,,,,,
,Screen_5,canvas.Screen,0_2_3_4,,skipped,4,381758.7000000477,,,381754.10000002384,,381758.7000000477,2021-10-26T12:01:40.892Z,381891.588,1635249307,full,ni_sequenzen,NI_Sequenzen,,,,,,,,,,,,,,
,Screen_6,canvas.Screen,0_2_3_5,,skipped,4,381759.60000002384,,,381754.10000002384,,381759.60000002384,2021-10-26T12:01:40.893Z,381891.588,1635249307,full,ni_sequenzen,NI_Sequenzen,,,,,,,,,,,,,,
,Sequence,flow.Sequence,0_2_3,,completion,4,381752.5,,,381754.10000002384,,381759.7999999523,2021-10-26T12:01:40.893Z,381891.588,1635249307,full,ni_sequenzen,NI_Sequenzen,,,,,,,,,,,,,,
,Screen_1,canvas.Screen,0_2_4_0,,skipped,5,381760.89999997616,,,381760.89999997616,,381761,2021-10-26T12:01:40.894Z,381891.588,1635249307,full,ni_sequenzen,NI_Sequenzen,,,,,,,,,,,,,,
,Screen_2,canvas.Screen,0_2_4_1,,skipped,5,381761.7000000477,,,381760.89999997616,,381761.7999999523,2021-10-26T12:01:40.895Z,381891.588,1635249307,full,ni_sequenzen,NI_Sequenzen,,,,,,,,,,,,,,
,Screen_3,canvas.Screen,0_2_4_2,,skipped,5,381762.60000002384,,,381760.89999997616,,381762.7999999523,2021-10-26T12:01:40.896Z,381891.588,1635249307,full,ni_sequenzen,NI_Sequenzen,,,,,,,,,,,,,,
,Screen_4,canvas.Screen,0_2_4_3,,skipped,5,381763.5,,,381760.89999997616,,381763.60000002384,2021-10-26T12:01:40.897Z,381891.588,1635249307,full,ni_sequenzen,NI_Sequenzen,,,,,,,,,,,,,,
,Screen_5,canvas.Screen,0_2_4_4,,skipped,5,381764.2000000477,,,381760.89999997616,,381764.2999999523,2021-10-26T12:01:40.898Z,381891.588,1635249307,full,ni_sequenzen,NI_Sequenzen,,,,,,,,,,,,,,
,Screen_6,canvas.Screen,0_2_4_5,,skipped,5,381764.89999997616,,,381760.89999997616,,381765,2021-10-26T12:01:40.898Z,381891.588,1635249307,full,ni_sequenzen,NI_Sequenzen,,,,,,,,,,,,,,
,Sequence,flow.Sequence,0_2_4,,completion,5,381760.2000000477,,,381760.89999997616,,381765.10000002384,2021-10-26T12:01:40.899Z,381891.588,1635249307,full,ni_sequenzen,NI_Sequenzen,,,,,,,,,,,,,,
,Screen_1,canvas.Screen,0_2_5_0,,skipped,6,381765.89999997616,,,381765.89999997616,,381766,2021-10-26T12:01:40.899Z,381891.588,1635249307,full,ni_sequenzen,NI_Sequenzen,,,,,,,,,,,,,,
,Screen_2,canvas.Screen,0_2_5_1,,skipped,6,381767.2999999523,,,381765.89999997616,,381767.2999999523,2021-10-26T12:01:40.901Z,381891.588,1635249307,full,ni_sequenzen,NI_Sequenzen,,,,,,,,,,,,,,
,Screen_3,canvas.Screen,0_2_5_2,,skipped,6,381768,,,381765.89999997616,,381768.10000002384,2021-10-26T12:01:40.902Z,381891.588,1635249307,full,ni_sequenzen,NI_Sequenzen,,,,,,,,,,,,,,
,Screen_4,canvas.Screen,0_2_5_3,,skipped,6,381768.7000000477,,,381765.89999997616,,381768.7000000477,2021-10-26T12:01:40.902Z,381891.588,1635249307,full,ni_sequenzen,NI_Sequenzen,,,,,,,,,,,,,,
,Screen_5,canvas.Screen,0_2_5_4,,skipped,6,381769.2999999523,,,381765.89999997616,,381769.39999997616,2021-10-26T12:01:40.903Z,381891.588,1635249307,full,ni_sequenzen,NI_Sequenzen,,,,,,,,,,,,,,
,Screen_6,canvas.Screen,0_2_5_5,,skipped,6,381770,,,381765.89999997616,,381770,2021-10-26T12:01:40.903Z,381891.588,1635249307,full,ni_sequenzen,NI_Sequenzen,,,,,,,,,,,,,,
,Sequence,flow.Sequence,0_2_5,,completion,6,381765.39999997616,,,381765.89999997616,,381770,2021-10-26T12:01:40.904Z,381891.588,1635249307,full,ni_sequenzen,NI_Sequenzen,,,,,,,,,,,,,,
,Screen_1,canvas.Screen,0_2_6_0,,skipped,7,381770.7999999523,,,381770.7999999523,,381770.89999997616,2021-10-26T12:01:40.904Z,381891.588,1635249307,full,ni_sequenzen,NI_Sequenzen,,,,,,,,,,,,,,
,Screen_2,canvas.Screen,0_2_6_1,,skipped,7,381771.5,,,381770.7999999523,,381771.5,2021-10-26T12:01:40.905Z,381891.588,1635249307,full,ni_sequenzen,NI_Sequenzen,,,,,,,,,,,,,,
,Screen_3,canvas.Screen,0_2_6_2,,skipped,7,381772.10000002384,,,381770.7999999523,,381772.2000000477,2021-10-26T12:01:40.906Z,381891.588,1635249307,full,ni_sequenzen,NI_Sequenzen,,,,,,,,,,,,,,
,Screen_4,canvas.Screen,0_2_6_3,,skipped,7,381772.7000000477,,,381770.7999999523,,381772.7000000477,2021-10-26T12:01:40.906Z,381891.588,1635249307,full,ni_sequenzen,NI_Sequenzen,,,,,,,,,,,,,,
,Screen_5,canvas.Screen,0_2_6_4,,skipped,7,381773.39999997616,,,381770.7999999523,,381773.39999997616,2021-10-26T12:01:40.907Z,381891.588,1635249307,full,ni_sequenzen,NI_Sequenzen,,,,,,,,,,,,,,
,Screen_6,canvas.Screen,0_2_6_5,,skipped,7,381774,,,381770.7999999523,,381774,2021-10-26T12:01:40.907Z,381891.588,1635249307,full,ni_sequenzen,NI_Sequenzen,,,,,,,,,,,,,,
,Sequence,flow.Sequence,0_2_6,,completion,7,381770.2999999523,,,381770.7999999523,,381774.10000002384,2021-10-26T12:01:40.908Z,381891.588,1635249307,full,ni_sequenzen,NI_Sequenzen,,,,,,,,,,,,,,
,Screen_1,canvas.Screen,0_2_7_0,,skipped,8,381774.7999999523,,,381774.7999999523,,381774.7999999523,2021-10-26T12:01:40.908Z,381891.588,1635249307,full,ni_sequenzen,NI_Sequenzen,,,,,,,,,,,,,,
,Screen_2,canvas.Screen,0_2_7_1,,skipped,8,381775.2999999523,,,381774.7999999523,,381775.2999999523,2021-10-26T12:01:40.909Z,381891.588,1635249307,full,ni_sequenzen,NI_Sequenzen,,,,,,,,,,,,,,
,Screen_3,canvas.Screen,0_2_7_2,,skipped,8,381775.89999997616,,,381774.7999999523,,381775.89999997616,2021-10-26T12:01:40.909Z,381891.588,1635249307,full,ni_sequenzen,NI_Sequenzen,,,,,,,,,,,,,,
,Screen_4,canvas.Screen,0_2_7_3,,skipped,8,381776.39999997616,,,381774.7999999523,,381776.5,2021-10-26T12:01:40.910Z,381891.588,1635249307,full,ni_sequenzen,NI_Sequenzen,,,,,,,,,,,,,,
,Screen_5,canvas.Screen,0_2_7_4,,skipped,8,381777.7000000477,,,381774.7999999523,,381777.7999999523,2021-10-26T12:01:40.911Z,381891.588,1635249307,full,ni_sequenzen,NI_Sequenzen,,,,,,,,,,,,,,
,Screen_6,canvas.Screen,0_2_7_5,,skipped,8,381778.2999999523,,,381774.7999999523,,381778.39999997616,2021-10-26T12:01:40.912Z,381891.588,1635249307,full,ni_sequenzen,NI_Sequenzen,,,,,,,,,,,,,,
,Sequence,flow.Sequence,0_2_7,,completion,8,381774.2999999523,,,381774.7999999523,,381778.5,2021-10-26T12:01:40.912Z,381891.588,1635249307,full,ni_sequenzen,NI_Sequenzen,,,,,,,,,,,,,,
,Screen_1,canvas.Screen,0_2_8_0,,skipped,9,381779.2000000477,,,381779.2000000477,,381779.2000000477,2021-10-26T12:01:40.913Z,381891.588,1635249307,full,ni_sequenzen,NI_Sequenzen,,,,,,,,,,,,,,
,Screen_2,canvas.Screen,0_2_8_1,,skipped,9,381779.7000000477,,,381779.2000000477,,381779.7000000477,2021-10-26T12:01:40.913Z,381891.588,1635249307,full,ni_sequenzen,NI_Sequenzen,,,,,,,,,,,,,,
,Screen_3,canvas.Screen,0_2_8_2,,skipped,9,381780.2999999523,,,381779.2000000477,,381780.2999999523,2021-10-26T12:01:40.914Z,381891.588,1635249307,full,ni_sequenzen,NI_Sequenzen,,,,,,,,,,,,,,
,Screen_4,canvas.Screen,0_2_8_3,,skipped,9,381780.89999997616,,,381779.2000000477,,381780.89999997616,2021-10-26T12:01:40.914Z,381891.588,1635249307,full,ni_sequenzen,NI_Sequenzen,,,,,,,,,,,,,,
,Screen_5,canvas.Screen,0_2_8_4,,skipped,9,381781.5,,,381779.2000000477,,381781.5,2021-10-26T12:01:40.915Z,381891.588,1635249307,full,ni_sequenzen,NI_Sequenzen,,,,,,,,,,,,,,
,Screen_6,canvas.Screen,0_2_8_5,,skipped,9,381782,,,381779.2000000477,,381782.10000002384,2021-10-26T12:01:40.915Z,381891.588,1635249307,full,ni_sequenzen,NI_Sequenzen,,,,,,,,,,,,,,
,Sequence,flow.Sequence,0_2_8,,completion,9,381778.7000000477,,,381779.2000000477,,381782.10000002384,2021-10-26T12:01:40.916Z,381891.588,1635249307,full,ni_sequenzen,NI_Sequenzen,,,,,,,,,,,,,,
,Screen_1,canvas.Screen,0_2_9_0,,skipped,10,381782.7999999523,,,381782.7999999523,,381782.7999999523,2021-10-26T12:01:40.916Z,381891.588,1635249307,full,ni_sequenzen,NI_Sequenzen,,,,,,,,,,,,,,
,Screen_2,canvas.Screen,0_2_9_1,,skipped,10,381783.2999999523,,,381782.7999999523,,381783.2999999523,2021-10-26T12:01:40.917Z,381891.588,1635249307,full,ni_sequenzen,NI_Sequenzen,,,,,,,,,,,,,,
,Screen_3,canvas.Screen,0_2_9_2,,skipped,10,381783.7999999523,,,381782.7999999523,,381783.89999997616,2021-10-26T12:01:40.917Z,381891.588,1635249307,full,ni_sequenzen,NI_Sequenzen,,,,,,,,,,,,,,
,Screen_4,canvas.Screen,0_2_9_3,,skipped,10,381784.39999997616,,,381782.7999999523,,381784.5,2021-10-26T12:01:40.918Z,381891.588,1635249307,full,ni_sequenzen,NI_Sequenzen,,,,,,,,,,,,,,
,Screen_5,canvas.Screen,0_2_9_4,,skipped,10,381785.2000000477,,,381782.7999999523,,381785.2999999523,2021-10-26T12:01:40.919Z,381891.588,1635249307,full,ni_sequenzen,NI_Sequenzen,,,,,,,,,,,,,,
,Screen_6,canvas.Screen,0_2_9_5,,skipped,10,381785.7000000477,,,381782.7999999523,,381785.7999999523,2021-10-26T12:01:40.919Z,381891.588,1635249307,full,ni_sequenzen,NI_Sequenzen,,,,,,,,,,,,,,
,Sequence,flow.Sequence,0_2_9,,completion,10,381782.2999999523,,,381782.7999999523,,381785.89999997616,2021-10-26T12:01:40.919Z,381891.588,1635249307,full,ni_sequenzen,NI_Sequenzen,,,,,,,,,,,,,,
,Screen_1,canvas.Screen,0_2_10_0,,skipped,11,381786.7000000477,,,381786.7000000477,,381786.7999999523,2021-10-26T12:01:40.920Z,381891.588,1635249307,full,ni_sequenzen,NI_Sequenzen,,,,,,,,,,,,,,
,Screen_2,canvas.Screen,0_2_10_1,,skipped,11,381787.89999997616,,,381786.7000000477,,381788,2021-10-26T12:01:40.921Z,381891.588,1635249307,full,ni_sequenzen,NI_Sequenzen,,,,,,,,,,,,,,
,Screen_3,canvas.Screen,0_2_10_2,,skipped,11,381788.60000002384,,,381786.7000000477,,381788.7000000477,2021-10-26T12:01:40.922Z,381891.588,1635249307,full,ni_sequenzen,NI_Sequenzen,,,,,,,,,,,,,,
,Screen_4,canvas.Screen,0_2_10_3,,skipped,11,381789.39999997616,,,381786.7000000477,,381789.39999997616,2021-10-26T12:01:40.923Z,381891.588,1635249307,full,ni_sequenzen,NI_Sequenzen,,,,,,,,,,,,,,
,Screen_5,canvas.Screen,0_2_10_4,,skipped,11,381790.10000002384,,,381786.7000000477,,381790.2000000477,2021-10-26T12:01:40.924Z,381891.588,1635249307,full,ni_sequenzen,NI_Sequenzen,,,,,,,,,,,,,,
,Screen_6,canvas.Screen,0_2_10_5,,skipped,11,381790.89999997616,,,381786.7000000477,,381790.89999997616,2021-10-26T12:01:40.924Z,381891.588,1635249307,full,ni_sequenzen,NI_Sequenzen,,,,,,,,,,,,,,
,Sequence,flow.Sequence,0_2_10,,completion,11,381786.2000000477,,,381786.7000000477,,381791.10000002384,2021-10-26T12:01:40.924Z,381891.588,1635249307,full,ni_sequenzen,NI_Sequenzen,,,,,,,,,,,,,,
,Screen_1,canvas.Screen,0_2_11_0,,skipped,12,381792,,,381792,,381792,2021-10-26T12:01:40.926Z,381891.588,1635249307,full,ni_sequenzen,NI_Sequenzen,,,,,,,,,,,,,,
,Screen_2,canvas.Screen,0_2_11_1,,skipped,12,381792.60000002384,,,381792,,381792.7000000477,2021-10-26T12:01:40.926Z,381891.588,1635249307,full,ni_sequenzen,NI_Sequenzen,,,,,,,,,,,,,,
,Screen_3,canvas.Screen,0_2_11_2,,skipped,12,381793.10000002384,,,381792,,381793.2999999523,2021-10-26T12:01:40.927Z,381891.588,1635249307,full,ni_sequenzen,NI_Sequenzen,,,,,,,,,,,,,,
,Screen_4,canvas.Screen,0_2_11_3,,skipped,12,381793.7999999523,,,381792,,381793.7999999523,2021-10-26T12:01:40.927Z,381891.588,1635249307,full,ni_sequenzen,NI_Sequenzen,,,,,,,,,,,,,,
,Screen_5,canvas.Screen,0_2_11_4,,skipped,12,381794.2999999523,,,381792,,381794.39999997616,2021-10-26T12:01:40.928Z,381891.588,1635249307,full,ni_sequenzen,NI_Sequenzen,,,,,,,,,,,,,,
,Screen_6,canvas.Screen,0_2_11_5,,skipped,12,381795,,,381792,,381795,2021-10-26T12:01:40.929Z,381891.588,1635249307,full,ni_sequenzen,NI_Sequenzen,,,,,,,,,,,,,,
,Sequence,flow.Sequence,0_2_11,,completion,12,381791.39999997616,,,381792,,381795.2000000477,2021-10-26T12:01:40.929Z,381891.588,1635249307,full,ni_sequenzen,NI_Sequenzen,,,,,,,,,,,,,,
,Screen_1,canvas.Screen,0_2_12_0,,skipped,13,381795.89999997616,,,381795.89999997616,,381795.89999997616,2021-10-26T12:01:40.929Z,381891.588,1635249307,full,ni_sequenzen,NI_Sequenzen,,,,,,,,,,,,,,
,Screen_2,canvas.Screen,0_2_12_1,,skipped,13,381796.5,,,381795.89999997616,,381796.5,2021-10-26T12:01:40.930Z,381891.588,1635249307,full,ni_sequenzen,NI_Sequenzen,,,,,,,,,,,,,,
,Screen_3,canvas.Screen,0_2_12_2,,skipped,13,381797.7999999523,,,381795.89999997616,,381797.89999997616,2021-10-26T12:01:40.931Z,381891.588,1635249307,full,ni_sequenzen,NI_Sequenzen,,,,,,,,,,,,,,
,Screen_4,canvas.Screen,0_2_12_3,,skipped,13,381798.39999997616,,,381795.89999997616,,381798.39999997616,2021-10-26T12:01:40.932Z,381891.588,1635249307,full,ni_sequenzen,NI_Sequenzen,,,,,,,,,,,,,,
,Screen_5,canvas.Screen,0_2_12_4,,skipped,13,381798.89999997616,,,381795.89999997616,,381799,2021-10-26T12:01:40.932Z,381891.588,1635249307,full,ni_sequenzen,NI_Sequenzen,,,,,,,,,,,,,,
,Screen_6,canvas.Screen,0_2_12_5,,skipped,13,381799.5,,,381795.89999997616,,381799.60000002384,2021-10-26T12:01:40.933Z,381891.588,1635249307,full,ni_sequenzen,NI_Sequenzen,,,,,,,,,,,,,,
,Sequence,flow.Sequence,0_2_12,,completion,13,381795.5,,,381795.89999997616,,381799.7000000477,2021-10-26T12:01:40.933Z,381891.588,1635249307,full,ni_sequenzen,NI_Sequenzen,,,,,,,,,,,,,,
,Screen_1,canvas.Screen,0_2_13_0,,skipped,14,381800.2999999523,,,381800.2999999523,,381800.39999997616,2021-10-26T12:01:40.934Z,381891.588,1635249307,full,ni_sequenzen,NI_Sequenzen,,,,,,,,,,,,,,
,Screen_2,canvas.Screen,0_2_13_1,,skipped,14,381800.7999999523,,,381800.2999999523,,381800.89999997616,2021-10-26T12:01:40.934Z,381891.588,1635249307,full,ni_sequenzen,NI_Sequenzen,,,,,,,,,,,,,,
,Screen_3,canvas.Screen,0_2_13_2,,skipped,14,381801.39999997616,,,381800.2999999523,,381801.5,2021-10-26T12:01:40.935Z,381891.588,1635249307,full,ni_sequenzen,NI_Sequenzen,,,,,,,,,,,,,,
,Screen_4,canvas.Screen,0_2_13_3,,skipped,14,381801.89999997616,,,381800.2999999523,,381802,2021-10-26T12:01:40.935Z,381891.588,1635249307,full,ni_sequenzen,NI_Sequenzen,,,,,,,,,,,,,,
,Screen_5,canvas.Screen,0_2_13_4,,skipped,14,381802.5,,,381800.2999999523,,381802.60000002384,2021-10-26T12:01:40.936Z,381891.588,1635249307,full,ni_sequenzen,NI_Sequenzen,,,,,,,,,,,,,,
,Screen_6,canvas.Screen,0_2_13_5,,skipped,14,381803,,,381800.2999999523,,381803.10000002384,2021-10-26T12:01:40.937Z,381891.588,1635249307,full,ni_sequenzen,NI_Sequenzen,,,,,,,,,,,,,,
,Sequence,flow.Sequence,0_2_13,,completion,14,381799.89999997616,,,381800.2999999523,,381803.2000000477,2021-10-26T12:01:40.937Z,381891.588,1635249307,full,ni_sequenzen,NI_Sequenzen,,,,,,,,,,,,,,
,Screen_1,canvas.Screen,0_2_14_0,,skipped,15,381803.7999999523,,,381803.7999999523,,381803.7999999523,2021-10-26T12:01:40.937Z,381891.588,1635249307,full,ni_sequenzen,NI_Sequenzen,,,,,,,,,,,,,,
,Screen_2,canvas.Screen,0_2_14_1,,skipped,15,381804.2999999523,,,381803.7999999523,,381804.39999997616,2021-10-26T12:01:40.938Z,381891.588,1635249307,full,ni_sequenzen,NI_Sequenzen,,,,,,,,,,,,,,
,Screen_3,canvas.Screen,0_2_14_2,,skipped,15,381804.89999997616,,,381803.7999999523,,381804.89999997616,2021-10-26T12:01:40.938Z,381891.588,1635249307,full,ni_sequenzen,NI_Sequenzen,,,,,,,,,,,,,,
,Screen_4,canvas.Screen,0_2_14_3,,skipped,15,381805.5,,,381803.7999999523,,381805.5,2021-10-26T12:01:40.939Z,381891.588,1635249307,full,ni_sequenzen,NI_Sequenzen,,,,,,,,,,,,,,
,Screen_5,canvas.Screen,0_2_14_4,,skipped,15,381806.60000002384,,,381803.7999999523,,381806.7000000477,2021-10-26T12:01:40.940Z,381891.588,1635249307,full,ni_sequenzen,NI_Sequenzen,,,,,,,,,,,,,,
,Screen_6,canvas.Screen,0_2_14_5,,skipped,15,381807.2000000477,,,381803.7999999523,,381807.2000000477,2021-10-26T12:01:40.941Z,381891.588,1635249307,full,ni_sequenzen,NI_Sequenzen,,,,,,,,,,,,,,
,Sequence,flow.Sequence,0_2_14,,completion,15,381803.39999997616,,,381803.7999999523,,381807.39999997616,2021-10-26T12:01:40.941Z,381891.588,1635249307,full,ni_sequenzen,NI_Sequenzen,,,,,,,,,,,,,,
,Screen_1,canvas.Screen,0_2_15_0,,skipped,16,381808,,,381808,,381808,2021-10-26T12:01:40.941Z,381891.588,1635249307,full,ni_sequenzen,NI_Sequenzen,,,,,,,,,,,,,,
,Screen_2,canvas.Screen,0_2_15_1,,skipped,16,381808.5,,,381808,,381808.5,2021-10-26T12:01:40.942Z,381891.588,1635249307,full,ni_sequenzen,NI_Sequenzen,,,,,,,,,,,,,,
,Screen_3,canvas.Screen,0_2_15_2,,skipped,16,381809,,,381808,,381809,2021-10-26T12:01:40.943Z,381891.588,1635249307,full,ni_sequenzen,NI_Sequenzen,,,,,,,,,,,,,,
,Screen_4,canvas.Screen,0_2_15_3,,skipped,16,381809.5,,,381808,,381809.60000002384,2021-10-26T12:01:40.943Z,381891.588,1635249307,full,ni_sequenzen,NI_Sequenzen,,,,,,,,,,,,,,
,Screen_5,canvas.Screen,0_2_15_4,,skipped,16,381810,,,381808,,381810.10000002384,2021-10-26T12:01:40.944Z,381891.588,1635249307,full,ni_sequenzen,NI_Sequenzen,,,,,,,,,,,,,,
,Screen_6,canvas.Screen,0_2_15_5,,skipped,16,381810.5,,,381808,,381810.60000002384,2021-10-26T12:01:40.944Z,381891.588,1635249307,full,ni_sequenzen,NI_Sequenzen,,,,,,,,,,,,,,
,Sequence,flow.Sequence,0_2_15,,completion,16,381807.60000002384,,,381808,,381810.60000002384,2021-10-26T12:01:40.944Z,381891.588,1635249307,full,ni_sequenzen,NI_Sequenzen,,,,,,,,,,,,,,
,Screen_1,canvas.Screen,0_2_16_0,,skipped,17,381811.2000000477,,,381811.2000000477,,381811.2999999523,2021-10-26T12:01:40.945Z,381891.588,1635249307,full,ni_sequenzen,NI_Sequenzen,,,,,,,,,,,,,,
,Screen_2,canvas.Screen,0_2_16_1,,skipped,17,381811.7999999523,,,381811.2000000477,,381811.7999999523,2021-10-26T12:01:40.945Z,381891.588,1635249307,full,ni_sequenzen,NI_Sequenzen,,,,,,,,,,,,,,
,Screen_3,canvas.Screen,0_2_16_2,,skipped,17,381812.2000000477,,,381811.2000000477,,381812.2999999523,2021-10-26T12:01:40.946Z,381891.588,1635249307,full,ni_sequenzen,NI_Sequenzen,,,,,,,,,,,,,,
,Screen_4,canvas.Screen,0_2_16_3,,skipped,17,381812.7000000477,,,381811.2000000477,,381812.7999999523,2021-10-26T12:01:40.946Z,381891.588,1635249307,full,ni_sequenzen,NI_Sequenzen,,,,,,,,,,,,,,
,Screen_5,canvas.Screen,0_2_16_4,,skipped,17,381813.2000000477,,,381811.2000000477,,381813.2999999523,2021-10-26T12:01:40.947Z,381891.588,1635249307,full,ni_sequenzen,NI_Sequenzen,,,,,,,,,,,,,,
,Screen_6,canvas.Screen,0_2_16_5,,skipped,17,381814.2000000477,,,381811.2000000477,,381814.2999999523,2021-10-26T12:01:40.948Z,381891.588,1635249307,full,ni_sequenzen,NI_Sequenzen,,,,,,,,,,,,,,
,Sequence,flow.Sequence,0_2_16,,completion,17,381810.7999999523,,,381811.2000000477,,381814.39999997616,2021-10-26T12:01:40.948Z,381891.588,1635249307,full,ni_sequenzen,NI_Sequenzen,,,,,,,,,,,,,,
,Screen_1,canvas.Screen,0_2_17_0,,skipped,18,381815,,,381815,,381815.2000000477,2021-10-26T12:01:40.949Z,381891.588,1635249307,full,ni_sequenzen,NI_Sequenzen,,,,,,,,,,,,,,
,Screen_2,canvas.Screen,0_2_17_1,,skipped,18,381815.60000002384,,,381815,,381815.60000002384,2021-10-26T12:01:40.949Z,381891.588,1635249307,full,ni_sequenzen,NI_Sequenzen,,,,,,,,,,,,,,
,Screen_3,canvas.Screen,0_2_17_2,,skipped,18,381816.10000002384,,,381815,,381816.10000002384,2021-10-26T12:01:40.950Z,381891.588,1635249307,full,ni_sequenzen,NI_Sequenzen,,,,,,,,,,,,,,
,Screen_4,canvas.Screen,0_2_17_3,,skipped,18,381816.60000002384,,,381815,,381816.60000002384,2021-10-26T12:01:40.950Z,381891.588,1635249307,full,ni_sequenzen,NI_Sequenzen,,,,,,,,,,,,,,
,Screen_5,canvas.Screen,0_2_17_4,,skipped,18,381817.10000002384,,,381815,,381817.10000002384,2021-10-26T12:01:40.951Z,381891.588,1635249307,full,ni_sequenzen,NI_Sequenzen,,,,,,,,,,,,,,
,Screen_6,canvas.Screen,0_2_17_5,,skipped,18,381817.60000002384,,,381815,,381817.60000002384,2021-10-26T12:01:40.951Z,381891.588,1635249307,full,ni_sequenzen,NI_Sequenzen,,,,,,,,,,,,,,
,Sequence,flow.Sequence,0_2_17,,completion,18,381814.60000002384,,,381815,,381817.7000000477,2021-10-26T12:01:40.951Z,381891.588,1635249307,full,ni_sequenzen,NI_Sequenzen,,,,,,,,,,,,,,
,Screen_1,canvas.Screen,0_2_18_0,,skipped,19,381818.2999999523,,,381818.2999999523,,381818.39999997616,2021-10-26T12:01:40.952Z,381891.588,1635249307,full,ni_sequenzen,NI_Sequenzen,,,,,,,,,,,,,,
,Screen_2,canvas.Screen,0_2_18_1,,skipped,19,381818.89999997616,,,381818.2999999523,,381818.89999997616,2021-10-26T12:01:40.952Z,381891.588,1635249307,full,ni_sequenzen,NI_Sequenzen,,,,,,,,,,,,,,
,Screen_3,canvas.Screen,0_2_18_2,,skipped,19,381819.2999999523,,,381818.2999999523,,381819.39999997616,2021-10-26T12:01:40.953Z,381891.588,1635249307,full,ni_sequenzen,NI_Sequenzen,,,,,,,,,,,,,,
,Screen_4,canvas.Screen,0_2_18_3,,skipped,19,381819.7999999523,,,381818.2999999523,,381819.89999997616,2021-10-26T12:01:40.953Z,381891.588,1635249307,full,ni_sequenzen,NI_Sequenzen,,,,,,,,,,,,,,
,Screen_5,canvas.Screen,0_2_18_4,,skipped,19,381820.39999997616,,,381818.2999999523,,381820.39999997616,2021-10-26T12:01:40.954Z,381891.588,1635249307,full,ni_sequenzen,NI_Sequenzen,,,,,,,,,,,,,,
,Screen_6,canvas.Screen,0_2_18_5,,skipped,19,381820.89999997616,,,381818.2999999523,,381821,2021-10-26T12:01:40.954Z,381891.588,1635249307,full,ni_sequenzen,NI_Sequenzen,,,,,,,,,,,,,,
,Sequence,flow.Sequence,0_2_18,,completion,19,381817.89999997616,,,381818.2999999523,,381821,2021-10-26T12:01:40.954Z,381891.588,1635249307,full,ni_sequenzen,NI_Sequenzen,,,,,,,,,,,,,,
,Screen_1,canvas.Screen,0_2_19_0,,skipped,20,381822.10000002384,,,381822.10000002384,,381822.2000000477,2021-10-26T12:01:40.956Z,381891.588,1635249307,full,ni_sequenzen,NI_Sequenzen,,,,,,,,,,,,,,
,Screen_2,canvas.Screen,0_2_19_1,,skipped,20,381822.7999999523,,,381822.10000002384,,381822.7999999523,2021-10-26T12:01:40.956Z,381891.588,1635249307,full,ni_sequenzen,NI_Sequenzen,,,,,,,,,,,,,,
,Screen_3,canvas.Screen,0_2_19_2,,skipped,20,381823.2999999523,,,381822.10000002384,,381823.2999999523,2021-10-26T12:01:40.957Z,381891.588,1635249307,full,ni_sequenzen,NI_Sequenzen,,,,,,,,,,,,,,
,Screen_4,canvas.Screen,0_2_19_3,,skipped,20,381823.7999999523,,,381822.10000002384,,381823.89999997616,2021-10-26T12:01:40.957Z,381891.588,1635249307,full,ni_sequenzen,NI_Sequenzen,,,,,,,,,,,,,,
,Screen_5,canvas.Screen,0_2_19_4,,skipped,20,381824.2999999523,,,381822.10000002384,,381824.2999999523,2021-10-26T12:01:40.958Z,381891.588,1635249307,full,ni_sequenzen,NI_Sequenzen,,,,,,,,,,,,,,
,Screen_6,canvas.Screen,0_2_19_5,,skipped,20,381824.89999997616,,,381822.10000002384,,381824.89999997616,2021-10-26T12:01:40.958Z,381891.588,1635249307,full,ni_sequenzen,NI_Sequenzen,,,,,,,,,,,,,,
,Sequence,flow.Sequence,0_2_19,,completion,20,381821.2000000477,,,381822.10000002384,,381824.89999997616,2021-10-26T12:01:40.958Z,381891.588,1635249307,full,ni_sequenzen,NI_Sequenzen,,,,,,,,,,,,,,
,Screen_1,canvas.Screen,0_2_20_0,,skipped,21,381825.60000002384,,,381825.60000002384,,381825.60000002384,2021-10-26T12:01:40.959Z,381891.588,1635249307,full,ni_sequenzen,NI_Sequenzen,,,,,,,,,,,,,,
,Screen_2,canvas.Screen,0_2_20_1,,skipped,21,381826.2000000477,,,381825.60000002384,,381826.2000000477,2021-10-26T12:01:40.960Z,381891.588,1635249307,full,ni_sequenzen,NI_Sequenzen,,,,,,,,,,,,,,
,Screen_3,canvas.Screen,0_2_20_2,,skipped,21,381826.7000000477,,,381825.60000002384,,381826.7999999523,2021-10-26T12:01:40.960Z,381891.588,1635249307,full,ni_sequenzen,NI_Sequenzen,,,,,,,,,,,,,,
,Screen_4,canvas.Screen,0_2_20_3,,skipped,21,381827.2000000477,,,381825.60000002384,,381827.2999999523,2021-10-26T12:01:40.961Z,381891.588,1635249307,full,ni_sequenzen,NI_Sequenzen,,,,,,,,,,,,,,
,Screen_5,canvas.Screen,0_2_20_4,,skipped,21,381827.7999999523,,,381825.60000002384,,381827.89999997616,2021-10-26T12:01:40.961Z,381891.588,1635249307,full,ni_sequenzen,NI_Sequenzen,,,,,,,,,,,,,,
,Screen_6,canvas.Screen,0_2_20_5,,skipped,21,381828.39999997616,,,381825.60000002384,,381828.39999997616,2021-10-26T12:01:40.962Z,381891.588,1635249307,full,ni_sequenzen,NI_Sequenzen,,,,,,,,,,,,,,
,Sequence,flow.Sequence,0_2_20,,completion,21,381825.2000000477,,,381825.60000002384,,381828.5,2021-10-26T12:01:40.962Z,381891.588,1635249307,full,ni_sequenzen,NI_Sequenzen,,,,,,,,,,,,,,
,Screen_1,canvas.Screen,0_2_21_0,,skipped,22,381829.10000002384,,,381829.2000000477,,381829.2000000477,2021-10-26T12:01:40.963Z,381891.588,1635249307,full,ni_sequenzen,NI_Sequenzen,,,,,,,,,,,,,,
,Screen_2,canvas.Screen,0_2_21_1,,skipped,22,381830.2999999523,,,381829.2000000477,,381830.2999999523,2021-10-26T12:01:40.964Z,381891.588,1635249307,full,ni_sequenzen,NI_Sequenzen,,,,,,,,,,,,,,
,Screen_3,canvas.Screen,0_2_21_2,,skipped,22,381830.7999999523,,,381829.2000000477,,381830.7999999523,2021-10-26T12:01:40.964Z,381891.588,1635249307,full,ni_sequenzen,NI_Sequenzen,,,,,,,,,,,,,,
,Screen_4,canvas.Screen,0_2_21_3,,skipped,22,381831.39999997616,,,381829.2000000477,,381831.39999997616,2021-10-26T12:01:40.965Z,381891.588,1635249307,full,ni_sequenzen,NI_Sequenzen,,,,,,,,,,,,,,
,Screen_5,canvas.Screen,0_2_21_4,,skipped,22,381832.2999999523,,,381829.2000000477,,381832.39999997616,2021-10-26T12:01:40.966Z,381891.588,1635249307,full,ni_sequenzen,NI_Sequenzen,,,,,,,,,,,,,,
,Screen_6,canvas.Screen,0_2_21_5,,skipped,22,381832.7999999523,,,381829.2000000477,,381832.89999997616,2021-10-26T12:01:40.966Z,381891.588,1635249307,full,ni_sequenzen,NI_Sequenzen,,,,,,,,,,,,,,
,Sequence,flow.Sequence,0_2_21,,completion,22,381828.7000000477,,,381829.2000000477,,381833,2021-10-26T12:01:40.966Z,381891.588,1635249307,full,ni_sequenzen,NI_Sequenzen,,,,,,,,,,,,,,
,Screen_1,canvas.Screen,0_2_22_0,,skipped,23,381833.7000000477,,,381833.7000000477,,381833.7000000477,2021-10-26T12:01:40.967Z,381891.588,1635249307,full,ni_sequenzen,NI_Sequenzen,,,,,,,,,,,,,,
,Screen_2,canvas.Screen,0_2_22_1,,skipped,23,381834.2000000477,,,381833.7000000477,,381834.2000000477,2021-10-26T12:01:40.968Z,381891.588,1635249307,full,ni_sequenzen,NI_Sequenzen,,,,,,,,,,,,,,
,Screen_3,canvas.Screen,0_2_22_2,,skipped,23,381834.7999999523,,,381833.7000000477,,381834.7999999523,2021-10-26T12:01:40.968Z,381891.588,1635249307,full,ni_sequenzen,NI_Sequenzen,,,,,,,,,,,,,,
,Screen_4,canvas.Screen,0_2_22_3,,skipped,23,381835.5,,,381833.7000000477,,381835.5,2021-10-26T12:01:40.969Z,381891.588,1635249307,full,ni_sequenzen,NI_Sequenzen,,,,,,,,,,,,,,
,Screen_5,canvas.Screen,0_2_22_4,,skipped,23,381836,,,381833.7000000477,,381836.10000002384,2021-10-26T12:01:40.970Z,381891.588,1635249307,full,ni_sequenzen,NI_Sequenzen,,,,,,,,,,,,,,
,Screen_6,canvas.Screen,0_2_22_5,,skipped,23,381836.7000000477,,,381833.7000000477,,381836.7999999523,2021-10-26T12:01:40.970Z,381891.588,1635249307,full,ni_sequenzen,NI_Sequenzen,,,,,,,,,,,,,,
,Sequence,flow.Sequence,0_2_22,,completion,23,381833.2000000477,,,381833.7000000477,,381836.7999999523,2021-10-26T12:01:40.970Z,381891.588,1635249307,full,ni_sequenzen,NI_Sequenzen,,,,,,,,,,,,,,
,Screen_1,canvas.Screen,0_2_23_0,,skipped,24,381837.5,,,381837.5,,381837.60000002384,2021-10-26T12:01:40.971Z,381891.588,1635249307,full,ni_sequenzen,NI_Sequenzen,,,,,,,,,,,,,,
,Screen_2,canvas.Screen,0_2_23_1,,skipped,24,381838.10000002384,,,381837.5,,381838.10000002384,2021-10-26T12:01:40.972Z,381891.588,1635249307,full,ni_sequenzen,NI_Sequenzen,,,,,,,,,,,,,,
,Screen_3,canvas.Screen,0_2_23_2,,skipped,24,381838.60000002384,,,381837.5,,381838.60000002384,2021-10-26T12:01:40.972Z,381891.588,1635249307,full,ni_sequenzen,NI_Sequenzen,,,,,,,,,,,,,,
,Screen_4,canvas.Screen,0_2_23_3,,skipped,24,381839.10000002384,,,381837.5,,381839.10000002384,2021-10-26T12:01:40.973Z,381891.588,1635249307,full,ni_sequenzen,NI_Sequenzen,,,,,,,,,,,,,,
,Screen_5,canvas.Screen,0_2_23_4,,skipped,24,381839.60000002384,,,381837.5,,381839.60000002384,2021-10-26T12:01:40.973Z,381891.588,1635249307,full,ni_sequenzen,NI_Sequenzen,,,,,,,,,,,,,,
,Screen_6,canvas.Screen,0_2_23_5,,skipped,24,381840.5,,,381837.5,,381840.7000000477,2021-10-26T12:01:40.974Z,381891.588,1635249307,full,ni_sequenzen,NI_Sequenzen,,,,,,,,,,,,,,
,Sequence,flow.Sequence,0_2_23,,completion,24,381837.10000002384,,,381837.5,,381840.7000000477,2021-10-26T12:01:40.974Z,381891.588,1635249307,full,ni_sequenzen,NI_Sequenzen,,,,,,,,,,,,,,
,Screen_1,canvas.Screen,0_2_24_0,,skipped,25,381841.39999997616,,,381841.39999997616,,381841.5,2021-10-26T12:01:40.975Z,381891.588,1635249307,full,ni_sequenzen,NI_Sequenzen,,,,,,,,,,,,,,
,Screen_2,canvas.Screen,0_2_24_1,,skipped,25,381842,,,381841.39999997616,,381842,2021-10-26T12:01:40.976Z,381891.588,1635249307,full,ni_sequenzen,NI_Sequenzen,,,,,,,,,,,,,,
,Screen_3,canvas.Screen,0_2_24_2,,skipped,25,381842.60000002384,,,381841.39999997616,,381842.60000002384,2021-10-26T12:01:40.976Z,381891.588,1635249307,full,ni_sequenzen,NI_Sequenzen,,,,,,,,,,,,,,
,Screen_4,canvas.Screen,0_2_24_3,,skipped,25,381843,,,381841.39999997616,,381843.10000002384,2021-10-26T12:01:40.977Z,381891.588,1635249307,full,ni_sequenzen,NI_Sequenzen,,,,,,,,,,,,,,
,Screen_5,canvas.Screen,0_2_24_4,,skipped,25,381843.60000002384,,,381841.39999997616,,381843.7000000477,2021-10-26T12:01:40.977Z,381891.588,1635249307,full,ni_sequenzen,NI_Sequenzen,,,,,,,,,,,,,,
,Screen_6,canvas.Screen,0_2_24_5,,skipped,25,381844.10000002384,,,381841.39999997616,,381844.2000000477,2021-10-26T12:01:40.978Z,381891.588,1635249307,full,ni_sequenzen,NI_Sequenzen,,,,,,,,,,,,,,
,Sequence,flow.Sequence,0_2_24,,completion,25,381841,,,381841.39999997616,,381844.2999999523,2021-10-26T12:01:40.978Z,381891.588,1635249307,full,ni_sequenzen,NI_Sequenzen,,,,,,,,,,,,,,
,Screen_1,canvas.Screen,0_2_25_0,,skipped,26,381845,,,381845,,381845,2021-10-26T12:01:40.979Z,381891.588,1635249307,full,ni_sequenzen,NI_Sequenzen,,,,,,,,,,,,,,
,Screen_2,canvas.Screen,0_2_25_1,,skipped,26,381845.60000002384,,,381845,,381845.60000002384,2021-10-26T12:01:40.979Z,381891.588,1635249307,full,ni_sequenzen,NI_Sequenzen,,,,,,,,,,,,,,
,Screen_3,canvas.Screen,0_2_25_2,,skipped,26,381846.10000002384,,,381845,,381846.10000002384,2021-10-26T12:01:40.980Z,381891.588,1635249307,full,ni_sequenzen,NI_Sequenzen,,,,,,,,,,,,,,
,Screen_4,canvas.Screen,0_2_25_3,,skipped,26,381846.7000000477,,,381845,,381846.7000000477,2021-10-26T12:01:40.980Z,381891.588,1635249307,full,ni_sequenzen,NI_Sequenzen,,,,,,,,,,,,,,
,Screen_5,canvas.Screen,0_2_25_4,,skipped,26,381847.2000000477,,,381845,,381847.2999999523,2021-10-26T12:01:40.981Z,381891.588,1635249307,full,ni_sequenzen,NI_Sequenzen,,,,,,,,,,,,,,
,Screen_6,canvas.Screen,0_2_25_5,,skipped,26,381847.7999999523,,,381845,,381847.7999999523,2021-10-26T12:01:40.981Z,381891.588,1635249307,full,ni_sequenzen,NI_Sequenzen,,,,,,,,,,,,,,
,Sequence,flow.Sequence,0_2_25,,completion,26,381844.60000002384,,,381845,,381847.7999999523,2021-10-26T12:01:40.981Z,381891.588,1635249307,full,ni_sequenzen,NI_Sequenzen,,,,,,,,,,,,,,
,Screen_1,canvas.Screen,0_2_26_0,,skipped,27,381848.60000002384,,,381848.60000002384,,381848.60000002384,2021-10-26T12:01:40.982Z,381891.588,1635249307,full,ni_sequenzen,NI_Sequenzen,,,,,,,,,,,,,,
,Screen_2,canvas.Screen,0_2_26_1,,skipped,27,381849.2000000477,,,381848.60000002384,,381849.39999997616,2021-10-26T12:01:40.983Z,381891.588,1635249307,full,ni_sequenzen,NI_Sequenzen,,,,,,,,,,,,,,
,Screen_3,canvas.Screen,0_2_26_2,,skipped,27,381850,,,381848.60000002384,,381850.10000002384,2021-10-26T12:01:40.984Z,381891.588,1635249307,full,ni_sequenzen,NI_Sequenzen,,,,,,,,,,,,,,
,Screen_4,canvas.Screen,0_2_26_3,,skipped,27,381851.2999999523,,,381848.60000002384,,381851.39999997616,2021-10-26T12:01:40.985Z,381891.588,1635249307,full,ni_sequenzen,NI_Sequenzen,,,,,,,,,,,,,,
,Screen_5,canvas.Screen,0_2_26_4,,skipped,27,381851.7999999523,,,381848.60000002384,,381851.89999997616,2021-10-26T12:01:40.985Z,381891.588,1635249307,full,ni_sequenzen,NI_Sequenzen,,,,,,,,,,,,,,
,Screen_6,canvas.Screen,0_2_26_5,,skipped,27,381852.39999997616,,,381848.60000002384,,381852.5,2021-10-26T12:01:40.986Z,381891.588,1635249307,full,ni_sequenzen,NI_Sequenzen,,,,,,,,,,,,,,
,Sequence,flow.Sequence,0_2_26,,completion,27,381848.10000002384,,,381848.60000002384,,381852.60000002384,2021-10-26T12:01:40.986Z,381891.588,1635249307,full,ni_sequenzen,NI_Sequenzen,,,,,,,,,,,,,,
,Screen_1,canvas.Screen,0_2_27_0,,skipped,28,381853.2000000477,,,381853.2000000477,,381853.2999999523,2021-10-26T12:01:40.987Z,381891.588,1635249307,full,ni_sequenzen,NI_Sequenzen,,,,,,,,,,,,,,
,Screen_2,canvas.Screen,0_2_27_1,,skipped,28,381853.7999999523,,,381853.2000000477,,381853.7999999523,2021-10-26T12:01:40.987Z,381891.588,1635249307,full,ni_sequenzen,NI_Sequenzen,,,,,,,,,,,,,,
,Screen_3,canvas.Screen,0_2_27_2,,skipped,28,381854.2999999523,,,381853.2000000477,,381854.39999997616,2021-10-26T12:01:40.988Z,381891.588,1635249307,full,ni_sequenzen,NI_Sequenzen,,,,,,,,,,,,,,
,Screen_4,canvas.Screen,0_2_27_3,,skipped,28,381855,,,381853.2000000477,,381855,2021-10-26T12:01:40.988Z,381891.588,1635249307,full,ni_sequenzen,NI_Sequenzen,,,,,,,,,,,,,,
,Screen_5,canvas.Screen,0_2_27_4,,skipped,28,381855.5,,,381853.2000000477,,381855.5,2021-10-26T12:01:40.989Z,381891.588,1635249307,full,ni_sequenzen,NI_Sequenzen,,,,,,,,,,,,,,
,Screen_6,canvas.Screen,0_2_27_5,,skipped,28,381856,,,381853.2000000477,,381856.10000002384,2021-10-26T12:01:40.990Z,381891.588,1635249307,full,ni_sequenzen,NI_Sequenzen,,,,,,,,,,,,,,
,Sequence,flow.Sequence,0_2_27,,completion,28,381852.7999999523,,,381853.2000000477,,381856.10000002384,2021-10-26T12:01:40.990Z,381891.588,1635249307,full,ni_sequenzen,NI_Sequenzen,,,,,,,,,,,,,,
,Screen_1,canvas.Screen,0_2_28_0,,skipped,29,381856.7999999523,,,381856.7999999523,,381856.89999997616,2021-10-26T12:01:40.990Z,381891.588,1635249307,full,ni_sequenzen,NI_Sequenzen,,,,,,,,,,,,,,
,Screen_2,canvas.Screen,0_2_28_1,,skipped,29,381857.39999997616,,,381856.7999999523,,381857.39999997616,2021-10-26T12:01:40.991Z,381891.588,1635249307,full,ni_sequenzen,NI_Sequenzen,,,,,,,,,,,,,,
,Screen_3,canvas.Screen,0_2_28_2,,skipped,29,381857.89999997616,,,381856.7999999523,,381857.89999997616,2021-10-26T12:01:40.991Z,381891.588,1635249307,full,ni_sequenzen,NI_Sequenzen,,,,,,,,,,,,,,
,Screen_4,canvas.Screen,0_2_28_3,,skipped,29,381858.39999997616,,,381856.7999999523,,381858.5,2021-10-26T12:01:40.992Z,381891.588,1635249307,full,ni_sequenzen,NI_Sequenzen,,,,,,,,,,,,,,
,Screen_5,canvas.Screen,0_2_28_4,,skipped,29,381859.10000002384,,,381856.7999999523,,381859.10000002384,2021-10-26T12:01:40.993Z,381891.588,1635249307,full,ni_sequenzen,NI_Sequenzen,,,,,,,,,,,,,,
,Screen_6,canvas.Screen,0_2_28_5,,skipped,29,381859.60000002384,,,381856.7999999523,,381859.60000002384,2021-10-26T12:01:40.993Z,381891.588,1635249307,full,ni_sequenzen,NI_Sequenzen,,,,,,,,,,,,,,
,Sequence,flow.Sequence,0_2_28,,completion,29,381856.2999999523,,,381856.7999999523,,381859.60000002384,2021-10-26T12:01:40.993Z,381891.588,1635249307,full,ni_sequenzen,NI_Sequenzen,,,,,,,,,,,,,,
,Screen_1,canvas.Screen,0_2_29_0,,skipped,30,381860.7000000477,,,381860.7000000477,,381860.7000000477,2021-10-26T12:01:40.994Z,381891.588,1635249307,full,ni_sequenzen,NI_Sequenzen,,,,,,,,,,,,,,
,Screen_2,canvas.Screen,0_2_29_1,,skipped,30,381861.2000000477,,,381860.7000000477,,381861.2999999523,2021-10-26T12:01:40.995Z,381891.588,1635249307,full,ni_sequenzen,NI_Sequenzen,,,,,,,,,,,,,,
,Screen_3,canvas.Screen,0_2_29_2,,skipped,30,381861.7000000477,,,381860.7000000477,,381861.7000000477,2021-10-26T12:01:40.995Z,381891.588,1635249307,full,ni_sequenzen,NI_Sequenzen,,,,,,,,,,,,,,
,Screen_4,canvas.Screen,0_2_29_3,,skipped,30,381862.10000002384,,,381860.7000000477,,381862.2000000477,2021-10-26T12:01:40.996Z,381891.588,1635249307,full,ni_sequenzen,NI_Sequenzen,,,,,,,,,,,,,,
,Screen_5,canvas.Screen,0_2_29_4,,skipped,30,381862.60000002384,,,381860.7000000477,,381862.7000000477,2021-10-26T12:01:40.996Z,381891.588,1635249307,full,ni_sequenzen,NI_Sequenzen,,,,,,,,,,,,,,
,Screen_6,canvas.Screen,0_2_29_5,,skipped,30,381863,,,381860.7000000477,,381863.10000002384,2021-10-26T12:01:40.997Z,381891.588,1635249307,full,ni_sequenzen,NI_Sequenzen,,,,,,,,,,,,,,
,Sequence,flow.Sequence,0_2_29,,completion,30,381859.89999997616,,,381860.7000000477,,381863.2000000477,2021-10-26T12:01:40.997Z,381891.588,1635249307,full,ni_sequenzen,NI_Sequenzen,,,,,,,,,,,,,,
,Instructions_II,flow.Loop,0_2,,completion,,331316,331314.77,331331.49,381860.7000000477,50529.21000004769,381863.2000000477,2021-10-26T12:01:40.997Z,381891.588,1635249307,full,ni_sequenzen,NI_Sequenzen,,,,,,,,,,,,,,
,Move,canvas.Screen,0_3_0_0_0_0,down,response,,381885.2000000477,381875.001,381891.588,387474.60000002384,5583.012000023853,387475.5,2021-10-26T12:01:46.609Z,387507.654,1635249307,full,ni_sequenzen,NI_Sequenzen,1,0,,,,,,,,,,,,
,Move,canvas.Screen,0_3_0_0_0_1,right,response,,387491.89999997616,387490.854,387507.654,388156.2000000477,648.5460000477033,388157.10000002384,2021-10-26T12:01:47.291Z,388174.208,1635249307,full,ni_sequenzen,NI_Sequenzen,2,0,,,,,,,,,,,,
,Move,canvas.Screen,0_3_0_0_0_2,right,response,,388163.2999999523,388157.974,388174.208,389706.39999997616,1532.191999976174,389707.2999999523,2021-10-26T12:01:48.841Z,389724.007,1635249307,full,ni_sequenzen,NI_Sequenzen,3,0,,,,,,,,,,,,
,Move,canvas.Screen,0_3_0_0_0_3,down,response,,389712.2999999523,389707.739,389724.007,390149.2999999523,425.29299995233305,390150,2021-10-26T12:01:49.283Z,390207.193,1635249307,full,ni_sequenzen,NI_Sequenzen,4,0,,,,,,,,,,,,
,Move,canvas.Screen,0_3_0_0_0_4,-999,skipped,,390155.2999999523,,,390149.2999999523,,390155.39999997616,2021-10-26T12:01:49.289Z,390207.193,1635249307,full,ni_sequenzen,NI_Sequenzen,5,0,,,,,,,,,,,,
,Move,canvas.Screen,0_3_0_0_0_5,-999,skipped,,390162,,,390149.2999999523,,390162.2999999523,2021-10-26T12:01:49.296Z,390207.193,1635249307,full,ni_sequenzen,NI_Sequenzen,6,0,,,,,,,,,,,,
,Move,canvas.Screen,0_3_0_0_0_6,-999,skipped,,390167.2999999523,,,390149.2999999523,,390167.39999997616,2021-10-26T12:01:49.301Z,390207.193,1635249307,full,ni_sequenzen,NI_Sequenzen,7,0,,,,,,,,,,,,
,Move,canvas.Screen,0_3_0_0_0_7,-999,skipped,,390171.7999999523,,,390149.2999999523,,390172,2021-10-26T12:01:49.306Z,390207.193,1635249307,full,ni_sequenzen,NI_Sequenzen,8,0,,,,,,,,,,,,
,Move,canvas.Screen,0_3_0_0_0_8,-999,skipped,,390177.10000002384,,,390149.2999999523,,390177.2000000477,2021-10-26T12:01:49.311Z,390207.193,1635249307,full,ni_sequenzen,NI_Sequenzen,9,0,,,,,,,,,,,,
,Move,canvas.Screen,0_3_0_0_0_9,-999,skipped,,390181.2999999523,,,390149.2999999523,,390181.39999997616,2021-10-26T12:01:49.315Z,390207.193,1635249307,full,ni_sequenzen,NI_Sequenzen,10,0,,,,,,,,,,,,
,Move,canvas.Screen,0_3_0_0_0_10,-999,skipped,,390184.89999997616,,,390149.2999999523,,390184.89999997616,2021-10-26T12:01:49.318Z,390207.193,1635249307,full,ni_sequenzen,NI_Sequenzen,11,0,,,,,,,,,,,,
,Move,canvas.Screen,0_3_0_0_0_11,-999,skipped,,390188.2000000477,,,390149.2999999523,,390188.2999999523,2021-10-26T12:01:49.322Z,390207.193,1635249307,full,ni_sequenzen,NI_Sequenzen,12,0,,,,,,,,,,,,
,Move,canvas.Screen,0_3_0_0_0_12,-999,skipped,,390191.10000002384,,,390149.2999999523,,390191.10000002384,2021-10-26T12:01:49.325Z,390207.193,1635249307,full,ni_sequenzen,NI_Sequenzen,13,0,,,,,,,,,,,,
,Move,canvas.Screen,0_3_0_0_0_13,-999,skipped,,390192.89999997616,,,390149.2999999523,,390193,2021-10-26T12:01:49.326Z,390207.193,1635249307,full,ni_sequenzen,NI_Sequenzen,14,0,,,,,,,,,,,,
,Move,canvas.Screen,0_3_0_0_0_14,-999,skipped,,390195.7000000477,,,390149.2999999523,,390195.7000000477,2021-10-26T12:01:49.329Z,390207.193,1635249307,full,ni_sequenzen,NI_Sequenzen,15,0,,,,,,,,,,,,
,Loop,flow.Loop,0_3_0_0_0,-999,completion,,381881.7999999523,381875.001,381891.588,390149.2999999523,8257.711999952327,390195.89999997616,2021-10-26T12:01:49.329Z,390207.193,1635249307,full,ni_sequenzen,NI_Sequenzen,,0,,,,,,,,,,,,
,Feedback,canvas.Screen,0_3_0_0_1,,timeout,,390197.2000000477,390191.051,390207.193,394190.338,3999.554999999993,394191.7999999523,2021-10-26T12:01:53.325Z,394206.748,1635249307,full,ni_sequenzen,NI_Sequenzen,,0,,,,,,,,,,,,
,Trial,flow.Sequence,0_3_0_0,,completion,,381874.2999999523,381875.001,381891.588,394190.338,12298.75,394192,2021-10-26T12:01:53.326Z,394223.392,1635249307,full,ni_sequenzen,NI_Sequenzen,,0,,,,,,,,,,,,
,Move,canvas.Screen,0_3_0_1_0_0,left,response,,394220.10000002384,394206.748,394223.392,394373.10000002384,149.7080000238493,394374.2999999523,2021-10-26T12:01:53.508Z,394390.04,1635249307,full,ni_sequenzen,NI_Sequenzen,1,1,,,,,,,,,,,,
,Move,canvas.Screen,0_3_0_1_0_1,down,response,,394380.7000000477,394373.36,394390.04,395940.60000002384,1550.5600000238628,395941.39999997616,2021-10-26T12:01:55.075Z,395956.51,1635249307,full,ni_sequenzen,NI_Sequenzen,2,1,,,,,,,,,,,,
,Move,canvas.Screen,0_3_0_1_0_2,down,response,,395947,395940.266,395956.51,396274.89999997616,318.38999997614883,396276,2021-10-26T12:01:55.409Z,396289.833,1635249307,full,ni_sequenzen,NI_Sequenzen,3,1,,,,,,,,,,,,
,Move,canvas.Screen,0_3_0_1_0_3,left,response,,396281.7999999523,396273.663,396289.833,396926.2000000477,636.3670000476995,396927.10000002384,2021-10-26T12:01:56.061Z,396989.714,1635249307,full,ni_sequenzen,NI_Sequenzen,4,1,,,,,,,,,,,,
,Move,canvas.Screen,0_3_0_1_0_4,-999,skipped,,396932.39999997616,,,396926.2000000477,,396932.5,2021-10-26T12:01:56.066Z,396989.714,1635249307,full,ni_sequenzen,NI_Sequenzen,5,1,,,,,,,,,,,,
,Move,canvas.Screen,0_3_0_1_0_5,-999,skipped,,396938.10000002384,,,396926.2000000477,,396938.2999999523,2021-10-26T12:01:56.072Z,396989.714,1635249307,full,ni_sequenzen,NI_Sequenzen,6,1,,,,,,,,,,,,
,Move,canvas.Screen,0_3_0_1_0_6,-999,skipped,,396942.7999999523,,,396926.2000000477,,396942.89999997616,2021-10-26T12:01:56.076Z,396989.714,1635249307,full,ni_sequenzen,NI_Sequenzen,7,1,,,,,,,,,,,,
,Move,canvas.Screen,0_3_0_1_0_7,-999,skipped,,396947.39999997616,,,396926.2000000477,,396947.5,2021-10-26T12:01:56.081Z,396989.714,1635249307,full,ni_sequenzen,NI_Sequenzen,8,1,,,,,,,,,,,,
,Move,canvas.Screen,0_3_0_1_0_8,-999,skipped,,396952.5,,,396926.2000000477,,396952.60000002384,2021-10-26T12:01:56.086Z,396989.714,1635249307,full,ni_sequenzen,NI_Sequenzen,9,1,,,,,,,,,,,,
,Move,canvas.Screen,0_3_0_1_0_9,-999,skipped,,396958,,,396926.2000000477,,396958.10000002384,2021-10-26T12:01:56.092Z,396989.714,1635249307,full,ni_sequenzen,NI_Sequenzen,10,1,,,,,,,,,,,,
,Move,canvas.Screen,0_3_0_1_0_10,-999,skipped,,396962.39999997616,,,396926.2000000477,,396962.5,2021-10-26T12:01:56.096Z,396989.714,1635249307,full,ni_sequenzen,NI_Sequenzen,11,1,,,,,,,,,,,,
,Move,canvas.Screen,0_3_0_1_0_11,-999,skipped,,396966.39999997616,,,396926.2000000477,,396966.5,2021-10-26T12:01:56.100Z,396989.714,1635249307,full,ni_sequenzen,NI_Sequenzen,12,1,,,,,,,,,,,,
,Move,canvas.Screen,0_3_0_1_0_12,-999,skipped,,396969.60000002384,,,396926.2000000477,,396969.60000002384,2021-10-26T12:01:56.103Z,396989.714,1635249307,full,ni_sequenzen,NI_Sequenzen,13,1,,,,,,,,,,,,
,Move,canvas.Screen,0_3_0_1_0_13,-999,skipped,,396971.7000000477,,,396926.2000000477,,396971.7999999523,2021-10-26T12:01:56.105Z,396989.714,1635249307,full,ni_sequenzen,NI_Sequenzen,14,1,,,,,,,,,,,,
,Move,canvas.Screen,0_3_0_1_0_14,-999,skipped,,396974.2000000477,,,396926.2000000477,,396974.2999999523,2021-10-26T12:01:56.108Z,396989.714,1635249307,full,ni_sequenzen,NI_Sequenzen,15,1,,,,,,,,,,,,
,Loop,flow.Loop,0_3_0_1_0,-999,completion,,394215.2000000477,394206.748,394223.392,396926.2000000477,2702.808000047691,396974.5,2021-10-26T12:01:56.108Z,396989.714,1635249307,full,ni_sequenzen,NI_Sequenzen,,1,,,,,,,,,,,,
,Feedback,canvas.Screen,0_3_0_1_1,,timeout,,396977.10000002384,396973.523,396989.714,400973.045,3999.524000000034,400974,2021-10-26T12:02:00.107Z,400989.238,1635249307,full,ni_sequenzen,NI_Sequenzen,,1,,,,,,,,,,,,
,Trial,flow.Sequence,0_3_0_1,,completion,,394192.7000000477,394206.748,394223.392,400973.045,6749.652999999991,400974.2000000477,2021-10-26T12:02:00.108Z,401022.606,1635249307,full,ni_sequenzen,NI_Sequenzen,,1,,,,,,,,,,,,
,Move,canvas.Screen,0_3_0_2_0_0,down,response,,401005.60000002384,400989.238,401022.606,404020.2000000477,2997.594000047655,404021.10000002384,2021-10-26T12:02:03.155Z,404038.863,1635249307,full,ni_sequenzen,NI_Sequenzen,1,2,,,,,,,,,,,,
,Move,canvas.Screen,0_3_0_2_0_1,left,response,,404026.7000000477,404022.537,404038.863,404404.89999997616,366.03699997614603,404405.89999997616,2021-10-26T12:02:03.540Z,404422.089,1635249307,full,ni_sequenzen,NI_Sequenzen,2,2,,,,,,,,,,,,
,Move,canvas.Screen,0_3_0_2_0_2,down,response,,404412,404405.908,404422.089,404974.89999997616,552.81099997618,404975.89999997616,2021-10-26T12:02:04.110Z,404988.675,1635249307,full,ni_sequenzen,NI_Sequenzen,3,2,,,,,,,,,,,,
,Move,canvas.Screen,0_3_0_2_0_3,left,response,,404982.5,404972.523,404988.675,405366.60000002384,377.9250000238535,405367.7000000477,2021-10-26T12:02:04.502Z,405422.033,1635249307,full,ni_sequenzen,NI_Sequenzen,4,2,,,,,,,,,,,,
,Move,canvas.Screen,0_3_0_2_0_4,-999,skipped,,405373.89999997616,,,405366.60000002384,,405374.10000002384,2021-10-26T12:02:04.508Z,405422.033,1635249307,full,ni_sequenzen,NI_Sequenzen,5,2,,,,,,,,,,,,
,Move,canvas.Screen,0_3_0_2_0_5,-999,skipped,,405379,,,405366.60000002384,,405379.2000000477,2021-10-26T12:02:04.513Z,405422.033,1635249307,full,ni_sequenzen,NI_Sequenzen,6,2,,,,,,,,,,,,
,Move,canvas.Screen,0_3_0_2_0_6,-999,skipped,,405384.89999997616,,,405366.60000002384,,405385.10000002384,2021-10-26T12:02:04.519Z,405422.033,1635249307,full,ni_sequenzen,NI_Sequenzen,7,2,,,,,,,,,,,,
,Move,canvas.Screen,0_3_0_2_0_7,-999,skipped,,405389.2999999523,,,405366.60000002384,,405389.5,2021-10-26T12:02:04.524Z,405422.033,1635249307,full,ni_sequenzen,NI_Sequenzen,8,2,,,,,,,,,,,,
,Move,canvas.Screen,0_3_0_2_0_8,-999,skipped,,405393.7000000477,,,405366.60000002384,,405393.89999997616,2021-10-26T12:02:04.528Z,405422.033,1635249307,full,ni_sequenzen,NI_Sequenzen,9,2,,,,,,,,,,,,
,Move,canvas.Screen,0_3_0_2_0_9,-999,skipped,,405398.7999999523,,,405366.60000002384,,405399,2021-10-26T12:02:04.533Z,405422.033,1635249307,full,ni_sequenzen,NI_Sequenzen,10,2,,,,,,,,,,,,
,Move,canvas.Screen,0_3_0_2_0_10,-999,skipped,,405401.39999997616,,,405366.60000002384,,405401.5,2021-10-26T12:02:04.536Z,405422.033,1635249307,full,ni_sequenzen,NI_Sequenzen,11,2,,,,,,,,,,,,
,Move,canvas.Screen,0_3_0_2_0_11,-999,skipped,,405403.7000000477,,,405366.60000002384,,405403.7000000477,2021-10-26T12:02:04.538Z,405422.033,1635249307,full,ni_sequenzen,NI_Sequenzen,12,2,,,,,,,,,,,,
,Move,canvas.Screen,0_3_0_2_0_12,-999,skipped,,405405.89999997616,,,405366.60000002384,,405406,2021-10-26T12:02:04.540Z,405422.033,1635249307,full,ni_sequenzen,NI_Sequenzen,13,2,,,,,,,,,,,,
,Move,canvas.Screen,0_3_0_2_0_13,-999,skipped,,405408.2999999523,,,405366.60000002384,,405408.2999999523,2021-10-26T12:02:04.543Z,405422.033,1635249307,full,ni_sequenzen,NI_Sequenzen,14,2,,,,,,,,,,,,
,Move,canvas.Screen,0_3_0_2_0_14,-999,skipped,,405410.10000002384,,,405366.60000002384,,405410.10000002384,2021-10-26T12:02:04.544Z,405422.033,1635249307,full,ni_sequenzen,NI_Sequenzen,15,2,,,,,,,,,,,,
,Loop,flow.Loop,0_3_0_2_0,-999,completion,,401001.10000002384,400989.238,401022.606,405366.60000002384,4343.994000023813,405410.2999999523,2021-10-26T12:02:04.545Z,405422.033,1635249307,full,ni_sequenzen,NI_Sequenzen,,2,,,,,,,,,,,,
,Feedback,canvas.Screen,0_3_0_2_1,,timeout,,405411.60000002384,405405.788,405422.033,409405.261,4016.0939999999828,409406.2000000477,2021-10-26T12:02:08.540Z,409438.127,1635249307,full,ni_sequenzen,NI_Sequenzen,,2,,,,,,,,,,,,
,Trial,flow.Sequence,0_3_0_2,,completion,,400974.89999997616,400989.238,401022.606,409405.261,8382.65499999997,409406.5,2021-10-26T12:02:08.541Z,409454.792,1635249307,full,ni_sequenzen,NI_Sequenzen,,2,,,,,,,,,,,,
,Move,canvas.Screen,0_3_0_3_0_0,down,response,,409438.60000002384,409438.127,409454.792,411066.2000000477,1611.4080000476679,411087.10000002384,2021-10-26T12:02:10.221Z,411104.553,1635249307,full,ni_sequenzen,NI_Sequenzen,1,3,,,,,,,,,,,,
,Move,canvas.Screen,0_3_0_3_0_1,left,response,,411093.39999997616,411088.365,411104.553,411617.2999999523,512.7469999523018,411618.2000000477,2021-10-26T12:02:10.752Z,411637.933,1635249307,full,ni_sequenzen,NI_Sequenzen,2,3,,,,,,,,,,,,
,Move,canvas.Screen,0_3_0_3_0_2,down,response,,411623.39999997616,411621.646,411637.933,413040,1402.066999999981,413040.7999999523,2021-10-26T12:02:12.175Z,413054.343,1635249307,full,ni_sequenzen,NI_Sequenzen,3,3,,,,,,,,,,,,
,Move,canvas.Screen,0_3_0_3_0_3,left,response,,413046.10000002384,413038.089,413054.343,413538.60000002384,484.2570000238484,413539.2999999523,2021-10-26T12:02:12.674Z,413604.335,1635249307,full,ni_sequenzen,NI_Sequenzen,4,3,,,,,,,,,,,,
,Move,canvas.Screen,0_3_0_3_0_4,-999,skipped,,413544.60000002384,,,413538.60000002384,,413544.7000000477,2021-10-26T12:02:12.679Z,413604.335,1635249307,full,ni_sequenzen,NI_Sequenzen,5,3,,,,,,,,,,,,
,Move,canvas.Screen,0_3_0_3_0_5,-999,skipped,,413549.10000002384,,,413538.60000002384,,413549.2999999523,2021-10-26T12:02:12.684Z,413604.335,1635249307,full,ni_sequenzen,NI_Sequenzen,6,3,,,,,,,,,,,,
,Move,canvas.Screen,0_3_0_3_0_6,-999,skipped,,413553.39999997616,,,413538.60000002384,,413553.60000002384,2021-10-26T12:02:12.688Z,413604.335,1635249307,full,ni_sequenzen,NI_Sequenzen,7,3,,,,,,,,,,,,
,Move,canvas.Screen,0_3_0_3_0_7,-999,skipped,,413559,,,413538.60000002384,,413559.2000000477,2021-10-26T12:02:12.693Z,413604.335,1635249307,full,ni_sequenzen,NI_Sequenzen,8,3,,,,,,,,,,,,
,Move,canvas.Screen,0_3_0_3_0_8,-999,skipped,,413563.2999999523,,,413538.60000002384,,413563.5,2021-10-26T12:02:12.698Z,413604.335,1635249307,full,ni_sequenzen,NI_Sequenzen,9,3,,,,,,,,,,,,
,Move,canvas.Screen,0_3_0_3_0_9,-999,skipped,,413567.2000000477,,,413538.60000002384,,413567.2999999523,2021-10-26T12:02:12.702Z,413604.335,1635249307,full,ni_sequenzen,NI_Sequenzen,10,3,,,,,,,,,,,,
,Move,canvas.Screen,0_3_0_3_0_10,-999,skipped,,413572.10000002384,,,413538.60000002384,,413572.2000000477,2021-10-26T12:02:12.706Z,413604.335,1635249307,full,ni_sequenzen,NI_Sequenzen,11,3,,,,,,,,,,,,
,Move,canvas.Screen,0_3_0_3_0_11,-999,skipped,,413575.89999997616,,,413538.60000002384,,413576.2000000477,2021-10-26T12:02:12.710Z,413604.335,1635249307,full,ni_sequenzen,NI_Sequenzen,12,3,,,,,,,,,,,,
,Move,canvas.Screen,0_3_0_3_0_12,-999,skipped,,413579.7999999523,,,413538.60000002384,,413580,2021-10-26T12:02:12.714Z,413604.335,1635249307,full,ni_sequenzen,NI_Sequenzen,13,3,,,,,,,,,,,,
,Move,canvas.Screen,0_3_0_3_0_13,-999,skipped,,413584.5,,,413538.60000002384,,413584.60000002384,2021-10-26T12:02:12.719Z,413604.335,1635249307,full,ni_sequenzen,NI_Sequenzen,14,3,,,,,,,,,,,,
,Move,canvas.Screen,0_3_0_3_0_14,-999,skipped,,413588.2000000477,,,413538.60000002384,,413588.2000000477,2021-10-26T12:02:12.722Z,413604.335,1635249307,full,ni_sequenzen,NI_Sequenzen,15,3,,,,,,,,,,,,
,Loop,flow.Loop,0_3_0_3_0,-999,completion,,409433.7000000477,409438.127,409454.792,413538.60000002384,4083.808000023826,413588.2999999523,2021-10-26T12:02:12.723Z,413604.335,1635249307,full,ni_sequenzen,NI_Sequenzen,,3,,,,,,,,,,,,
,Feedback,canvas.Screen,0_3_0_3_1,,timeout,,413589.5,413588.02,413604.335,417587.562,3999.405999999959,417588.60000002384,2021-10-26T12:02:16.723Z,417603.741,1635249307,full,ni_sequenzen,NI_Sequenzen,,3,,,,,,,,,,,,
,Trial,flow.Sequence,0_3_0_3,,completion,,409407,409438.127,409454.792,417587.562,8132.76999999996,417588.7999999523,2021-10-26T12:02:16.723Z,417637.051,1635249307,full,ni_sequenzen,NI_Sequenzen,,3,,,,,,,,,,,,
,Move,canvas.Screen,0_3_0_4_0_0,down,response,,417617.2999999523,417603.741,417637.051,418320,682.9490000000224,418321.10000002384,2021-10-26T12:02:17.455Z,418336.99,1635249307,full,ni_sequenzen,NI_Sequenzen,1,4,,,,,,,,,,,,
,Move,canvas.Screen,0_3_0_4_0_1,right,response,,418327,418320.778,418336.99,418816.39999997616,479.40999997616746,418817.2999999523,2021-10-26T12:02:17.952Z,418837.346,1635249307,full,ni_sequenzen,NI_Sequenzen,2,4,,,,,,,,,,,,
,Move,canvas.Screen,0_3_0_4_0_2,right,response,,418822.39999997616,418820.737,418837.346,421021.7999999523,2184.4539999522967,421022.60000002384,2021-10-26T12:02:20.157Z,421036.633,1635249307,full,ni_sequenzen,NI_Sequenzen,3,4,,,,,,,,,,,,
,Move,canvas.Screen,0_3_0_4_0_3,down,response,,421027.7000000477,421020.596,421036.633,421439.60000002384,402.96700002386933,421440.39999997616,2021-10-26T12:02:20.575Z,421503.184,1635249307,full,ni_sequenzen,NI_Sequenzen,4,4,,,,,,,,,,,,
,Move,canvas.Screen,0_3_0_4_0_4,-999,skipped,,421445.10000002384,,,421439.60000002384,,421445.2000000477,2021-10-26T12:02:20.580Z,421503.184,1635249307,full,ni_sequenzen,NI_Sequenzen,5,4,,,,,,,,,,,,
,Move,canvas.Screen,0_3_0_4_0_5,-999,skipped,,421449,,,421439.60000002384,,421449.10000002384,2021-10-26T12:02:20.583Z,421503.184,1635249307,full,ni_sequenzen,NI_Sequenzen,6,4,,,,,,,,,,,,
,Move,canvas.Screen,0_3_0_4_0_6,-999,skipped,,421452.7000000477,,,421439.60000002384,,421452.7000000477,2021-10-26T12:02:20.587Z,421503.184,1635249307,full,ni_sequenzen,NI_Sequenzen,7,4,,,,,,,,,,,,
,Move,canvas.Screen,0_3_0_4_0_7,-999,skipped,,421457.7999999523,,,421439.60000002384,,421458.10000002384,2021-10-26T12:02:20.592Z,421503.184,1635249307,full,ni_sequenzen,NI_Sequenzen,8,4,,,,,,,,,,,,
,Move,canvas.Screen,0_3_0_4_0_8,-999,skipped,,421461.7999999523,,,421439.60000002384,,421462,2021-10-26T12:02:20.596Z,421503.184,1635249307,full,ni_sequenzen,NI_Sequenzen,9,4,,,,,,,,,,,,
,Move,canvas.Screen,0_3_0_4_0_9,-999,skipped,,421465.7000000477,,,421439.60000002384,,421465.89999997616,2021-10-26T12:02:20.600Z,421503.184,1635249307,full,ni_sequenzen,NI_Sequenzen,10,4,,,,,,,,,,,,
,Move,canvas.Screen,0_3_0_4_0_10,-999,skipped,,421471.7000000477,,,421439.60000002384,,421472,2021-10-26T12:02:20.606Z,421503.184,1635249307,full,ni_sequenzen,NI_Sequenzen,11,4,,,,,,,,,,,,
,Move,canvas.Screen,0_3_0_4_0_11,-999,skipped,,421476.60000002384,,,421439.60000002384,,421476.7999999523,2021-10-26T12:02:20.611Z,421503.184,1635249307,full,ni_sequenzen,NI_Sequenzen,12,4,,,,,,,,,,,,
,Move,canvas.Screen,0_3_0_4_0_12,-999,skipped,,421480.2999999523,,,421439.60000002384,,421480.5,2021-10-26T12:02:20.615Z,421503.184,1635249307,full,ni_sequenzen,NI_Sequenzen,13,4,,,,,,,,,,,,
,Move,canvas.Screen,0_3_0_4_0_13,-999,skipped,,421482.7999999523,,,421439.60000002384,,421482.89999997616,2021-10-26T12:02:20.617Z,421503.184,1635249307,full,ni_sequenzen,NI_Sequenzen,14,4,,,,,,,,,,,,
,Move,canvas.Screen,0_3_0_4_0_14,-999,skipped,,421485.39999997616,,,421439.60000002384,,421485.5,2021-10-26T12:02:20.620Z,421503.184,1635249307,full,ni_sequenzen,NI_Sequenzen,15,4,,,,,,,,,,,,
,Loop,flow.Loop,0_3_0_4_0,-999,completion,,417612.2999999523,417603.741,417637.051,421439.60000002384,3802.549000023864,421485.7000000477,2021-10-26T12:02:20.620Z,421503.184,1635249307,full,ni_sequenzen,NI_Sequenzen,,4,,,,,,,,,,,,
,Feedback,canvas.Screen,0_3_0_4_1,,timeout,,421487.39999997616,421487.048,421503.184,425486.551,3999.532999999996,425487.5,2021-10-26T12:02:24.622Z,425502.717,1635249307,full,ni_sequenzen,NI_Sequenzen,,4,,,,,,,,,,,,
,Trial,flow.Sequence,0_3_0_4,,completion,,417589.5,417603.741,417637.051,425486.551,7849.5,425487.7999999523,2021-10-26T12:02:24.622Z,425519.466,1635249307,full,ni_sequenzen,NI_Sequenzen,,4,,,,,,,,,,,,
,Move,canvas.Screen,0_3_0_5_0_0,down,response,,425516.5,425502.717,425519.466,426732.2000000477,1212.7340000476688,426733.10000002384,2021-10-26T12:02:25.867Z,426752.575,1635249307,full,ni_sequenzen,NI_Sequenzen,1,5,,,,,,,,,,,,
,Move,canvas.Screen,0_3_0_5_0_1,left,response,,426738.2000000477,426736.337,426752.575,426898.2999999523,145.72499995230464,426899.2000000477,2021-10-26T12:02:26.033Z,426919.449,1635249307,full,ni_sequenzen,NI_Sequenzen,2,5,,,,,,,,,,,,
,Move,canvas.Screen,0_3_0_5_0_2,down,response,,426904.89999997616,426903.044,426919.449,427619.5,700.0509999999776,427620.2999999523,2021-10-26T12:02:26.755Z,427635.787,1635249307,full,ni_sequenzen,NI_Sequenzen,3,5,,,,,,,,,,,,
,Move,canvas.Screen,0_3_0_5_0_3,left,response,,427625.5,427619.59,427635.787,428247.5,611.7129999999888,428248.39999997616,2021-10-26T12:02:27.383Z,428302.339,1635249307,full,ni_sequenzen,NI_Sequenzen,4,5,,,,,,,,,,,,
,Move,canvas.Screen,0_3_0_5_0_4,-999,skipped,,428257.60000002384,,,428247.5,,428257.7999999523,2021-10-26T12:02:27.392Z,428302.339,1635249307,full,ni_sequenzen,NI_Sequenzen,5,5,,,,,,,,,,,,
,Move,canvas.Screen,0_3_0_5_0_5,-999,skipped,,428262.7999999523,,,428247.5,,428262.89999997616,2021-10-26T12:02:27.397Z,428302.339,1635249307,full,ni_sequenzen,NI_Sequenzen,6,5,,,,,,,,,,,,
,Move,canvas.Screen,0_3_0_5_0_6,-999,skipped,,428267.2999999523,,,428247.5,,428267.60000002384,2021-10-26T12:02:27.402Z,428302.339,1635249307,full,ni_sequenzen,NI_Sequenzen,7,5,,,,,,,,,,,,
,Move,canvas.Screen,0_3_0_5_0_7,-999,skipped,,428272.2999999523,,,428247.5,,428272.5,2021-10-26T12:02:27.407Z,428302.339,1635249307,full,ni_sequenzen,NI_Sequenzen,8,5,,,,,,,,,,,,
,Move,canvas.Screen,0_3_0_5_0_8,-999,skipped,,428279.10000002384,,,428247.5,,428279.2999999523,2021-10-26T12:02:27.414Z,428302.339,1635249307,full,ni_sequenzen,NI_Sequenzen,9,5,,,,,,,,,,,,
,Move,canvas.Screen,0_3_0_5_0_9,-999,skipped,,428283.7000000477,,,428247.5,,428283.7999999523,2021-10-26T12:02:27.418Z,428302.339,1635249307,full,ni_sequenzen,NI_Sequenzen,10,5,,,,,,,,,,,,
,Move,canvas.Screen,0_3_0_5_0_10,-999,skipped,,428286.10000002384,,,428247.5,,428286.10000002384,2021-10-26T12:02:27.420Z,428302.339,1635249307,full,ni_sequenzen,NI_Sequenzen,11,5,,,,,,,,,,,,
,Move,canvas.Screen,0_3_0_5_0_11,-999,skipped,,428288,,,428247.5,,428288,2021-10-26T12:02:27.422Z,428302.339,1635249307,full,ni_sequenzen,NI_Sequenzen,12,5,,,,,,,,,,,,
,Move,canvas.Screen,0_3_0_5_0_12,-999,skipped,,428289.39999997616,,,428247.5,,428289.5,2021-10-26T12:02:27.424Z,428302.339,1635249307,full,ni_sequenzen,NI_Sequenzen,13,5,,,,,,,,,,,,
,Move,canvas.Screen,0_3_0_5_0_13,-999,skipped,,428290.89999997616,,,428247.5,,428291,2021-10-26T12:02:27.425Z,428302.339,1635249307,full,ni_sequenzen,NI_Sequenzen,14,5,,,,,,,,,,,,
,Move,canvas.Screen,0_3_0_5_0_14,-999,skipped,,428292.2999999523,,,428247.5,,428292.2999999523,2021-10-26T12:02:27.427Z,428302.339,1635249307,full,ni_sequenzen,NI_Sequenzen,15,5,,,,,,,,,,,,
,Loop,flow.Loop,0_3_0_5_0,-999,completion,,425511.7999999523,425502.717,425519.466,428247.5,2728.033999999985,428292.5,2021-10-26T12:02:27.427Z,428302.339,1635249307,full,ni_sequenzen,NI_Sequenzen,,5,,,,,,,,,,,,
,Feedback,canvas.Screen,0_3_0_5_1,,timeout,,428294,428286.165,428302.339,432285.723,4016.183000000019,432286.7000000477,2021-10-26T12:02:31.421Z,432318.522,1635249307,full,ni_sequenzen,NI_Sequenzen,,5,,,,,,,,,,,,
,Trial,flow.Sequence,0_3_0_5,,completion,,425488.39999997616,425502.717,425519.466,432285.723,6766.256999999983,432287,2021-10-26T12:02:31.421Z,432335.238,1635249307,full,ni_sequenzen,NI_Sequenzen,,5,,,,,,,,,,,,
,Move,canvas.Screen,0_3_0_6_0_0,down,response,,432332.2000000477,432318.522,432335.238,433352,1016.7619999999879,433353,2021-10-26T12:02:32.487Z,433385.032,1635249307,full,ni_sequenzen,NI_Sequenzen,1,6,,,,,,,,,,,,
,Move,canvas.Screen,0_3_0_6_0_1,right,response,,433359.60000002384,433351.778,433385.032,434044.39999997616,659.3679999761516,434045.39999997616,2021-10-26T12:02:33.180Z,434068.514,1635249307,full,ni_sequenzen,NI_Sequenzen,2,6,,,,,,,,,,,,
,Move,canvas.Screen,0_3_0_6_0_2,right,response,,434051.10000002384,434035.428,434068.514,434959.5,890.9859999999753,434960.39999997616,2021-10-26T12:02:34.095Z,434968.195,1635249307,full,ni_sequenzen,NI_Sequenzen,3,6,,,,,,,,,,,,
,Move,canvas.Screen,0_3_0_6_0_3,down,response,,434965.60000002384,434951.937,434968.195,435452,483.804999999993,435452.60000002384,2021-10-26T12:02:34.587Z,435501.48,1635249307,full,ni_sequenzen,NI_Sequenzen,4,6,,,,,,,,,,,,
,Move,canvas.Screen,0_3_0_6_0_4,-999,skipped,,435458.10000002384,,,435452,,435458.2000000477,2021-10-26T12:02:34.593Z,435501.48,1635249307,full,ni_sequenzen,NI_Sequenzen,5,6,,,,,,,,,,,,
,Move,canvas.Screen,0_3_0_6_0_5,-999,skipped,,435463.89999997616,,,435452,,435464.10000002384,2021-10-26T12:02:34.598Z,435501.48,1635249307,full,ni_sequenzen,NI_Sequenzen,6,6,,,,,,,,,,,,
,Move,canvas.Screen,0_3_0_6_0_6,-999,skipped,,435468.7000000477,,,435452,,435468.7999999523,2021-10-26T12:02:34.603Z,435501.48,1635249307,full,ni_sequenzen,NI_Sequenzen,7,6,,,,,,,,,,,,
,Move,canvas.Screen,0_3_0_6_0_7,-999,skipped,,435474.2999999523,,,435452,,435474.5,2021-10-26T12:02:34.609Z,435501.48,1635249307,full,ni_sequenzen,NI_Sequenzen,8,6,,,,,,,,,,,,
,Move,canvas.Screen,0_3_0_6_0_8,-999,skipped,,435478.7999999523,,,435452,,435478.89999997616,2021-10-26T12:02:34.613Z,435501.48,1635249307,full,ni_sequenzen,NI_Sequenzen,9,6,,,,,,,,,,,,
,Move,canvas.Screen,0_3_0_6_0_9,-999,skipped,,435482.7999999523,,,435452,,435482.89999997616,2021-10-26T12:02:34.617Z,435501.48,1635249307,full,ni_sequenzen,NI_Sequenzen,10,6,,,,,,,,,,,,
,Move,canvas.Screen,0_3_0_6_0_10,-999,skipped,,435485.7999999523,,,435452,,435485.7999999523,2021-10-26T12:02:34.620Z,435501.48,1635249307,full,ni_sequenzen,NI_Sequenzen,11,6,,,,,,,,,,,,
,Move,canvas.Screen,0_3_0_6_0_11,-999,skipped,,435488.5,,,435452,,435488.60000002384,2021-10-26T12:02:34.623Z,435501.48,1635249307,full,ni_sequenzen,NI_Sequenzen,12,6,,,,,,,,,,,,
,Move,canvas.Screen,0_3_0_6_0_12,-999,skipped,,435490.60000002384,,,435452,,435490.7000000477,2021-10-26T12:02:34.625Z,435501.48,1635249307,full,ni_sequenzen,NI_Sequenzen,13,6,,,,,,,,,,,,
,Move,canvas.Screen,0_3_0_6_0_13,-999,skipped,,435492.39999997616,,,435452,,435492.39999997616,2021-10-26T12:02:34.627Z,435501.48,1635249307,full,ni_sequenzen,NI_Sequenzen,14,6,,,,,,,,,,,,
,Move,canvas.Screen,0_3_0_6_0_14,-999,skipped,,435494.7000000477,,,435452,,435494.7999999523,2021-10-26T12:02:34.629Z,435501.48,1635249307,full,ni_sequenzen,NI_Sequenzen,15,6,,,,,,,,,,,,
,Loop,flow.Loop,0_3_0_6_0,-999,completion,,432322.2000000477,432318.522,432335.238,435452,3116.761999999988,435494.89999997616,2021-10-26T12:02:34.629Z,435501.48,1635249307,full,ni_sequenzen,NI_Sequenzen,,6,,,,,,,,,,,,
,Feedback,canvas.Screen,0_3_0_6_1,,timeout,,435496.2999999523,435485.248,435501.48,439484.752,3999.5,439485.7999999523,2021-10-26T12:02:38.620Z,439500.98,1635249307,full,ni_sequenzen,NI_Sequenzen,,6,,,,,,,,,,,,
,Trial,flow.Sequence,0_3_0_6,,completion,,432287.60000002384,432318.522,432335.238,439484.752,7149.5139999999665,439487,2021-10-26T12:02:38.621Z,439534.275,1635249307,full,ni_sequenzen,NI_Sequenzen,,6,,,,,,,,,,,,
,Move,canvas.Screen,0_3_0_7_0_0,down,response,,439516.60000002384,439500.98,439534.275,440611.5,1077.2249999999767,440612.2999999523,2021-10-26T12:02:39.747Z,440634.571,1635249307,full,ni_sequenzen,NI_Sequenzen,1,7,,,,,,,,,,,,
,Move,canvas.Screen,0_3_0_7_0_1,left,response,,440620.5,440617.915,440634.571,442279.89999997616,1645.3289999761619,442280.89999997616,2021-10-26T12:02:41.415Z,442300.75,1635249307,full,ni_sequenzen,NI_Sequenzen,2,7,,,,,,,,,,,,
,Move,canvas.Screen,0_3_0_7_0_2,down,response,,442286.2999999523,442284.077,442300.75,442593.5,292.75,442594.5,2021-10-26T12:02:41.729Z,442627.943,1635249307,full,ni_sequenzen,NI_Sequenzen,3,7,,,,,,,,,,,,
,Move,canvas.Screen,0_3_0_7_0_3,left,response,,442599.7000000477,442584.332,442627.943,442906.89999997616,278.95699997612974,442907.89999997616,2021-10-26T12:02:42.042Z,443000.95,1635249307,full,ni_sequenzen,NI_Sequenzen,4,7,,,,,,,,,,,,
,Move,canvas.Screen,0_3_0_7_0_4,-999,skipped,,442935.10000002384,,,442906.89999997616,,442935.5,2021-10-26T12:02:42.070Z,443000.95,1635249307,full,ni_sequenzen,NI_Sequenzen,5,7,,,,,,,,,,,,
,Move,canvas.Screen,0_3_0_7_0_5,-999,skipped,,442944,,,442906.89999997616,,442944.2000000477,2021-10-26T12:02:42.078Z,443000.95,1635249307,full,ni_sequenzen,NI_Sequenzen,6,7,,,,,,,,,,,,
,Move,canvas.Screen,0_3_0_7_0_6,-999,skipped,,442949.5,,,442906.89999997616,,442949.7999999523,2021-10-26T12:02:42.084Z,443000.95,1635249307,full,ni_sequenzen,NI_Sequenzen,7,7,,,,,,,,,,,,
,Move,canvas.Screen,0_3_0_7_0_7,-999,skipped,,442954.60000002384,,,442906.89999997616,,442954.7000000477,2021-10-26T12:02:42.089Z,443000.95,1635249307,full,ni_sequenzen,NI_Sequenzen,8,7,,,,,,,,,,,,
,Move,canvas.Screen,0_3_0_7_0_8,-999,skipped,,442959.5,,,442906.89999997616,,442959.60000002384,2021-10-26T12:02:42.094Z,443000.95,1635249307,full,ni_sequenzen,NI_Sequenzen,9,7,,,,,,,,,,,,
,Move,canvas.Screen,0_3_0_7_0_9,-999,skipped,,442962.39999997616,,,442906.89999997616,,442962.5,2021-10-26T12:02:42.097Z,443000.95,1635249307,full,ni_sequenzen,NI_Sequenzen,10,7,,,,,,,,,,,,
,Move,canvas.Screen,0_3_0_7_0_10,-999,skipped,,442965.2999999523,,,442906.89999997616,,442965.39999997616,2021-10-26T12:02:42.100Z,443000.95,1635249307,full,ni_sequenzen,NI_Sequenzen,11,7,,,,,,,,,,,,
,Move,canvas.Screen,0_3_0_7_0_11,-999,skipped,,442970.10000002384,,,442906.89999997616,,442970.2000000477,2021-10-26T12:02:42.104Z,443000.95,1635249307,full,ni_sequenzen,NI_Sequenzen,12,7,,,,,,,,,,,,
,Move,canvas.Screen,0_3_0_7_0_12,-999,skipped,,442973.2999999523,,,442906.89999997616,,442973.5,2021-10-26T12:02:42.108Z,443000.95,1635249307,full,ni_sequenzen,NI_Sequenzen,13,7,,,,,,,,,,,,
,Move,canvas.Screen,0_3_0_7_0_13,-999,skipped,,442976.60000002384,,,442906.89999997616,,442976.60000002384,2021-10-26T12:02:42.111Z,443000.95,1635249307,full,ni_sequenzen,NI_Sequenzen,14,7,,,,,,,,,,,,
,Move,canvas.Screen,0_3_0_7_0_14,-999,skipped,,442979.7000000477,,,442906.89999997616,,442979.7999999523,2021-10-26T12:02:42.114Z,443000.95,1635249307,full,ni_sequenzen,NI_Sequenzen,15,7,,,,,,,,,,,,
,Loop,flow.Loop,0_3_0_7_0,-999,completion,,439509.7999999523,439500.98,439534.275,442906.89999997616,3372.624999976135,442980.10000002384,2021-10-26T12:02:42.114Z,443000.95,1635249307,full,ni_sequenzen,NI_Sequenzen,,7,,,,,,,,,,,,
,Feedback,canvas.Screen,0_3_0_7_1,,timeout,,442983.2999999523,442967.65,443000.95,446983.851,4015.679999999993,446985,2021-10-26T12:02:46.119Z,447016.63,1635249307,full,ni_sequenzen,NI_Sequenzen,,7,,,,,,,,,,,,
,Trial,flow.Sequence,0_3_0_7,,completion,,439487.7000000477,439500.98,439534.275,446983.851,7449.576000000001,446985.2000000477,2021-10-26T12:02:46.119Z,447033.414,1635249307,full,ni_sequenzen,NI_Sequenzen,,7,,,,,,,,,,,,
,Move,canvas.Screen,0_3_0_8_0_0,right,response,,447017.7000000477,447016.63,447033.414,448762.7000000477,1729.286000047694,448763.7000000477,2021-10-26T12:02:47.898Z,448783.376,1635249307,full,ni_sequenzen,NI_Sequenzen,1,8,,,,,,,,,,,,
,Move,canvas.Screen,0_3_0_8_0_1,down,response,,448768.7999999523,448766.845,448783.376,449095.2999999523,311.923999952327,449118,2021-10-26T12:02:48.252Z,449133.022,1635249307,full,ni_sequenzen,NI_Sequenzen,2,8,,,,,,,,,,,,
,Move,canvas.Screen,0_3_0_8_0_2,right,response,,449124.10000002384,449116.872,449133.022,449382.10000002384,249.07800002384465,449382.89999997616,2021-10-26T12:02:48.517Z,449399.948,1635249307,full,ni_sequenzen,NI_Sequenzen,3,8,,,,,,,,,,,,
,Move,canvas.Screen,0_3_0_8_0_3,down,response,,449387.60000002384,449383.48,449399.948,449742.2999999523,342.35199995234143,449743.2000000477,2021-10-26T12:02:48.877Z,449799.541,1635249307,full,ni_sequenzen,NI_Sequenzen,4,8,,,,,,,,,,,,
,Move,canvas.Screen,0_3_0_8_0_4,-999,skipped,,449748.10000002384,,,449742.2999999523,,449748.2000000477,2021-10-26T12:02:48.882Z,449799.541,1635249307,full,ni_sequenzen,NI_Sequenzen,5,8,,,,,,,,,,,,
,Move,canvas.Screen,0_3_0_8_0_5,-999,skipped,,449753.7999999523,,,449742.2999999523,,449753.89999997616,2021-10-26T12:02:48.888Z,449799.541,1635249307,full,ni_sequenzen,NI_Sequenzen,6,8,,,,,,,,,,,,
,Move,canvas.Screen,0_3_0_8_0_6,-999,skipped,,449758.10000002384,,,449742.2999999523,,449758.2000000477,2021-10-26T12:02:48.892Z,449799.541,1635249307,full,ni_sequenzen,NI_Sequenzen,7,8,,,,,,,,,,,,
,Move,canvas.Screen,0_3_0_8_0_7,-999,skipped,,449762.39999997616,,,449742.2999999523,,449762.60000002384,2021-10-26T12:02:48.897Z,449799.541,1635249307,full,ni_sequenzen,NI_Sequenzen,8,8,,,,,,,,,,,,
,Move,canvas.Screen,0_3_0_8_0_8,-999,skipped,,449767.7000000477,,,449742.2999999523,,449767.89999997616,2021-10-26T12:02:48.902Z,449799.541,1635249307,full,ni_sequenzen,NI_Sequenzen,9,8,,,,,,,,,,,,
,Move,canvas.Screen,0_3_0_8_0_9,-999,skipped,,449773,,,449742.2999999523,,449773.10000002384,2021-10-26T12:02:48.907Z,449799.541,1635249307,full,ni_sequenzen,NI_Sequenzen,10,8,,,,,,,,,,,,
,Move,canvas.Screen,0_3_0_8_0_10,-999,skipped,,449776.89999997616,,,449742.2999999523,,449777,2021-10-26T12:02:48.911Z,449799.541,1635249307,full,ni_sequenzen,NI_Sequenzen,11,8,,,,,,,,,,,,
,Move,canvas.Screen,0_3_0_8_0_11,-999,skipped,,449780.89999997616,,,449742.2999999523,,449780.89999997616,2021-10-26T12:02:48.915Z,449799.541,1635249307,full,ni_sequenzen,NI_Sequenzen,12,8,,,,,,,,,,,,
,Move,canvas.Screen,0_3_0_8_0_12,-999,skipped,,449785.7000000477,,,449742.2999999523,,449785.7999999523,2021-10-26T12:02:48.920Z,449799.541,1635249307,full,ni_sequenzen,NI_Sequenzen,13,8,,,,,,,,,,,,
,Move,canvas.Screen,0_3_0_8_0_13,-999,skipped,,449789.60000002384,,,449742.2999999523,,449789.7999999523,2021-10-26T12:02:48.924Z,449799.541,1635249307,full,ni_sequenzen,NI_Sequenzen,14,8,,,,,,,,,,,,
,Move,canvas.Screen,0_3_0_8_0_14,-999,skipped,,449793.5,,,449742.2999999523,,449793.60000002384,2021-10-26T12:02:48.928Z,449799.541,1635249307,full,ni_sequenzen,NI_Sequenzen,15,8,,,,,,,,,,,,
