meta,sender,sender_type,sender_id,response,ended_on,instrCount,time_run,time_render,time_show,time_end,duration,time_commit,timestamp,time_switch,openLabId,type,task,project,move,trialN,blockN_Train,blockN,moveCount,currPP,points,movesTrial,visitedFields,diff,reward,Strategie,Zweck,Probleme
[object Object],Screen_1,canvas.Screen,0_0_0_0,cont,response,1,1625,1625.34,1659.1,21171,19511.9,21186,2021-10-25T18:18:47.586Z,21405.28,1635185877,full,ni_sequenzen,NI_Sequenzen,,,,,,,,,,,,,,
,Screen_2,canvas.Screen,0_0_0_1,cont,response,1,21377,21377.72,21405.28,45264,23858.72,45278,2021-10-25T18:19:11.678Z,45422.02,1635185877,full,ni_sequenzen,NI_Sequenzen,,,,,,,,,,,,,,
,Screen_3,canvas.Screen,0_0_0_2,cont,response,1,45421,45421.72,45422.02,89687,44264.98,89701,2021-10-25T18:19:56.101Z,89708.38,1635185877,full,ni_sequenzen,NI_Sequenzen,,,,,,,,,,,,,,
,Screen_4,canvas.Screen,0_0_0_3,cont,response,1,89706,89706.18,89708.38,93234,3525.6199999999953,93243,2021-10-25T18:19:59.643Z,93440.92,1635185877,full,ni_sequenzen,NI_Sequenzen,,,,,,,,,,,,,,
,Sequence,flow.Sequence,0_0_0,,completion,1,1468,1625.34,1659.1,93234,91574.9,93243,2021-10-25T18:19:59.644Z,93440.92,1635185877,full,ni_sequenzen,NI_Sequenzen,,,,,,,,,,,,,,
,Screen_1,canvas.Screen,0_0_1_0,,skipped,2,93248,,,93248,,93249,2021-10-25T18:19:59.648Z,93440.92,1635185877,full,ni_sequenzen,NI_Sequenzen,,,,,,,,,,,,,,
,Screen_2,canvas.Screen,0_0_1_1,,skipped,2,93251,,,93248,,93251,2021-10-25T18:19:59.651Z,93440.92,1635185877,full,ni_sequenzen,NI_Sequenzen,,,,,,,,,,,,,,
,Screen_3,canvas.Screen,0_0_1_2,,skipped,2,93254,,,93248,,93255,2021-10-25T18:19:59.655Z,93440.92,1635185877,full,ni_sequenzen,NI_Sequenzen,,,,,,,,,,,,,,
,Screen_4,canvas.Screen,0_0_1_3,,skipped,2,93257,,,93248,,93257,2021-10-25T18:19:59.657Z,93440.92,1635185877,full,ni_sequenzen,NI_Sequenzen,,,,,,,,,,,,,,
,Sequence,flow.Sequence,0_0_1,,completion,2,93246,,,93248,,93258,2021-10-25T18:19:59.658Z,93440.92,1635185877,full,ni_sequenzen,NI_Sequenzen,,,,,,,,,,,,,,
,Screen_1,canvas.Screen,0_0_2_0,,skipped,3,93260,,,93260,,93261,2021-10-25T18:19:59.661Z,93440.92,1635185877,full,ni_sequenzen,NI_Sequenzen,,,,,,,,,,,,,,
,Screen_2,canvas.Screen,0_0_2_1,,skipped,3,93263,,,93260,,93263,2021-10-25T18:19:59.663Z,93440.92,1635185877,full,ni_sequenzen,NI_Sequenzen,,,,,,,,,,,,,,
,Screen_3,canvas.Screen,0_0_2_2,,skipped,3,93267,,,93260,,93267,2021-10-25T18:19:59.666Z,93440.92,1635185877,full,ni_sequenzen,NI_Sequenzen,,,,,,,,,,,,,,
,Screen_4,canvas.Screen,0_0_2_3,,skipped,3,93268,,,93260,,93268,2021-10-25T18:19:59.668Z,93440.92,1635185877,full,ni_sequenzen,NI_Sequenzen,,,,,,,,,,,,,,
,Sequence,flow.Sequence,0_0_2,,completion,3,93258,,,93260,,93269,2021-10-25T18:19:59.669Z,93440.92,1635185877,full,ni_sequenzen,NI_Sequenzen,,,,,,,,,,,,,,
,Screen_1,canvas.Screen,0_0_3_0,,skipped,4,93271,,,93271,,93272,2021-10-25T18:19:59.671Z,93440.92,1635185877,full,ni_sequenzen,NI_Sequenzen,,,,,,,,,,,,,,
,Screen_2,canvas.Screen,0_0_3_1,,skipped,4,93274,,,93271,,93274,2021-10-25T18:19:59.674Z,93440.92,1635185877,full,ni_sequenzen,NI_Sequenzen,,,,,,,,,,,,,,
,Screen_3,canvas.Screen,0_0_3_2,,skipped,4,93276,,,93271,,93276,2021-10-25T18:19:59.676Z,93440.92,1635185877,full,ni_sequenzen,NI_Sequenzen,,,,,,,,,,,,,,
,Screen_4,canvas.Screen,0_0_3_3,,skipped,4,93278,,,93271,,93278,2021-10-25T18:19:59.679Z,93440.92,1635185877,full,ni_sequenzen,NI_Sequenzen,,,,,,,,,,,,,,
,Sequence,flow.Sequence,0_0_3,,completion,4,93270,,,93271,,93278,2021-10-25T18:19:59.679Z,93440.92,1635185877,full,ni_sequenzen,NI_Sequenzen,,,,,,,,,,,,,,
,Screen_1,canvas.Screen,0_0_4_0,,skipped,5,93282,,,93282,,93282,2021-10-25T18:19:59.683Z,93440.92,1635185877,full,ni_sequenzen,NI_Sequenzen,,,,,,,,,,,,,,
,Screen_2,canvas.Screen,0_0_4_1,,skipped,5,93284,,,93282,,93284,2021-10-25T18:19:59.685Z,93440.92,1635185877,full,ni_sequenzen,NI_Sequenzen,,,,,,,,,,,,,,
,Screen_3,canvas.Screen,0_0_4_2,,skipped,5,93286,,,93282,,93286,2021-10-25T18:19:59.687Z,93440.92,1635185877,full,ni_sequenzen,NI_Sequenzen,,,,,,,,,,,,,,
,Screen_4,canvas.Screen,0_0_4_3,,skipped,5,93289,,,93282,,93289,2021-10-25T18:19:59.688Z,93440.92,1635185877,full,ni_sequenzen,NI_Sequenzen,,,,,,,,,,,,,,
,Sequence,flow.Sequence,0_0_4,,completion,5,93280,,,93282,,93289,2021-10-25T18:19:59.688Z,93440.92,1635185877,full,ni_sequenzen,NI_Sequenzen,,,,,,,,,,,,,,
,Screen_1,canvas.Screen,0_0_5_0,,skipped,6,93291,,,93291,,93292,2021-10-25T18:19:59.691Z,93440.92,1635185877,full,ni_sequenzen,NI_Sequenzen,,,,,,,,,,,,,,
,Screen_2,canvas.Screen,0_0_5_1,,skipped,6,93293,,,93291,,93293,2021-10-25T18:19:59.693Z,93440.92,1635185877,full,ni_sequenzen,NI_Sequenzen,,,,,,,,,,,,,,
,Screen_3,canvas.Screen,0_0_5_2,,skipped,6,93296,,,93291,,93296,2021-10-25T18:19:59.695Z,93440.92,1635185877,full,ni_sequenzen,NI_Sequenzen,,,,,,,,,,,,,,
,Screen_4,canvas.Screen,0_0_5_3,,skipped,6,93297,,,93291,,93297,2021-10-25T18:19:59.698Z,93440.92,1635185877,full,ni_sequenzen,NI_Sequenzen,,,,,,,,,,,,,,
,Sequence,flow.Sequence,0_0_5,,completion,6,93289,,,93291,,93297,2021-10-25T18:19:59.698Z,93440.92,1635185877,full,ni_sequenzen,NI_Sequenzen,,,,,,,,,,,,,,
,Screen_1,canvas.Screen,0_0_6_0,,skipped,7,93300,,,93300,,93300,2021-10-25T18:19:59.700Z,93440.92,1635185877,full,ni_sequenzen,NI_Sequenzen,,,,,,,,,,,,,,
,Screen_2,canvas.Screen,0_0_6_1,,skipped,7,93303,,,93300,,93303,2021-10-25T18:19:59.703Z,93440.92,1635185877,full,ni_sequenzen,NI_Sequenzen,,,,,,,,,,,,,,
,Screen_3,canvas.Screen,0_0_6_2,,skipped,7,93305,,,93300,,93305,2021-10-25T18:19:59.705Z,93440.92,1635185877,full,ni_sequenzen,NI_Sequenzen,,,,,,,,,,,,,,
,Screen_4,canvas.Screen,0_0_6_3,,skipped,7,93307,,,93300,,93307,2021-10-25T18:19:59.706Z,93440.92,1635185877,full,ni_sequenzen,NI_Sequenzen,,,,,,,,,,,,,,
,Sequence,flow.Sequence,0_0_6,,completion,7,93298,,,93300,,93307,2021-10-25T18:19:59.706Z,93440.92,1635185877,full,ni_sequenzen,NI_Sequenzen,,,,,,,,,,,,,,
,Screen_1,canvas.Screen,0_0_7_0,,skipped,8,93309,,,93309,,93309,2021-10-25T18:19:59.710Z,93440.92,1635185877,full,ni_sequenzen,NI_Sequenzen,,,,,,,,,,,,,,
,Screen_2,canvas.Screen,0_0_7_1,,skipped,8,93311,,,93309,,93311,2021-10-25T18:19:59.711Z,93440.92,1635185877,full,ni_sequenzen,NI_Sequenzen,,,,,,,,,,,,,,
,Screen_3,canvas.Screen,0_0_7_2,,skipped,8,93313,,,93309,,93313,2021-10-25T18:19:59.713Z,93440.92,1635185877,full,ni_sequenzen,NI_Sequenzen,,,,,,,,,,,,,,
,Screen_4,canvas.Screen,0_0_7_3,,skipped,8,93315,,,93309,,93315,2021-10-25T18:19:59.715Z,93440.92,1635185877,full,ni_sequenzen,NI_Sequenzen,,,,,,,,,,,,,,
,Sequence,flow.Sequence,0_0_7,,completion,8,93307,,,93309,,93316,2021-10-25T18:19:59.715Z,93440.92,1635185877,full,ni_sequenzen,NI_Sequenzen,,,,,,,,,,,,,,
,Screen_1,canvas.Screen,0_0_8_0,,skipped,9,93318,,,93318,,93318,2021-10-25T18:19:59.718Z,93440.92,1635185877,full,ni_sequenzen,NI_Sequenzen,,,,,,,,,,,,,,
,Screen_2,canvas.Screen,0_0_8_1,,skipped,9,93319,,,93318,,93319,2021-10-25T18:19:59.719Z,93440.92,1635185877,full,ni_sequenzen,NI_Sequenzen,,,,,,,,,,,,,,
,Screen_3,canvas.Screen,0_0_8_2,,skipped,9,93321,,,93318,,93321,2021-10-25T18:19:59.722Z,93440.92,1635185877,full,ni_sequenzen,NI_Sequenzen,,,,,,,,,,,,,,
,Screen_4,canvas.Screen,0_0_8_3,,skipped,9,93323,,,93318,,93323,2021-10-25T18:19:59.724Z,93440.92,1635185877,full,ni_sequenzen,NI_Sequenzen,,,,,,,,,,,,,,
,Sequence,flow.Sequence,0_0_8,,completion,9,93316,,,93318,,93324,2021-10-25T18:19:59.724Z,93440.92,1635185877,full,ni_sequenzen,NI_Sequenzen,,,,,,,,,,,,,,
,Screen_1,canvas.Screen,0_0_9_0,,skipped,10,93326,,,93326,,93327,2021-10-25T18:19:59.726Z,93440.92,1635185877,full,ni_sequenzen,NI_Sequenzen,,,,,,,,,,,,,,
,Screen_2,canvas.Screen,0_0_9_1,,skipped,10,93328,,,93326,,93328,2021-10-25T18:19:59.728Z,93440.92,1635185877,full,ni_sequenzen,NI_Sequenzen,,,,,,,,,,,,,,
,Screen_3,canvas.Screen,0_0_9_2,,skipped,10,93329,,,93326,,93330,2021-10-25T18:19:59.730Z,93440.92,1635185877,full,ni_sequenzen,NI_Sequenzen,,,,,,,,,,,,,,
,Screen_4,canvas.Screen,0_0_9_3,,skipped,10,93331,,,93326,,93331,2021-10-25T18:19:59.731Z,93440.92,1635185877,full,ni_sequenzen,NI_Sequenzen,,,,,,,,,,,,,,
,Sequence,flow.Sequence,0_0_9,,completion,10,93325,,,93326,,93332,2021-10-25T18:19:59.732Z,93440.92,1635185877,full,ni_sequenzen,NI_Sequenzen,,,,,,,,,,,,,,
,Screen_1,canvas.Screen,0_0_10_0,,skipped,11,93334,,,93334,,93334,2021-10-25T18:19:59.734Z,93440.92,1635185877,full,ni_sequenzen,NI_Sequenzen,,,,,,,,,,,,,,
,Screen_2,canvas.Screen,0_0_10_1,,skipped,11,93336,,,93334,,93336,2021-10-25T18:19:59.735Z,93440.92,1635185877,full,ni_sequenzen,NI_Sequenzen,,,,,,,,,,,,,,
,Screen_3,canvas.Screen,0_0_10_2,,skipped,11,93338,,,93334,,93338,2021-10-25T18:19:59.738Z,93440.92,1635185877,full,ni_sequenzen,NI_Sequenzen,,,,,,,,,,,,,,
,Screen_4,canvas.Screen,0_0_10_3,,skipped,11,93339,,,93334,,93339,2021-10-25T18:19:59.740Z,93440.92,1635185877,full,ni_sequenzen,NI_Sequenzen,,,,,,,,,,,,,,
,Sequence,flow.Sequence,0_0_10,,completion,11,93333,,,93334,,93340,2021-10-25T18:19:59.740Z,93440.92,1635185877,full,ni_sequenzen,NI_Sequenzen,,,,,,,,,,,,,,
,Screen_1,canvas.Screen,0_0_11_0,,skipped,12,93343,,,93343,,93343,2021-10-25T18:19:59.743Z,93440.92,1635185877,full,ni_sequenzen,NI_Sequenzen,,,,,,,,,,,,,,
,Screen_2,canvas.Screen,0_0_11_1,,skipped,12,93345,,,93343,,93345,2021-10-25T18:19:59.745Z,93440.92,1635185877,full,ni_sequenzen,NI_Sequenzen,,,,,,,,,,,,,,
,Screen_3,canvas.Screen,0_0_11_2,,skipped,12,93347,,,93343,,93347,2021-10-25T18:19:59.747Z,93440.92,1635185877,full,ni_sequenzen,NI_Sequenzen,,,,,,,,,,,,,,
,Screen_4,canvas.Screen,0_0_11_3,,skipped,12,93348,,,93343,,93348,2021-10-25T18:19:59.749Z,93440.92,1635185877,full,ni_sequenzen,NI_Sequenzen,,,,,,,,,,,,,,
,Sequence,flow.Sequence,0_0_11,,completion,12,93341,,,93343,,93349,2021-10-25T18:19:59.749Z,93440.92,1635185877,full,ni_sequenzen,NI_Sequenzen,,,,,,,,,,,,,,
,Screen_1,canvas.Screen,0_0_12_0,,skipped,13,93351,,,93351,,93351,2021-10-25T18:19:59.751Z,93440.92,1635185877,full,ni_sequenzen,NI_Sequenzen,,,,,,,,,,,,,,
,Screen_2,canvas.Screen,0_0_12_1,,skipped,13,93353,,,93351,,93353,2021-10-25T18:19:59.753Z,93440.92,1635185877,full,ni_sequenzen,NI_Sequenzen,,,,,,,,,,,,,,
,Screen_3,canvas.Screen,0_0_12_2,,skipped,13,93354,,,93351,,93355,2021-10-25T18:19:59.754Z,93440.92,1635185877,full,ni_sequenzen,NI_Sequenzen,,,,,,,,,,,,,,
,Screen_4,canvas.Screen,0_0_12_3,,skipped,13,93357,,,93351,,93357,2021-10-25T18:19:59.756Z,93440.92,1635185877,full,ni_sequenzen,NI_Sequenzen,,,,,,,,,,,,,,
,Sequence,flow.Sequence,0_0_12,,completion,13,93349,,,93351,,93357,2021-10-25T18:19:59.756Z,93440.92,1635185877,full,ni_sequenzen,NI_Sequenzen,,,,,,,,,,,,,,
,Screen_1,canvas.Screen,0_0_13_0,,skipped,14,93359,,,93359,,93359,2021-10-25T18:19:59.759Z,93440.92,1635185877,full,ni_sequenzen,NI_Sequenzen,,,,,,,,,,,,,,
,Screen_2,canvas.Screen,0_0_13_1,,skipped,14,93361,,,93359,,93361,2021-10-25T18:19:59.761Z,93440.92,1635185877,full,ni_sequenzen,NI_Sequenzen,,,,,,,,,,,,,,
,Screen_3,canvas.Screen,0_0_13_2,,skipped,14,93364,,,93359,,93364,2021-10-25T18:19:59.764Z,93440.92,1635185877,full,ni_sequenzen,NI_Sequenzen,,,,,,,,,,,,,,
,Screen_4,canvas.Screen,0_0_13_3,,skipped,14,93365,,,93359,,93365,2021-10-25T18:19:59.766Z,93440.92,1635185877,full,ni_sequenzen,NI_Sequenzen,,,,,,,,,,,,,,
,Sequence,flow.Sequence,0_0_13,,completion,14,93357,,,93359,,93365,2021-10-25T18:19:59.766Z,93440.92,1635185877,full,ni_sequenzen,NI_Sequenzen,,,,,,,,,,,,,,
,Screen_1,canvas.Screen,0_0_14_0,,skipped,15,93368,,,93368,,93368,2021-10-25T18:19:59.768Z,93440.92,1635185877,full,ni_sequenzen,NI_Sequenzen,,,,,,,,,,,,,,
,Screen_2,canvas.Screen,0_0_14_1,,skipped,15,93370,,,93368,,93370,2021-10-25T18:19:59.770Z,93440.92,1635185877,full,ni_sequenzen,NI_Sequenzen,,,,,,,,,,,,,,
,Screen_3,canvas.Screen,0_0_14_2,,skipped,15,93372,,,93368,,93372,2021-10-25T18:19:59.771Z,93440.92,1635185877,full,ni_sequenzen,NI_Sequenzen,,,,,,,,,,,,,,
,Screen_4,canvas.Screen,0_0_14_3,,skipped,15,93373,,,93368,,93373,2021-10-25T18:19:59.773Z,93440.92,1635185877,full,ni_sequenzen,NI_Sequenzen,,,,,,,,,,,,,,
,Sequence,flow.Sequence,0_0_14,,completion,15,93366,,,93368,,93373,2021-10-25T18:19:59.773Z,93440.92,1635185877,full,ni_sequenzen,NI_Sequenzen,,,,,,,,,,,,,,
,Screen_1,canvas.Screen,0_0_15_0,,skipped,16,93375,,,93375,,93376,2021-10-25T18:19:59.775Z,93440.92,1635185877,full,ni_sequenzen,NI_Sequenzen,,,,,,,,,,,,,,
,Screen_2,canvas.Screen,0_0_15_1,,skipped,16,93378,,,93375,,93378,2021-10-25T18:19:59.778Z,93440.92,1635185877,full,ni_sequenzen,NI_Sequenzen,,,,,,,,,,,,,,
,Screen_3,canvas.Screen,0_0_15_2,,skipped,16,93380,,,93375,,93380,2021-10-25T18:19:59.780Z,93440.92,1635185877,full,ni_sequenzen,NI_Sequenzen,,,,,,,,,,,,,,
,Screen_4,canvas.Screen,0_0_15_3,,skipped,16,93381,,,93375,,93381,2021-10-25T18:19:59.781Z,93440.92,1635185877,full,ni_sequenzen,NI_Sequenzen,,,,,,,,,,,,,,
,Sequence,flow.Sequence,0_0_15,,completion,16,93374,,,93375,,93381,2021-10-25T18:19:59.782Z,93440.92,1635185877,full,ni_sequenzen,NI_Sequenzen,,,,,,,,,,,,,,
,Screen_1,canvas.Screen,0_0_16_0,,skipped,17,93383,,,93383,,93384,2021-10-25T18:19:59.784Z,93440.92,1635185877,full,ni_sequenzen,NI_Sequenzen,,,,,,,,,,,,,,
,Screen_2,canvas.Screen,0_0_16_1,,skipped,17,93385,,,93383,,93385,2021-10-25T18:19:59.785Z,93440.92,1635185877,full,ni_sequenzen,NI_Sequenzen,,,,,,,,,,,,,,
,Screen_3,canvas.Screen,0_0_16_2,,skipped,17,93387,,,93383,,93387,2021-10-25T18:19:59.787Z,93440.92,1635185877,full,ni_sequenzen,NI_Sequenzen,,,,,,,,,,,,,,
,Screen_4,canvas.Screen,0_0_16_3,,skipped,17,93388,,,93383,,93388,2021-10-25T18:19:59.789Z,93440.92,1635185877,full,ni_sequenzen,NI_Sequenzen,,,,,,,,,,,,,,
,Sequence,flow.Sequence,0_0_16,,completion,17,93382,,,93383,,93389,2021-10-25T18:19:59.789Z,93440.92,1635185877,full,ni_sequenzen,NI_Sequenzen,,,,,,,,,,,,,,
,Screen_1,canvas.Screen,0_0_17_0,,skipped,18,93390,,,93390,,93390,2021-10-25T18:19:59.791Z,93440.92,1635185877,full,ni_sequenzen,NI_Sequenzen,,,,,,,,,,,,,,
,Screen_2,canvas.Screen,0_0_17_1,,skipped,18,93392,,,93390,,93392,2021-10-25T18:19:59.793Z,93440.92,1635185877,full,ni_sequenzen,NI_Sequenzen,,,,,,,,,,,,,,
,Screen_3,canvas.Screen,0_0_17_2,,skipped,18,93394,,,93390,,93394,2021-10-25T18:19:59.794Z,93440.92,1635185877,full,ni_sequenzen,NI_Sequenzen,,,,,,,,,,,,,,
,Screen_4,canvas.Screen,0_0_17_3,,skipped,18,93395,,,93390,,93395,2021-10-25T18:19:59.795Z,93440.92,1635185877,full,ni_sequenzen,NI_Sequenzen,,,,,,,,,,,,,,
,Sequence,flow.Sequence,0_0_17,,completion,18,93389,,,93390,,93396,2021-10-25T18:19:59.795Z,93440.92,1635185877,full,ni_sequenzen,NI_Sequenzen,,,,,,,,,,,,,,
,Screen_1,canvas.Screen,0_0_18_0,,skipped,19,93398,,,93398,,93398,2021-10-25T18:19:59.797Z,93440.92,1635185877,full,ni_sequenzen,NI_Sequenzen,,,,,,,,,,,,,,
,Screen_2,canvas.Screen,0_0_18_1,,skipped,19,93399,,,93398,,93399,2021-10-25T18:19:59.799Z,93440.92,1635185877,full,ni_sequenzen,NI_Sequenzen,,,,,,,,,,,,,,
,Screen_3,canvas.Screen,0_0_18_2,,skipped,19,93401,,,93398,,93401,2021-10-25T18:19:59.801Z,93440.92,1635185877,full,ni_sequenzen,NI_Sequenzen,,,,,,,,,,,,,,
,Screen_4,canvas.Screen,0_0_18_3,,skipped,19,93403,,,93398,,93403,2021-10-25T18:19:59.803Z,93440.92,1635185877,full,ni_sequenzen,NI_Sequenzen,,,,,,,,,,,,,,
,Sequence,flow.Sequence,0_0_18,,completion,19,93396,,,93398,,93403,2021-10-25T18:19:59.804Z,93440.92,1635185877,full,ni_sequenzen,NI_Sequenzen,,,,,,,,,,,,,,
,Screen_1,canvas.Screen,0_0_19_0,,skipped,20,93405,,,93405,,93405,2021-10-25T18:19:59.806Z,93440.92,1635185877,full,ni_sequenzen,NI_Sequenzen,,,,,,,,,,,,,,
,Screen_2,canvas.Screen,0_0_19_1,,skipped,20,93408,,,93405,,93408,2021-10-25T18:19:59.807Z,93440.92,1635185877,full,ni_sequenzen,NI_Sequenzen,,,,,,,,,,,,,,
,Screen_3,canvas.Screen,0_0_19_2,,skipped,20,93409,,,93405,,93409,2021-10-25T18:19:59.809Z,93440.92,1635185877,full,ni_sequenzen,NI_Sequenzen,,,,,,,,,,,,,,
,Screen_4,canvas.Screen,0_0_19_3,,skipped,20,93411,,,93405,,93411,2021-10-25T18:19:59.811Z,93440.92,1635185877,full,ni_sequenzen,NI_Sequenzen,,,,,,,,,,,,,,
,Sequence,flow.Sequence,0_0_19,,completion,20,93404,,,93405,,93411,2021-10-25T18:19:59.811Z,93440.92,1635185877,full,ni_sequenzen,NI_Sequenzen,,,,,,,,,,,,,,
,Instructions_I,flow.Loop,0_0,,completion,,1467,1625.34,1659.1,93405,91745.9,93411,2021-10-25T18:19:59.811Z,93440.92,1635185877,full,ni_sequenzen,NI_Sequenzen,,,,,,,,,,,,,,
,Move,canvas.Screen,0_1_0_0,right,response,,93434,93434.2,93440.92,94202,761.0800000000017,94206,2021-10-25T18:20:00.606Z,94211.84,1635185877,full,ni_sequenzen,NI_Sequenzen,1,,,,,,,,,,,,,
,Move,canvas.Screen,0_1_0_1,right,response,,94212,94211.64,94211.84,94780,568.1600000000035,94803,2021-10-25T18:20:01.203Z,94808.78,1635185877,full,ni_sequenzen,NI_Sequenzen,2,,,,,,,,,,,,,
,Move,canvas.Screen,0_1_0_2,down,response,,94808,94808.48,94808.78,95374,565.2200000000012,95381,2021-10-25T18:20:01.781Z,95386.32,1635185877,full,ni_sequenzen,NI_Sequenzen,3,,,,,,,,,,,,,
,Move,canvas.Screen,0_1_0_3,down,response,,95386,95386.04,95386.32,95624,237.67999999999302,95628,2021-10-25T18:20:02.029Z,95633.8,1635185877,full,ni_sequenzen,NI_Sequenzen,4,,,,,,,,,,,,,
,Move,canvas.Screen,0_1_0_4,left,response,,95633,95633.48,95633.8,95905,271.1999999999971,95928,2021-10-25T18:20:02.329Z,95940.84,1635185877,full,ni_sequenzen,NI_Sequenzen,5,,,,,,,,,,,,,
,Move,canvas.Screen,0_1_0_5,left,response,,95940,95940.54,95940.84,96156,215.1600000000035,96171,2021-10-25T18:20:02.571Z,96178.48,1635185877,full,ni_sequenzen,NI_Sequenzen,6,,,,,,,,,,,,,
,Move,canvas.Screen,0_1_0_6,down,response,,96178,96178.18,96178.48,97406,1227.520000000004,97424,2021-10-25T18:20:03.823Z,97431.44,1635185877,full,ni_sequenzen,NI_Sequenzen,7,,,,,,,,,,,,,
,Move,canvas.Screen,0_1_0_7,down,response,,97431,97431.16,97431.44,97686,254.55999999999767,97691,2021-10-25T18:20:04.092Z,97697.8,1635185877,full,ni_sequenzen,NI_Sequenzen,8,,,,,,,,,,,,,
,Move,canvas.Screen,0_1_0_8,down,response,,97698,97697.5,97697.8,97921,223.1999999999971,97927,2021-10-25T18:20:04.328Z,97933.26,1635185877,full,ni_sequenzen,NI_Sequenzen,9,,,,,,,,,,,,,
,Move,canvas.Screen,0_1_0_9,right,response,,97933,97933.04,97933.26,98264,330.74000000000524,98272,2021-10-25T18:20:04.672Z,98278.9,1635185877,full,ni_sequenzen,NI_Sequenzen,10,,,,,,,,,,,,,
,Move,canvas.Screen,0_1_0_10,left,response,,98278,98278.56,98278.9,98577,298.1000000000058,98597,2021-10-25T18:20:04.996Z,98602.94,1635185877,full,ni_sequenzen,NI_Sequenzen,11,,,,,,,,,,,,,
,Move,canvas.Screen,0_1_0_11,down,response,,98603,98602.62,98602.94,99405,802.0599999999977,99415,2021-10-25T18:20:05.814Z,99420.28,1635185877,full,ni_sequenzen,NI_Sequenzen,12,,,,,,,,,,,,,
,Move,canvas.Screen,0_1_0_12,down,response,,99420,99419.92,99420.28,99655,234.72000000000116,99663,2021-10-25T18:20:06.062Z,99669.02,1635185877,full,ni_sequenzen,NI_Sequenzen,13,,,,,,,,,,,,,
,Move,canvas.Screen,0_1_0_13,left,response,,99669,99668.8,99669.02,99983,313.9799999999959,99993,2021-10-25T18:20:06.393Z,99999.38,1635185877,full,ni_sequenzen,NI_Sequenzen,14,,,,,,,,,,,,,
,Move,canvas.Screen,0_1_0_14,left,response,,99999,99999.04,99999.38,100264,264.61999999999534,100284,2021-10-25T18:20:06.683Z,100289.82,1635185877,full,ni_sequenzen,NI_Sequenzen,15,,,,,,,,,,,,,
,Move,canvas.Screen,0_1_0_15,down,response,,100290,100289.5,100289.82,100733,443.179999999993,100749,2021-10-25T18:20:07.150Z,100754.68,1635185877,full,ni_sequenzen,NI_Sequenzen,16,,,,,,,,,,,,,
,Move,canvas.Screen,0_1_0_16,right,response,,100755,100754.34,100754.68,101093,338.320000000007,101118,2021-10-25T18:20:07.517Z,101123,1635185877,full,ni_sequenzen,NI_Sequenzen,17,,,,,,,,,,,,,
,Move,canvas.Screen,0_1_0_17,right,response,,101122,101122.68,101123,101311,188,101332,2021-10-25T18:20:07.732Z,101339.38,1635185877,full,ni_sequenzen,NI_Sequenzen,18,,,,,,,,,,,,,
,Move,canvas.Screen,0_1_0_18,down,response,,101336,101336.38,101339.38,101796,456.61999999999534,101799,2021-10-25T18:20:08.199Z,101804.58,1635185877,full,ni_sequenzen,NI_Sequenzen,19,,,,,,,,,,,,,
,Move,canvas.Screen,0_1_0_19,down,response,,101805,101804.24,101804.58,102030,225.41999999999825,102044,2021-10-25T18:20:08.444Z,102047.92,1635185877,full,ni_sequenzen,NI_Sequenzen,20,,,,,,,,,,,,,
,Move,canvas.Screen,0_1_0_20,down,response,,102047,102047.62,102047.92,102249,201.08000000000175,102264,2021-10-25T18:20:08.663Z,102269.3,1635185877,full,ni_sequenzen,NI_Sequenzen,21,,,,,,,,,,,,,
,Move,canvas.Screen,0_1_0_21,right,response,,102269,102269,102269.3,102686,416.6999999999971,102704,2021-10-25T18:20:09.105Z,102708.96,1635185877,full,ni_sequenzen,NI_Sequenzen,22,,,,,,,,,,,,,
,Move,canvas.Screen,0_1_0_22,right,response,,102708,102708.66,102708.96,102952,243.0399999999936,102967,2021-10-25T18:20:09.367Z,102972.28,1635185877,full,ni_sequenzen,NI_Sequenzen,23,,,,,,,,,,,,,
,Move,canvas.Screen,0_1_0_23,down,response,,102972,102972,102972.28,103483,510.72000000000116,103493,2021-10-25T18:20:09.893Z,103497.9,1635185877,full,ni_sequenzen,NI_Sequenzen,24,,,,,,,,,,,,,
,Move,canvas.Screen,0_1_0_24,down,response,,103497,103497.62,103497.9,103764,266.1000000000058,103774,2021-10-25T18:20:10.174Z,103778.8,1635185877,full,ni_sequenzen,NI_Sequenzen,25,,,,,,,,,,,,,
,Move,canvas.Screen,0_1_0_25,down,response,,103778,103778.36,103778.8,104014,235.1999999999971,104030,2021-10-25T18:20:10.429Z,104034.2,1635185877,full,ni_sequenzen,NI_Sequenzen,26,,,,,,,,,,,,,
,Move,canvas.Screen,0_1_0_26,left,response,,104034,104033.9,104034.2,104343,308.8000000000029,104354,2021-10-25T18:20:10.753Z,104358.06,1635185877,full,ni_sequenzen,NI_Sequenzen,27,,,,,,,,,,,,,
,Move,canvas.Screen,0_1_0_27,left,response,,104357,104357.74,104358.06,104562,203.94000000000233,104574,2021-10-25T18:20:10.974Z,104578.3,1635185877,full,ni_sequenzen,NI_Sequenzen,28,,,,,,,,,,,,,
,Move,canvas.Screen,0_1_0_28,down,response,,104578,104578.1,104578.3,105249,670.6999999999971,105264,2021-10-25T18:20:11.664Z,105268.7,1635185877,full,ni_sequenzen,NI_Sequenzen,29,,,,,,,,,,,,,
,Move,canvas.Screen,0_1_0_29,down,response,,105268,105268.4,105268.7,105514,245.3000000000029,105523,2021-10-25T18:20:11.923Z,105588.6,1635185877,full,ni_sequenzen,NI_Sequenzen,30,,,,,,,,,,,,,
,Loop,flow.Loop,0_1_0,-999,completion,,93430,93434.2,93440.92,105514,12073.080000000002,105523,2021-10-25T18:20:11.923Z,105588.6,1635185877,full,ni_sequenzen,NI_Sequenzen,,,,,,,,,,,,,,
,Training_I,flow.Sequence,0_1,,completion,,93412,93434.2,93440.92,105514,12073.080000000002,105524,2021-10-25T18:20:11.923Z,105588.6,1635185877,full,ni_sequenzen,NI_Sequenzen,,,,,,,,,,,,,,
,Screen_1,canvas.Screen,0_2_0_0,cont,response,1,105581,105580.38,105588.6,109186,3597.399999999994,109196,2021-10-25T18:20:15.597Z,109387.12,1635185877,full,ni_sequenzen,NI_Sequenzen,,,,,,,,,,,,,,
,Screen_2,canvas.Screen,0_2_0_1,cont,response,1,109387,109386.96,109387.12,114718,5330.880000000005,114733,2021-10-25T18:20:21.133Z,114736.58,1635185877,full,ni_sequenzen,NI_Sequenzen,,,,,,,,,,,,,,
,Screen_3,canvas.Screen,0_2_0_2,cont,response,1,114736,114736.28,114736.58,116296,1559.4199999999983,116306,2021-10-25T18:20:22.706Z,116453.06,1635185877,full,ni_sequenzen,NI_Sequenzen,,,,,,,,,,,,,,
,Screen_4,canvas.Screen,0_2_0_3,cont,response,1,116451,116450.2,116453.06,124625,8171.940000000002,124643,2021-10-25T18:20:31.044Z,124648.8,1635185877,full,ni_sequenzen,NI_Sequenzen,,,,,,,,,,,,,,
,Screen_5,canvas.Screen,0_2_0_4,cont,response,1,124648,124648.24,124648.8,127624,2975.199999999997,127635,2021-10-25T18:20:34.035Z,127784.2,1635185877,full,ni_sequenzen,NI_Sequenzen,,,,,,,,,,,,,,
,Screen_6,canvas.Screen,0_2_0_5,cont,response,1,127777,127776.7,127784.2,129499,1714.800000000003,129514,2021-10-25T18:20:35.913Z,129867.04,1635185877,full,ni_sequenzen,NI_Sequenzen,,,,,,,,,,,,,,
,Sequence,flow.Sequence,0_2_0,,completion,1,105578,105580.38,105588.6,129499,23910.399999999994,129514,2021-10-25T18:20:35.914Z,129867.04,1635185877,full,ni_sequenzen,NI_Sequenzen,,,,,,,,,,,,,,
,Screen_1,canvas.Screen,0_2_1_0,,skipped,2,129520,,,129520,,129520,2021-10-25T18:20:35.920Z,129867.04,1635185877,full,ni_sequenzen,NI_Sequenzen,,,,,,,,,,,,,,
,Screen_2,canvas.Screen,0_2_1_1,,skipped,2,129523,,,129520,,129523,2021-10-25T18:20:35.923Z,129867.04,1635185877,full,ni_sequenzen,NI_Sequenzen,,,,,,,,,,,,,,
,Screen_3,canvas.Screen,0_2_1_2,,skipped,2,129526,,,129520,,129526,2021-10-25T18:20:35.927Z,129867.04,1635185877,full,ni_sequenzen,NI_Sequenzen,,,,,,,,,,,,,,
,Screen_4,canvas.Screen,0_2_1_3,,skipped,2,129530,,,129520,,129530,2021-10-25T18:20:35.930Z,129867.04,1635185877,full,ni_sequenzen,NI_Sequenzen,,,,,,,,,,,,,,
,Screen_5,canvas.Screen,0_2_1_4,,skipped,2,129532,,,129520,,129533,2021-10-25T18:20:35.933Z,129867.04,1635185877,full,ni_sequenzen,NI_Sequenzen,,,,,,,,,,,,,,
,Screen_6,canvas.Screen,0_2_1_5,,skipped,2,129536,,,129520,,129537,2021-10-25T18:20:35.936Z,129867.04,1635185877,full,ni_sequenzen,NI_Sequenzen,,,,,,,,,,,,,,
,Sequence,flow.Sequence,0_2_1,,completion,2,129516,,,129520,,129537,2021-10-25T18:20:35.937Z,129867.04,1635185877,full,ni_sequenzen,NI_Sequenzen,,,,,,,,,,,,,,
,Screen_1,canvas.Screen,0_2_2_0,,skipped,3,129541,,,129541,,129541,2021-10-25T18:20:35.941Z,129867.04,1635185877,full,ni_sequenzen,NI_Sequenzen,,,,,,,,,,,,,,
,Screen_2,canvas.Screen,0_2_2_1,,skipped,3,129544,,,129541,,129544,2021-10-25T18:20:35.944Z,129867.04,1635185877,full,ni_sequenzen,NI_Sequenzen,,,,,,,,,,,,,,
,Screen_3,canvas.Screen,0_2_2_2,,skipped,3,129547,,,129541,,129547,2021-10-25T18:20:35.947Z,129867.04,1635185877,full,ni_sequenzen,NI_Sequenzen,,,,,,,,,,,,,,
,Screen_4,canvas.Screen,0_2_2_3,,skipped,3,129550,,,129541,,129550,2021-10-25T18:20:35.950Z,129867.04,1635185877,full,ni_sequenzen,NI_Sequenzen,,,,,,,,,,,,,,
,Screen_5,canvas.Screen,0_2_2_4,,skipped,3,129554,,,129541,,129554,2021-10-25T18:20:35.954Z,129867.04,1635185877,full,ni_sequenzen,NI_Sequenzen,,,,,,,,,,,,,,
,Screen_6,canvas.Screen,0_2_2_5,,skipped,3,129558,,,129541,,129558,2021-10-25T18:20:35.957Z,129867.04,1635185877,full,ni_sequenzen,NI_Sequenzen,,,,,,,,,,,,,,
,Sequence,flow.Sequence,0_2_2,,completion,3,129539,,,129541,,129558,2021-10-25T18:20:35.958Z,129867.04,1635185877,full,ni_sequenzen,NI_Sequenzen,,,,,,,,,,,,,,
,Screen_1,canvas.Screen,0_2_3_0,,skipped,4,129562,,,129562,,129563,2021-10-25T18:20:35.963Z,129867.04,1635185877,full,ni_sequenzen,NI_Sequenzen,,,,,,,,,,,,,,
,Screen_2,canvas.Screen,0_2_3_1,,skipped,4,129566,,,129562,,129567,2021-10-25T18:20:35.966Z,129867.04,1635185877,full,ni_sequenzen,NI_Sequenzen,,,,,,,,,,,,,,
,Screen_3,canvas.Screen,0_2_3_2,,skipped,4,129567,,,129562,,129567,2021-10-25T18:20:35.968Z,129867.04,1635185877,full,ni_sequenzen,NI_Sequenzen,,,,,,,,,,,,,,
,Screen_4,canvas.Screen,0_2_3_3,,skipped,4,129569,,,129562,,129569,2021-10-25T18:20:35.970Z,129867.04,1635185877,full,ni_sequenzen,NI_Sequenzen,,,,,,,,,,,,,,
,Screen_5,canvas.Screen,0_2_3_4,,skipped,4,129571,,,129562,,129571,2021-10-25T18:20:35.971Z,129867.04,1635185877,full,ni_sequenzen,NI_Sequenzen,,,,,,,,,,,,,,
,Screen_6,canvas.Screen,0_2_3_5,,skipped,4,129573,,,129562,,129573,2021-10-25T18:20:35.973Z,129867.04,1635185877,full,ni_sequenzen,NI_Sequenzen,,,,,,,,,,,,,,
,Sequence,flow.Sequence,0_2_3,,completion,4,129560,,,129562,,129574,2021-10-25T18:20:35.973Z,129867.04,1635185877,full,ni_sequenzen,NI_Sequenzen,,,,,,,,,,,,,,
,Screen_1,canvas.Screen,0_2_4_0,,skipped,5,129576,,,129576,,129576,2021-10-25T18:20:35.976Z,129867.04,1635185877,full,ni_sequenzen,NI_Sequenzen,,,,,,,,,,,,,,
,Screen_2,canvas.Screen,0_2_4_1,,skipped,5,129578,,,129576,,129578,2021-10-25T18:20:35.978Z,129867.04,1635185877,full,ni_sequenzen,NI_Sequenzen,,,,,,,,,,,,,,
,Screen_3,canvas.Screen,0_2_4_2,,skipped,5,129580,,,129576,,129580,2021-10-25T18:20:35.980Z,129867.04,1635185877,full,ni_sequenzen,NI_Sequenzen,,,,,,,,,,,,,,
,Screen_4,canvas.Screen,0_2_4_3,,skipped,5,129581,,,129576,,129581,2021-10-25T18:20:35.982Z,129867.04,1635185877,full,ni_sequenzen,NI_Sequenzen,,,,,,,,,,,,,,
,Screen_5,canvas.Screen,0_2_4_4,,skipped,5,129584,,,129576,,129584,2021-10-25T18:20:35.983Z,129867.04,1635185877,full,ni_sequenzen,NI_Sequenzen,,,,,,,,,,,,,,
,Screen_6,canvas.Screen,0_2_4_5,,skipped,5,129586,,,129576,,129586,2021-10-25T18:20:35.986Z,129867.04,1635185877,full,ni_sequenzen,NI_Sequenzen,,,,,,,,,,,,,,
,Sequence,flow.Sequence,0_2_4,,completion,5,129574,,,129576,,129586,2021-10-25T18:20:35.986Z,129867.04,1635185877,full,ni_sequenzen,NI_Sequenzen,,,,,,,,,,,,,,
,Screen_1,canvas.Screen,0_2_5_0,,skipped,6,129589,,,129589,,129589,2021-10-25T18:20:35.988Z,129867.04,1635185877,full,ni_sequenzen,NI_Sequenzen,,,,,,,,,,,,,,
,Screen_2,canvas.Screen,0_2_5_1,,skipped,6,129589,,,129589,,129589,2021-10-25T18:20:35.990Z,129867.04,1635185877,full,ni_sequenzen,NI_Sequenzen,,,,,,,,,,,,,,
,Screen_3,canvas.Screen,0_2_5_2,,skipped,6,129591,,,129589,,129591,2021-10-25T18:20:35.992Z,129867.04,1635185877,full,ni_sequenzen,NI_Sequenzen,,,,,,,,,,,,,,
,Screen_4,canvas.Screen,0_2_5_3,,skipped,6,129593,,,129589,,129593,2021-10-25T18:20:35.993Z,129867.04,1635185877,full,ni_sequenzen,NI_Sequenzen,,,,,,,,,,,,,,
,Screen_5,canvas.Screen,0_2_5_4,,skipped,6,129595,,,129589,,129595,2021-10-25T18:20:35.994Z,129867.04,1635185877,full,ni_sequenzen,NI_Sequenzen,,,,,,,,,,,,,,
,Screen_6,canvas.Screen,0_2_5_5,,skipped,6,129597,,,129589,,129597,2021-10-25T18:20:35.996Z,129867.04,1635185877,full,ni_sequenzen,NI_Sequenzen,,,,,,,,,,,,,,
,Sequence,flow.Sequence,0_2_5,,completion,6,129587,,,129589,,129597,2021-10-25T18:20:35.997Z,129867.04,1635185877,full,ni_sequenzen,NI_Sequenzen,,,,,,,,,,,,,,
,Screen_1,canvas.Screen,0_2_6_0,,skipped,7,129599,,,129599,,129599,2021-10-25T18:20:35.999Z,129867.04,1635185877,full,ni_sequenzen,NI_Sequenzen,,,,,,,,,,,,,,
,Screen_2,canvas.Screen,0_2_6_1,,skipped,7,129601,,,129599,,129601,2021-10-25T18:20:36.000Z,129867.04,1635185877,full,ni_sequenzen,NI_Sequenzen,,,,,,,,,,,,,,
,Screen_3,canvas.Screen,0_2_6_2,,skipped,7,129602,,,129599,,129602,2021-10-25T18:20:36.002Z,129867.04,1635185877,full,ni_sequenzen,NI_Sequenzen,,,,,,,,,,,,,,
,Screen_4,canvas.Screen,0_2_6_3,,skipped,7,129604,,,129599,,129604,2021-10-25T18:20:36.004Z,129867.04,1635185877,full,ni_sequenzen,NI_Sequenzen,,,,,,,,,,,,,,
,Screen_5,canvas.Screen,0_2_6_4,,skipped,7,129605,,,129599,,129605,2021-10-25T18:20:36.005Z,129867.04,1635185877,full,ni_sequenzen,NI_Sequenzen,,,,,,,,,,,,,,
,Screen_6,canvas.Screen,0_2_6_5,,skipped,7,129606,,,129599,,129606,2021-10-25T18:20:36.007Z,129867.04,1635185877,full,ni_sequenzen,NI_Sequenzen,,,,,,,,,,,,,,
,Sequence,flow.Sequence,0_2_6,,completion,7,129598,,,129599,,129606,2021-10-25T18:20:36.007Z,129867.04,1635185877,full,ni_sequenzen,NI_Sequenzen,,,,,,,,,,,,,,
,Screen_1,canvas.Screen,0_2_7_0,,skipped,8,129608,,,129608,,129608,2021-10-25T18:20:36.009Z,129867.04,1635185877,full,ni_sequenzen,NI_Sequenzen,,,,,,,,,,,,,,
,Screen_2,canvas.Screen,0_2_7_1,,skipped,8,129610,,,129608,,129610,2021-10-25T18:20:36.011Z,129867.04,1635185877,full,ni_sequenzen,NI_Sequenzen,,,,,,,,,,,,,,
,Screen_3,canvas.Screen,0_2_7_2,,skipped,8,129612,,,129608,,129612,2021-10-25T18:20:36.012Z,129867.04,1635185877,full,ni_sequenzen,NI_Sequenzen,,,,,,,,,,,,,,
,Screen_4,canvas.Screen,0_2_7_3,,skipped,8,129614,,,129608,,129614,2021-10-25T18:20:36.013Z,129867.04,1635185877,full,ni_sequenzen,NI_Sequenzen,,,,,,,,,,,,,,
,Screen_5,canvas.Screen,0_2_7_4,,skipped,8,129615,,,129608,,129615,2021-10-25T18:20:36.015Z,129867.04,1635185877,full,ni_sequenzen,NI_Sequenzen,,,,,,,,,,,,,,
,Screen_6,canvas.Screen,0_2_7_5,,skipped,8,129616,,,129608,,129616,2021-10-25T18:20:36.016Z,129867.04,1635185877,full,ni_sequenzen,NI_Sequenzen,,,,,,,,,,,,,,
,Sequence,flow.Sequence,0_2_7,,completion,8,129607,,,129608,,129616,2021-10-25T18:20:36.016Z,129867.04,1635185877,full,ni_sequenzen,NI_Sequenzen,,,,,,,,,,,,,,
,Screen_1,canvas.Screen,0_2_8_0,,skipped,9,129618,,,129618,,129619,2021-10-25T18:20:36.018Z,129867.04,1635185877,full,ni_sequenzen,NI_Sequenzen,,,,,,,,,,,,,,
,Screen_2,canvas.Screen,0_2_8_1,,skipped,9,129620,,,129618,,129620,2021-10-25T18:20:36.020Z,129867.04,1635185877,full,ni_sequenzen,NI_Sequenzen,,,,,,,,,,,,,,
,Screen_3,canvas.Screen,0_2_8_2,,skipped,9,129622,,,129618,,129622,2021-10-25T18:20:36.022Z,129867.04,1635185877,full,ni_sequenzen,NI_Sequenzen,,,,,,,,,,,,,,
,Screen_4,canvas.Screen,0_2_8_3,,skipped,9,129623,,,129618,,129623,2021-10-25T18:20:36.023Z,129867.04,1635185877,full,ni_sequenzen,NI_Sequenzen,,,,,,,,,,,,,,
,Screen_5,canvas.Screen,0_2_8_4,,skipped,9,129624,,,129618,,129624,2021-10-25T18:20:36.024Z,129867.04,1635185877,full,ni_sequenzen,NI_Sequenzen,,,,,,,,,,,,,,
,Screen_6,canvas.Screen,0_2_8_5,,skipped,9,129625,,,129618,,129626,2021-10-25T18:20:36.026Z,129867.04,1635185877,full,ni_sequenzen,NI_Sequenzen,,,,,,,,,,,,,,
,Sequence,flow.Sequence,0_2_8,,completion,9,129617,,,129618,,129626,2021-10-25T18:20:36.026Z,129867.04,1635185877,full,ni_sequenzen,NI_Sequenzen,,,,,,,,,,,,,,
,Screen_1,canvas.Screen,0_2_9_0,,skipped,10,129628,,,129628,,129628,2021-10-25T18:20:36.029Z,129867.04,1635185877,full,ni_sequenzen,NI_Sequenzen,,,,,,,,,,,,,,
,Screen_2,canvas.Screen,0_2_9_1,,skipped,10,129630,,,129628,,129630,2021-10-25T18:20:36.031Z,129867.04,1635185877,full,ni_sequenzen,NI_Sequenzen,,,,,,,,,,,,,,
,Screen_3,canvas.Screen,0_2_9_2,,skipped,10,129632,,,129628,,129632,2021-10-25T18:20:36.032Z,129867.04,1635185877,full,ni_sequenzen,NI_Sequenzen,,,,,,,,,,,,,,
,Screen_4,canvas.Screen,0_2_9_3,,skipped,10,129633,,,129628,,129633,2021-10-25T18:20:36.033Z,129867.04,1635185877,full,ni_sequenzen,NI_Sequenzen,,,,,,,,,,,,,,
,Screen_5,canvas.Screen,0_2_9_4,,skipped,10,129635,,,129628,,129635,2021-10-25T18:20:36.035Z,129867.04,1635185877,full,ni_sequenzen,NI_Sequenzen,,,,,,,,,,,,,,
,Screen_6,canvas.Screen,0_2_9_5,,skipped,10,129636,,,129628,,129636,2021-10-25T18:20:36.036Z,129867.04,1635185877,full,ni_sequenzen,NI_Sequenzen,,,,,,,,,,,,,,
,Sequence,flow.Sequence,0_2_9,,completion,10,129627,,,129628,,129636,2021-10-25T18:20:36.036Z,129867.04,1635185877,full,ni_sequenzen,NI_Sequenzen,,,,,,,,,,,,,,
,Screen_1,canvas.Screen,0_2_10_0,,skipped,11,129638,,,129638,,129638,2021-10-25T18:20:36.038Z,129867.04,1635185877,full,ni_sequenzen,NI_Sequenzen,,,,,,,,,,,,,,
,Screen_2,canvas.Screen,0_2_10_1,,skipped,11,129640,,,129638,,129640,2021-10-25T18:20:36.040Z,129867.04,1635185877,full,ni_sequenzen,NI_Sequenzen,,,,,,,,,,,,,,
,Screen_3,canvas.Screen,0_2_10_2,,skipped,11,129642,,,129638,,129642,2021-10-25T18:20:36.042Z,129867.04,1635185877,full,ni_sequenzen,NI_Sequenzen,,,,,,,,,,,,,,
,Screen_4,canvas.Screen,0_2_10_3,,skipped,11,129644,,,129638,,129644,2021-10-25T18:20:36.044Z,129867.04,1635185877,full,ni_sequenzen,NI_Sequenzen,,,,,,,,,,,,,,
,Screen_5,canvas.Screen,0_2_10_4,,skipped,11,129645,,,129638,,129645,2021-10-25T18:20:36.045Z,129867.04,1635185877,full,ni_sequenzen,NI_Sequenzen,,,,,,,,,,,,,,
,Screen_6,canvas.Screen,0_2_10_5,,skipped,11,129647,,,129638,,129647,2021-10-25T18:20:36.047Z,129867.04,1635185877,full,ni_sequenzen,NI_Sequenzen,,,,,,,,,,,,,,
,Sequence,flow.Sequence,0_2_10,,completion,11,129636,,,129638,,129648,2021-10-25T18:20:36.048Z,129867.04,1635185877,full,ni_sequenzen,NI_Sequenzen,,,,,,,,,,,,,,
,Screen_1,canvas.Screen,0_2_11_0,,skipped,12,129651,,,129651,,129651,2021-10-25T18:20:36.051Z,129867.04,1635185877,full,ni_sequenzen,NI_Sequenzen,,,,,,,,,,,,,,
,Screen_2,canvas.Screen,0_2_11_1,,skipped,12,129653,,,129651,,129653,2021-10-25T18:20:36.053Z,129867.04,1635185877,full,ni_sequenzen,NI_Sequenzen,,,,,,,,,,,,,,
,Screen_3,canvas.Screen,0_2_11_2,,skipped,12,129654,,,129651,,129654,2021-10-25T18:20:36.053Z,129867.04,1635185877,full,ni_sequenzen,NI_Sequenzen,,,,,,,,,,,,,,
,Screen_4,canvas.Screen,0_2_11_3,,skipped,12,129655,,,129651,,129655,2021-10-25T18:20:36.056Z,129867.04,1635185877,full,ni_sequenzen,NI_Sequenzen,,,,,,,,,,,,,,
,Screen_5,canvas.Screen,0_2_11_4,,skipped,12,129656,,,129651,,129656,2021-10-25T18:20:36.056Z,129867.04,1635185877,full,ni_sequenzen,NI_Sequenzen,,,,,,,,,,,,,,
,Screen_6,canvas.Screen,0_2_11_5,,skipped,12,129658,,,129651,,129658,2021-10-25T18:20:36.057Z,129867.04,1635185877,full,ni_sequenzen,NI_Sequenzen,,,,,,,,,,,,,,
,Sequence,flow.Sequence,0_2_11,,completion,12,129650,,,129651,,129658,2021-10-25T18:20:36.058Z,129867.04,1635185877,full,ni_sequenzen,NI_Sequenzen,,,,,,,,,,,,,,
,Screen_1,canvas.Screen,0_2_12_0,,skipped,13,129660,,,129660,,129660,2021-10-25T18:20:36.059Z,129867.04,1635185877,full,ni_sequenzen,NI_Sequenzen,,,,,,,,,,,,,,
,Screen_2,canvas.Screen,0_2_12_1,,skipped,13,129661,,,129660,,129661,2021-10-25T18:20:36.061Z,129867.04,1635185877,full,ni_sequenzen,NI_Sequenzen,,,,,,,,,,,,,,
,Screen_3,canvas.Screen,0_2_12_2,,skipped,13,129663,,,129660,,129663,2021-10-25T18:20:36.063Z,129867.04,1635185877,full,ni_sequenzen,NI_Sequenzen,,,,,,,,,,,,,,
,Screen_4,canvas.Screen,0_2_12_3,,skipped,13,129664,,,129660,,129664,2021-10-25T18:20:36.064Z,129867.04,1635185877,full,ni_sequenzen,NI_Sequenzen,,,,,,,,,,,,,,
,Screen_5,canvas.Screen,0_2_12_4,,skipped,13,129665,,,129660,,129665,2021-10-25T18:20:36.065Z,129867.04,1635185877,full,ni_sequenzen,NI_Sequenzen,,,,,,,,,,,,,,
,Screen_6,canvas.Screen,0_2_12_5,,skipped,13,129667,,,129660,,129667,2021-10-25T18:20:36.067Z,129867.04,1635185877,full,ni_sequenzen,NI_Sequenzen,,,,,,,,,,,,,,
,Sequence,flow.Sequence,0_2_12,,completion,13,129659,,,129660,,129667,2021-10-25T18:20:36.067Z,129867.04,1635185877,full,ni_sequenzen,NI_Sequenzen,,,,,,,,,,,,,,
,Screen_1,canvas.Screen,0_2_13_0,,skipped,14,129669,,,129669,,129669,2021-10-25T18:20:36.069Z,129867.04,1635185877,full,ni_sequenzen,NI_Sequenzen,,,,,,,,,,,,,,
,Screen_2,canvas.Screen,0_2_13_1,,skipped,14,129670,,,129669,,129670,2021-10-25T18:20:36.071Z,129867.04,1635185877,full,ni_sequenzen,NI_Sequenzen,,,,,,,,,,,,,,
,Screen_3,canvas.Screen,0_2_13_2,,skipped,14,129672,,,129669,,129672,2021-10-25T18:20:36.072Z,129867.04,1635185877,full,ni_sequenzen,NI_Sequenzen,,,,,,,,,,,,,,
,Screen_4,canvas.Screen,0_2_13_3,,skipped,14,129672,,,129669,,129672,2021-10-25T18:20:36.073Z,129867.04,1635185877,full,ni_sequenzen,NI_Sequenzen,,,,,,,,,,,,,,
,Screen_5,canvas.Screen,0_2_13_4,,skipped,14,129674,,,129669,,129674,2021-10-25T18:20:36.074Z,129867.04,1635185877,full,ni_sequenzen,NI_Sequenzen,,,,,,,,,,,,,,
,Screen_6,canvas.Screen,0_2_13_5,,skipped,14,129675,,,129669,,129675,2021-10-25T18:20:36.076Z,129867.04,1635185877,full,ni_sequenzen,NI_Sequenzen,,,,,,,,,,,,,,
,Sequence,flow.Sequence,0_2_13,,completion,14,129668,,,129669,,129675,2021-10-25T18:20:36.076Z,129867.04,1635185877,full,ni_sequenzen,NI_Sequenzen,,,,,,,,,,,,,,
,Screen_1,canvas.Screen,0_2_14_0,,skipped,15,129677,,,129677,,129677,2021-10-25T18:20:36.077Z,129867.04,1635185877,full,ni_sequenzen,NI_Sequenzen,,,,,,,,,,,,,,
,Screen_2,canvas.Screen,0_2_14_1,,skipped,15,129678,,,129677,,129679,2021-10-25T18:20:36.078Z,129867.04,1635185877,full,ni_sequenzen,NI_Sequenzen,,,,,,,,,,,,,,
,Screen_3,canvas.Screen,0_2_14_2,,skipped,15,129680,,,129677,,129680,2021-10-25T18:20:36.080Z,129867.04,1635185877,full,ni_sequenzen,NI_Sequenzen,,,,,,,,,,,,,,
,Screen_4,canvas.Screen,0_2_14_3,,skipped,15,129681,,,129677,,129681,2021-10-25T18:20:36.081Z,129867.04,1635185877,full,ni_sequenzen,NI_Sequenzen,,,,,,,,,,,,,,
,Screen_5,canvas.Screen,0_2_14_4,,skipped,15,129682,,,129677,,129682,2021-10-25T18:20:36.083Z,129867.04,1635185877,full,ni_sequenzen,NI_Sequenzen,,,,,,,,,,,,,,
,Screen_6,canvas.Screen,0_2_14_5,,skipped,15,129684,,,129677,,129684,2021-10-25T18:20:36.084Z,129867.04,1635185877,full,ni_sequenzen,NI_Sequenzen,,,,,,,,,,,,,,
,Sequence,flow.Sequence,0_2_14,,completion,15,129676,,,129677,,129684,2021-10-25T18:20:36.084Z,129867.04,1635185877,full,ni_sequenzen,NI_Sequenzen,,,,,,,,,,,,,,
,Screen_1,canvas.Screen,0_2_15_0,,skipped,16,129686,,,129686,,129686,2021-10-25T18:20:36.086Z,129867.04,1635185877,full,ni_sequenzen,NI_Sequenzen,,,,,,,,,,,,,,
,Screen_2,canvas.Screen,0_2_15_1,,skipped,16,129687,,,129686,,129687,2021-10-25T18:20:36.087Z,129867.04,1635185877,full,ni_sequenzen,NI_Sequenzen,,,,,,,,,,,,,,
,Screen_3,canvas.Screen,0_2_15_2,,skipped,16,129689,,,129686,,129689,2021-10-25T18:20:36.089Z,129867.04,1635185877,full,ni_sequenzen,NI_Sequenzen,,,,,,,,,,,,,,
,Screen_4,canvas.Screen,0_2_15_3,,skipped,16,129690,,,129686,,129691,2021-10-25T18:20:36.090Z,129867.04,1635185877,full,ni_sequenzen,NI_Sequenzen,,,,,,,,,,,,,,
,Screen_5,canvas.Screen,0_2_15_4,,skipped,16,129691,,,129686,,129691,2021-10-25T18:20:36.091Z,129867.04,1635185877,full,ni_sequenzen,NI_Sequenzen,,,,,,,,,,,,,,
,Screen_6,canvas.Screen,0_2_15_5,,skipped,16,129692,,,129686,,129692,2021-10-25T18:20:36.093Z,129867.04,1635185877,full,ni_sequenzen,NI_Sequenzen,,,,,,,,,,,,,,
,Sequence,flow.Sequence,0_2_15,,completion,16,129685,,,129686,,129692,2021-10-25T18:20:36.093Z,129867.04,1635185877,full,ni_sequenzen,NI_Sequenzen,,,,,,,,,,,,,,
,Screen_1,canvas.Screen,0_2_16_0,,skipped,17,129694,,,129694,,129694,2021-10-25T18:20:36.094Z,129867.04,1635185877,full,ni_sequenzen,NI_Sequenzen,,,,,,,,,,,,,,
,Screen_2,canvas.Screen,0_2_16_1,,skipped,17,129696,,,129694,,129696,2021-10-25T18:20:36.096Z,129867.04,1635185877,full,ni_sequenzen,NI_Sequenzen,,,,,,,,,,,,,,
,Screen_3,canvas.Screen,0_2_16_2,,skipped,17,129698,,,129694,,129698,2021-10-25T18:20:36.097Z,129867.04,1635185877,full,ni_sequenzen,NI_Sequenzen,,,,,,,,,,,,,,
,Screen_4,canvas.Screen,0_2_16_3,,skipped,17,129698,,,129694,,129698,2021-10-25T18:20:36.099Z,129867.04,1635185877,full,ni_sequenzen,NI_Sequenzen,,,,,,,,,,,,,,
,Screen_5,canvas.Screen,0_2_16_4,,skipped,17,129700,,,129694,,129700,2021-10-25T18:20:36.101Z,129867.04,1635185877,full,ni_sequenzen,NI_Sequenzen,,,,,,,,,,,,,,
,Screen_6,canvas.Screen,0_2_16_5,,skipped,17,129701,,,129694,,129701,2021-10-25T18:20:36.102Z,129867.04,1635185877,full,ni_sequenzen,NI_Sequenzen,,,,,,,,,,,,,,
,Sequence,flow.Sequence,0_2_16,,completion,17,129693,,,129694,,129701,2021-10-25T18:20:36.102Z,129867.04,1635185877,full,ni_sequenzen,NI_Sequenzen,,,,,,,,,,,,,,
,Screen_1,canvas.Screen,0_2_17_0,,skipped,18,129703,,,129703,,129703,2021-10-25T18:20:36.104Z,129867.04,1635185877,full,ni_sequenzen,NI_Sequenzen,,,,,,,,,,,,,,
,Screen_2,canvas.Screen,0_2_17_1,,skipped,18,129705,,,129703,,129705,2021-10-25T18:20:36.105Z,129867.04,1635185877,full,ni_sequenzen,NI_Sequenzen,,,,,,,,,,,,,,
,Screen_3,canvas.Screen,0_2_17_2,,skipped,18,129707,,,129703,,129707,2021-10-25T18:20:36.106Z,129867.04,1635185877,full,ni_sequenzen,NI_Sequenzen,,,,,,,,,,,,,,
,Screen_4,canvas.Screen,0_2_17_3,,skipped,18,129708,,,129703,,129708,2021-10-25T18:20:36.108Z,129867.04,1635185877,full,ni_sequenzen,NI_Sequenzen,,,,,,,,,,,,,,
,Screen_5,canvas.Screen,0_2_17_4,,skipped,18,129710,,,129703,,129710,2021-10-25T18:20:36.109Z,129867.04,1635185877,full,ni_sequenzen,NI_Sequenzen,,,,,,,,,,,,,,
,Screen_6,canvas.Screen,0_2_17_5,,skipped,18,129711,,,129703,,129711,2021-10-25T18:20:36.111Z,129867.04,1635185877,full,ni_sequenzen,NI_Sequenzen,,,,,,,,,,,,,,
,Sequence,flow.Sequence,0_2_17,,completion,18,129702,,,129703,,129711,2021-10-25T18:20:36.111Z,129867.04,1635185877,full,ni_sequenzen,NI_Sequenzen,,,,,,,,,,,,,,
,Screen_1,canvas.Screen,0_2_18_0,,skipped,19,129712,,,129712,,129712,2021-10-25T18:20:36.113Z,129867.04,1635185877,full,ni_sequenzen,NI_Sequenzen,,,,,,,,,,,,,,
,Screen_2,canvas.Screen,0_2_18_1,,skipped,19,129714,,,129712,,129715,2021-10-25T18:20:36.115Z,129867.04,1635185877,full,ni_sequenzen,NI_Sequenzen,,,,,,,,,,,,,,
,Screen_3,canvas.Screen,0_2_18_2,,skipped,19,129716,,,129712,,129716,2021-10-25T18:20:36.116Z,129867.04,1635185877,full,ni_sequenzen,NI_Sequenzen,,,,,,,,,,,,,,
,Screen_4,canvas.Screen,0_2_18_3,,skipped,19,129718,,,129712,,129718,2021-10-25T18:20:36.118Z,129867.04,1635185877,full,ni_sequenzen,NI_Sequenzen,,,,,,,,,,,,,,
,Screen_5,canvas.Screen,0_2_18_4,,skipped,19,129719,,,129712,,129719,2021-10-25T18:20:36.119Z,129867.04,1635185877,full,ni_sequenzen,NI_Sequenzen,,,,,,,,,,,,,,
,Screen_6,canvas.Screen,0_2_18_5,,skipped,19,129720,,,129712,,129720,2021-10-25T18:20:36.120Z,129867.04,1635185877,full,ni_sequenzen,NI_Sequenzen,,,,,,,,,,,,,,
,Sequence,flow.Sequence,0_2_18,,completion,19,129711,,,129712,,129720,2021-10-25T18:20:36.120Z,129867.04,1635185877,full,ni_sequenzen,NI_Sequenzen,,,,,,,,,,,,,,
,Screen_1,canvas.Screen,0_2_19_0,,skipped,20,129723,,,129723,,129723,2021-10-25T18:20:36.122Z,129867.04,1635185877,full,ni_sequenzen,NI_Sequenzen,,,,,,,,,,,,,,
,Screen_2,canvas.Screen,0_2_19_1,,skipped,20,129724,,,129723,,129724,2021-10-25T18:20:36.124Z,129867.04,1635185877,full,ni_sequenzen,NI_Sequenzen,,,,,,,,,,,,,,
,Screen_3,canvas.Screen,0_2_19_2,,skipped,20,129726,,,129723,,129726,2021-10-25T18:20:36.125Z,129867.04,1635185877,full,ni_sequenzen,NI_Sequenzen,,,,,,,,,,,,,,
,Screen_4,canvas.Screen,0_2_19_3,,skipped,20,129727,,,129723,,129727,2021-10-25T18:20:36.127Z,129867.04,1635185877,full,ni_sequenzen,NI_Sequenzen,,,,,,,,,,,,,,
,Screen_5,canvas.Screen,0_2_19_4,,skipped,20,129729,,,129723,,129729,2021-10-25T18:20:36.128Z,129867.04,1635185877,full,ni_sequenzen,NI_Sequenzen,,,,,,,,,,,,,,
,Screen_6,canvas.Screen,0_2_19_5,,skipped,20,129730,,,129723,,129730,2021-10-25T18:20:36.130Z,129867.04,1635185877,full,ni_sequenzen,NI_Sequenzen,,,,,,,,,,,,,,
,Sequence,flow.Sequence,0_2_19,,completion,20,129721,,,129723,,129730,2021-10-25T18:20:36.130Z,129867.04,1635185877,full,ni_sequenzen,NI_Sequenzen,,,,,,,,,,,,,,
,Screen_1,canvas.Screen,0_2_20_0,,skipped,21,129732,,,129732,,129732,2021-10-25T18:20:36.132Z,129867.04,1635185877,full,ni_sequenzen,NI_Sequenzen,,,,,,,,,,,,,,
,Screen_2,canvas.Screen,0_2_20_1,,skipped,21,129734,,,129732,,129734,2021-10-25T18:20:36.133Z,129867.04,1635185877,full,ni_sequenzen,NI_Sequenzen,,,,,,,,,,,,,,
,Screen_3,canvas.Screen,0_2_20_2,,skipped,21,129735,,,129732,,129735,2021-10-25T18:20:36.135Z,129867.04,1635185877,full,ni_sequenzen,NI_Sequenzen,,,,,,,,,,,,,,
,Screen_4,canvas.Screen,0_2_20_3,,skipped,21,129737,,,129732,,129737,2021-10-25T18:20:36.137Z,129867.04,1635185877,full,ni_sequenzen,NI_Sequenzen,,,,,,,,,,,,,,
,Screen_5,canvas.Screen,0_2_20_4,,skipped,21,129738,,,129732,,129738,2021-10-25T18:20:36.137Z,129867.04,1635185877,full,ni_sequenzen,NI_Sequenzen,,,,,,,,,,,,,,
,Screen_6,canvas.Screen,0_2_20_5,,skipped,21,129739,,,129732,,129739,2021-10-25T18:20:36.140Z,129867.04,1635185877,full,ni_sequenzen,NI_Sequenzen,,,,,,,,,,,,,,
,Sequence,flow.Sequence,0_2_20,,completion,21,129731,,,129732,,129740,2021-10-25T18:20:36.140Z,129867.04,1635185877,full,ni_sequenzen,NI_Sequenzen,,,,,,,,,,,,,,
,Screen_1,canvas.Screen,0_2_21_0,,skipped,22,129742,,,129742,,129742,2021-10-25T18:20:36.142Z,129867.04,1635185877,full,ni_sequenzen,NI_Sequenzen,,,,,,,,,,,,,,
,Screen_2,canvas.Screen,0_2_21_1,,skipped,22,129743,,,129742,,129743,2021-10-25T18:20:36.143Z,129867.04,1635185877,full,ni_sequenzen,NI_Sequenzen,,,,,,,,,,,,,,
,Screen_3,canvas.Screen,0_2_21_2,,skipped,22,129744,,,129742,,129745,2021-10-25T18:20:36.144Z,129867.04,1635185877,full,ni_sequenzen,NI_Sequenzen,,,,,,,,,,,,,,
,Screen_4,canvas.Screen,0_2_21_3,,skipped,22,129746,,,129742,,129746,2021-10-25T18:20:36.146Z,129867.04,1635185877,full,ni_sequenzen,NI_Sequenzen,,,,,,,,,,,,,,
,Screen_5,canvas.Screen,0_2_21_4,,skipped,22,129747,,,129742,,129747,2021-10-25T18:20:36.147Z,129867.04,1635185877,full,ni_sequenzen,NI_Sequenzen,,,,,,,,,,,,,,
,Screen_6,canvas.Screen,0_2_21_5,,skipped,22,129749,,,129742,,129749,2021-10-25T18:20:36.149Z,129867.04,1635185877,full,ni_sequenzen,NI_Sequenzen,,,,,,,,,,,,,,
,Sequence,flow.Sequence,0_2_21,,completion,22,129740,,,129742,,129749,2021-10-25T18:20:36.149Z,129867.04,1635185877,full,ni_sequenzen,NI_Sequenzen,,,,,,,,,,,,,,
,Screen_1,canvas.Screen,0_2_22_0,,skipped,23,129751,,,129751,,129751,2021-10-25T18:20:36.151Z,129867.04,1635185877,full,ni_sequenzen,NI_Sequenzen,,,,,,,,,,,,,,
,Screen_2,canvas.Screen,0_2_22_1,,skipped,23,129752,,,129751,,129752,2021-10-25T18:20:36.153Z,129867.04,1635185877,full,ni_sequenzen,NI_Sequenzen,,,,,,,,,,,,,,
,Screen_3,canvas.Screen,0_2_22_2,,skipped,23,129754,,,129751,,129754,2021-10-25T18:20:36.154Z,129867.04,1635185877,full,ni_sequenzen,NI_Sequenzen,,,,,,,,,,,,,,
,Screen_4,canvas.Screen,0_2_22_3,,skipped,23,129755,,,129751,,129755,2021-10-25T18:20:36.156Z,129867.04,1635185877,full,ni_sequenzen,NI_Sequenzen,,,,,,,,,,,,,,
,Screen_5,canvas.Screen,0_2_22_4,,skipped,23,129756,,,129751,,129756,2021-10-25T18:20:36.157Z,129867.04,1635185877,full,ni_sequenzen,NI_Sequenzen,,,,,,,,,,,,,,
,Screen_6,canvas.Screen,0_2_22_5,,skipped,23,129758,,,129751,,129758,2021-10-25T18:20:36.158Z,129867.04,1635185877,full,ni_sequenzen,NI_Sequenzen,,,,,,,,,,,,,,
,Sequence,flow.Sequence,0_2_22,,completion,23,129750,,,129751,,129758,2021-10-25T18:20:36.159Z,129867.04,1635185877,full,ni_sequenzen,NI_Sequenzen,,,,,,,,,,,,,,
,Screen_1,canvas.Screen,0_2_23_0,,skipped,24,129762,,,129762,,129762,2021-10-25T18:20:36.162Z,129867.04,1635185877,full,ni_sequenzen,NI_Sequenzen,,,,,,,,,,,,,,
,Screen_2,canvas.Screen,0_2_23_1,,skipped,24,129763,,,129762,,129763,2021-10-25T18:20:36.163Z,129867.04,1635185877,full,ni_sequenzen,NI_Sequenzen,,,,,,,,,,,,,,
,Screen_3,canvas.Screen,0_2_23_2,,skipped,24,129765,,,129762,,129765,2021-10-25T18:20:36.165Z,129867.04,1635185877,full,ni_sequenzen,NI_Sequenzen,,,,,,,,,,,,,,
,Screen_4,canvas.Screen,0_2_23_3,,skipped,24,129766,,,129762,,129766,2021-10-25T18:20:36.166Z,129867.04,1635185877,full,ni_sequenzen,NI_Sequenzen,,,,,,,,,,,,,,
,Screen_5,canvas.Screen,0_2_23_4,,skipped,24,129768,,,129762,,129768,2021-10-25T18:20:36.168Z,129867.04,1635185877,full,ni_sequenzen,NI_Sequenzen,,,,,,,,,,,,,,
,Screen_6,canvas.Screen,0_2_23_5,,skipped,24,129769,,,129762,,129769,2021-10-25T18:20:36.169Z,129867.04,1635185877,full,ni_sequenzen,NI_Sequenzen,,,,,,,,,,,,,,
,Sequence,flow.Sequence,0_2_23,,completion,24,129759,,,129762,,129769,2021-10-25T18:20:36.169Z,129867.04,1635185877,full,ni_sequenzen,NI_Sequenzen,,,,,,,,,,,,,,
,Screen_1,canvas.Screen,0_2_24_0,,skipped,25,129770,,,129770,,129771,2021-10-25T18:20:36.171Z,129867.04,1635185877,full,ni_sequenzen,NI_Sequenzen,,,,,,,,,,,,,,
,Screen_2,canvas.Screen,0_2_24_1,,skipped,25,129772,,,129770,,129772,2021-10-25T18:20:36.172Z,129867.04,1635185877,full,ni_sequenzen,NI_Sequenzen,,,,,,,,,,,,,,
,Screen_3,canvas.Screen,0_2_24_2,,skipped,25,129773,,,129770,,129773,2021-10-25T18:20:36.174Z,129867.04,1635185877,full,ni_sequenzen,NI_Sequenzen,,,,,,,,,,,,,,
,Screen_4,canvas.Screen,0_2_24_3,,skipped,25,129775,,,129770,,129775,2021-10-25T18:20:36.175Z,129867.04,1635185877,full,ni_sequenzen,NI_Sequenzen,,,,,,,,,,,,,,
,Screen_5,canvas.Screen,0_2_24_4,,skipped,25,129777,,,129770,,129777,2021-10-25T18:20:36.177Z,129867.04,1635185877,full,ni_sequenzen,NI_Sequenzen,,,,,,,,,,,,,,
,Screen_6,canvas.Screen,0_2_24_5,,skipped,25,129778,,,129770,,129778,2021-10-25T18:20:36.179Z,129867.04,1635185877,full,ni_sequenzen,NI_Sequenzen,,,,,,,,,,,,,,
,Sequence,flow.Sequence,0_2_24,,completion,25,129770,,,129770,,129778,2021-10-25T18:20:36.179Z,129867.04,1635185877,full,ni_sequenzen,NI_Sequenzen,,,,,,,,,,,,,,
,Screen_1,canvas.Screen,0_2_25_0,,skipped,26,129780,,,129780,,129780,2021-10-25T18:20:36.181Z,129867.04,1635185877,full,ni_sequenzen,NI_Sequenzen,,,,,,,,,,,,,,
,Screen_2,canvas.Screen,0_2_25_1,,skipped,26,129782,,,129780,,129782,2021-10-25T18:20:36.182Z,129867.04,1635185877,full,ni_sequenzen,NI_Sequenzen,,,,,,,,,,,,,,
,Screen_3,canvas.Screen,0_2_25_2,,skipped,26,129783,,,129780,,129783,2021-10-25T18:20:36.184Z,129867.04,1635185877,full,ni_sequenzen,NI_Sequenzen,,,,,,,,,,,,,,
,Screen_4,canvas.Screen,0_2_25_3,,skipped,26,129785,,,129780,,129785,2021-10-25T18:20:36.184Z,129867.04,1635185877,full,ni_sequenzen,NI_Sequenzen,,,,,,,,,,,,,,
,Screen_5,canvas.Screen,0_2_25_4,,skipped,26,129787,,,129780,,129787,2021-10-25T18:20:36.186Z,129867.04,1635185877,full,ni_sequenzen,NI_Sequenzen,,,,,,,,,,,,,,
,Screen_6,canvas.Screen,0_2_25_5,,skipped,26,129788,,,129780,,129788,2021-10-25T18:20:36.187Z,129867.04,1635185877,full,ni_sequenzen,NI_Sequenzen,,,,,,,,,,,,,,
,Sequence,flow.Sequence,0_2_25,,completion,26,129779,,,129780,,129788,2021-10-25T18:20:36.188Z,129867.04,1635185877,full,ni_sequenzen,NI_Sequenzen,,,,,,,,,,,,,,
,Screen_1,canvas.Screen,0_2_26_0,,skipped,27,129789,,,129789,,129789,2021-10-25T18:20:36.189Z,129867.04,1635185877,full,ni_sequenzen,NI_Sequenzen,,,,,,,,,,,,,,
,Screen_2,canvas.Screen,0_2_26_1,,skipped,27,129790,,,129789,,129791,2021-10-25T18:20:36.191Z,129867.04,1635185877,full,ni_sequenzen,NI_Sequenzen,,,,,,,,,,,,,,
,Screen_3,canvas.Screen,0_2_26_2,,skipped,27,129792,,,129789,,129792,2021-10-25T18:20:36.192Z,129867.04,1635185877,full,ni_sequenzen,NI_Sequenzen,,,,,,,,,,,,,,
,Screen_4,canvas.Screen,0_2_26_3,,skipped,27,129794,,,129789,,129794,2021-10-25T18:20:36.194Z,129867.04,1635185877,full,ni_sequenzen,NI_Sequenzen,,,,,,,,,,,,,,
,Screen_5,canvas.Screen,0_2_26_4,,skipped,27,129797,,,129789,,129797,2021-10-25T18:20:36.197Z,129867.04,1635185877,full,ni_sequenzen,NI_Sequenzen,,,,,,,,,,,,,,
,Screen_6,canvas.Screen,0_2_26_5,,skipped,27,129798,,,129789,,129798,2021-10-25T18:20:36.198Z,129867.04,1635185877,full,ni_sequenzen,NI_Sequenzen,,,,,,,,,,,,,,
,Sequence,flow.Sequence,0_2_26,,completion,27,129789,,,129789,,129798,2021-10-25T18:20:36.198Z,129867.04,1635185877,full,ni_sequenzen,NI_Sequenzen,,,,,,,,,,,,,,
,Screen_1,canvas.Screen,0_2_27_0,,skipped,28,129800,,,129800,,129800,2021-10-25T18:20:36.201Z,129867.04,1635185877,full,ni_sequenzen,NI_Sequenzen,,,,,,,,,,,,,,
,Screen_2,canvas.Screen,0_2_27_1,,skipped,28,129802,,,129800,,129802,2021-10-25T18:20:36.201Z,129867.04,1635185877,full,ni_sequenzen,NI_Sequenzen,,,,,,,,,,,,,,
,Screen_3,canvas.Screen,0_2_27_2,,skipped,28,129803,,,129800,,129804,2021-10-25T18:20:36.203Z,129867.04,1635185877,full,ni_sequenzen,NI_Sequenzen,,,,,,,,,,,,,,
,Screen_4,canvas.Screen,0_2_27_3,,skipped,28,129805,,,129800,,129805,2021-10-25T18:20:36.205Z,129867.04,1635185877,full,ni_sequenzen,NI_Sequenzen,,,,,,,,,,,,,,
,Screen_5,canvas.Screen,0_2_27_4,,skipped,28,129807,,,129800,,129807,2021-10-25T18:20:36.207Z,129867.04,1635185877,full,ni_sequenzen,NI_Sequenzen,,,,,,,,,,,,,,
,Screen_6,canvas.Screen,0_2_27_5,,skipped,28,129808,,,129800,,129808,2021-10-25T18:20:36.208Z,129867.04,1635185877,full,ni_sequenzen,NI_Sequenzen,,,,,,,,,,,,,,
,Sequence,flow.Sequence,0_2_27,,completion,28,129798,,,129800,,129808,2021-10-25T18:20:36.208Z,129867.04,1635185877,full,ni_sequenzen,NI_Sequenzen,,,,,,,,,,,,,,
,Screen_1,canvas.Screen,0_2_28_0,,skipped,29,129811,,,129811,,129811,2021-10-25T18:20:36.210Z,129867.04,1635185877,full,ni_sequenzen,NI_Sequenzen,,,,,,,,,,,,,,
,Screen_2,canvas.Screen,0_2_28_1,,skipped,29,129812,,,129811,,129812,2021-10-25T18:20:36.212Z,129867.04,1635185877,full,ni_sequenzen,NI_Sequenzen,,,,,,,,,,,,,,
,Screen_3,canvas.Screen,0_2_28_2,,skipped,29,129814,,,129811,,129814,2021-10-25T18:20:36.213Z,129867.04,1635185877,full,ni_sequenzen,NI_Sequenzen,,,,,,,,,,,,,,
,Screen_4,canvas.Screen,0_2_28_3,,skipped,29,129816,,,129811,,129816,2021-10-25T18:20:36.215Z,129867.04,1635185877,full,ni_sequenzen,NI_Sequenzen,,,,,,,,,,,,,,
,Screen_5,canvas.Screen,0_2_28_4,,skipped,29,129817,,,129811,,129817,2021-10-25T18:20:36.217Z,129867.04,1635185877,full,ni_sequenzen,NI_Sequenzen,,,,,,,,,,,,,,
,Screen_6,canvas.Screen,0_2_28_5,,skipped,29,129818,,,129811,,129818,2021-10-25T18:20:36.218Z,129867.04,1635185877,full,ni_sequenzen,NI_Sequenzen,,,,,,,,,,,,,,
,Sequence,flow.Sequence,0_2_28,,completion,29,129809,,,129811,,129818,2021-10-25T18:20:36.219Z,129867.04,1635185877,full,ni_sequenzen,NI_Sequenzen,,,,,,,,,,,,,,
,Screen_1,canvas.Screen,0_2_29_0,,skipped,30,129820,,,129820,,129820,2021-10-25T18:20:36.220Z,129867.04,1635185877,full,ni_sequenzen,NI_Sequenzen,,,,,,,,,,,,,,
,Screen_2,canvas.Screen,0_2_29_1,,skipped,30,129822,,,129820,,129822,2021-10-25T18:20:36.222Z,129867.04,1635185877,full,ni_sequenzen,NI_Sequenzen,,,,,,,,,,,,,,
,Screen_3,canvas.Screen,0_2_29_2,,skipped,30,129823,,,129820,,129823,2021-10-25T18:20:36.224Z,129867.04,1635185877,full,ni_sequenzen,NI_Sequenzen,,,,,,,,,,,,,,
,Screen_4,canvas.Screen,0_2_29_3,,skipped,30,129825,,,129820,,129825,2021-10-25T18:20:36.225Z,129867.04,1635185877,full,ni_sequenzen,NI_Sequenzen,,,,,,,,,,,,,,
,Screen_5,canvas.Screen,0_2_29_4,,skipped,30,129827,,,129820,,129827,2021-10-25T18:20:36.226Z,129867.04,1635185877,full,ni_sequenzen,NI_Sequenzen,,,,,,,,,,,,,,
,Screen_6,canvas.Screen,0_2_29_5,,skipped,30,129828,,,129820,,129828,2021-10-25T18:20:36.228Z,129867.04,1635185877,full,ni_sequenzen,NI_Sequenzen,,,,,,,,,,,,,,
,Sequence,flow.Sequence,0_2_29,,completion,30,129819,,,129820,,129828,2021-10-25T18:20:36.228Z,129867.04,1635185877,full,ni_sequenzen,NI_Sequenzen,,,,,,,,,,,,,,
,Instructions_II,flow.Loop,0_2,,completion,,105578,105580.38,105588.6,129820,24231.399999999994,129829,2021-10-25T18:20:36.228Z,129867.04,1635185877,full,ni_sequenzen,NI_Sequenzen,,,,,,,,,,,,,,
,Move,canvas.Screen,0_3_0_0_0_0,down,response,,129863,129863.5,129867.04,136468,6600.960000000006,136480,2021-10-25T18:20:42.880Z,136500.98,1635185877,full,ni_sequenzen,NI_Sequenzen,1,0,,,,,,,,,,,,
,Move,canvas.Screen,0_3_0_0_0_1,right,response,,136500,136500.6,136500.98,137639,1138.0199999999895,137647,2021-10-25T18:20:44.048Z,137666.32,1635185877,full,ni_sequenzen,NI_Sequenzen,2,0,,,,,,,,,,,,
,Move,canvas.Screen,0_3_0_0_0_2,right,response,,137666,137665.82,137666.32,138561,894.679999999993,138576,2021-10-25T18:20:44.976Z,138592.28,1635185877,full,ni_sequenzen,NI_Sequenzen,3,0,,,,,,,,,,,,
,Move,canvas.Screen,0_3_0_0_0_3,down,response,,138592,138591.8,138592.28,139718,1125.7200000000012,139729,2021-10-25T18:20:46.129Z,139843.04,1635185877,full,ni_sequenzen,NI_Sequenzen,4,0,,,,,,,,,,,,
,Move,canvas.Screen,0_3_0_0_0_4,-999,skipped,,139745,,,139718,,139745,2021-10-25T18:20:46.144Z,139843.04,1635185877,full,ni_sequenzen,NI_Sequenzen,5,0,,,,,,,,,,,,
,Move,canvas.Screen,0_3_0_0_0_5,-999,skipped,,139758,,,139718,,139758,2021-10-25T18:20:46.158Z,139843.04,1635185877,full,ni_sequenzen,NI_Sequenzen,6,0,,,,,,,,,,,,
,Move,canvas.Screen,0_3_0_0_0_6,-999,skipped,,139771,,,139718,,139771,2021-10-25T18:20:46.171Z,139843.04,1635185877,full,ni_sequenzen,NI_Sequenzen,7,0,,,,,,,,,,,,
,Move,canvas.Screen,0_3_0_0_0_7,-999,skipped,,139783,,,139718,,139783,2021-10-25T18:20:46.184Z,139843.04,1635185877,full,ni_sequenzen,NI_Sequenzen,8,0,,,,,,,,,,,,
,Move,canvas.Screen,0_3_0_0_0_8,-999,skipped,,139796,,,139718,,139796,2021-10-25T18:20:46.196Z,139843.04,1635185877,full,ni_sequenzen,NI_Sequenzen,9,0,,,,,,,,,,,,
,Move,canvas.Screen,0_3_0_0_0_9,-999,skipped,,139803,,,139718,,139803,2021-10-25T18:20:46.203Z,139843.04,1635185877,full,ni_sequenzen,NI_Sequenzen,10,0,,,,,,,,,,,,
,Move,canvas.Screen,0_3_0_0_0_10,-999,skipped,,139811,,,139718,,139811,2021-10-25T18:20:46.211Z,139843.04,1635185877,full,ni_sequenzen,NI_Sequenzen,11,0,,,,,,,,,,,,
,Move,canvas.Screen,0_3_0_0_0_11,-999,skipped,,139818,,,139718,,139818,2021-10-25T18:20:46.218Z,139843.04,1635185877,full,ni_sequenzen,NI_Sequenzen,12,0,,,,,,,,,,,,
,Move,canvas.Screen,0_3_0_0_0_12,-999,skipped,,139824,,,139718,,139825,2021-10-25T18:20:46.224Z,139843.04,1635185877,full,ni_sequenzen,NI_Sequenzen,13,0,,,,,,,,,,,,
,Move,canvas.Screen,0_3_0_0_0_13,-999,skipped,,139831,,,139718,,139831,2021-10-25T18:20:46.231Z,139843.04,1635185877,full,ni_sequenzen,NI_Sequenzen,14,0,,,,,,,,,,,,
,Move,canvas.Screen,0_3_0_0_0_14,-999,skipped,,139837,,,139718,,139837,2021-10-25T18:20:46.238Z,139843.04,1635185877,full,ni_sequenzen,NI_Sequenzen,15,0,,,,,,,,,,,,
,Loop,flow.Loop,0_3_0_0_0,-999,completion,,129855,129863.5,129867.04,139718,9850.960000000006,139838,2021-10-25T18:20:46.238Z,139843.04,1635185877,full,ni_sequenzen,NI_Sequenzen,,0,,,,,,,,,,,,
,Feedback,canvas.Screen,0_3_0_0_1,,timeout,,139843,139842.68,139843.04,143831.08,4017.6199999999953,143832,2021-10-25T18:20:50.233Z,143860.66,1635185877,full,ni_sequenzen,NI_Sequenzen,,0,,,,,,,,,,,,
,Trial,flow.Sequence,0_3_0_0,,completion,,129846,129863.5,129867.04,143831.08,13964.039999999994,143832,2021-10-25T18:20:50.233Z,143864.3,1635185877,full,ni_sequenzen,NI_Sequenzen,,0,,,,,,,,,,,,
,Move,canvas.Screen,0_3_0_1_0_0,right,response,,143861,143860.66,143864.3,146858,2993.7000000000116,146883,2021-10-25T18:20:53.282Z,146896.98,1635185877,full,ni_sequenzen,NI_Sequenzen,1,1,,,,,,,,,,,,
,Move,canvas.Screen,0_3_0_1_0_1,down,response,,146897,146896.62,146896.98,147296,399.0199999999895,147313,2021-10-25T18:20:53.712Z,147330.28,1635185877,full,ni_sequenzen,NI_Sequenzen,2,1,,,,,,,,,,,,
,Move,canvas.Screen,0_3_0_1_0_2,down,response,,147328,147327.88,147330.28,148844,1513.7200000000012,148851,2021-10-25T18:20:55.251Z,148865.68,1635185877,full,ni_sequenzen,NI_Sequenzen,3,1,,,,,,,,,,,,
,Move,canvas.Screen,0_3_0_1_0_3,right,response,,148866,148865.22,148865.68,149186,320.320000000007,149201,2021-10-25T18:20:55.600Z,149300.94,1635185877,full,ni_sequenzen,NI_Sequenzen,4,1,,,,,,,,,,,,
,Move,canvas.Screen,0_3_0_1_0_4,-999,skipped,,149216,,,149186,,149217,2021-10-25T18:20:55.617Z,149300.94,1635185877,full,ni_sequenzen,NI_Sequenzen,5,1,,,,,,,,,,,,
,Move,canvas.Screen,0_3_0_1_0_5,-999,skipped,,149229,,,149186,,149229,2021-10-25T18:20:55.629Z,149300.94,1635185877,full,ni_sequenzen,NI_Sequenzen,6,1,,,,,,,,,,,,
,Move,canvas.Screen,0_3_0_1_0_6,-999,skipped,,149241,,,149186,,149241,2021-10-25T18:20:55.641Z,149300.94,1635185877,full,ni_sequenzen,NI_Sequenzen,7,1,,,,,,,,,,,,
,Move,canvas.Screen,0_3_0_1_0_7,-999,skipped,,149252,,,149186,,149252,2021-10-25T18:20:55.652Z,149300.94,1635185877,full,ni_sequenzen,NI_Sequenzen,8,1,,,,,,,,,,,,
,Move,canvas.Screen,0_3_0_1_0_8,-999,skipped,,149259,,,149186,,149259,2021-10-25T18:20:55.659Z,149300.94,1635185877,full,ni_sequenzen,NI_Sequenzen,9,1,,,,,,,,,,,,
,Move,canvas.Screen,0_3_0_1_0_9,-999,skipped,,149265,,,149186,,149265,2021-10-25T18:20:55.665Z,149300.94,1635185877,full,ni_sequenzen,NI_Sequenzen,10,1,,,,,,,,,,,,
,Move,canvas.Screen,0_3_0_1_0_10,-999,skipped,,149271,,,149186,,149271,2021-10-25T18:20:55.671Z,149300.94,1635185877,full,ni_sequenzen,NI_Sequenzen,11,1,,,,,,,,,,,,
,Move,canvas.Screen,0_3_0_1_0_11,-999,skipped,,149277,,,149186,,149277,2021-10-25T18:20:55.678Z,149300.94,1635185877,full,ni_sequenzen,NI_Sequenzen,12,1,,,,,,,,,,,,
,Move,canvas.Screen,0_3_0_1_0_12,-999,skipped,,149284,,,149186,,149284,2021-10-25T18:20:55.683Z,149300.94,1635185877,full,ni_sequenzen,NI_Sequenzen,13,1,,,,,,,,,,,,
,Move,canvas.Screen,0_3_0_1_0_13,-999,skipped,,149289,,,149186,,149289,2021-10-25T18:20:55.690Z,149300.94,1635185877,full,ni_sequenzen,NI_Sequenzen,14,1,,,,,,,,,,,,
,Move,canvas.Screen,0_3_0_1_0_14,-999,skipped,,149296,,,149186,,149296,2021-10-25T18:20:55.695Z,149300.94,1635185877,full,ni_sequenzen,NI_Sequenzen,15,1,,,,,,,,,,,,
,Loop,flow.Loop,0_3_0_1_0,-999,completion,,143848,143860.66,143864.3,149186,5321.700000000012,149296,2021-10-25T18:20:55.696Z,149300.94,1635185877,full,ni_sequenzen,NI_Sequenzen,,1,,,,,,,,,,,,
,Feedback,canvas.Screen,0_3_0_1_1,,timeout,,149300,149300.58,149300.94,153279.16,4006.139999999985,153281,2021-10-25T18:20:59.681Z,153307.08,1635185877,full,ni_sequenzen,NI_Sequenzen,,1,,,,,,,,,,,,
,Trial,flow.Sequence,0_3_0_1,,completion,,143833,143860.66,143864.3,153279.16,9414.860000000015,153281,2021-10-25T18:20:59.681Z,153312.42,1635185877,full,ni_sequenzen,NI_Sequenzen,,1,,,,,,,,,,,,
,Move,canvas.Screen,0_3_0_2_0_0,down,response,,153308,153307.08,153312.42,155218,1905.5799999999872,155246,2021-10-25T18:21:01.646Z,155259.06,1635185877,full,ni_sequenzen,NI_Sequenzen,1,2,,,,,,,,,,,,
,Move,canvas.Screen,0_3_0_2_0_1,left,response,,155259,155258.58,155259.06,155921,661.9400000000023,155930,2021-10-25T18:21:02.330Z,155963.7,1635185877,full,ni_sequenzen,NI_Sequenzen,2,2,,,,,,,,,,,,
,Move,canvas.Screen,0_3_0_2_0_2,down,response,,155964,155963.38,155963.7,156936,972.2999999999884,156941,2021-10-25T18:21:03.340Z,156967.08,1635185877,full,ni_sequenzen,NI_Sequenzen,3,2,,,,,,,,,,,,
,Move,canvas.Screen,0_3_0_2_0_3,left,response,,156967,156966.6,156967.08,157264,296.9200000000128,157271,2021-10-25T18:21:03.670Z,157411.72,1635185877,full,ni_sequenzen,NI_Sequenzen,4,2,,,,,,,,,,,,
,Move,canvas.Screen,0_3_0_2_0_4,-999,skipped,,157294,,,157264,,157296,2021-10-25T18:21:03.696Z,157411.72,1635185877,full,ni_sequenzen,NI_Sequenzen,5,2,,,,,,,,,,,,
,Move,canvas.Screen,0_3_0_2_0_5,-999,skipped,,157315,,,157264,,157316,2021-10-25T18:21:03.715Z,157411.72,1635185877,full,ni_sequenzen,NI_Sequenzen,6,2,,,,,,,,,,,,
,Move,canvas.Screen,0_3_0_2_0_6,-999,skipped,,157332,,,157264,,157332,2021-10-25T18:21:03.732Z,157411.72,1635185877,full,ni_sequenzen,NI_Sequenzen,7,2,,,,,,,,,,,,
,Move,canvas.Screen,0_3_0_2_0_7,-999,skipped,,157344,,,157264,,157344,2021-10-25T18:21:03.745Z,157411.72,1635185877,full,ni_sequenzen,NI_Sequenzen,8,2,,,,,,,,,,,,
,Move,canvas.Screen,0_3_0_2_0_8,-999,skipped,,157355,,,157264,,157355,2021-10-25T18:21:03.755Z,157411.72,1635185877,full,ni_sequenzen,NI_Sequenzen,9,2,,,,,,,,,,,,
,Move,canvas.Screen,0_3_0_2_0_9,-999,skipped,,157365,,,157264,,157365,2021-10-25T18:21:03.766Z,157411.72,1635185877,full,ni_sequenzen,NI_Sequenzen,10,2,,,,,,,,,,,,
,Move,canvas.Screen,0_3_0_2_0_10,-999,skipped,,157374,,,157264,,157374,2021-10-25T18:21:03.775Z,157411.72,1635185877,full,ni_sequenzen,NI_Sequenzen,11,2,,,,,,,,,,,,
,Move,canvas.Screen,0_3_0_2_0_11,-999,skipped,,157383,,,157264,,157383,2021-10-25T18:21:03.783Z,157411.72,1635185877,full,ni_sequenzen,NI_Sequenzen,12,2,,,,,,,,,,,,
,Move,canvas.Screen,0_3_0_2_0_12,-999,skipped,,157391,,,157264,,157391,2021-10-25T18:21:03.791Z,157411.72,1635185877,full,ni_sequenzen,NI_Sequenzen,13,2,,,,,,,,,,,,
,Move,canvas.Screen,0_3_0_2_0_13,-999,skipped,,157397,,,157264,,157397,2021-10-25T18:21:03.797Z,157411.72,1635185877,full,ni_sequenzen,NI_Sequenzen,14,2,,,,,,,,,,,,
,Move,canvas.Screen,0_3_0_2_0_14,-999,skipped,,157404,,,157264,,157404,2021-10-25T18:21:03.805Z,157411.72,1635185877,full,ni_sequenzen,NI_Sequenzen,15,2,,,,,,,,,,,,
,Loop,flow.Loop,0_3_0_2_0,-999,completion,,153294,153307.08,153312.42,157264,3951.579999999987,157405,2021-10-25T18:21:03.805Z,157411.72,1635185877,full,ni_sequenzen,NI_Sequenzen,,2,,,,,,,,,,,,
,Feedback,canvas.Screen,0_3_0_2_1,,timeout,,157410,157410.24,157411.72,161394.26,4056.2600000000093,161397,2021-10-25T18:21:07.797Z,161467.98,1635185877,full,ni_sequenzen,NI_Sequenzen,,2,,,,,,,,,,,,
,Trial,flow.Sequence,0_3_0_2,,completion,,153281,153307.08,153312.42,161394.26,8081.8399999999965,161400,2021-10-25T18:21:07.800Z,161477.42,1635185877,full,ni_sequenzen,NI_Sequenzen,,2,,,,,,,,,,,,
,Move,canvas.Screen,0_3_0_3_0_0,down,response,,161468,161467.98,161477.42,162530,1052.5799999999872,162547,2021-10-25T18:21:08.947Z,162577.42,1635185877,full,ni_sequenzen,NI_Sequenzen,1,3,,,,,,,,,,,,
,Move,canvas.Screen,0_3_0_3_0_1,right,response,,162574,162573.34,162577.42,163124,546.5799999999872,163140,2021-10-25T18:21:09.541Z,163152.62,1635185877,full,ni_sequenzen,NI_Sequenzen,2,3,,,,,,,,,,,,
,Move,canvas.Screen,0_3_0_3_0_2,left,response,,163152,163152.28,163152.62,164218,1065.3800000000047,164228,2021-10-25T18:21:10.628Z,164251.54,1635185877,full,ni_sequenzen,NI_Sequenzen,3,3,,,,,,,,,,,,
,Move,canvas.Screen,0_3_0_3_0_3,down,response,,164251,164251.22,164251.54,165124,872.4599999999919,165139,2021-10-25T18:21:11.539Z,165159.68,1635185877,full,ni_sequenzen,NI_Sequenzen,4,3,,,,,,,,,,,,
,Move,canvas.Screen,0_3_0_3_0_4,left,response,,165159,165159.16,165159.68,170436,5276.320000000007,170450,2021-10-25T18:21:16.850Z,170531.46,1635185877,full,ni_sequenzen,NI_Sequenzen,5,3,,,,,,,,,,,,
,Move,canvas.Screen,0_3_0_3_0_5,-999,skipped,,170458,,,170436,,170458,2021-10-25T18:21:16.859Z,170531.46,1635185877,full,ni_sequenzen,NI_Sequenzen,6,3,,,,,,,,,,,,
,Move,canvas.Screen,0_3_0_3_0_6,-999,skipped,,170466,,,170436,,170466,2021-10-25T18:21:16.866Z,170531.46,1635185877,full,ni_sequenzen,NI_Sequenzen,7,3,,,,,,,,,,,,
,Move,canvas.Screen,0_3_0_3_0_7,-999,skipped,,170473,,,170436,,170473,2021-10-25T18:21:16.873Z,170531.46,1635185877,full,ni_sequenzen,NI_Sequenzen,8,3,,,,,,,,,,,,
,Move,canvas.Screen,0_3_0_3_0_8,-999,skipped,,170480,,,170436,,170481,2021-10-25T18:21:16.881Z,170531.46,1635185877,full,ni_sequenzen,NI_Sequenzen,9,3,,,,,,,,,,,,
,Move,canvas.Screen,0_3_0_3_0_9,-999,skipped,,170488,,,170436,,170488,2021-10-25T18:21:16.888Z,170531.46,1635185877,full,ni_sequenzen,NI_Sequenzen,10,3,,,,,,,,,,,,
,Move,canvas.Screen,0_3_0_3_0_10,-999,skipped,,170495,,,170436,,170496,2021-10-25T18:21:16.895Z,170531.46,1635185877,full,ni_sequenzen,NI_Sequenzen,11,3,,,,,,,,,,,,
,Move,canvas.Screen,0_3_0_3_0_11,-999,skipped,,170504,,,170436,,170504,2021-10-25T18:21:16.904Z,170531.46,1635185877,full,ni_sequenzen,NI_Sequenzen,12,3,,,,,,,,,,,,
,Move,canvas.Screen,0_3_0_3_0_12,-999,skipped,,170511,,,170436,,170511,2021-10-25T18:21:16.910Z,170531.46,1635185877,full,ni_sequenzen,NI_Sequenzen,13,3,,,,,,,,,,,,
,Move,canvas.Screen,0_3_0_3_0_13,-999,skipped,,170518,,,170436,,170518,2021-10-25T18:21:16.918Z,170531.46,1635185877,full,ni_sequenzen,NI_Sequenzen,14,3,,,,,,,,,,,,
,Move,canvas.Screen,0_3_0_3_0_14,-999,skipped,,170525,,,170436,,170525,2021-10-25T18:21:16.924Z,170531.46,1635185877,full,ni_sequenzen,NI_Sequenzen,15,3,,,,,,,,,,,,
,Loop,flow.Loop,0_3_0_3_0,-999,completion,,161442,161467.98,161477.42,170436,8958.579999999987,170525,2021-10-25T18:21:16.925Z,170531.46,1635185877,full,ni_sequenzen,NI_Sequenzen,,3,,,,,,,,,,,,
,Feedback,canvas.Screen,0_3_0_3_1,,timeout,,170531,170531.1,170531.46,174508.42,4019.540000000008,174509,2021-10-25T18:21:20.910Z,174551,1635185877,full,ni_sequenzen,NI_Sequenzen,,3,,,,,,,,,,,,
,Trial,flow.Sequence,0_3_0_3,,completion,,161404,161467.98,161477.42,174508.42,13031,174510,2021-10-25T18:21:20.910Z,174558.24,1635185877,full,ni_sequenzen,NI_Sequenzen,,3,,,,,,,,,,,,
,Move,canvas.Screen,0_3_0_4_0_0,down,response,,174551,174551,174558.24,175327,768.7600000000093,175343,2021-10-25T18:21:21.744Z,175354.52,1635185877,full,ni_sequenzen,NI_Sequenzen,1,4,,,,,,,,,,,,
,Move,canvas.Screen,0_3_0_4_0_1,left,response,,175354,175354.16,175354.52,175780,425.4800000000105,175795,2021-10-25T18:21:22.195Z,175810.8,1635185877,full,ni_sequenzen,NI_Sequenzen,2,4,,,,,,,,,,,,
,Move,canvas.Screen,0_3_0_4_0_2,right,response,,175810,175810.44,175810.8,178281,2470.2000000000116,178291,2021-10-25T18:21:24.691Z,178308.14,1635185877,full,ni_sequenzen,NI_Sequenzen,3,4,,,,,,,,,,,,
,Move,canvas.Screen,0_3_0_4_0_3,right,response,,178308,178307.74,178308.14,179828,1519.859999999986,179840,2021-10-25T18:21:26.241Z,179954.38,1635185877,full,ni_sequenzen,NI_Sequenzen,4,4,,,,,,,,,,,,
,Move,canvas.Screen,0_3_0_4_0_4,-999,skipped,,179858,,,179828,,179859,2021-10-25T18:21:26.259Z,179954.38,1635185877,full,ni_sequenzen,NI_Sequenzen,5,4,,,,,,,,,,,,
,Move,canvas.Screen,0_3_0_4_0_5,-999,skipped,,179875,,,179828,,179875,2021-10-25T18:21:26.274Z,179954.38,1635185877,full,ni_sequenzen,NI_Sequenzen,6,4,,,,,,,,,,,,
,Move,canvas.Screen,0_3_0_4_0_6,-999,skipped,,179887,,,179828,,179887,2021-10-25T18:21:26.287Z,179954.38,1635185877,full,ni_sequenzen,NI_Sequenzen,7,4,,,,,,,,,,,,
,Move,canvas.Screen,0_3_0_4_0_7,-999,skipped,,179899,,,179828,,179899,2021-10-25T18:21:26.299Z,179954.38,1635185877,full,ni_sequenzen,NI_Sequenzen,8,4,,,,,,,,,,,,
,Move,canvas.Screen,0_3_0_4_0_8,-999,skipped,,179907,,,179828,,179907,2021-10-25T18:21:26.307Z,179954.38,1635185877,full,ni_sequenzen,NI_Sequenzen,9,4,,,,,,,,,,,,
,Move,canvas.Screen,0_3_0_4_0_9,-999,skipped,,179914,,,179828,,179914,2021-10-25T18:21:26.314Z,179954.38,1635185877,full,ni_sequenzen,NI_Sequenzen,10,4,,,,,,,,,,,,
,Move,canvas.Screen,0_3_0_4_0_10,-999,skipped,,179921,,,179828,,179921,2021-10-25T18:21:26.321Z,179954.38,1635185877,full,ni_sequenzen,NI_Sequenzen,11,4,,,,,,,,,,,,
,Move,canvas.Screen,0_3_0_4_0_11,-999,skipped,,179928,,,179828,,179928,2021-10-25T18:21:26.328Z,179954.38,1635185877,full,ni_sequenzen,NI_Sequenzen,12,4,,,,,,,,,,,,
,Move,canvas.Screen,0_3_0_4_0_12,-999,skipped,,179935,,,179828,,179936,2021-10-25T18:21:26.336Z,179954.38,1635185877,full,ni_sequenzen,NI_Sequenzen,13,4,,,,,,,,,,,,
,Move,canvas.Screen,0_3_0_4_0_13,-999,skipped,,179941,,,179828,,179942,2021-10-25T18:21:26.342Z,179954.38,1635185877,full,ni_sequenzen,NI_Sequenzen,14,4,,,,,,,,,,,,
,Move,canvas.Screen,0_3_0_4_0_14,-999,skipped,,179948,,,179828,,179948,2021-10-25T18:21:26.349Z,179954.38,1635185877,full,ni_sequenzen,NI_Sequenzen,15,4,,,,,,,,,,,,
,Loop,flow.Loop,0_3_0_4_0,-999,completion,,174537,174551,174558.24,179828,5269.760000000009,179948,2021-10-25T18:21:26.349Z,179954.38,1635185877,full,ni_sequenzen,NI_Sequenzen,,4,,,,,,,,,,,,
,Feedback,canvas.Screen,0_3_0_4_1,,timeout,,179954,179953.88,179954.38,183939.68,4020.220000000001,183940,2021-10-25T18:21:30.341Z,183974.6,1635185877,full,ni_sequenzen,NI_Sequenzen,,4,,,,,,,,,,,,
,Trial,flow.Sequence,0_3_0_4,,completion,,174511,174551,174558.24,183939.68,9381.440000000002,183941,2021-10-25T18:21:30.341Z,183989.66,1635185877,full,ni_sequenzen,NI_Sequenzen,,4,,,,,,,,,,,,
,Move,canvas.Screen,0_3_0_5_0_0,down,response,,183975,183974.6,183989.66,190999,7009.3399999999965,191003,2021-10-25T18:21:37.403Z,191017.76,1635185877,full,ni_sequenzen,NI_Sequenzen,1,5,,,,,,,,,,,,
,Move,canvas.Screen,0_3_0_5_0_1,left,response,,191017,191017.26,191017.76,193284,2266.2399999999907,193294,2021-10-25T18:21:39.694Z,193309.02,1635185877,full,ni_sequenzen,NI_Sequenzen,2,5,,,,,,,,,,,,
,Move,canvas.Screen,0_3_0_5_0_2,left,response,,193308,193308.56,193309.02,197472,4162.9800000000105,197478,2021-10-25T18:21:43.878Z,197493.66,1635185877,full,ni_sequenzen,NI_Sequenzen,3,5,,,,,,,,,,,,
,Move,canvas.Screen,0_3_0_5_0_3,down,response,,197493,197493.18,197493.66,197925,431.3399999999965,197926,2021-10-25T18:21:44.326Z,198001.16,1635185877,full,ni_sequenzen,NI_Sequenzen,4,5,,,,,,,,,,,,
,Move,canvas.Screen,0_3_0_5_0_4,-999,skipped,,197933,,,197925,,197933,2021-10-25T18:21:44.334Z,198001.16,1635185877,full,ni_sequenzen,NI_Sequenzen,5,5,,,,,,,,,,,,
,Move,canvas.Screen,0_3_0_5_0_5,-999,skipped,,197939,,,197925,,197939,2021-10-25T18:21:44.340Z,198001.16,1635185877,full,ni_sequenzen,NI_Sequenzen,6,5,,,,,,,,,,,,
,Move,canvas.Screen,0_3_0_5_0_6,-999,skipped,,197946,,,197925,,197946,2021-10-25T18:21:44.345Z,198001.16,1635185877,full,ni_sequenzen,NI_Sequenzen,7,5,,,,,,,,,,,,
,Move,canvas.Screen,0_3_0_5_0_7,-999,skipped,,197951,,,197925,,197951,2021-10-25T18:21:44.352Z,198001.16,1635185877,full,ni_sequenzen,NI_Sequenzen,8,5,,,,,,,,,,,,
,Move,canvas.Screen,0_3_0_5_0_8,-999,skipped,,197957,,,197925,,197957,2021-10-25T18:21:44.357Z,198001.16,1635185877,full,ni_sequenzen,NI_Sequenzen,9,5,,,,,,,,,,,,
,Move,canvas.Screen,0_3_0_5_0_9,-999,skipped,,197964,,,197925,,197964,2021-10-25T18:21:44.363Z,198001.16,1635185877,full,ni_sequenzen,NI_Sequenzen,10,5,,,,,,,,,,,,
,Move,canvas.Screen,0_3_0_5_0_10,-999,skipped,,197971,,,197925,,197971,2021-10-25T18:21:44.370Z,198001.16,1635185877,full,ni_sequenzen,NI_Sequenzen,11,5,,,,,,,,,,,,
,Move,canvas.Screen,0_3_0_5_0_11,-999,skipped,,197977,,,197925,,197977,2021-10-25T18:21:44.378Z,198001.16,1635185877,full,ni_sequenzen,NI_Sequenzen,12,5,,,,,,,,,,,,
,Move,canvas.Screen,0_3_0_5_0_12,-999,skipped,,197983,,,197925,,197984,2021-10-25T18:21:44.383Z,198001.16,1635185877,full,ni_sequenzen,NI_Sequenzen,13,5,,,,,,,,,,,,
,Move,canvas.Screen,0_3_0_5_0_13,-999,skipped,,197989,,,197925,,197989,2021-10-25T18:21:44.389Z,198001.16,1635185877,full,ni_sequenzen,NI_Sequenzen,14,5,,,,,,,,,,,,
,Move,canvas.Screen,0_3_0_5_0_14,-999,skipped,,197995,,,197925,,197995,2021-10-25T18:21:44.395Z,198001.16,1635185877,full,ni_sequenzen,NI_Sequenzen,15,5,,,,,,,,,,,,
,Loop,flow.Loop,0_3_0_5_0,-999,completion,,183962,183974.6,183989.66,197925,13935.339999999997,197995,2021-10-25T18:21:44.396Z,198001.16,1635185877,full,ni_sequenzen,NI_Sequenzen,,5,,,,,,,,,,,,
,Feedback,canvas.Screen,0_3_0_5_1,,timeout,,198001,198000.84,198001.16,201986.16,4001.639999999985,201987,2021-10-25T18:21:48.387Z,202002.8,1635185877,full,ni_sequenzen,NI_Sequenzen,,5,,,,,,,,,,,,
,Trial,flow.Sequence,0_3_0_5,,completion,,183942,183974.6,183989.66,201986.16,17996.5,201987,2021-10-25T18:21:48.387Z,202019.46,1635185877,full,ni_sequenzen,NI_Sequenzen,,5,,,,,,,,,,,,
,Move,canvas.Screen,0_3_0_6_0_0,right,response,,202001,202002.8,202019.46,210472,8452.540000000008,210480,2021-10-25T18:21:56.879Z,210493.8,1635185877,full,ni_sequenzen,NI_Sequenzen,1,6,,,,,,,,,,,,
,Move,canvas.Screen,0_3_0_6_0_1,down,response,,210494,210493.52,210493.8,211034,540.2000000000116,211050,2021-10-25T18:21:57.451Z,211065.2,1635185877,full,ni_sequenzen,NI_Sequenzen,2,6,,,,,,,,,,,,
,Move,canvas.Screen,0_3_0_6_0_2,right,response,,211065,211064.7,211065.2,211690,624.7999999999884,211713,2021-10-25T18:21:58.113Z,211727.34,1635185877,full,ni_sequenzen,NI_Sequenzen,3,6,,,,,,,,,,,,
,Move,canvas.Screen,0_3_0_6_0_3,down,response,,211727,211726.78,211727.34,212034,306.6600000000035,212049,2021-10-25T18:21:58.449Z,212147,1635185877,full,ni_sequenzen,NI_Sequenzen,4,6,,,,,,,,,,,,
,Move,canvas.Screen,0_3_0_6_0_4,-999,skipped,,212063,,,212034,,212063,2021-10-25T18:21:58.463Z,212147,1635185877,full,ni_sequenzen,NI_Sequenzen,5,6,,,,,,,,,,,,
,Move,canvas.Screen,0_3_0_6_0_5,-999,skipped,,212075,,,212034,,212076,2021-10-25T18:21:58.475Z,212147,1635185877,full,ni_sequenzen,NI_Sequenzen,6,6,,,,,,,,,,,,
,Move,canvas.Screen,0_3_0_6_0_6,-999,skipped,,212088,,,212034,,212088,2021-10-25T18:21:58.488Z,212147,1635185877,full,ni_sequenzen,NI_Sequenzen,7,6,,,,,,,,,,,,
,Move,canvas.Screen,0_3_0_6_0_7,-999,skipped,,212099,,,212034,,212099,2021-10-25T18:21:58.498Z,212147,1635185877,full,ni_sequenzen,NI_Sequenzen,8,6,,,,,,,,,,,,
,Move,canvas.Screen,0_3_0_6_0_8,-999,skipped,,212105,,,212034,,212105,2021-10-25T18:21:58.506Z,212147,1635185877,full,ni_sequenzen,NI_Sequenzen,9,6,,,,,,,,,,,,
,Move,canvas.Screen,0_3_0_6_0_9,-999,skipped,,212113,,,212034,,212113,2021-10-25T18:21:58.512Z,212147,1635185877,full,ni_sequenzen,NI_Sequenzen,10,6,,,,,,,,,,,,
,Move,canvas.Screen,0_3_0_6_0_10,-999,skipped,,212118,,,212034,,212118,2021-10-25T18:21:58.519Z,212147,1635185877,full,ni_sequenzen,NI_Sequenzen,11,6,,,,,,,,,,,,
,Move,canvas.Screen,0_3_0_6_0_11,-999,skipped,,212124,,,212034,,212124,2021-10-25T18:21:58.524Z,212147,1635185877,full,ni_sequenzen,NI_Sequenzen,12,6,,,,,,,,,,,,
,Move,canvas.Screen,0_3_0_6_0_12,-999,skipped,,212130,,,212034,,212130,2021-10-25T18:21:58.530Z,212147,1635185877,full,ni_sequenzen,NI_Sequenzen,13,6,,,,,,,,,,,,
,Move,canvas.Screen,0_3_0_6_0_13,-999,skipped,,212136,,,212034,,212136,2021-10-25T18:21:58.536Z,212147,1635185877,full,ni_sequenzen,NI_Sequenzen,14,6,,,,,,,,,,,,
,Move,canvas.Screen,0_3_0_6_0_14,-999,skipped,,212141,,,212034,,212141,2021-10-25T18:21:58.541Z,212147,1635185877,full,ni_sequenzen,NI_Sequenzen,15,6,,,,,,,,,,,,
,Loop,flow.Loop,0_3_0_6_0,-999,completion,,201995,202002.8,202019.46,212034,10014.540000000008,212142,2021-10-25T18:21:58.541Z,212147,1635185877,full,ni_sequenzen,NI_Sequenzen,,6,,,,,,,,,,,,
,Feedback,canvas.Screen,0_3_0_6_1,,timeout,,212147,212146.66,212147,216133.52,4014.9800000000105,216134,2021-10-25T18:22:02.534Z,216161.98,1635185877,full,ni_sequenzen,NI_Sequenzen,,6,,,,,,,,,,,,
,Trial,flow.Sequence,0_3_0_6,,completion,,201988,202002.8,202019.46,216133.52,14114.059999999998,216134,2021-10-25T18:22:02.535Z,216166.64,1635185877,full,ni_sequenzen,NI_Sequenzen,,6,,,,,,,,,,,,
,Move,canvas.Screen,0_3_0_7_0_0,down,response,,216162,216161.98,216166.64,217800,1633.359999999986,217818,2021-10-25T18:22:04.218Z,217833,1635185877,full,ni_sequenzen,NI_Sequenzen,1,7,,,,,,,,,,,,
,Move,canvas.Screen,0_3_0_7_0_1,right,response,,217831,217830.98,217833,218141,308,218161,2021-10-25T18:22:04.560Z,218174.76,1635185877,full,ni_sequenzen,NI_Sequenzen,2,7,,,,,,,,,,,,
,Move,canvas.Screen,0_3_0_7_0_2,right,response,,218174,218174.34,218174.76,219064,889.2399999999907,219070,2021-10-25T18:22:05.471Z,219084.12,1635185877,full,ni_sequenzen,NI_Sequenzen,3,7,,,,,,,,,,,,
,Move,canvas.Screen,0_3_0_7_0_3,down,response,,219084,219083.82,219084.12,219313,228.88000000000466,219334,2021-10-25T18:22:05.734Z,219441.24,1635185877,full,ni_sequenzen,NI_Sequenzen,4,7,,,,,,,,,,,,
,Move,canvas.Screen,0_3_0_7_0_4,-999,skipped,,219352,,,219313,,219352,2021-10-25T18:22:05.752Z,219441.24,1635185877,full,ni_sequenzen,NI_Sequenzen,5,7,,,,,,,,,,,,
,Move,canvas.Screen,0_3_0_7_0_5,-999,skipped,,219364,,,219313,,219365,2021-10-25T18:22:05.765Z,219441.24,1635185877,full,ni_sequenzen,NI_Sequenzen,6,7,,,,,,,,,,,,
,Move,canvas.Screen,0_3_0_7_0_6,-999,skipped,,219378,,,219313,,219378,2021-10-25T18:22:05.778Z,219441.24,1635185877,full,ni_sequenzen,NI_Sequenzen,7,7,,,,,,,,,,,,
,Move,canvas.Screen,0_3_0_7_0_7,-999,skipped,,219389,,,219313,,219389,2021-10-25T18:22:05.789Z,219441.24,1635185877,full,ni_sequenzen,NI_Sequenzen,8,7,,,,,,,,,,,,
,Move,canvas.Screen,0_3_0_7_0_8,-999,skipped,,219395,,,219313,,219395,2021-10-25T18:22:05.795Z,219441.24,1635185877,full,ni_sequenzen,NI_Sequenzen,9,7,,,,,,,,,,,,
,Move,canvas.Screen,0_3_0_7_0_9,-999,skipped,,219403,,,219313,,219403,2021-10-25T18:22:05.803Z,219441.24,1635185877,full,ni_sequenzen,NI_Sequenzen,10,7,,,,,,,,,,,,
,Move,canvas.Screen,0_3_0_7_0_10,-999,skipped,,219410,,,219313,,219410,2021-10-25T18:22:05.810Z,219441.24,1635185877,full,ni_sequenzen,NI_Sequenzen,11,7,,,,,,,,,,,,
,Move,canvas.Screen,0_3_0_7_0_11,-999,skipped,,219416,,,219313,,219416,2021-10-25T18:22:05.816Z,219441.24,1635185877,full,ni_sequenzen,NI_Sequenzen,12,7,,,,,,,,,,,,
,Move,canvas.Screen,0_3_0_7_0_12,-999,skipped,,219423,,,219313,,219423,2021-10-25T18:22:05.823Z,219441.24,1635185877,full,ni_sequenzen,NI_Sequenzen,13,7,,,,,,,,,,,,
,Move,canvas.Screen,0_3_0_7_0_13,-999,skipped,,219429,,,219313,,219429,2021-10-25T18:22:05.829Z,219441.24,1635185877,full,ni_sequenzen,NI_Sequenzen,14,7,,,,,,,,,,,,
,Move,canvas.Screen,0_3_0_7_0_14,-999,skipped,,219436,,,219313,,219436,2021-10-25T18:22:05.836Z,219441.24,1635185877,full,ni_sequenzen,NI_Sequenzen,15,7,,,,,,,,,,,,
,Loop,flow.Loop,0_3_0_7_0,-999,completion,,216150,216161.98,216166.64,219313,3146.359999999986,219436,2021-10-25T18:22:05.836Z,219441.24,1635185877,full,ni_sequenzen,NI_Sequenzen,,7,,,,,,,,,,,,
,Feedback,canvas.Screen,0_3_0_7_1,,timeout,,219441,219440.88,219441.24,223431.94,4037.100000000006,223434,2021-10-25T18:22:09.834Z,223478.34,1635185877,full,ni_sequenzen,NI_Sequenzen,,7,,,,,,,,,,,,
,Trial,flow.Sequence,0_3_0_7,,completion,,216135,216161.98,216166.64,223431.94,7265.299999999988,223435,2021-10-25T18:22:09.835Z,223481.84,1635185877,full,ni_sequenzen,NI_Sequenzen,,7,,,,,,,,,,,,
,Move,canvas.Screen,0_3_0_8_0_0,right,response,,223478,223478.34,223481.84,226736,3254.1600000000035,226746,2021-10-25T18:22:13.146Z,226773.48,1635185877,full,ni_sequenzen,NI_Sequenzen,1,8,,,,,,,,,,,,
,Move,canvas.Screen,0_3_0_8_0_1,down,response,,226773,226772.96,226773.48,227017,243.51999999998952,227029,2021-10-25T18:22:13.429Z,227053.04,1635185877,full,ni_sequenzen,NI_Sequenzen,2,8,,,,,,,,,,,,
,Move,canvas.Screen,0_3_0_8_0_2,right,response,,227052,227052.48,227053.04,227299,245.95999999999185,227320,2021-10-25T18:22:13.720Z,227341.8,1635185877,full,ni_sequenzen,NI_Sequenzen,3,8,,,,,,,,,,,,
,Move,canvas.Screen,0_3_0_8_0_3,down,response,,227341,227341.3,227341.8,227829,487.20000000001164,227841,2021-10-25T18:22:14.241Z,227955.08,1635185877,full,ni_sequenzen,NI_Sequenzen,4,8,,,,,,,,,,,,
,Move,canvas.Screen,0_3_0_8_0_4,-999,skipped,,227861,,,227829,,227862,2021-10-25T18:22:14.261Z,227955.08,1635185877,full,ni_sequenzen,NI_Sequenzen,5,8,,,,,,,,,,,,
,Move,canvas.Screen,0_3_0_8_0_5,-999,skipped,,227876,,,227829,,227876,2021-10-25T18:22:14.276Z,227955.08,1635185877,full,ni_sequenzen,NI_Sequenzen,6,8,,,,,,,,,,,,
,Move,canvas.Screen,0_3_0_8_0_6,-999,skipped,,227885,,,227829,,227885,2021-10-25T18:22:14.285Z,227955.08,1635185877,full,ni_sequenzen,NI_Sequenzen,7,8,,,,,,,,,,,,
,Move,canvas.Screen,0_3_0_8_0_7,-999,skipped,,227894,,,227829,,227894,2021-10-25T18:22:14.294Z,227955.08,1635185877,full,ni_sequenzen,NI_Sequenzen,8,8,,,,,,,,,,,,
,Move,canvas.Screen,0_3_0_8_0_8,-999,skipped,,227903,,,227829,,227903,2021-10-25T18:22:14.303Z,227955.08,1635185877,full,ni_sequenzen,NI_Sequenzen,9,8,,,,,,,,,,,,
,Move,canvas.Screen,0_3_0_8_0_9,-999,skipped,,227910,,,227829,,227911,2021-10-25T18:22:14.310Z,227955.08,1635185877,full,ni_sequenzen,NI_Sequenzen,10,8,,,,,,,,,,,,
,Move,canvas.Screen,0_3_0_8_0_10,-999,skipped,,227917,,,227829,,227917,2021-10-25T18:22:14.318Z,227955.08,1635185877,full,ni_sequenzen,NI_Sequenzen,11,8,,,,,,,,,,,,
,Move,canvas.Screen,0_3_0_8_0_11,-999,skipped,,227925,,,227829,,227925,2021-10-25T18:22:14.325Z,227955.08,1635185877,full,ni_sequenzen,NI_Sequenzen,12,8,,,,,,,,,,,,
,Move,canvas.Screen,0_3_0_8_0_12,-999,skipped,,227933,,,227829,,227933,2021-10-25T18:22:14.333Z,227955.08,1635185877,full,ni_sequenzen,NI_Sequenzen,13,8,,,,,,,,,,,,
,Move,canvas.Screen,0_3_0_8_0_13,-999,skipped,,227940,,,227829,,227940,2021-10-25T18:22:14.340Z,227955.08,1635185877,full,ni_sequenzen,NI_Sequenzen,14,8,,,,,,,,,,,,
,Move,canvas.Screen,0_3_0_8_0_14,-999,skipped,,227948,,,227829,,227948,2021-10-25T18:22:14.348Z,227955.08,1635185877,full,ni_sequenzen,NI_Sequenzen,15,8,,,,,,,,,,,,
,Loop,flow.Loop,0_3_0_8_0,-999,completion,,223463,223478.34,223481.84,227829,4347.1600000000035,227949,2021-10-25T18:22:14.349Z,227955.08,1635185877,full,ni_sequenzen,NI_Sequenzen,,8,,,,,,,,,,,,
,Feedback,canvas.Screen,0_3_0_8_1,,timeout,,227955,227954.72,227955.08,231946.94,4030.220000000001,231948,2021-10-25T18:22:18.348Z,231985.3,1635185877,full,ni_sequenzen,NI_Sequenzen,,8,,,,,,,,,,,,
,Trial,flow.Sequence,0_3_0_8,,completion,,223437,223478.34,223481.84,231946.94,8465.100000000006,231948,2021-10-25T18:22:18.348Z,231996.88,1635185877,full,ni_sequenzen,NI_Sequenzen,,8,,,,,,,,,,,,
,Move,canvas.Screen,0_3_0_9_0_0,down,response,,231985,231985.3,231996.88,235830,3833.1199999999953,235842,2021-10-25T18:22:22.242Z,235856.84,1635185877,full,ni_sequenzen,NI_Sequenzen,1,9,,,,,,,,,,,,
,Move,canvas.Screen,0_3_0_9_0_1,right,response,,235856,235856.38,235856.84,236596,739.1600000000035,236610,2021-10-25T18:22:23.010Z,236625.66,1635185877,full,ni_sequenzen,NI_Sequenzen,2,9,,,,,,,,,,,,
,Move,canvas.Screen,0_3_0_9_0_2,right,response,,236625,236625.36,236625.66,237189,563.3399999999965,237213,2021-10-25T18:22:23.613Z,237229.64,1635185877,full,ni_sequenzen,NI_Sequenzen,3,9,,,,,,,,,,,,
,Move,canvas.Screen,0_3_0_9_0_3,down,response,,237229,237229.14,237229.64,237549,319.35999999998603,237557,2021-10-25T18:22:23.957Z,237673.1,1635185877,full,ni_sequenzen,NI_Sequenzen,4,9,,,,,,,,,,,,
,Move,canvas.Screen,0_3_0_9_0_4,-999,skipped,,237573,,,237549,,237574,2021-10-25T18:22:23.974Z,237673.1,1635185877,full,ni_sequenzen,NI_Sequenzen,5,9,,,,,,,,,,,,
,Move,canvas.Screen,0_3_0_9_0_5,-999,skipped,,237589,,,237549,,237590,2021-10-25T18:22:23.989Z,237673.1,1635185877,full,ni_sequenzen,NI_Sequenzen,6,9,,,,,,,,,,,,
,Move,canvas.Screen,0_3_0_9_0_6,-999,skipped,,237602,,,237549,,237602,2021-10-25T18:22:24.002Z,237673.1,1635185877,full,ni_sequenzen,NI_Sequenzen,7,9,,,,,,,,,,,,
,Move,canvas.Screen,0_3_0_9_0_7,-999,skipped,,237613,,,237549,,237614,2021-10-25T18:22:24.014Z,237673.1,1635185877,full,ni_sequenzen,NI_Sequenzen,8,9,,,,,,,,,,,,
,Move,canvas.Screen,0_3_0_9_0_8,-999,skipped,,237625,,,237549,,237625,2021-10-25T18:22:24.025Z,237673.1,1635185877,full,ni_sequenzen,NI_Sequenzen,9,9,,,,,,,,,,,,
,Move,canvas.Screen,0_3_0_9_0_9,-999,skipped,,237635,,,237549,,237635,2021-10-25T18:22:24.035Z,237673.1,1635185877,full,ni_sequenzen,NI_Sequenzen,10,9,,,,,,,,,,,,
,Move,canvas.Screen,0_3_0_9_0_10,-999,skipped,,237642,,,237549,,237642,2021-10-25T18:22:24.042Z,237673.1,1635185877,full,ni_sequenzen,NI_Sequenzen,11,9,,,,,,,,,,,,
,Move,canvas.Screen,0_3_0_9_0_11,-999,skipped,,237649,,,237549,,237649,2021-10-25T18:22:24.049Z,237673.1,1635185877,full,ni_sequenzen,NI_Sequenzen,12,9,,,,,,,,,,,,
,Move,canvas.Screen,0_3_0_9_0_12,-999,skipped,,237655,,,237549,,237655,2021-10-25T18:22:24.055Z,237673.1,1635185877,full,ni_sequenzen,NI_Sequenzen,13,9,,,,,,,,,,,,
,Move,canvas.Screen,0_3_0_9_0_13,-999,skipped,,237661,,,237549,,237661,2021-10-25T18:22:24.062Z,237673.1,1635185877,full,ni_sequenzen,NI_Sequenzen,14,9,,,,,,,,,,,,
,Move,canvas.Screen,0_3_0_9_0_14,-999,skipped,,237668,,,237549,,237668,2021-10-25T18:22:24.068Z,237673.1,1635185877,full,ni_sequenzen,NI_Sequenzen,15,9,,,,,,,,,,,,
,Loop,flow.Loop,0_3_0_9_0,-999,completion,,231972,231985.3,231996.88,237549,5552.119999999995,237668,2021-10-25T18:22:24.068Z,237673.1,1635185877,full,ni_sequenzen,NI_Sequenzen,,9,,,,,,,,,,,,
,Feedback,canvas.Screen,0_3_0_9_1,,timeout,,237673,237672.72,237673.1,241661.68,4117.359999999986,241663,2021-10-25T18:22:28.062Z,241790.46,1635185877,full,ni_sequenzen,NI_Sequenzen,,9,,,,,,,,,,,,
,Trial,flow.Sequence,0_3_0_9,,completion,,231950,231985.3,231996.88,241661.68,9664.799999999988,241664,2021-10-25T18:22:28.063Z,241811.58,1635185877,full,ni_sequenzen,NI_Sequenzen,,9,,,,,,,,,,,,
,Block,flow.Loop,0_3_0,,completion,,129845,129863.5,129867.04,241661.68,111794.64,241664,2021-10-25T18:22:28.063Z,241811.58,1635185877,full,ni_sequenzen,NI_Sequenzen,,,,,,,,,,,,,,
,Training_II,flow.Sequence,0_3,,completion,,129829,129863.5,129867.04,241661.68,111794.64,241665,2021-10-25T18:22:28.065Z,241811.58,1635185877,full,ni_sequenzen,NI_Sequenzen,,,,,,,,,,,,,,
,Screen_1,canvas.Screen,0_4_0_0,cont,response,1,241790,241790.46,241811.58,249752,7940.420000000013,249759,2021-10-25T18:22:36.159Z,249776.72,1635185877,full,ni_sequenzen,NI_Sequenzen,,,,,,,,,,,,,,
,Screen_2,canvas.Screen,0_4_0_1,cont,response,1,249764,249764.44,249776.72,264549,14772.279999999999,264564,2021-10-25T18:22:50.964Z,264740.44,1635185877,full,ni_sequenzen,NI_Sequenzen,,,,,,,,,,,,,,
,Screen_3,canvas.Screen,0_4_0_2,cont,response,1,264730,264730.34,264740.44,271174,6433.559999999998,271198,2021-10-25T18:22:57.598Z,271388.18,1635185877,full,ni_sequenzen,NI_Sequenzen,,,,,,,,,,,,,,
,Sequence,flow.Sequence,0_4_0,,completion,1,241718,241790.46,241811.58,271174,29362.420000000013,271199,2021-10-25T18:22:57.598Z,271388.18,1635185877,full,ni_sequenzen,NI_Sequenzen,,,,,,,,,,,,,,
,Screen_1,canvas.Screen,0_4_1_0,,skipped,2,271206,,,271206,,271207,2021-10-25T18:22:57.606Z,271388.18,1635185877,full,ni_sequenzen,NI_Sequenzen,,,,,,,,,,,,,,
,Screen_2,canvas.Screen,0_4_1_1,,skipped,2,271209,,,271206,,271209,2021-10-25T18:22:57.610Z,271388.18,1635185877,full,ni_sequenzen,NI_Sequenzen,,,,,,,,,,,,,,
,Screen_3,canvas.Screen,0_4_1_2,,skipped,2,271212,,,271206,,271213,2021-10-25T18:22:57.613Z,271388.18,1635185877,full,ni_sequenzen,NI_Sequenzen,,,,,,,,,,,,,,
,Sequence,flow.Sequence,0_4_1,,completion,2,271201,,,271206,,271213,2021-10-25T18:22:57.614Z,271388.18,1635185877,full,ni_sequenzen,NI_Sequenzen,,,,,,,,,,,,,,
,Screen_1,canvas.Screen,0_4_2_0,,skipped,3,271218,,,271218,,271218,2021-10-25T18:22:57.618Z,271388.18,1635185877,full,ni_sequenzen,NI_Sequenzen,,,,,,,,,,,,,,
,Screen_2,canvas.Screen,0_4_2_1,,skipped,3,271221,,,271218,,271222,2021-10-25T18:22:57.621Z,271388.18,1635185877,full,ni_sequenzen,NI_Sequenzen,,,,,,,,,,,,,,
,Screen_3,canvas.Screen,0_4_2_2,,skipped,3,271224,,,271218,,271225,2021-10-25T18:22:57.624Z,271388.18,1635185877,full,ni_sequenzen,NI_Sequenzen,,,,,,,,,,,,,,
,Sequence,flow.Sequence,0_4_2,,completion,3,271215,,,271218,,271225,2021-10-25T18:22:57.625Z,271388.18,1635185877,full,ni_sequenzen,NI_Sequenzen,,,,,,,,,,,,,,
,Screen_1,canvas.Screen,0_4_3_0,,skipped,4,271228,,,271228,,271228,2021-10-25T18:22:57.628Z,271388.18,1635185877,full,ni_sequenzen,NI_Sequenzen,,,,,,,,,,,,,,
,Screen_2,canvas.Screen,0_4_3_1,,skipped,4,271230,,,271228,,271230,2021-10-25T18:22:57.630Z,271388.18,1635185877,full,ni_sequenzen,NI_Sequenzen,,,,,,,,,,,,,,
,Screen_3,canvas.Screen,0_4_3_2,,skipped,4,271231,,,271228,,271232,2021-10-25T18:22:57.632Z,271388.18,1635185877,full,ni_sequenzen,NI_Sequenzen,,,,,,,,,,,,,,
,Sequence,flow.Sequence,0_4_3,,completion,4,271226,,,271228,,271232,2021-10-25T18:22:57.632Z,271388.18,1635185877,full,ni_sequenzen,NI_Sequenzen,,,,,,,,,,,,,,
,Screen_1,canvas.Screen,0_4_4_0,,skipped,5,271234,,,271234,,271234,2021-10-25T18:22:57.634Z,271388.18,1635185877,full,ni_sequenzen,NI_Sequenzen,,,,,,,,,,,,,,
,Screen_2,canvas.Screen,0_4_4_1,,skipped,5,271236,,,271234,,271236,2021-10-25T18:22:57.636Z,271388.18,1635185877,full,ni_sequenzen,NI_Sequenzen,,,,,,,,,,,,,,
,Screen_3,canvas.Screen,0_4_4_2,,skipped,5,271238,,,271234,,271238,2021-10-25T18:22:57.638Z,271388.18,1635185877,full,ni_sequenzen,NI_Sequenzen,,,,,,,,,,,,,,
,Sequence,flow.Sequence,0_4_4,,completion,5,271233,,,271234,,271238,2021-10-25T18:22:57.638Z,271388.18,1635185877,full,ni_sequenzen,NI_Sequenzen,,,,,,,,,,,,,,
,Screen_1,canvas.Screen,0_4_5_0,,skipped,6,271240,,,271240,,271240,2021-10-25T18:22:57.640Z,271388.18,1635185877,full,ni_sequenzen,NI_Sequenzen,,,,,,,,,,,,,,
,Screen_2,canvas.Screen,0_4_5_1,,skipped,6,271242,,,271240,,271242,2021-10-25T18:22:57.642Z,271388.18,1635185877,full,ni_sequenzen,NI_Sequenzen,,,,,,,,,,,,,,
,Screen_3,canvas.Screen,0_4_5_2,,skipped,6,271244,,,271240,,271244,2021-10-25T18:22:57.644Z,271388.18,1635185877,full,ni_sequenzen,NI_Sequenzen,,,,,,,,,,,,,,
,Sequence,flow.Sequence,0_4_5,,completion,6,271239,,,271240,,271244,2021-10-25T18:22:57.644Z,271388.18,1635185877,full,ni_sequenzen,NI_Sequenzen,,,,,,,,,,,,,,
,Screen_1,canvas.Screen,0_4_6_0,,skipped,7,271246,,,271246,,271246,2021-10-25T18:22:57.646Z,271388.18,1635185877,full,ni_sequenzen,NI_Sequenzen,,,,,,,,,,,,,,
,Screen_2,canvas.Screen,0_4_6_1,,skipped,7,271248,,,271246,,271248,2021-10-25T18:22:57.648Z,271388.18,1635185877,full,ni_sequenzen,NI_Sequenzen,,,,,,,,,,,,,,
,Screen_3,canvas.Screen,0_4_6_2,,skipped,7,271250,,,271246,,271250,2021-10-25T18:22:57.650Z,271388.18,1635185877,full,ni_sequenzen,NI_Sequenzen,,,,,,,,,,,,,,
,Sequence,flow.Sequence,0_4_6,,completion,7,271245,,,271246,,271250,2021-10-25T18:22:57.650Z,271388.18,1635185877,full,ni_sequenzen,NI_Sequenzen,,,,,,,,,,,,,,
,Screen_1,canvas.Screen,0_4_7_0,,skipped,8,271253,,,271253,,271253,2021-10-25T18:22:57.653Z,271388.18,1635185877,full,ni_sequenzen,NI_Sequenzen,,,,,,,,,,,,,,
,Screen_2,canvas.Screen,0_4_7_1,,skipped,8,271254,,,271253,,271254,2021-10-25T18:22:57.655Z,271388.18,1635185877,full,ni_sequenzen,NI_Sequenzen,,,,,,,,,,,,,,
,Screen_3,canvas.Screen,0_4_7_2,,skipped,8,271256,,,271253,,271257,2021-10-25T18:22:57.657Z,271388.18,1635185877,full,ni_sequenzen,NI_Sequenzen,,,,,,,,,,,,,,
,Sequence,flow.Sequence,0_4_7,,completion,8,271251,,,271253,,271257,2021-10-25T18:22:57.657Z,271388.18,1635185877,full,ni_sequenzen,NI_Sequenzen,,,,,,,,,,,,,,
,Screen_1,canvas.Screen,0_4_8_0,,skipped,9,271259,,,271259,,271259,2021-10-25T18:22:57.659Z,271388.18,1635185877,full,ni_sequenzen,NI_Sequenzen,,,,,,,,,,,,,,
,Screen_2,canvas.Screen,0_4_8_1,,skipped,9,271260,,,271259,,271260,2021-10-25T18:22:57.660Z,271388.18,1635185877,full,ni_sequenzen,NI_Sequenzen,,,,,,,,,,,,,,
,Screen_3,canvas.Screen,0_4_8_2,,skipped,9,271262,,,271259,,271262,2021-10-25T18:22:57.661Z,271388.18,1635185877,full,ni_sequenzen,NI_Sequenzen,,,,,,,,,,,,,,
,Sequence,flow.Sequence,0_4_8,,completion,9,271257,,,271259,,271262,2021-10-25T18:22:57.661Z,271388.18,1635185877,full,ni_sequenzen,NI_Sequenzen,,,,,,,,,,,,,,
,Screen_1,canvas.Screen,0_4_9_0,,skipped,10,271264,,,271264,,271264,2021-10-25T18:22:57.664Z,271388.18,1635185877,full,ni_sequenzen,NI_Sequenzen,,,,,,,,,,,,,,
,Screen_2,canvas.Screen,0_4_9_1,,skipped,10,271265,,,271264,,271265,2021-10-25T18:22:57.665Z,271388.18,1635185877,full,ni_sequenzen,NI_Sequenzen,,,,,,,,,,,,,,
,Screen_3,canvas.Screen,0_4_9_2,,skipped,10,271266,,,271264,,271267,2021-10-25T18:22:57.666Z,271388.18,1635185877,full,ni_sequenzen,NI_Sequenzen,,,,,,,,,,,,,,
,Sequence,flow.Sequence,0_4_9,,completion,10,271262,,,271264,,271267,2021-10-25T18:22:57.667Z,271388.18,1635185877,full,ni_sequenzen,NI_Sequenzen,,,,,,,,,,,,,,
,Screen_1,canvas.Screen,0_4_10_0,,skipped,11,271269,,,271269,,271269,2021-10-25T18:22:57.669Z,271388.18,1635185877,full,ni_sequenzen,NI_Sequenzen,,,,,,,,,,,,,,
,Screen_2,canvas.Screen,0_4_10_1,,skipped,11,271270,,,271269,,271270,2021-10-25T18:22:57.670Z,271388.18,1635185877,full,ni_sequenzen,NI_Sequenzen,,,,,,,,,,,,,,
,Screen_3,canvas.Screen,0_4_10_2,,skipped,11,271271,,,271269,,271271,2021-10-25T18:22:57.672Z,271388.18,1635185877,full,ni_sequenzen,NI_Sequenzen,,,,,,,,,,,,,,
,Sequence,flow.Sequence,0_4_10,,completion,11,271268,,,271269,,271271,2021-10-25T18:22:57.672Z,271388.18,1635185877,full,ni_sequenzen,NI_Sequenzen,,,,,,,,,,,,,,
,Screen_1,canvas.Screen,0_4_11_0,,skipped,12,271274,,,271274,,271274,2021-10-25T18:22:57.674Z,271388.18,1635185877,full,ni_sequenzen,NI_Sequenzen,,,,,,,,,,,,,,
,Screen_2,canvas.Screen,0_4_11_1,,skipped,12,271275,,,271274,,271275,2021-10-25T18:22:57.676Z,271388.18,1635185877,full,ni_sequenzen,NI_Sequenzen,,,,,,,,,,,,,,
,Screen_3,canvas.Screen,0_4_11_2,,skipped,12,271276,,,271274,,271277,2021-10-25T18:22:57.677Z,271388.18,1635185877,full,ni_sequenzen,NI_Sequenzen,,,,,,,,,,,,,,
,Sequence,flow.Sequence,0_4_11,,completion,12,271272,,,271274,,271277,2021-10-25T18:22:57.677Z,271388.18,1635185877,full,ni_sequenzen,NI_Sequenzen,,,,,,,,,,,,,,
,Screen_1,canvas.Screen,0_4_12_0,,skipped,13,271279,,,271279,,271279,2021-10-25T18:22:57.678Z,271388.18,1635185877,full,ni_sequenzen,NI_Sequenzen,,,,,,,,,,,,,,
,Screen_2,canvas.Screen,0_4_12_1,,skipped,13,271280,,,271279,,271281,2021-10-25T18:22:57.681Z,271388.18,1635185877,full,ni_sequenzen,NI_Sequenzen,,,,,,,,,,,,,,
,Screen_3,canvas.Screen,0_4_12_2,,skipped,13,271282,,,271279,,271282,2021-10-25T18:22:57.681Z,271388.18,1635185877,full,ni_sequenzen,NI_Sequenzen,,,,,,,,,,,,,,
,Sequence,flow.Sequence,0_4_12,,completion,13,271277,,,271279,,271282,2021-10-25T18:22:57.681Z,271388.18,1635185877,full,ni_sequenzen,NI_Sequenzen,,,,,,,,,,,,,,
,Screen_1,canvas.Screen,0_4_13_0,,skipped,14,271283,,,271283,,271283,2021-10-25T18:22:57.684Z,271388.18,1635185877,full,ni_sequenzen,NI_Sequenzen,,,,,,,,,,,,,,
,Screen_2,canvas.Screen,0_4_13_1,,skipped,14,271285,,,271283,,271285,2021-10-25T18:22:57.685Z,271388.18,1635185877,full,ni_sequenzen,NI_Sequenzen,,,,,,,,,,,,,,
,Screen_3,canvas.Screen,0_4_13_2,,skipped,14,271286,,,271283,,271286,2021-10-25T18:22:57.687Z,271388.18,1635185877,full,ni_sequenzen,NI_Sequenzen,,,,,,,,,,,,,,
,Sequence,flow.Sequence,0_4_13,,completion,14,271283,,,271283,,271286,2021-10-25T18:22:57.687Z,271388.18,1635185877,full,ni_sequenzen,NI_Sequenzen,,,,,,,,,,,,,,
,Screen_1,canvas.Screen,0_4_14_0,,skipped,15,271289,,,271289,,271289,2021-10-25T18:22:57.688Z,271388.18,1635185877,full,ni_sequenzen,NI_Sequenzen,,,,,,,,,,,,,,
,Screen_2,canvas.Screen,0_4_14_1,,skipped,15,271290,,,271289,,271290,2021-10-25T18:22:57.690Z,271388.18,1635185877,full,ni_sequenzen,NI_Sequenzen,,,,,,,,,,,,,,
,Screen_3,canvas.Screen,0_4_14_2,,skipped,15,271292,,,271289,,271292,2021-10-25T18:22:57.691Z,271388.18,1635185877,full,ni_sequenzen,NI_Sequenzen,,,,,,,,,,,,,,
,Sequence,flow.Sequence,0_4_14,,completion,15,271288,,,271289,,271292,2021-10-25T18:22:57.692Z,271388.18,1635185877,full,ni_sequenzen,NI_Sequenzen,,,,,,,,,,,,,,
,Screen_1,canvas.Screen,0_4_15_0,,skipped,16,271293,,,271293,,271293,2021-10-25T18:22:57.694Z,271388.18,1635185877,full,ni_sequenzen,NI_Sequenzen,,,,,,,,,,,,,,
,Screen_2,canvas.Screen,0_4_15_1,,skipped,16,271295,,,271293,,271296,2021-10-25T18:22:57.696Z,271388.18,1635185877,full,ni_sequenzen,NI_Sequenzen,,,,,,,,,,,,,,
,Screen_3,canvas.Screen,0_4_15_2,,skipped,16,271297,,,271293,,271297,2021-10-25T18:22:57.697Z,271388.18,1635185877,full,ni_sequenzen,NI_Sequenzen,,,,,,,,,,,,,,
,Sequence,flow.Sequence,0_4_15,,completion,16,271292,,,271293,,271297,2021-10-25T18:22:57.698Z,271388.18,1635185877,full,ni_sequenzen,NI_Sequenzen,,,,,,,,,,,,,,
,Screen_1,canvas.Screen,0_4_16_0,,skipped,17,271299,,,271299,,271299,2021-10-25T18:22:57.699Z,271388.18,1635185877,full,ni_sequenzen,NI_Sequenzen,,,,,,,,,,,,,,
,Screen_2,canvas.Screen,0_4_16_1,,skipped,17,271301,,,271299,,271301,2021-10-25T18:22:57.700Z,271388.18,1635185877,full,ni_sequenzen,NI_Sequenzen,,,,,,,,,,,,,,
,Screen_3,canvas.Screen,0_4_16_2,,skipped,17,271302,,,271299,,271302,2021-10-25T18:22:57.701Z,271388.18,1635185877,full,ni_sequenzen,NI_Sequenzen,,,,,,,,,,,,,,
,Sequence,flow.Sequence,0_4_16,,completion,17,271298,,,271299,,271302,2021-10-25T18:22:57.702Z,271388.18,1635185877,full,ni_sequenzen,NI_Sequenzen,,,,,,,,,,,,,,
