meta,sender,sender_type,sender_id,response,ended_on,instrCount,time_run,time_render,time_show,time_end,duration,time_commit,timestamp,time_switch,openLabId,type,task,project,move,trialN,blockN_Train,blockN,moveCount,currPP,points,movesTrial,visitedFields,diff,reward,Strategie,Zweck,Probleme
[object Object],Screen_1,canvas.Screen,0_0_0_0,cont,response,1,565.0999999940395,559.623,576.289,34358.29999999702,33782.01099999702,34363.70000000298,2021-11-03T09:32:08.728Z,34491.599,1635931890,incremental,ni_sequenzen,NI_Sequenzen,,,,,,,,,,,,,,
,Screen_2,canvas.Screen,0_0_0_1,cont,response,1,34487,34474.933,34491.599,52010.40000000596,17518.80100000596,52014.5,2021-11-03T09:32:26.379Z,52126.747,1635931890,incremental,ni_sequenzen,NI_Sequenzen,,,,,,,,,,,,,,
,Screen_3,canvas.Screen,0_0_0_2,cont,response,1,52123.90000000596,52110.081,52126.747,62247.5,10120.752999999997,62251.09999999404,2021-11-03T09:32:36.615Z,62259.675,1635931890,incremental,ni_sequenzen,NI_Sequenzen,,,,,,,,,,,,,,
,Screen_4,canvas.Screen,0_0_0_3,cont,response,1,62256,62243.009,62259.675,65276.09999999404,3016.4249999940366,65279.09999999404,2021-11-03T09:32:39.643Z,65426.215,1635931890,incremental,ni_sequenzen,NI_Sequenzen,,,,,,,,,,,,,,
,Sequence,flow.Sequence,0_0_0,,completion,1,519.9000000059605,559.623,576.289,65276.09999999404,64699.81099999404,65281.90000000596,2021-11-03T09:32:39.646Z,65426.215,1635931890,incremental,ni_sequenzen,NI_Sequenzen,,,,,,,,,,,,,,
,Screen_1,canvas.Screen,0_0_1_0,,skipped,2,65286.20000000298,,,65286.20000000298,,65286.40000000596,2021-11-03T09:32:39.650Z,65426.215,1635931890,incremental,ni_sequenzen,NI_Sequenzen,,,,,,,,,,,,,,
,Screen_2,canvas.Screen,0_0_1_1,,skipped,2,65287.70000000298,,,65286.20000000298,,65287.70000000298,2021-11-03T09:32:39.652Z,65426.215,1635931890,incremental,ni_sequenzen,NI_Sequenzen,,,,,,,,,,,,,,
,Screen_3,canvas.Screen,0_0_1_2,,skipped,2,65288.70000000298,,,65286.20000000298,,65288.90000000596,2021-11-03T09:32:39.653Z,65426.215,1635931890,incremental,ni_sequenzen,NI_Sequenzen,,,,,,,,,,,,,,
,Screen_4,canvas.Screen,0_0_1_3,,skipped,2,65289.70000000298,,,65286.20000000298,,65290.20000000298,2021-11-03T09:32:39.654Z,65426.215,1635931890,incremental,ni_sequenzen,NI_Sequenzen,,,,,,,,,,,,,,
,Sequence,flow.Sequence,0_0_1,,completion,2,65283.79999999702,,,65286.20000000298,,65290.20000000298,2021-11-03T09:32:39.654Z,65426.215,1635931890,incremental,ni_sequenzen,NI_Sequenzen,,,,,,,,,,,,,,
,Screen_1,canvas.Screen,0_0_2_0,,skipped,3,65291.40000000596,,,65291.40000000596,,65291.5,2021-11-03T09:32:39.655Z,65426.215,1635931890,incremental,ni_sequenzen,NI_Sequenzen,,,,,,,,,,,,,,
,Screen_2,canvas.Screen,0_0_2_1,,skipped,3,65292.09999999404,,,65291.40000000596,,65292.09999999404,2021-11-03T09:32:39.656Z,65426.215,1635931890,incremental,ni_sequenzen,NI_Sequenzen,,,,,,,,,,,,,,
,Screen_3,canvas.Screen,0_0_2_2,,skipped,3,65293.09999999404,,,65291.40000000596,,65293.29999999702,2021-11-03T09:32:39.657Z,65426.215,1635931890,incremental,ni_sequenzen,NI_Sequenzen,,,,,,,,,,,,,,
,Screen_4,canvas.Screen,0_0_2_3,,skipped,3,65293.90000000596,,,65291.40000000596,,65294,2021-11-03T09:32:39.658Z,65426.215,1635931890,incremental,ni_sequenzen,NI_Sequenzen,,,,,,,,,,,,,,
,Sequence,flow.Sequence,0_0_2,,completion,3,65290.59999999404,,,65291.40000000596,,65294,2021-11-03T09:32:39.658Z,65426.215,1635931890,incremental,ni_sequenzen,NI_Sequenzen,,,,,,,,,,,,,,
,Screen_1,canvas.Screen,0_0_3_0,,skipped,4,65294.90000000596,,,65294.90000000596,,65294.90000000596,2021-11-03T09:32:39.659Z,65426.215,1635931890,incremental,ni_sequenzen,NI_Sequenzen,,,,,,,,,,,,,,
,Screen_2,canvas.Screen,0_0_3_1,,skipped,4,65295.5,,,65294.90000000596,,65295.59999999404,2021-11-03T09:32:39.660Z,65426.215,1635931890,incremental,ni_sequenzen,NI_Sequenzen,,,,,,,,,,,,,,
,Screen_3,canvas.Screen,0_0_3_2,,skipped,4,65296.29999999702,,,65294.90000000596,,65296.5,2021-11-03T09:32:39.660Z,65426.215,1635931890,incremental,ni_sequenzen,NI_Sequenzen,,,,,,,,,,,,,,
,Screen_4,canvas.Screen,0_0_3_3,,skipped,4,65297.09999999404,,,65294.90000000596,,65297.20000000298,2021-11-03T09:32:39.661Z,65426.215,1635931890,incremental,ni_sequenzen,NI_Sequenzen,,,,,,,,,,,,,,
,Sequence,flow.Sequence,0_0_3,,completion,4,65294.29999999702,,,65294.90000000596,,65297.20000000298,2021-11-03T09:32:39.661Z,65426.215,1635931890,incremental,ni_sequenzen,NI_Sequenzen,,,,,,,,,,,,,,
,Screen_1,canvas.Screen,0_0_4_0,,skipped,5,65298.5,,,65298.5,,65298.59999999404,2021-11-03T09:32:39.663Z,65426.215,1635931890,incremental,ni_sequenzen,NI_Sequenzen,,,,,,,,,,,,,,
,Screen_2,canvas.Screen,0_0_4_1,,skipped,5,65299.20000000298,,,65298.5,,65299.40000000596,2021-11-03T09:32:39.663Z,65426.215,1635931890,incremental,ni_sequenzen,NI_Sequenzen,,,,,,,,,,,,,,
,Screen_3,canvas.Screen,0_0_4_2,,skipped,5,65300,,,65298.5,,65300,2021-11-03T09:32:39.664Z,65426.215,1635931890,incremental,ni_sequenzen,NI_Sequenzen,,,,,,,,,,,,,,
,Screen_4,canvas.Screen,0_0_4_3,,skipped,5,65300.59999999404,,,65298.5,,65300.59999999404,2021-11-03T09:32:39.665Z,65426.215,1635931890,incremental,ni_sequenzen,NI_Sequenzen,,,,,,,,,,,,,,
,Sequence,flow.Sequence,0_0_4,,completion,5,65297.5,,,65298.5,,65300.70000000298,2021-11-03T09:32:39.665Z,65426.215,1635931890,incremental,ni_sequenzen,NI_Sequenzen,,,,,,,,,,,,,,
,Screen_1,canvas.Screen,0_0_5_0,,skipped,6,65301.59999999404,,,65301.59999999404,,65301.59999999404,2021-11-03T09:32:39.666Z,65426.215,1635931890,incremental,ni_sequenzen,NI_Sequenzen,,,,,,,,,,,,,,
,Screen_2,canvas.Screen,0_0_5_1,,skipped,6,65302.09999999404,,,65301.59999999404,,65302.20000000298,2021-11-03T09:32:39.666Z,65426.215,1635931890,incremental,ni_sequenzen,NI_Sequenzen,,,,,,,,,,,,,,
,Screen_3,canvas.Screen,0_0_5_2,,skipped,6,65302.90000000596,,,65301.59999999404,,65302.90000000596,2021-11-03T09:32:39.667Z,65426.215,1635931890,incremental,ni_sequenzen,NI_Sequenzen,,,,,,,,,,,,,,
,Screen_4,canvas.Screen,0_0_5_3,,skipped,6,65303.5,,,65301.59999999404,,65303.5,2021-11-03T09:32:39.668Z,65426.215,1635931890,incremental,ni_sequenzen,NI_Sequenzen,,,,,,,,,,,,,,
,Sequence,flow.Sequence,0_0_5,,completion,6,65301,,,65301.59999999404,,65303.70000000298,2021-11-03T09:32:39.668Z,65426.215,1635931890,incremental,ni_sequenzen,NI_Sequenzen,,,,,,,,,,,,,,
,Screen_1,canvas.Screen,0_0_6_0,,skipped,7,65304.29999999702,,,65304.29999999702,,65304.40000000596,2021-11-03T09:32:39.668Z,65426.215,1635931890,incremental,ni_sequenzen,NI_Sequenzen,,,,,,,,,,,,,,
,Screen_2,canvas.Screen,0_0_6_1,,skipped,7,65304.90000000596,,,65304.29999999702,,65304.90000000596,2021-11-03T09:32:39.669Z,65426.215,1635931890,incremental,ni_sequenzen,NI_Sequenzen,,,,,,,,,,,,,,
,Screen_3,canvas.Screen,0_0_6_2,,skipped,7,65305.40000000596,,,65304.29999999702,,65305.40000000596,2021-11-03T09:32:39.669Z,65426.215,1635931890,incremental,ni_sequenzen,NI_Sequenzen,,,,,,,,,,,,,,
,Screen_4,canvas.Screen,0_0_6_3,,skipped,7,65306.5,,,65304.29999999702,,65306.59999999404,2021-11-03T09:32:39.671Z,65426.215,1635931890,incremental,ni_sequenzen,NI_Sequenzen,,,,,,,,,,,,,,
,Sequence,flow.Sequence,0_0_6,,completion,7,65303.90000000596,,,65304.29999999702,,65306.59999999404,2021-11-03T09:32:39.671Z,65426.215,1635931890,incremental,ni_sequenzen,NI_Sequenzen,,,,,,,,,,,,,,
,Screen_1,canvas.Screen,0_0_7_0,,skipped,8,65307.5,,,65307.5,,65307.5,2021-11-03T09:32:39.672Z,65426.215,1635931890,incremental,ni_sequenzen,NI_Sequenzen,,,,,,,,,,,,,,
,Screen_2,canvas.Screen,0_0_7_1,,skipped,8,65308,,,65307.5,,65308.09999999404,2021-11-03T09:32:39.672Z,65426.215,1635931890,incremental,ni_sequenzen,NI_Sequenzen,,,,,,,,,,,,,,
,Screen_3,canvas.Screen,0_0_7_2,,skipped,8,65308.79999999702,,,65307.5,,65308.90000000596,2021-11-03T09:32:39.673Z,65426.215,1635931890,incremental,ni_sequenzen,NI_Sequenzen,,,,,,,,,,,,,,
,Screen_4,canvas.Screen,0_0_7_3,,skipped,8,65309.20000000298,,,65307.5,,65309.20000000298,2021-11-03T09:32:39.673Z,65426.215,1635931890,incremental,ni_sequenzen,NI_Sequenzen,,,,,,,,,,,,,,
,Sequence,flow.Sequence,0_0_7,,completion,8,65307,,,65307.5,,65309.29999999702,2021-11-03T09:32:39.673Z,65426.215,1635931890,incremental,ni_sequenzen,NI_Sequenzen,,,,,,,,,,,,,,
,Screen_1,canvas.Screen,0_0_8_0,,skipped,9,65309.90000000596,,,65309.90000000596,,65310,2021-11-03T09:32:39.674Z,65426.215,1635931890,incremental,ni_sequenzen,NI_Sequenzen,,,,,,,,,,,,,,
,Screen_2,canvas.Screen,0_0_8_1,,skipped,9,65310.40000000596,,,65309.90000000596,,65310.5,2021-11-03T09:32:39.674Z,65426.215,1635931890,incremental,ni_sequenzen,NI_Sequenzen,,,,,,,,,,,,,,
,Screen_3,canvas.Screen,0_0_8_2,,skipped,9,65310.79999999702,,,65309.90000000596,,65310.79999999702,2021-11-03T09:32:39.675Z,65426.215,1635931890,incremental,ni_sequenzen,NI_Sequenzen,,,,,,,,,,,,,,
,Screen_4,canvas.Screen,0_0_8_3,,skipped,9,65311.29999999702,,,65309.90000000596,,65311.29999999702,2021-11-03T09:32:39.675Z,65426.215,1635931890,incremental,ni_sequenzen,NI_Sequenzen,,,,,,,,,,,,,,
,Sequence,flow.Sequence,0_0_8,,completion,9,65309.5,,,65309.90000000596,,65311.29999999702,2021-11-03T09:32:39.675Z,65426.215,1635931890,incremental,ni_sequenzen,NI_Sequenzen,,,,,,,,,,,,,,
,Screen_1,canvas.Screen,0_0_9_0,,skipped,10,65312.09999999404,,,65312.09999999404,,65312.29999999702,2021-11-03T09:32:39.676Z,65426.215,1635931890,incremental,ni_sequenzen,NI_Sequenzen,,,,,,,,,,,,,,
,Screen_2,canvas.Screen,0_0_9_1,,skipped,10,65312.70000000298,,,65312.09999999404,,65312.70000000298,2021-11-03T09:32:39.677Z,65426.215,1635931890,incremental,ni_sequenzen,NI_Sequenzen,,,,,,,,,,,,,,
,Screen_3,canvas.Screen,0_0_9_2,,skipped,10,65313.20000000298,,,65312.09999999404,,65313.20000000298,2021-11-03T09:32:39.677Z,65426.215,1635931890,incremental,ni_sequenzen,NI_Sequenzen,,,,,,,,,,,,,,
,Screen_4,canvas.Screen,0_0_9_3,,skipped,10,65314,,,65312.09999999404,,65314.20000000298,2021-11-03T09:32:39.678Z,65426.215,1635931890,incremental,ni_sequenzen,NI_Sequenzen,,,,,,,,,,,,,,
,Sequence,flow.Sequence,0_0_9,,completion,10,65311.79999999702,,,65312.09999999404,,65314.20000000298,2021-11-03T09:32:39.678Z,65426.215,1635931890,incremental,ni_sequenzen,NI_Sequenzen,,,,,,,,,,,,,,
,Screen_1,canvas.Screen,0_0_10_0,,skipped,11,65314.90000000596,,,65314.90000000596,,65314.90000000596,2021-11-03T09:32:39.679Z,65426.215,1635931890,incremental,ni_sequenzen,NI_Sequenzen,,,,,,,,,,,,,,
,Screen_2,canvas.Screen,0_0_10_1,,skipped,11,65315.29999999702,,,65314.90000000596,,65315.29999999702,2021-11-03T09:32:39.679Z,65426.215,1635931890,incremental,ni_sequenzen,NI_Sequenzen,,,,,,,,,,,,,,
,Screen_3,canvas.Screen,0_0_10_2,,skipped,11,65315.70000000298,,,65314.90000000596,,65315.70000000298,2021-11-03T09:32:39.680Z,65426.215,1635931890,incremental,ni_sequenzen,NI_Sequenzen,,,,,,,,,,,,,,
,Screen_4,canvas.Screen,0_0_10_3,,skipped,11,65316.20000000298,,,65314.90000000596,,65316.20000000298,2021-11-03T09:32:39.680Z,65426.215,1635931890,incremental,ni_sequenzen,NI_Sequenzen,,,,,,,,,,,,,,
,Sequence,flow.Sequence,0_0_10,,completion,11,65314.29999999702,,,65314.90000000596,,65316.29999999702,2021-11-03T09:32:39.680Z,65426.215,1635931890,incremental,ni_sequenzen,NI_Sequenzen,,,,,,,,,,,,,,
,Screen_1,canvas.Screen,0_0_11_0,,skipped,12,65316.79999999702,,,65316.79999999702,,65316.79999999702,2021-11-03T09:32:39.681Z,65426.215,1635931890,incremental,ni_sequenzen,NI_Sequenzen,,,,,,,,,,,,,,
,Screen_2,canvas.Screen,0_0_11_1,,skipped,12,65318,,,65316.79999999702,,65318,2021-11-03T09:32:39.682Z,65426.215,1635931890,incremental,ni_sequenzen,NI_Sequenzen,,,,,,,,,,,,,,
,Screen_3,canvas.Screen,0_0_11_2,,skipped,12,65318.5,,,65316.79999999702,,65318.5,2021-11-03T09:32:39.683Z,65426.215,1635931890,incremental,ni_sequenzen,NI_Sequenzen,,,,,,,,,,,,,,
,Screen_4,canvas.Screen,0_0_11_3,,skipped,12,65318.79999999702,,,65316.79999999702,,65318.79999999702,2021-11-03T09:32:39.683Z,65426.215,1635931890,incremental,ni_sequenzen,NI_Sequenzen,,,,,,,,,,,,,,
,Sequence,flow.Sequence,0_0_11,,completion,12,65316.40000000596,,,65316.79999999702,,65319,2021-11-03T09:32:39.683Z,65426.215,1635931890,incremental,ni_sequenzen,NI_Sequenzen,,,,,,,,,,,,,,
,Screen_1,canvas.Screen,0_0_12_0,,skipped,13,65319.5,,,65319.5,,65319.5,2021-11-03T09:32:39.684Z,65426.215,1635931890,incremental,ni_sequenzen,NI_Sequenzen,,,,,,,,,,,,,,
,Screen_2,canvas.Screen,0_0_12_1,,skipped,13,65319.79999999702,,,65319.5,,65319.79999999702,2021-11-03T09:32:39.684Z,65426.215,1635931890,incremental,ni_sequenzen,NI_Sequenzen,,,,,,,,,,,,,,
,Screen_3,canvas.Screen,0_0_12_2,,skipped,13,65320.09999999404,,,65319.5,,65320.20000000298,2021-11-03T09:32:39.684Z,65426.215,1635931890,incremental,ni_sequenzen,NI_Sequenzen,,,,,,,,,,,,,,
,Screen_4,canvas.Screen,0_0_12_3,,skipped,13,65320.5,,,65319.5,,65320.59999999404,2021-11-03T09:32:39.685Z,65426.215,1635931890,incremental,ni_sequenzen,NI_Sequenzen,,,,,,,,,,,,,,
,Sequence,flow.Sequence,0_0_12,,completion,13,65319.09999999404,,,65319.5,,65320.59999999404,2021-11-03T09:32:39.685Z,65426.215,1635931890,incremental,ni_sequenzen,NI_Sequenzen,,,,,,,,,,,,,,
,Screen_1,canvas.Screen,0_0_13_0,,skipped,14,65321.40000000596,,,65321.40000000596,,65321.5,2021-11-03T09:32:39.685Z,65426.215,1635931890,incremental,ni_sequenzen,NI_Sequenzen,,,,,,,,,,,,,,
,Screen_2,canvas.Screen,0_0_13_1,,skipped,14,65321.79999999702,,,65321.40000000596,,65322,2021-11-03T09:32:39.686Z,65426.215,1635931890,incremental,ni_sequenzen,NI_Sequenzen,,,,,,,,,,,,,,
,Screen_3,canvas.Screen,0_0_13_2,,skipped,14,65322.40000000596,,,65321.40000000596,,65322.40000000596,2021-11-03T09:32:39.686Z,65426.215,1635931890,incremental,ni_sequenzen,NI_Sequenzen,,,,,,,,,,,,,,
,Screen_4,canvas.Screen,0_0_13_3,,skipped,14,65322.79999999702,,,65321.40000000596,,65322.79999999702,2021-11-03T09:32:39.687Z,65426.215,1635931890,incremental,ni_sequenzen,NI_Sequenzen,,,,,,,,,,,,,,
,Sequence,flow.Sequence,0_0_13,,completion,14,65320.70000000298,,,65321.40000000596,,65322.79999999702,2021-11-03T09:32:39.687Z,65426.215,1635931890,incremental,ni_sequenzen,NI_Sequenzen,,,,,,,,,,,,,,
,Screen_1,canvas.Screen,0_0_14_0,,skipped,15,65323.20000000298,,,65323.20000000298,,65323.40000000596,2021-11-03T09:32:39.687Z,65426.215,1635931890,incremental,ni_sequenzen,NI_Sequenzen,,,,,,,,,,,,,,
,Screen_2,canvas.Screen,0_0_14_1,,skipped,15,65323.59999999404,,,65323.20000000298,,65323.79999999702,2021-11-03T09:32:39.688Z,65426.215,1635931890,incremental,ni_sequenzen,NI_Sequenzen,,,,,,,,,,,,,,
,Screen_3,canvas.Screen,0_0_14_2,,skipped,15,65324,,,65323.20000000298,,65324,2021-11-03T09:32:39.688Z,65426.215,1635931890,incremental,ni_sequenzen,NI_Sequenzen,,,,,,,,,,,,,,
,Screen_4,canvas.Screen,0_0_14_3,,skipped,15,65324.40000000596,,,65323.20000000298,,65324.40000000596,2021-11-03T09:32:39.688Z,65426.215,1635931890,incremental,ni_sequenzen,NI_Sequenzen,,,,,,,,,,,,,,
,Sequence,flow.Sequence,0_0_14,,completion,15,65323,,,65323.20000000298,,65324.70000000298,2021-11-03T09:32:39.689Z,65426.215,1635931890,incremental,ni_sequenzen,NI_Sequenzen,,,,,,,,,,,,,,
,Screen_1,canvas.Screen,0_0_15_0,,skipped,16,65325,,,65325,,65325,2021-11-03T09:32:39.689Z,65426.215,1635931890,incremental,ni_sequenzen,NI_Sequenzen,,,,,,,,,,,,,,
,Screen_2,canvas.Screen,0_0_15_1,,skipped,16,65325.40000000596,,,65325,,65325.40000000596,2021-11-03T09:32:39.689Z,65426.215,1635931890,incremental,ni_sequenzen,NI_Sequenzen,,,,,,,,,,,,,,
,Screen_3,canvas.Screen,0_0_15_2,,skipped,16,65325.70000000298,,,65325,,65325.70000000298,2021-11-03T09:32:39.690Z,65426.215,1635931890,incremental,ni_sequenzen,NI_Sequenzen,,,,,,,,,,,,,,
,Screen_4,canvas.Screen,0_0_15_3,,skipped,16,65326.90000000596,,,65325,,65327,2021-11-03T09:32:39.691Z,65426.215,1635931890,incremental,ni_sequenzen,NI_Sequenzen,,,,,,,,,,,,,,
,Sequence,flow.Sequence,0_0_15,,completion,16,65324.79999999702,,,65325,,65327,2021-11-03T09:32:39.691Z,65426.215,1635931890,incremental,ni_sequenzen,NI_Sequenzen,,,,,,,,,,,,,,
,Screen_1,canvas.Screen,0_0_16_0,,skipped,17,65327.5,,,65327.5,,65327.5,2021-11-03T09:32:39.691Z,65426.215,1635931890,incremental,ni_sequenzen,NI_Sequenzen,,,,,,,,,,,,,,
,Screen_2,canvas.Screen,0_0_16_1,,skipped,17,65327.70000000298,,,65327.5,,65327.70000000298,2021-11-03T09:32:39.692Z,65426.215,1635931890,incremental,ni_sequenzen,NI_Sequenzen,,,,,,,,,,,,,,
,Screen_3,canvas.Screen,0_0_16_2,,skipped,17,65328.5,,,65327.5,,65328.5,2021-11-03T09:32:39.693Z,65426.215,1635931890,incremental,ni_sequenzen,NI_Sequenzen,,,,,,,,,,,,,,
,Screen_4,canvas.Screen,0_0_16_3,,skipped,17,65329,,,65327.5,,65329,2021-11-03T09:32:39.693Z,65426.215,1635931890,incremental,ni_sequenzen,NI_Sequenzen,,,,,,,,,,,,,,
,Sequence,flow.Sequence,0_0_16,,completion,17,65327.09999999404,,,65327.5,,65329,2021-11-03T09:32:39.693Z,65426.215,1635931890,incremental,ni_sequenzen,NI_Sequenzen,,,,,,,,,,,,,,
,Screen_1,canvas.Screen,0_0_17_0,,skipped,18,65329.29999999702,,,65329.29999999702,,65329.29999999702,2021-11-03T09:32:39.693Z,65426.215,1635931890,incremental,ni_sequenzen,NI_Sequenzen,,,,,,,,,,,,,,
,Screen_2,canvas.Screen,0_0_17_1,,skipped,18,65329.79999999702,,,65329.29999999702,,65329.79999999702,2021-11-03T09:32:39.694Z,65426.215,1635931890,incremental,ni_sequenzen,NI_Sequenzen,,,,,,,,,,,,,,
,Screen_3,canvas.Screen,0_0_17_2,,skipped,18,65330,,,65329.29999999702,,65330,2021-11-03T09:32:39.694Z,65426.215,1635931890,incremental,ni_sequenzen,NI_Sequenzen,,,,,,,,,,,,,,
,Screen_4,canvas.Screen,0_0_17_3,,skipped,18,65330.20000000298,,,65329.29999999702,,65330.40000000596,2021-11-03T09:32:39.694Z,65426.215,1635931890,incremental,ni_sequenzen,NI_Sequenzen,,,,,,,,,,,,,,
,Sequence,flow.Sequence,0_0_17,,completion,18,65329.09999999404,,,65329.29999999702,,65330.40000000596,2021-11-03T09:32:39.694Z,65426.215,1635931890,incremental,ni_sequenzen,NI_Sequenzen,,,,,,,,,,,,,,
,Screen_1,canvas.Screen,0_0_18_0,,skipped,19,65330.70000000298,,,65330.70000000298,,65330.70000000298,2021-11-03T09:32:39.695Z,65426.215,1635931890,incremental,ni_sequenzen,NI_Sequenzen,,,,,,,,,,,,,,
,Screen_2,canvas.Screen,0_0_18_1,,skipped,19,65331,,,65330.70000000298,,65331,2021-11-03T09:32:39.695Z,65426.215,1635931890,incremental,ni_sequenzen,NI_Sequenzen,,,,,,,,,,,,,,
,Screen_3,canvas.Screen,0_0_18_2,,skipped,19,65331.20000000298,,,65330.70000000298,,65331.40000000596,2021-11-03T09:32:39.695Z,65426.215,1635931890,incremental,ni_sequenzen,NI_Sequenzen,,,,,,,,,,,,,,
,Screen_4,canvas.Screen,0_0_18_3,,skipped,19,65331.59999999404,,,65330.70000000298,,65331.59999999404,2021-11-03T09:32:39.696Z,65426.215,1635931890,incremental,ni_sequenzen,NI_Sequenzen,,,,,,,,,,,,,,
,Sequence,flow.Sequence,0_0_18,,completion,19,65330.5,,,65330.70000000298,,65331.59999999404,2021-11-03T09:32:39.696Z,65426.215,1635931890,incremental,ni_sequenzen,NI_Sequenzen,,,,,,,,,,,,,,
,Screen_1,canvas.Screen,0_0_19_0,,skipped,20,65332,,,65332,,65332,2021-11-03T09:32:39.696Z,65426.215,1635931890,incremental,ni_sequenzen,NI_Sequenzen,,,,,,,,,,,,,,
,Screen_2,canvas.Screen,0_0_19_1,,skipped,20,65332.29999999702,,,65332,,65332.29999999702,2021-11-03T09:32:39.696Z,65426.215,1635931890,incremental,ni_sequenzen,NI_Sequenzen,,,,,,,,,,,,,,
,Screen_3,canvas.Screen,0_0_19_2,,skipped,20,65333,,,65332,,65333,2021-11-03T09:32:39.697Z,65426.215,1635931890,incremental,ni_sequenzen,NI_Sequenzen,,,,,,,,,,,,,,
,Screen_4,canvas.Screen,0_0_19_3,,skipped,20,65333.40000000596,,,65332,,65333.40000000596,2021-11-03T09:32:39.697Z,65426.215,1635931890,incremental,ni_sequenzen,NI_Sequenzen,,,,,,,,,,,,,,
,Sequence,flow.Sequence,0_0_19,,completion,20,65331.79999999702,,,65332,,65333.5,2021-11-03T09:32:39.698Z,65426.215,1635931890,incremental,ni_sequenzen,NI_Sequenzen,,,,,,,,,,,,,,
,Instructions_I,flow.Loop,0_0,,completion,,519.5,559.623,576.289,65332,64755.711,65333.59999999404,2021-11-03T09:32:39.698Z,65426.215,1635931890,incremental,ni_sequenzen,NI_Sequenzen,,,,,,,,,,,,,,
,Move,canvas.Screen,0_1_0_0,right,response,,65412.5,65409.549,65426.215,66285.20000000298,858.9850000029837,66288.20000000298,2021-11-03T09:32:40.652Z,66293.674,1635931890,incremental,ni_sequenzen,NI_Sequenzen,1,,,,,,,,,,,,,
,Move,canvas.Screen,0_1_0_1,right,response,,66293.20000000298,66277.008,66293.674,66838.90000000596,545.2260000059614,66841.70000000298,2021-11-03T09:32:41.206Z,66860.318,1635931890,incremental,ni_sequenzen,NI_Sequenzen,2,,,,,,,,,,,,,
,Move,canvas.Screen,0_1_0_2,down,response,,66847.59999999404,66843.652,66860.318,67271.90000000596,411.58200000596116,67274.09999999404,2021-11-03T09:32:41.638Z,67293.634,1635931890,incremental,ni_sequenzen,NI_Sequenzen,3,,,,,,,,,,,,,
,Move,canvas.Screen,0_1_0_3,down,response,,67278.09999999404,67276.968,67293.634,67699,405.36599999999453,67701.70000000298,2021-11-03T09:32:42.066Z,67710.284,1635931890,incremental,ni_sequenzen,NI_Sequenzen,4,,,,,,,,,,,,,
,Move,canvas.Screen,0_1_0_4,left,response,,67705.20000000298,67693.618,67710.284,68028.29999999702,318.0159999970201,68031.29999999702,2021-11-03T09:32:42.395Z,68043.604,1635931890,incremental,ni_sequenzen,NI_Sequenzen,5,,,,,,,,,,,,,
,Move,canvas.Screen,0_1_0_5,down,response,,68034.70000000298,68026.938,68043.604,68716.20000000298,672.5960000029736,68719,2021-11-03T09:32:43.083Z,68726.91,1635931890,incremental,ni_sequenzen,NI_Sequenzen,6,,,,,,,,,,,,,
,Move,canvas.Screen,0_1_0_6,left,response,,68723,68710.244,68726.91,69164.20000000298,437.29000000297674,69166.90000000596,2021-11-03T09:32:43.531Z,69176.892,1635931890,incremental,ni_sequenzen,NI_Sequenzen,7,,,,,,,,,,,,,
,Move,canvas.Screen,0_1_0_7,down,response,,69170.20000000298,69160.226,69176.892,69566.79999999702,389.90799999701267,69569.09999999404,2021-11-03T09:32:43.933Z,69576.876,1635931890,incremental,ni_sequenzen,NI_Sequenzen,8,,,,,,,,,,,,,
,Move,canvas.Screen,0_1_0_8,left,response,,69573,69560.21,69576.876,69974.40000000596,397.5240000059566,69975.70000000298,2021-11-03T09:32:44.340Z,69993.526,1635931890,incremental,ni_sequenzen,NI_Sequenzen,9,,,,,,,,,,,,,
,Move,canvas.Screen,0_1_0_9,down,response,,69977.5,69976.86,69993.526,70369.90000000596,376.37400000596244,70372.40000000596,2021-11-03T09:32:44.736Z,70376.844,1635931890,incremental,ni_sequenzen,NI_Sequenzen,10,,,,,,,,,,,,,
,Move,canvas.Screen,0_1_0_10,left,response,,70375.79999999702,70360.178,70376.844,70800.59999999404,423.7559999940422,70802.90000000596,2021-11-03T09:32:45.167Z,70810.16,1635931890,incremental,ni_sequenzen,NI_Sequenzen,11,,,,,,,,,,,,,
,Move,canvas.Screen,0_1_0_11,left,response,,70806.09999999404,70793.494,70810.16,72806.79999999702,1996.6399999970163,72810.90000000596,2021-11-03T09:32:47.175Z,72826.746,1635931890,incremental,ni_sequenzen,NI_Sequenzen,12,,,,,,,,,,,,,
,Move,canvas.Screen,0_1_0_12,right,response,,72814.29999999702,72810.08,72826.746,73524.59999999404,697.8539999940404,73527.09999999404,2021-11-03T09:32:47.891Z,73543.384,1635931890,incremental,ni_sequenzen,NI_Sequenzen,13,,,,,,,,,,,,,
,Move,canvas.Screen,0_1_0_13,right,response,,73530.40000000596,73526.718,73543.384,74120.59999999404,577.2159999940341,74123.5,2021-11-03T09:32:48.487Z,74143.991,1635931890,incremental,ni_sequenzen,NI_Sequenzen,14,,,,,,,,,,,,,
,Move,canvas.Screen,0_1_0_14,down,response,,74128,74127.325,74143.991,74996.79999999702,852.8089999970252,74999.70000000298,2021-11-03T09:32:49.364Z,75010.623,1635931890,incremental,ni_sequenzen,NI_Sequenzen,15,,,,,,,,,,,,,
,Move,canvas.Screen,0_1_0_15,right,response,,75002.90000000596,74993.957,75010.623,75328.5,317.87699999999313,75330.70000000298,2021-11-03T09:32:49.694Z,75343.943,1635931890,incremental,ni_sequenzen,NI_Sequenzen,16,,,,,,,,,,,,,
,Move,canvas.Screen,0_1_0_16,down,response,,75333.59999999404,75327.277,75343.943,75736.59999999404,392.65699999404023,75738.70000000298,2021-11-03T09:32:50.103Z,75743.927,1635931890,incremental,ni_sequenzen,NI_Sequenzen,17,,,,,,,,,,,,,
,Move,canvas.Screen,0_1_0_17,right,response,,75741.5,75727.261,75743.927,76088.59999999404,344.6729999940435,76090.90000000596,2021-11-03T09:32:50.455Z,76110.579,1635931890,incremental,ni_sequenzen,NI_Sequenzen,18,,,,,,,,,,,,,
,Move,canvas.Screen,0_1_0_18,down,response,,76094.59999999404,76093.913,76110.579,76637.79999999702,527.2209999970219,76641.09999999404,2021-11-03T09:32:51.005Z,76660.557,1635931890,incremental,ni_sequenzen,NI_Sequenzen,19,,,,,,,,,,,,,
,Move,canvas.Screen,0_1_0_19,down,response,,76644.5,76643.891,76660.557,76925.90000000596,265.34300000595977,76928.20000000298,2021-11-03T09:32:51.292Z,76943.879,1635931890,incremental,ni_sequenzen,NI_Sequenzen,20,,,,,,,,,,,,,
,Move,canvas.Screen,0_1_0_20,down,response,,76931.59999999404,76927.213,76943.879,77196.5,252.62099999999919,77198.59999999404,2021-11-03T09:32:51.562Z,77210.535,1635931890,incremental,ni_sequenzen,NI_Sequenzen,21,,,,,,,,,,,,,
,Move,canvas.Screen,0_1_0_21,left,response,,77202,77193.869,77210.535,77573.59999999404,363.06499999403604,77575.90000000596,2021-11-03T09:32:51.940Z,77593.853,1635931890,incremental,ni_sequenzen,NI_Sequenzen,22,,,,,,,,,,,,,
,Move,canvas.Screen,0_1_0_22,down,response,,77579.40000000596,77577.187,77593.853,77886.09999999404,292.24699999403674,77889,2021-11-03T09:32:52.253Z,77893.841,1635931890,incremental,ni_sequenzen,NI_Sequenzen,23,,,,,,,,,,,,,
,Move,canvas.Screen,0_1_0_23,down,response,,77891.90000000596,77877.175,77893.841,78539.5,645.6589999999997,78541.90000000596,2021-11-03T09:32:52.906Z,78560.481,1635931890,incremental,ni_sequenzen,NI_Sequenzen,24,,,,,,,,,,,,,
,Move,canvas.Screen,0_1_0_24,left,response,,78545,78543.815,78560.481,78883.70000000298,323.21900000298047,78885.59999999404,2021-11-03T09:32:53.250Z,78893.801,1635931890,incremental,ni_sequenzen,NI_Sequenzen,25,,,,,,,,,,,,,
,Move,canvas.Screen,0_1_0_25,down,response,,78889,78877.135,78893.801,79333.5,439.69899999999325,79335.79999999702,2021-11-03T09:32:53.700Z,79343.783,1635931890,incremental,ni_sequenzen,NI_Sequenzen,26,,,,,,,,,,,,,
,Move,canvas.Screen,0_1_0_26,left,response,,79340.40000000596,79327.117,79343.783,79744.5,400.7170000000042,79746.20000000298,2021-11-03T09:32:54.110Z,79760.433,1635931890,incremental,ni_sequenzen,NI_Sequenzen,27,,,,,,,,,,,,,
,Move,canvas.Screen,0_1_0_27,down,response,,79749,79743.767,79760.433,80021.59999999404,261.166999994035,80023.90000000596,2021-11-03T09:32:54.388Z,80043.755,1635931890,incremental,ni_sequenzen,NI_Sequenzen,28,,,,,,,,,,,,,
,Move,canvas.Screen,0_1_0_28,right,response,,80027.59999999404,80027.089,80043.755,81543.70000000298,1499.9450000029756,81546.70000000298,2021-11-03T09:32:55.911Z,81560.361,1635931890,incremental,ni_sequenzen,NI_Sequenzen,29,,,,,,,,,,,,,
,Move,canvas.Screen,0_1_0_29,down,response,,81550,81543.695,81560.361,81840.09999999404,279.7389999940351,81843.09999999404,2021-11-03T09:32:56.207Z,81893.681,1635931890,incremental,ni_sequenzen,NI_Sequenzen,30,,,,,,,,,,,,,
,Loop,flow.Loop,0_1_0,-999,completion,,65338.5,65409.549,65426.215,81840.09999999404,16413.884999994043,81843.5,2021-11-03T09:32:56.207Z,81893.681,1635931890,incremental,ni_sequenzen,NI_Sequenzen,,,,,,,,,,,,,,
,Training_I,flow.Sequence,0_1,,completion,,65333.79999999702,65409.549,65426.215,81840.09999999404,16413.884999994043,81843.59999999404,2021-11-03T09:32:56.207Z,81893.681,1635931890,incremental,ni_sequenzen,NI_Sequenzen,,,,,,,,,,,,,,
,Screen_1,canvas.Screen,0_2_0_0,cont,response,1,81878.29999999702,81877.015,81893.681,94277.5,12383.819000000003,94281.09999999404,2021-11-03T09:33:08.645Z,94409.847,1635931890,incremental,ni_sequenzen,NI_Sequenzen,,,,,,,,,,,,,,
,Screen_2,canvas.Screen,0_2_0_1,cont,response,1,94393.90000000596,94393.181,94409.847,103679.70000000298,9269.853000002986,103682.40000000596,2021-11-03T09:33:18.046Z,103692.809,1635931890,incremental,ni_sequenzen,NI_Sequenzen,,,,,,,,,,,,,,
,Screen_3,canvas.Screen,0_2_0_2,cont,response,1,103688.70000000298,103676.143,103692.809,107726.59999999404,4033.7909999940457,107730.40000000596,2021-11-03T09:33:22.094Z,107827.132,1635931890,incremental,ni_sequenzen,NI_Sequenzen,,,,,,,,,,,,,,
,Screen_4,canvas.Screen,0_2_0_3,cont,response,1,107811.79999999702,107810.466,107827.132,122245.29999999702,14418.167999997022,122248.70000000298,2021-11-03T09:33:36.612Z,122259.888,1635931890,incremental,ni_sequenzen,NI_Sequenzen,,,,,,,,,,,,,,
,Screen_5,canvas.Screen,0_2_0_4,cont,response,1,122253.5,122243.222,122259.888,128281.29999999702,6021.4119999970135,128284.20000000298,2021-11-03T09:33:42.647Z,128377.096,1635931890,incremental,ni_sequenzen,NI_Sequenzen,,,,,,,,,,,,,,
,Screen_6,canvas.Screen,0_2_0_5,cont,response,1,128368.79999999702,128360.43,128377.096,133821.40000000596,5444.3040000059555,133825.20000000298,2021-11-03T09:33:48.188Z,133927.577,1635931890,incremental,ni_sequenzen,NI_Sequenzen,,,,,,,,,,,,,,
,Sequence,flow.Sequence,0_2_0,,completion,1,81877.5,81877.015,81893.681,133821.40000000596,51927.71900000596,133827.79999999702,2021-11-03T09:33:48.191Z,133927.577,1635931890,incremental,ni_sequenzen,NI_Sequenzen,,,,,,,,,,,,,,
,Screen_1,canvas.Screen,0_2_1_0,,skipped,2,133831.90000000596,,,133831.90000000596,,133832,2021-11-03T09:33:48.195Z,133927.577,1635931890,incremental,ni_sequenzen,NI_Sequenzen,,,,,,,,,,,,,,
,Screen_2,canvas.Screen,0_2_1_1,,skipped,2,133833.20000000298,,,133831.90000000596,,133833.29999999702,2021-11-03T09:33:48.196Z,133927.577,1635931890,incremental,ni_sequenzen,NI_Sequenzen,,,,,,,,,,,,,,
,Screen_3,canvas.Screen,0_2_1_2,,skipped,2,133834.20000000298,,,133831.90000000596,,133834.20000000298,2021-11-03T09:33:48.197Z,133927.577,1635931890,incremental,ni_sequenzen,NI_Sequenzen,,,,,,,,,,,,,,
,Screen_4,canvas.Screen,0_2_1_3,,skipped,2,133843.5,,,133831.90000000596,,133843.59999999404,2021-11-03T09:33:48.207Z,133927.577,1635931890,incremental,ni_sequenzen,NI_Sequenzen,,,,,,,,,,,,,,
,Screen_5,canvas.Screen,0_2_1_4,,skipped,2,133844.59999999404,,,133831.90000000596,,133844.79999999702,2021-11-03T09:33:48.208Z,133927.577,1635931890,incremental,ni_sequenzen,NI_Sequenzen,,,,,,,,,,,,,,
,Screen_6,canvas.Screen,0_2_1_5,,skipped,2,133845.29999999702,,,133831.90000000596,,133845.5,2021-11-03T09:33:48.208Z,133927.577,1635931890,incremental,ni_sequenzen,NI_Sequenzen,,,,,,,,,,,,,,
,Sequence,flow.Sequence,0_2_1,,completion,2,133830.20000000298,,,133831.90000000596,,133845.5,2021-11-03T09:33:48.209Z,133927.577,1635931890,incremental,ni_sequenzen,NI_Sequenzen,,,,,,,,,,,,,,
,Screen_1,canvas.Screen,0_2_2_0,,skipped,3,133846.20000000298,,,133846.20000000298,,133846.40000000596,2021-11-03T09:33:48.209Z,133927.577,1635931890,incremental,ni_sequenzen,NI_Sequenzen,,,,,,,,,,,,,,
,Screen_2,canvas.Screen,0_2_2_1,,skipped,3,133846.79999999702,,,133846.20000000298,,133846.90000000596,2021-11-03T09:33:48.210Z,133927.577,1635931890,incremental,ni_sequenzen,NI_Sequenzen,,,,,,,,,,,,,,
,Screen_3,canvas.Screen,0_2_2_2,,skipped,3,133847.29999999702,,,133846.20000000298,,133847.29999999702,2021-11-03T09:33:48.210Z,133927.577,1635931890,incremental,ni_sequenzen,NI_Sequenzen,,,,,,,,,,,,,,
,Screen_4,canvas.Screen,0_2_2_3,,skipped,3,133847.79999999702,,,133846.20000000298,,133847.90000000596,2021-11-03T09:33:48.211Z,133927.577,1635931890,incremental,ni_sequenzen,NI_Sequenzen,,,,,,,,,,,,,,
,Screen_5,canvas.Screen,0_2_2_4,,skipped,3,133848.20000000298,,,133846.20000000298,,133848.29999999702,2021-11-03T09:33:48.211Z,133927.577,1635931890,incremental,ni_sequenzen,NI_Sequenzen,,,,,,,,,,,,,,
,Screen_6,canvas.Screen,0_2_2_5,,skipped,3,133848.79999999702,,,133846.20000000298,,133848.90000000596,2021-11-03T09:33:48.212Z,133927.577,1635931890,incremental,ni_sequenzen,NI_Sequenzen,,,,,,,,,,,,,,
,Sequence,flow.Sequence,0_2_2,,completion,3,133845.79999999702,,,133846.20000000298,,133848.90000000596,2021-11-03T09:33:48.212Z,133927.577,1635931890,incremental,ni_sequenzen,NI_Sequenzen,,,,,,,,,,,,,,
,Screen_1,canvas.Screen,0_2_3_0,,skipped,4,133849.5,,,133849.5,,133849.5,2021-11-03T09:33:48.213Z,133927.577,1635931890,incremental,ni_sequenzen,NI_Sequenzen,,,,,,,,,,,,,,
,Screen_2,canvas.Screen,0_2_3_1,,skipped,4,133850,,,133849.5,,133850,2021-11-03T09:33:48.213Z,133927.577,1635931890,incremental,ni_sequenzen,NI_Sequenzen,,,,,,,,,,,,,,
,Screen_3,canvas.Screen,0_2_3_2,,skipped,4,133850.59999999404,,,133849.5,,133850.59999999404,2021-11-03T09:33:48.214Z,133927.577,1635931890,incremental,ni_sequenzen,NI_Sequenzen,,,,,,,,,,,,,,
,Screen_4,canvas.Screen,0_2_3_3,,skipped,4,133851,,,133849.5,,133851.09999999404,2021-11-03T09:33:48.214Z,133927.577,1635931890,incremental,ni_sequenzen,NI_Sequenzen,,,,,,,,,,,,,,
,Screen_5,canvas.Screen,0_2_3_4,,skipped,4,133851.5,,,133849.5,,133851.5,2021-11-03T09:33:48.215Z,133927.577,1635931890,incremental,ni_sequenzen,NI_Sequenzen,,,,,,,,,,,,,,
,Screen_6,canvas.Screen,0_2_3_5,,skipped,4,133852.09999999404,,,133849.5,,133852.09999999404,2021-11-03T09:33:48.215Z,133927.577,1635931890,incremental,ni_sequenzen,NI_Sequenzen,,,,,,,,,,,,,,
,Sequence,flow.Sequence,0_2_3,,completion,4,133849.09999999404,,,133849.5,,133852.20000000298,2021-11-03T09:33:48.215Z,133927.577,1635931890,incremental,ni_sequenzen,NI_Sequenzen,,,,,,,,,,,,,,
,Screen_1,canvas.Screen,0_2_4_0,,skipped,5,133852.70000000298,,,133852.70000000298,,133852.70000000298,2021-11-03T09:33:48.216Z,133927.577,1635931890,incremental,ni_sequenzen,NI_Sequenzen,,,,,,,,,,,,,,
,Screen_2,canvas.Screen,0_2_4_1,,skipped,5,133853.20000000298,,,133852.70000000298,,133853.20000000298,2021-11-03T09:33:48.216Z,133927.577,1635931890,incremental,ni_sequenzen,NI_Sequenzen,,,,,,,,,,,,,,
,Screen_3,canvas.Screen,0_2_4_2,,skipped,5,133854.20000000298,,,133852.70000000298,,133854.20000000298,2021-11-03T09:33:48.217Z,133927.577,1635931890,incremental,ni_sequenzen,NI_Sequenzen,,,,,,,,,,,,,,
,Screen_4,canvas.Screen,0_2_4_3,,skipped,5,133854.59999999404,,,133852.70000000298,,133854.59999999404,2021-11-03T09:33:48.218Z,133927.577,1635931890,incremental,ni_sequenzen,NI_Sequenzen,,,,,,,,,,,,,,
,Screen_5,canvas.Screen,0_2_4_4,,skipped,5,133855.09999999404,,,133852.70000000298,,133855.09999999404,2021-11-03T09:33:48.218Z,133927.577,1635931890,incremental,ni_sequenzen,NI_Sequenzen,,,,,,,,,,,,,,
,Screen_6,canvas.Screen,0_2_4_5,,skipped,5,133855.5,,,133852.70000000298,,133855.5,2021-11-03T09:33:48.219Z,133927.577,1635931890,incremental,ni_sequenzen,NI_Sequenzen,,,,,,,,,,,,,,
,Sequence,flow.Sequence,0_2_4,,completion,5,133852.40000000596,,,133852.70000000298,,133855.59999999404,2021-11-03T09:33:48.219Z,133927.577,1635931890,incremental,ni_sequenzen,NI_Sequenzen,,,,,,,,,,,,,,
,Screen_1,canvas.Screen,0_2_5_0,,skipped,6,133856.09999999404,,,133856.09999999404,,133856.09999999404,2021-11-03T09:33:48.219Z,133927.577,1635931890,incremental,ni_sequenzen,NI_Sequenzen,,,,,,,,,,,,,,
,Screen_2,canvas.Screen,0_2_5_1,,skipped,6,133856.5,,,133856.09999999404,,133856.59999999404,2021-11-03T09:33:48.220Z,133927.577,1635931890,incremental,ni_sequenzen,NI_Sequenzen,,,,,,,,,,,,,,
,Screen_3,canvas.Screen,0_2_5_2,,skipped,6,133856.90000000596,,,133856.09999999404,,133857,2021-11-03T09:33:48.220Z,133927.577,1635931890,incremental,ni_sequenzen,NI_Sequenzen,,,,,,,,,,,,,,
,Screen_4,canvas.Screen,0_2_5_3,,skipped,6,133857.29999999702,,,133856.09999999404,,133857.29999999702,2021-11-03T09:33:48.220Z,133927.577,1635931890,incremental,ni_sequenzen,NI_Sequenzen,,,,,,,,,,,,,,
,Screen_5,canvas.Screen,0_2_5_4,,skipped,6,133857.70000000298,,,133856.09999999404,,133857.70000000298,2021-11-03T09:33:48.221Z,133927.577,1635931890,incremental,ni_sequenzen,NI_Sequenzen,,,,,,,,,,,,,,
,Screen_6,canvas.Screen,0_2_5_5,,skipped,6,133858.20000000298,,,133856.09999999404,,133858.20000000298,2021-11-03T09:33:48.221Z,133927.577,1635931890,incremental,ni_sequenzen,NI_Sequenzen,,,,,,,,,,,,,,
,Sequence,flow.Sequence,0_2_5,,completion,6,133855.70000000298,,,133856.09999999404,,133858.20000000298,2021-11-03T09:33:48.221Z,133927.577,1635931890,incremental,ni_sequenzen,NI_Sequenzen,,,,,,,,,,,,,,
,Screen_1,canvas.Screen,0_2_6_0,,skipped,7,133858.59999999404,,,133858.59999999404,,133858.70000000298,2021-11-03T09:33:48.222Z,133927.577,1635931890,incremental,ni_sequenzen,NI_Sequenzen,,,,,,,,,,,,,,
,Screen_2,canvas.Screen,0_2_6_1,,skipped,7,133859.20000000298,,,133858.59999999404,,133859.20000000298,2021-11-03T09:33:48.222Z,133927.577,1635931890,incremental,ni_sequenzen,NI_Sequenzen,,,,,,,,,,,,,,
,Screen_3,canvas.Screen,0_2_6_2,,skipped,7,133859.5,,,133858.59999999404,,133859.5,2021-11-03T09:33:48.223Z,133927.577,1635931890,incremental,ni_sequenzen,NI_Sequenzen,,,,,,,,,,,,,,
,Screen_4,canvas.Screen,0_2_6_3,,skipped,7,133860,,,133858.59999999404,,133860,2021-11-03T09:33:48.223Z,133927.577,1635931890,incremental,ni_sequenzen,NI_Sequenzen,,,,,,,,,,,,,,
,Screen_5,canvas.Screen,0_2_6_4,,skipped,7,133860.40000000596,,,133858.59999999404,,133860.40000000596,2021-11-03T09:33:48.223Z,133927.577,1635931890,incremental,ni_sequenzen,NI_Sequenzen,,,,,,,,,,,,,,
,Screen_6,canvas.Screen,0_2_6_5,,skipped,7,133861.29999999702,,,133858.59999999404,,133861.40000000596,2021-11-03T09:33:48.224Z,133927.577,1635931890,incremental,ni_sequenzen,NI_Sequenzen,,,,,,,,,,,,,,
,Sequence,flow.Sequence,0_2_6,,completion,7,133858.29999999702,,,133858.59999999404,,133861.5,2021-11-03T09:33:48.224Z,133927.577,1635931890,incremental,ni_sequenzen,NI_Sequenzen,,,,,,,,,,,,,,
,Screen_1,canvas.Screen,0_2_7_0,,skipped,8,133862.09999999404,,,133862.09999999404,,133862.09999999404,2021-11-03T09:33:48.225Z,133927.577,1635931890,incremental,ni_sequenzen,NI_Sequenzen,,,,,,,,,,,,,,
,Screen_2,canvas.Screen,0_2_7_1,,skipped,8,133862.5,,,133862.09999999404,,133862.5,2021-11-03T09:33:48.226Z,133927.577,1635931890,incremental,ni_sequenzen,NI_Sequenzen,,,,,,,,,,,,,,
,Screen_3,canvas.Screen,0_2_7_2,,skipped,8,133862.79999999702,,,133862.09999999404,,133863,2021-11-03T09:33:48.226Z,133927.577,1635931890,incremental,ni_sequenzen,NI_Sequenzen,,,,,,,,,,,,,,
,Screen_4,canvas.Screen,0_2_7_3,,skipped,8,133863.29999999702,,,133862.09999999404,,133863.29999999702,2021-11-03T09:33:48.226Z,133927.577,1635931890,incremental,ni_sequenzen,NI_Sequenzen,,,,,,,,,,,,,,
,Screen_5,canvas.Screen,0_2_7_4,,skipped,8,133863.70000000298,,,133862.09999999404,,133863.70000000298,2021-11-03T09:33:48.227Z,133927.577,1635931890,incremental,ni_sequenzen,NI_Sequenzen,,,,,,,,,,,,,,
,Screen_6,canvas.Screen,0_2_7_5,,skipped,8,133864.09999999404,,,133862.09999999404,,133864.09999999404,2021-11-03T09:33:48.227Z,133927.577,1635931890,incremental,ni_sequenzen,NI_Sequenzen,,,,,,,,,,,,,,
,Sequence,flow.Sequence,0_2_7,,completion,8,133861.59999999404,,,133862.09999999404,,133864.09999999404,2021-11-03T09:33:48.227Z,133927.577,1635931890,incremental,ni_sequenzen,NI_Sequenzen,,,,,,,,,,,,,,
,Screen_1,canvas.Screen,0_2_8_0,,skipped,9,133864.59999999404,,,133864.59999999404,,133864.79999999702,2021-11-03T09:33:48.228Z,133927.577,1635931890,incremental,ni_sequenzen,NI_Sequenzen,,,,,,,,,,,,,,
,Screen_2,canvas.Screen,0_2_8_1,,skipped,9,133865,,,133864.59999999404,,133865.09999999404,2021-11-03T09:33:48.228Z,133927.577,1635931890,incremental,ni_sequenzen,NI_Sequenzen,,,,,,,,,,,,,,
,Screen_3,canvas.Screen,0_2_8_2,,skipped,9,133865.40000000596,,,133864.59999999404,,133865.5,2021-11-03T09:33:48.228Z,133927.577,1635931890,incremental,ni_sequenzen,NI_Sequenzen,,,,,,,,,,,,,,
,Screen_4,canvas.Screen,0_2_8_3,,skipped,9,133865.79999999702,,,133864.59999999404,,133865.90000000596,2021-11-03T09:33:48.229Z,133927.577,1635931890,incremental,ni_sequenzen,NI_Sequenzen,,,,,,,,,,,,,,
,Screen_5,canvas.Screen,0_2_8_4,,skipped,9,133866.09999999404,,,133864.59999999404,,133866.09999999404,2021-11-03T09:33:48.229Z,133927.577,1635931890,incremental,ni_sequenzen,NI_Sequenzen,,,,,,,,,,,,,,
,Screen_6,canvas.Screen,0_2_8_5,,skipped,9,133866.5,,,133864.59999999404,,133866.5,2021-11-03T09:33:48.230Z,133927.577,1635931890,incremental,ni_sequenzen,NI_Sequenzen,,,,,,,,,,,,,,
,Sequence,flow.Sequence,0_2_8,,completion,9,133864.29999999702,,,133864.59999999404,,133866.5,2021-11-03T09:33:48.230Z,133927.577,1635931890,incremental,ni_sequenzen,NI_Sequenzen,,,,,,,,,,,,,,
,Screen_1,canvas.Screen,0_2_9_0,,skipped,10,133867,,,133867,,133867,2021-11-03T09:33:48.230Z,133927.577,1635931890,incremental,ni_sequenzen,NI_Sequenzen,,,,,,,,,,,,,,
,Screen_2,canvas.Screen,0_2_9_1,,skipped,10,133867.29999999702,,,133867,,133867.40000000596,2021-11-03T09:33:48.230Z,133927.577,1635931890,incremental,ni_sequenzen,NI_Sequenzen,,,,,,,,,,,,,,
,Screen_3,canvas.Screen,0_2_9_2,,skipped,10,133867.59999999404,,,133867,,133868.09999999404,2021-11-03T09:33:48.231Z,133927.577,1635931890,incremental,ni_sequenzen,NI_Sequenzen,,,,,,,,,,,,,,
,Screen_4,canvas.Screen,0_2_9_3,,skipped,10,133868.29999999702,,,133867,,133868.5,2021-11-03T09:33:48.231Z,133927.577,1635931890,incremental,ni_sequenzen,NI_Sequenzen,,,,,,,,,,,,,,
,Screen_5,canvas.Screen,0_2_9_4,,skipped,10,133868.70000000298,,,133867,,133868.70000000298,2021-11-03T09:33:48.232Z,133927.577,1635931890,incremental,ni_sequenzen,NI_Sequenzen,,,,,,,,,,,,,,
,Screen_6,canvas.Screen,0_2_9_5,,skipped,10,133869.29999999702,,,133867,,133869.29999999702,2021-11-03T09:33:48.232Z,133927.577,1635931890,incremental,ni_sequenzen,NI_Sequenzen,,,,,,,,,,,,,,
,Sequence,flow.Sequence,0_2_9,,completion,10,133866.59999999404,,,133867,,133869.29999999702,2021-11-03T09:33:48.232Z,133927.577,1635931890,incremental,ni_sequenzen,NI_Sequenzen,,,,,,,,,,,,,,
,Screen_1,canvas.Screen,0_2_10_0,,skipped,11,133869.90000000596,,,133869.90000000596,,133869.90000000596,2021-11-03T09:33:48.233Z,133927.577,1635931890,incremental,ni_sequenzen,NI_Sequenzen,,,,,,,,,,,,,,
,Screen_2,canvas.Screen,0_2_10_1,,skipped,11,133870.09999999404,,,133869.90000000596,,133870.20000000298,2021-11-03T09:33:48.233Z,133927.577,1635931890,incremental,ni_sequenzen,NI_Sequenzen,,,,,,,,,,,,,,
,Screen_3,canvas.Screen,0_2_10_2,,skipped,11,133870.70000000298,,,133869.90000000596,,133870.70000000298,2021-11-03T09:33:48.234Z,133927.577,1635931890,incremental,ni_sequenzen,NI_Sequenzen,,,,,,,,,,,,,,
,Screen_4,canvas.Screen,0_2_10_3,,skipped,11,133871,,,133869.90000000596,,133871,2021-11-03T09:33:48.234Z,133927.577,1635931890,incremental,ni_sequenzen,NI_Sequenzen,,,,,,,,,,,,,,
,Screen_5,canvas.Screen,0_2_10_4,,skipped,11,133871.40000000596,,,133869.90000000596,,133871.40000000596,2021-11-03T09:33:48.234Z,133927.577,1635931890,incremental,ni_sequenzen,NI_Sequenzen,,,,,,,,,,,,,,
,Screen_6,canvas.Screen,0_2_10_5,,skipped,11,133871.70000000298,,,133869.90000000596,,133871.70000000298,2021-11-03T09:33:48.235Z,133927.577,1635931890,incremental,ni_sequenzen,NI_Sequenzen,,,,,,,,,,,,,,
,Sequence,flow.Sequence,0_2_10,,completion,11,133869.5,,,133869.90000000596,,133871.79999999702,2021-11-03T09:33:48.235Z,133927.577,1635931890,incremental,ni_sequenzen,NI_Sequenzen,,,,,,,,,,,,,,
,Screen_1,canvas.Screen,0_2_11_0,,skipped,12,133872.20000000298,,,133872.20000000298,,133872.20000000298,2021-11-03T09:33:48.235Z,133927.577,1635931890,incremental,ni_sequenzen,NI_Sequenzen,,,,,,,,,,,,,,
,Screen_2,canvas.Screen,0_2_11_1,,skipped,12,133872.70000000298,,,133872.20000000298,,133872.70000000298,2021-11-03T09:33:48.236Z,133927.577,1635931890,incremental,ni_sequenzen,NI_Sequenzen,,,,,,,,,,,,,,
,Screen_3,canvas.Screen,0_2_11_2,,skipped,12,133873.09999999404,,,133872.20000000298,,133873.09999999404,2021-11-03T09:33:48.236Z,133927.577,1635931890,incremental,ni_sequenzen,NI_Sequenzen,,,,,,,,,,,,,,
,Screen_4,canvas.Screen,0_2_11_3,,skipped,12,133873.29999999702,,,133872.20000000298,,133873.29999999702,2021-11-03T09:33:48.236Z,133927.577,1635931890,incremental,ni_sequenzen,NI_Sequenzen,,,,,,,,,,,,,,
,Screen_5,canvas.Screen,0_2_11_4,,skipped,12,133873.70000000298,,,133872.20000000298,,133873.70000000298,2021-11-03T09:33:48.237Z,133927.577,1635931890,incremental,ni_sequenzen,NI_Sequenzen,,,,,,,,,,,,,,
,Screen_6,canvas.Screen,0_2_11_5,,skipped,12,133874.29999999702,,,133872.20000000298,,133874.29999999702,2021-11-03T09:33:48.237Z,133927.577,1635931890,incremental,ni_sequenzen,NI_Sequenzen,,,,,,,,,,,,,,
,Sequence,flow.Sequence,0_2_11,,completion,12,133872,,,133872.20000000298,,133874.5,2021-11-03T09:33:48.237Z,133927.577,1635931890,incremental,ni_sequenzen,NI_Sequenzen,,,,,,,,,,,,,,
,Screen_1,canvas.Screen,0_2_12_0,,skipped,13,133874.79999999702,,,133874.79999999702,,133874.79999999702,2021-11-03T09:33:48.238Z,133927.577,1635931890,incremental,ni_sequenzen,NI_Sequenzen,,,,,,,,,,,,,,
,Screen_2,canvas.Screen,0_2_12_1,,skipped,13,133875.29999999702,,,133874.79999999702,,133875.29999999702,2021-11-03T09:33:48.238Z,133927.577,1635931890,incremental,ni_sequenzen,NI_Sequenzen,,,,,,,,,,,,,,
,Screen_3,canvas.Screen,0_2_12_2,,skipped,13,133875.5,,,133874.79999999702,,133875.59999999404,2021-11-03T09:33:48.239Z,133927.577,1635931890,incremental,ni_sequenzen,NI_Sequenzen,,,,,,,,,,,,,,
,Screen_4,canvas.Screen,0_2_12_3,,skipped,13,133876,,,133874.79999999702,,133876,2021-11-03T09:33:48.239Z,133927.577,1635931890,incremental,ni_sequenzen,NI_Sequenzen,,,,,,,,,,,,,,
,Screen_5,canvas.Screen,0_2_12_4,,skipped,13,133876.20000000298,,,133874.79999999702,,133876.20000000298,2021-11-03T09:33:48.239Z,133927.577,1635931890,incremental,ni_sequenzen,NI_Sequenzen,,,,,,,,,,,,,,
,Screen_6,canvas.Screen,0_2_12_5,,skipped,13,133876.5,,,133874.79999999702,,133876.70000000298,2021-11-03T09:33:48.240Z,133927.577,1635931890,incremental,ni_sequenzen,NI_Sequenzen,,,,,,,,,,,,,,
,Sequence,flow.Sequence,0_2_12,,completion,13,133874.59999999404,,,133874.79999999702,,133876.70000000298,2021-11-03T09:33:48.240Z,133927.577,1635931890,incremental,ni_sequenzen,NI_Sequenzen,,,,,,,,,,,,,,
,Screen_1,canvas.Screen,0_2_13_0,,skipped,14,133877,,,133877,,133877,2021-11-03T09:33:48.240Z,133927.577,1635931890,incremental,ni_sequenzen,NI_Sequenzen,,,,,,,,,,,,,,
,Screen_2,canvas.Screen,0_2_13_1,,skipped,14,133877.29999999702,,,133877,,133877.29999999702,2021-11-03T09:33:48.240Z,133927.577,1635931890,incremental,ni_sequenzen,NI_Sequenzen,,,,,,,,,,,,,,
,Screen_3,canvas.Screen,0_2_13_2,,skipped,14,133877.5,,,133877,,133877.59999999404,2021-11-03T09:33:48.241Z,133927.577,1635931890,incremental,ni_sequenzen,NI_Sequenzen,,,,,,,,,,,,,,
,Screen_4,canvas.Screen,0_2_13_3,,skipped,14,133877.90000000596,,,133877,,133877.90000000596,2021-11-03T09:33:48.241Z,133927.577,1635931890,incremental,ni_sequenzen,NI_Sequenzen,,,,,,,,,,,,,,
,Screen_5,canvas.Screen,0_2_13_4,,skipped,14,133878.20000000298,,,133877,,133878.20000000298,2021-11-03T09:33:48.241Z,133927.577,1635931890,incremental,ni_sequenzen,NI_Sequenzen,,,,,,,,,,,,,,
,Screen_6,canvas.Screen,0_2_13_5,,skipped,14,133878.5,,,133877,,133878.5,2021-11-03T09:33:48.241Z,133927.577,1635931890,incremental,ni_sequenzen,NI_Sequenzen,,,,,,,,,,,,,,
,Sequence,flow.Sequence,0_2_13,,completion,14,133876.79999999702,,,133877,,133878.5,2021-11-03T09:33:48.242Z,133927.577,1635931890,incremental,ni_sequenzen,NI_Sequenzen,,,,,,,,,,,,,,
,Screen_1,canvas.Screen,0_2_14_0,,skipped,15,133879.09999999404,,,133879.09999999404,,133879.29999999702,2021-11-03T09:33:48.242Z,133927.577,1635931890,incremental,ni_sequenzen,NI_Sequenzen,,,,,,,,,,,,,,
,Screen_2,canvas.Screen,0_2_14_1,,skipped,15,133879.5,,,133879.09999999404,,133879.5,2021-11-03T09:33:48.242Z,133927.577,1635931890,incremental,ni_sequenzen,NI_Sequenzen,,,,,,,,,,,,,,
,Screen_3,canvas.Screen,0_2_14_2,,skipped,15,133879.79999999702,,,133879.09999999404,,133879.79999999702,2021-11-03T09:33:48.243Z,133927.577,1635931890,incremental,ni_sequenzen,NI_Sequenzen,,,,,,,,,,,,,,
,Screen_4,canvas.Screen,0_2_14_3,,skipped,15,133880,,,133879.09999999404,,133880.20000000298,2021-11-03T09:33:48.243Z,133927.577,1635931890,incremental,ni_sequenzen,NI_Sequenzen,,,,,,,,,,,,,,
,Screen_5,canvas.Screen,0_2_14_4,,skipped,15,133880.40000000596,,,133879.09999999404,,133880.40000000596,2021-11-03T09:33:48.243Z,133927.577,1635931890,incremental,ni_sequenzen,NI_Sequenzen,,,,,,,,,,,,,,
,Screen_6,canvas.Screen,0_2_14_5,,skipped,15,133880.70000000298,,,133879.09999999404,,133880.70000000298,2021-11-03T09:33:48.244Z,133927.577,1635931890,incremental,ni_sequenzen,NI_Sequenzen,,,,,,,,,,,,,,
,Sequence,flow.Sequence,0_2_14,,completion,15,133878.70000000298,,,133879.09999999404,,133880.70000000298,2021-11-03T09:33:48.244Z,133927.577,1635931890,incremental,ni_sequenzen,NI_Sequenzen,,,,,,,,,,,,,,
,Screen_1,canvas.Screen,0_2_15_0,,skipped,16,133881.29999999702,,,133881.29999999702,,133881.29999999702,2021-11-03T09:33:48.244Z,133927.577,1635931890,incremental,ni_sequenzen,NI_Sequenzen,,,,,,,,,,,,,,
,Screen_2,canvas.Screen,0_2_15_1,,skipped,16,133881.5,,,133881.29999999702,,133881.5,2021-11-03T09:33:48.245Z,133927.577,1635931890,incremental,ni_sequenzen,NI_Sequenzen,,,,,,,,,,,,,,
,Screen_3,canvas.Screen,0_2_15_2,,skipped,16,133881.79999999702,,,133881.29999999702,,133881.79999999702,2021-11-03T09:33:48.245Z,133927.577,1635931890,incremental,ni_sequenzen,NI_Sequenzen,,,,,,,,,,,,,,
,Screen_4,canvas.Screen,0_2_15_3,,skipped,16,133882,,,133881.29999999702,,133882.09999999404,2021-11-03T09:33:48.245Z,133927.577,1635931890,incremental,ni_sequenzen,NI_Sequenzen,,,,,,,,,,,,,,
,Screen_5,canvas.Screen,0_2_15_4,,skipped,16,133882.40000000596,,,133881.29999999702,,133882.40000000596,2021-11-03T09:33:48.245Z,133927.577,1635931890,incremental,ni_sequenzen,NI_Sequenzen,,,,,,,,,,,,,,
,Screen_6,canvas.Screen,0_2_15_5,,skipped,16,133882.59999999404,,,133881.29999999702,,133882.59999999404,2021-11-03T09:33:48.246Z,133927.577,1635931890,incremental,ni_sequenzen,NI_Sequenzen,,,,,,,,,,,,,,
,Sequence,flow.Sequence,0_2_15,,completion,16,133881,,,133881.29999999702,,133882.79999999702,2021-11-03T09:33:48.246Z,133927.577,1635931890,incremental,ni_sequenzen,NI_Sequenzen,,,,,,,,,,,,,,
,Screen_1,canvas.Screen,0_2_16_0,,skipped,17,133883.09999999404,,,133883.09999999404,,133883.09999999404,2021-11-03T09:33:48.246Z,133927.577,1635931890,incremental,ni_sequenzen,NI_Sequenzen,,,,,,,,,,,,,,
,Screen_2,canvas.Screen,0_2_16_1,,skipped,17,133883.70000000298,,,133883.09999999404,,133883.79999999702,2021-11-03T09:33:48.247Z,133927.577,1635931890,incremental,ni_sequenzen,NI_Sequenzen,,,,,,,,,,,,,,
,Screen_3,canvas.Screen,0_2_16_2,,skipped,17,133884,,,133883.09999999404,,133884,2021-11-03T09:33:48.247Z,133927.577,1635931890,incremental,ni_sequenzen,NI_Sequenzen,,,,,,,,,,,,,,
,Screen_4,canvas.Screen,0_2_16_3,,skipped,17,133884.20000000298,,,133883.09999999404,,133884.20000000298,2021-11-03T09:33:48.247Z,133927.577,1635931890,incremental,ni_sequenzen,NI_Sequenzen,,,,,,,,,,,,,,
,Screen_5,canvas.Screen,0_2_16_4,,skipped,17,133884.5,,,133883.09999999404,,133884.5,2021-11-03T09:33:48.248Z,133927.577,1635931890,incremental,ni_sequenzen,NI_Sequenzen,,,,,,,,,,,,,,
,Screen_6,canvas.Screen,0_2_16_5,,skipped,17,133884.70000000298,,,133883.09999999404,,133884.70000000298,2021-11-03T09:33:48.248Z,133927.577,1635931890,incremental,ni_sequenzen,NI_Sequenzen,,,,,,,,,,,,,,
,Sequence,flow.Sequence,0_2_16,,completion,17,133882.90000000596,,,133883.09999999404,,133884.90000000596,2021-11-03T09:33:48.248Z,133927.577,1635931890,incremental,ni_sequenzen,NI_Sequenzen,,,,,,,,,,,,,,
,Screen_1,canvas.Screen,0_2_17_0,,skipped,18,133885.09999999404,,,133885.09999999404,,133885.09999999404,2021-11-03T09:33:48.248Z,133927.577,1635931890,incremental,ni_sequenzen,NI_Sequenzen,,,,,,,,,,,,,,
,Screen_2,canvas.Screen,0_2_17_1,,skipped,18,133885.40000000596,,,133885.09999999404,,133885.40000000596,2021-11-03T09:33:48.248Z,133927.577,1635931890,incremental,ni_sequenzen,NI_Sequenzen,,,,,,,,,,,,,,
,Screen_3,canvas.Screen,0_2_17_2,,skipped,18,133885.70000000298,,,133885.09999999404,,133885.70000000298,2021-11-03T09:33:48.249Z,133927.577,1635931890,incremental,ni_sequenzen,NI_Sequenzen,,,,,,,,,,,,,,
,Screen_4,canvas.Screen,0_2_17_3,,skipped,18,133885.90000000596,,,133885.09999999404,,133885.90000000596,2021-11-03T09:33:48.249Z,133927.577,1635931890,incremental,ni_sequenzen,NI_Sequenzen,,,,,,,,,,,,,,
,Screen_5,canvas.Screen,0_2_17_4,,skipped,18,133886.09999999404,,,133885.09999999404,,133886.09999999404,2021-11-03T09:33:48.249Z,133927.577,1635931890,incremental,ni_sequenzen,NI_Sequenzen,,,,,,,,,,,,,,
,Screen_6,canvas.Screen,0_2_17_5,,skipped,18,133886.40000000596,,,133885.09999999404,,133886.40000000596,2021-11-03T09:33:48.249Z,133927.577,1635931890,incremental,ni_sequenzen,NI_Sequenzen,,,,,,,,,,,,,,
,Sequence,flow.Sequence,0_2_17,,completion,18,133885,,,133885.09999999404,,133886.40000000596,2021-11-03T09:33:48.249Z,133927.577,1635931890,incremental,ni_sequenzen,NI_Sequenzen,,,,,,,,,,,,,,
,Screen_1,canvas.Screen,0_2_18_0,,skipped,19,133886.70000000298,,,133886.70000000298,,133886.70000000298,2021-11-03T09:33:48.250Z,133927.577,1635931890,incremental,ni_sequenzen,NI_Sequenzen,,,,,,,,,,,,,,
,Screen_2,canvas.Screen,0_2_18_1,,skipped,19,133887,,,133886.70000000298,,133887,2021-11-03T09:33:48.250Z,133927.577,1635931890,incremental,ni_sequenzen,NI_Sequenzen,,,,,,,,,,,,,,
,Screen_3,canvas.Screen,0_2_18_2,,skipped,19,133887.29999999702,,,133886.70000000298,,133887.29999999702,2021-11-03T09:33:48.250Z,133927.577,1635931890,incremental,ni_sequenzen,NI_Sequenzen,,,,,,,,,,,,,,
,Screen_4,canvas.Screen,0_2_18_3,,skipped,19,133887.70000000298,,,133886.70000000298,,133887.70000000298,2021-11-03T09:33:48.251Z,133927.577,1635931890,incremental,ni_sequenzen,NI_Sequenzen,,,,,,,,,,,,,,
,Screen_5,canvas.Screen,0_2_18_4,,skipped,19,133888,,,133886.70000000298,,133888,2021-11-03T09:33:48.251Z,133927.577,1635931890,incremental,ni_sequenzen,NI_Sequenzen,,,,,,,,,,,,,,
,Screen_6,canvas.Screen,0_2_18_5,,skipped,19,133888.29999999702,,,133886.70000000298,,133888.29999999702,2021-11-03T09:33:48.251Z,133927.577,1635931890,incremental,ni_sequenzen,NI_Sequenzen,,,,,,,,,,,,,,
,Sequence,flow.Sequence,0_2_18,,completion,19,133886.5,,,133886.70000000298,,133888.29999999702,2021-11-03T09:33:48.251Z,133927.577,1635931890,incremental,ni_sequenzen,NI_Sequenzen,,,,,,,,,,,,,,
,Screen_1,canvas.Screen,0_2_19_0,,skipped,20,133888.59999999404,,,133888.59999999404,,133888.59999999404,2021-11-03T09:33:48.252Z,133927.577,1635931890,incremental,ni_sequenzen,NI_Sequenzen,,,,,,,,,,,,,,
,Screen_2,canvas.Screen,0_2_19_1,,skipped,20,133888.90000000596,,,133888.59999999404,,133888.90000000596,2021-11-03T09:33:48.252Z,133927.577,1635931890,incremental,ni_sequenzen,NI_Sequenzen,,,,,,,,,,,,,,
,Screen_3,canvas.Screen,0_2_19_2,,skipped,20,133889.20000000298,,,133888.59999999404,,133889.20000000298,2021-11-03T09:33:48.252Z,133927.577,1635931890,incremental,ni_sequenzen,NI_Sequenzen,,,,,,,,,,,,,,
,Screen_4,canvas.Screen,0_2_19_3,,skipped,20,133889.40000000596,,,133888.59999999404,,133889.40000000596,2021-11-03T09:33:48.252Z,133927.577,1635931890,incremental,ni_sequenzen,NI_Sequenzen,,,,,,,,,,,,,,
,Screen_5,canvas.Screen,0_2_19_4,,skipped,20,133889.59999999404,,,133888.59999999404,,133889.59999999404,2021-11-03T09:33:48.253Z,133927.577,1635931890,incremental,ni_sequenzen,NI_Sequenzen,,,,,,,,,,,,,,
,Screen_6,canvas.Screen,0_2_19_5,,skipped,20,133889.90000000596,,,133888.59999999404,,133889.90000000596,2021-11-03T09:33:48.253Z,133927.577,1635931890,incremental,ni_sequenzen,NI_Sequenzen,,,,,,,,,,,,,,
,Sequence,flow.Sequence,0_2_19,,completion,20,133888.40000000596,,,133888.59999999404,,133889.90000000596,2021-11-03T09:33:48.253Z,133927.577,1635931890,incremental,ni_sequenzen,NI_Sequenzen,,,,,,,,,,,,,,
,Screen_1,canvas.Screen,0_2_20_0,,skipped,21,133890.29999999702,,,133890.29999999702,,133890.29999999702,2021-11-03T09:33:48.253Z,133927.577,1635931890,incremental,ni_sequenzen,NI_Sequenzen,,,,,,,,,,,,,,
,Screen_2,canvas.Screen,0_2_20_1,,skipped,21,133890.5,,,133890.29999999702,,133890.5,2021-11-03T09:33:48.253Z,133927.577,1635931890,incremental,ni_sequenzen,NI_Sequenzen,,,,,,,,,,,,,,
,Screen_3,canvas.Screen,0_2_20_2,,skipped,21,133890.79999999702,,,133890.29999999702,,133890.79999999702,2021-11-03T09:33:48.254Z,133927.577,1635931890,incremental,ni_sequenzen,NI_Sequenzen,,,,,,,,,,,,,,
,Screen_4,canvas.Screen,0_2_20_3,,skipped,21,133891,,,133890.29999999702,,133891,2021-11-03T09:33:48.254Z,133927.577,1635931890,incremental,ni_sequenzen,NI_Sequenzen,,,,,,,,,,,,,,
,Screen_5,canvas.Screen,0_2_20_4,,skipped,21,133891.5,,,133890.29999999702,,133891.5,2021-11-03T09:33:48.254Z,133927.577,1635931890,incremental,ni_sequenzen,NI_Sequenzen,,,,,,,,,,,,,,
,Screen_6,canvas.Screen,0_2_20_5,,skipped,21,133891.79999999702,,,133890.29999999702,,133891.79999999702,2021-11-03T09:33:48.255Z,133927.577,1635931890,incremental,ni_sequenzen,NI_Sequenzen,,,,,,,,,,,,,,
,Sequence,flow.Sequence,0_2_20,,completion,21,133890,,,133890.29999999702,,133891.79999999702,2021-11-03T09:33:48.255Z,133927.577,1635931890,incremental,ni_sequenzen,NI_Sequenzen,,,,,,,,,,,,,,
,Screen_1,canvas.Screen,0_2_21_0,,skipped,22,133892.09999999404,,,133892.09999999404,,133892.09999999404,2021-11-03T09:33:48.255Z,133927.577,1635931890,incremental,ni_sequenzen,NI_Sequenzen,,,,,,,,,,,,,,
,Screen_2,canvas.Screen,0_2_21_1,,skipped,22,133892.40000000596,,,133892.09999999404,,133892.40000000596,2021-11-03T09:33:48.255Z,133927.577,1635931890,incremental,ni_sequenzen,NI_Sequenzen,,,,,,,,,,,,,,
,Screen_3,canvas.Screen,0_2_21_2,,skipped,22,133892.59999999404,,,133892.09999999404,,133892.59999999404,2021-11-03T09:33:48.256Z,133927.577,1635931890,incremental,ni_sequenzen,NI_Sequenzen,,,,,,,,,,,,,,
,Screen_4,canvas.Screen,0_2_21_3,,skipped,22,133892.90000000596,,,133892.09999999404,,133892.90000000596,2021-11-03T09:33:48.256Z,133927.577,1635931890,incremental,ni_sequenzen,NI_Sequenzen,,,,,,,,,,,,,,
,Screen_5,canvas.Screen,0_2_21_4,,skipped,22,133893.09999999404,,,133892.09999999404,,133893.09999999404,2021-11-03T09:33:48.256Z,133927.577,1635931890,incremental,ni_sequenzen,NI_Sequenzen,,,,,,,,,,,,,,
,Screen_6,canvas.Screen,0_2_21_5,,skipped,22,133893.59999999404,,,133892.09999999404,,133893.59999999404,2021-11-03T09:33:48.257Z,133927.577,1635931890,incremental,ni_sequenzen,NI_Sequenzen,,,,,,,,,,,,,,
,Sequence,flow.Sequence,0_2_21,,completion,22,133891.90000000596,,,133892.09999999404,,133893.59999999404,2021-11-03T09:33:48.257Z,133927.577,1635931890,incremental,ni_sequenzen,NI_Sequenzen,,,,,,,,,,,,,,
,Screen_1,canvas.Screen,0_2_22_0,,skipped,23,133894,,,133894,,133894,2021-11-03T09:33:48.257Z,133927.577,1635931890,incremental,ni_sequenzen,NI_Sequenzen,,,,,,,,,,,,,,
,Screen_2,canvas.Screen,0_2_22_1,,skipped,23,133894.29999999702,,,133894,,133894.29999999702,2021-11-03T09:33:48.257Z,133927.577,1635931890,incremental,ni_sequenzen,NI_Sequenzen,,,,,,,,,,,,,,
,Screen_3,canvas.Screen,0_2_22_2,,skipped,23,133894.29999999702,,,133894,,133894.5,2021-11-03T09:33:48.257Z,133927.577,1635931890,incremental,ni_sequenzen,NI_Sequenzen,,,,,,,,,,,,,,
,Screen_4,canvas.Screen,0_2_22_3,,skipped,23,133894.70000000298,,,133894,,133894.70000000298,2021-11-03T09:33:48.258Z,133927.577,1635931890,incremental,ni_sequenzen,NI_Sequenzen,,,,,,,,,,,,,,
,Screen_5,canvas.Screen,0_2_22_4,,skipped,23,133894.90000000596,,,133894,,133894.90000000596,2021-11-03T09:33:48.258Z,133927.577,1635931890,incremental,ni_sequenzen,NI_Sequenzen,,,,,,,,,,,,,,
,Screen_6,canvas.Screen,0_2_22_5,,skipped,23,133895.09999999404,,,133894,,133895.09999999404,2021-11-03T09:33:48.258Z,133927.577,1635931890,incremental,ni_sequenzen,NI_Sequenzen,,,,,,,,,,,,,,
,Sequence,flow.Sequence,0_2_22,,completion,23,133893.70000000298,,,133894,,133895.09999999404,2021-11-03T09:33:48.258Z,133927.577,1635931890,incremental,ni_sequenzen,NI_Sequenzen,,,,,,,,,,,,,,
,Screen_1,canvas.Screen,0_2_23_0,,skipped,24,133895.40000000596,,,133895.40000000596,,133895.5,2021-11-03T09:33:48.258Z,133927.577,1635931890,incremental,ni_sequenzen,NI_Sequenzen,,,,,,,,,,,,,,
,Screen_2,canvas.Screen,0_2_23_1,,skipped,24,133895.59999999404,,,133895.40000000596,,133895.59999999404,2021-11-03T09:33:48.259Z,133927.577,1635931890,incremental,ni_sequenzen,NI_Sequenzen,,,,,,,,,,,,,,
,Screen_3,canvas.Screen,0_2_23_2,,skipped,24,133896.29999999702,,,133895.40000000596,,133896.29999999702,2021-11-03T09:33:48.259Z,133927.577,1635931890,incremental,ni_sequenzen,NI_Sequenzen,,,,,,,,,,,,,,
,Screen_4,canvas.Screen,0_2_23_3,,skipped,24,133896.5,,,133895.40000000596,,133896.5,2021-11-03T09:33:48.260Z,133927.577,1635931890,incremental,ni_sequenzen,NI_Sequenzen,,,,,,,,,,,,,,
,Screen_5,canvas.Screen,0_2_23_4,,skipped,24,133896.90000000596,,,133895.40000000596,,133896.90000000596,2021-11-03T09:33:48.260Z,133927.577,1635931890,incremental,ni_sequenzen,NI_Sequenzen,,,,,,,,,,,,,,
,Screen_6,canvas.Screen,0_2_23_5,,skipped,24,133897.09999999404,,,133895.40000000596,,133897.09999999404,2021-11-03T09:33:48.260Z,133927.577,1635931890,incremental,ni_sequenzen,NI_Sequenzen,,,,,,,,,,,,,,
,Sequence,flow.Sequence,0_2_23,,completion,24,133895.29999999702,,,133895.40000000596,,133897.09999999404,2021-11-03T09:33:48.260Z,133927.577,1635931890,incremental,ni_sequenzen,NI_Sequenzen,,,,,,,,,,,,,,
,Screen_1,canvas.Screen,0_2_24_0,,skipped,25,133897.5,,,133897.5,,133897.5,2021-11-03T09:33:48.260Z,133927.577,1635931890,incremental,ni_sequenzen,NI_Sequenzen,,,,,,,,,,,,,,
,Screen_2,canvas.Screen,0_2_24_1,,skipped,25,133897.70000000298,,,133897.5,,133897.70000000298,2021-11-03T09:33:48.261Z,133927.577,1635931890,incremental,ni_sequenzen,NI_Sequenzen,,,,,,,,,,,,,,
,Screen_3,canvas.Screen,0_2_24_2,,skipped,25,133897.90000000596,,,133897.5,,133898,2021-11-03T09:33:48.261Z,133927.577,1635931890,incremental,ni_sequenzen,NI_Sequenzen,,,,,,,,,,,,,,
,Screen_4,canvas.Screen,0_2_24_3,,skipped,25,133898.09999999404,,,133897.5,,133898.09999999404,2021-11-03T09:33:48.261Z,133927.577,1635931890,incremental,ni_sequenzen,NI_Sequenzen,,,,,,,,,,,,,,
,Screen_5,canvas.Screen,0_2_24_4,,skipped,25,133898.40000000596,,,133897.5,,133898.40000000596,2021-11-03T09:33:48.261Z,133927.577,1635931890,incremental,ni_sequenzen,NI_Sequenzen,,,,,,,,,,,,,,
,Screen_6,canvas.Screen,0_2_24_5,,skipped,25,133898.59999999404,,,133897.5,,133898.59999999404,2021-11-03T09:33:48.262Z,133927.577,1635931890,incremental,ni_sequenzen,NI_Sequenzen,,,,,,,,,,,,,,
,Sequence,flow.Sequence,0_2_24,,completion,25,133897.29999999702,,,133897.5,,133898.59999999404,2021-11-03T09:33:48.262Z,133927.577,1635931890,incremental,ni_sequenzen,NI_Sequenzen,,,,,,,,,,,,,,
,Screen_1,canvas.Screen,0_2_25_0,,skipped,26,133899,,,133899,,133899,2021-11-03T09:33:48.262Z,133927.577,1635931890,incremental,ni_sequenzen,NI_Sequenzen,,,,,,,,,,,,,,
,Screen_2,canvas.Screen,0_2_25_1,,skipped,26,133899.20000000298,,,133899,,133899.20000000298,2021-11-03T09:33:48.262Z,133927.577,1635931890,incremental,ni_sequenzen,NI_Sequenzen,,,,,,,,,,,,,,
,Screen_3,canvas.Screen,0_2_25_2,,skipped,26,133899.40000000596,,,133899,,133899.5,2021-11-03T09:33:48.262Z,133927.577,1635931890,incremental,ni_sequenzen,NI_Sequenzen,,,,,,,,,,,,,,
,Screen_4,canvas.Screen,0_2_25_3,,skipped,26,133899.59999999404,,,133899,,133899.59999999404,2021-11-03T09:33:48.263Z,133927.577,1635931890,incremental,ni_sequenzen,NI_Sequenzen,,,,,,,,,,,,,,
,Screen_5,canvas.Screen,0_2_25_4,,skipped,26,133899.90000000596,,,133899,,133899.90000000596,2021-11-03T09:33:48.263Z,133927.577,1635931890,incremental,ni_sequenzen,NI_Sequenzen,,,,,,,,,,,,,,
,Screen_6,canvas.Screen,0_2_25_5,,skipped,26,133900.29999999702,,,133899,,133900.5,2021-11-03T09:33:48.263Z,133927.577,1635931890,incremental,ni_sequenzen,NI_Sequenzen,,,,,,,,,,,,,,
,Sequence,flow.Sequence,0_2_25,,completion,26,133898.70000000298,,,133899,,133900.5,2021-11-03T09:33:48.264Z,133927.577,1635931890,incremental,ni_sequenzen,NI_Sequenzen,,,,,,,,,,,,,,
,Screen_1,canvas.Screen,0_2_26_0,,skipped,27,133900.90000000596,,,133900.90000000596,,133900.90000000596,2021-11-03T09:33:48.264Z,133927.577,1635931890,incremental,ni_sequenzen,NI_Sequenzen,,,,,,,,,,,,,,
,Screen_2,canvas.Screen,0_2_26_1,,skipped,27,133901.09999999404,,,133900.90000000596,,133901.29999999702,2021-11-03T09:33:48.264Z,133927.577,1635931890,incremental,ni_sequenzen,NI_Sequenzen,,,,,,,,,,,,,,
,Screen_3,canvas.Screen,0_2_26_2,,skipped,27,133901.40000000596,,,133900.90000000596,,133901.5,2021-11-03T09:33:48.264Z,133927.577,1635931890,incremental,ni_sequenzen,NI_Sequenzen,,,,,,,,,,,,,,
,Screen_4,canvas.Screen,0_2_26_3,,skipped,27,133901.70000000298,,,133900.90000000596,,133901.70000000298,2021-11-03T09:33:48.265Z,133927.577,1635931890,incremental,ni_sequenzen,NI_Sequenzen,,,,,,,,,,,,,,
,Screen_5,canvas.Screen,0_2_26_4,,skipped,27,133902,,,133900.90000000596,,133902,2021-11-03T09:33:48.265Z,133927.577,1635931890,incremental,ni_sequenzen,NI_Sequenzen,,,,,,,,,,,,,,
,Screen_6,canvas.Screen,0_2_26_5,,skipped,27,133902.09999999404,,,133900.90000000596,,133902.20000000298,2021-11-03T09:33:48.265Z,133927.577,1635931890,incremental,ni_sequenzen,NI_Sequenzen,,,,,,,,,,,,,,
,Sequence,flow.Sequence,0_2_26,,completion,27,133900.70000000298,,,133900.90000000596,,133902.20000000298,2021-11-03T09:33:48.265Z,133927.577,1635931890,incremental,ni_sequenzen,NI_Sequenzen,,,,,,,,,,,,,,
,Screen_1,canvas.Screen,0_2_27_0,,skipped,28,133902.5,,,133902.5,,133902.5,2021-11-03T09:33:48.266Z,133927.577,1635931890,incremental,ni_sequenzen,NI_Sequenzen,,,,,,,,,,,,,,
,Screen_2,canvas.Screen,0_2_27_1,,skipped,28,133902.70000000298,,,133902.5,,133902.70000000298,2021-11-03T09:33:48.266Z,133927.577,1635931890,incremental,ni_sequenzen,NI_Sequenzen,,,,,,,,,,,,,,
,Screen_3,canvas.Screen,0_2_27_2,,skipped,28,133902.79999999702,,,133902.5,,133903,2021-11-03T09:33:48.266Z,133927.577,1635931890,incremental,ni_sequenzen,NI_Sequenzen,,,,,,,,,,,,,,
,Screen_4,canvas.Screen,0_2_27_3,,skipped,28,133903.09999999404,,,133902.5,,133903.09999999404,2021-11-03T09:33:48.266Z,133927.577,1635931890,incremental,ni_sequenzen,NI_Sequenzen,,,,,,,,,,,,,,
,Screen_5,canvas.Screen,0_2_27_4,,skipped,28,133903.29999999702,,,133902.5,,133903.29999999702,2021-11-03T09:33:48.266Z,133927.577,1635931890,incremental,ni_sequenzen,NI_Sequenzen,,,,,,,,,,,,,,
,Screen_6,canvas.Screen,0_2_27_5,,skipped,28,133903.5,,,133902.5,,133903.5,2021-11-03T09:33:48.267Z,133927.577,1635931890,incremental,ni_sequenzen,NI_Sequenzen,,,,,,,,,,,,,,
,Sequence,flow.Sequence,0_2_27,,completion,28,133902.40000000596,,,133902.5,,133903.59999999404,2021-11-03T09:33:48.267Z,133927.577,1635931890,incremental,ni_sequenzen,NI_Sequenzen,,,,,,,,,,,,,,
,Screen_1,canvas.Screen,0_2_28_0,,skipped,29,133904,,,133904,,133904.09999999404,2021-11-03T09:33:48.267Z,133927.577,1635931890,incremental,ni_sequenzen,NI_Sequenzen,,,,,,,,,,,,,,
,Screen_2,canvas.Screen,0_2_28_1,,skipped,29,133904.20000000298,,,133904,,133904.20000000298,2021-11-03T09:33:48.267Z,133927.577,1635931890,incremental,ni_sequenzen,NI_Sequenzen,,,,,,,,,,,,,,
,Screen_3,canvas.Screen,0_2_28_2,,skipped,29,133904.5,,,133904,,133904.5,2021-11-03T09:33:48.268Z,133927.577,1635931890,incremental,ni_sequenzen,NI_Sequenzen,,,,,,,,,,,,,,
,Screen_4,canvas.Screen,0_2_28_3,,skipped,29,133904.70000000298,,,133904,,133904.70000000298,2021-11-03T09:33:48.268Z,133927.577,1635931890,incremental,ni_sequenzen,NI_Sequenzen,,,,,,,,,,,,,,
,Screen_5,canvas.Screen,0_2_28_4,,skipped,29,133904.90000000596,,,133904,,133905,2021-11-03T09:33:48.268Z,133927.577,1635931890,incremental,ni_sequenzen,NI_Sequenzen,,,,,,,,,,,,,,
,Screen_6,canvas.Screen,0_2_28_5,,skipped,29,133905.20000000298,,,133904,,133905.20000000298,2021-11-03T09:33:48.268Z,133927.577,1635931890,incremental,ni_sequenzen,NI_Sequenzen,,,,,,,,,,,,,,
,Sequence,flow.Sequence,0_2_28,,completion,29,133903.59999999404,,,133904,,133905.20000000298,2021-11-03T09:33:48.268Z,133927.577,1635931890,incremental,ni_sequenzen,NI_Sequenzen,,,,,,,,,,,,,,
,Screen_1,canvas.Screen,0_2_29_0,,skipped,30,133905.5,,,133905.5,,133905.5,2021-11-03T09:33:48.268Z,133927.577,1635931890,incremental,ni_sequenzen,NI_Sequenzen,,,,,,,,,,,,,,
,Screen_2,canvas.Screen,0_2_29_1,,skipped,30,133905.70000000298,,,133905.5,,133905.70000000298,2021-11-03T09:33:48.269Z,133927.577,1635931890,incremental,ni_sequenzen,NI_Sequenzen,,,,,,,,,,,,,,
,Screen_3,canvas.Screen,0_2_29_2,,skipped,30,133905.90000000596,,,133905.5,,133905.90000000596,2021-11-03T09:33:48.269Z,133927.577,1635931890,incremental,ni_sequenzen,NI_Sequenzen,,,,,,,,,,,,,,
,Screen_4,canvas.Screen,0_2_29_3,,skipped,30,133906.09999999404,,,133905.5,,133906.09999999404,2021-11-03T09:33:48.269Z,133927.577,1635931890,incremental,ni_sequenzen,NI_Sequenzen,,,,,,,,,,,,,,
,Screen_5,canvas.Screen,0_2_29_4,,skipped,30,133906.20000000298,,,133905.5,,133906.20000000298,2021-11-03T09:33:48.269Z,133927.577,1635931890,incremental,ni_sequenzen,NI_Sequenzen,,,,,,,,,,,,,,
,Screen_6,canvas.Screen,0_2_29_5,,skipped,30,133906.5,,,133905.5,,133906.5,2021-11-03T09:33:48.270Z,133927.577,1635931890,incremental,ni_sequenzen,NI_Sequenzen,,,,,,,,,,,,,,
,Sequence,flow.Sequence,0_2_29,,completion,30,133905.20000000298,,,133905.5,,133906.5,2021-11-03T09:33:48.270Z,133927.577,1635931890,incremental,ni_sequenzen,NI_Sequenzen,,,,,,,,,,,,,,
,Instructions_II,flow.Loop,0_2,,completion,,81877.09999999404,81877.015,81893.681,133905.5,52011.819,133906.5,2021-11-03T09:33:48.270Z,133927.577,1635931890,incremental,ni_sequenzen,NI_Sequenzen,,,,,,,,,,,,,,
,Move,canvas.Screen,0_3_0_0_0_0,down,response,,133916,133910.911,133927.577,143599.09999999404,9671.52299999405,143601.90000000596,2021-11-03T09:33:57.965Z,143627.189,1635931890,incremental,ni_sequenzen,NI_Sequenzen,1,0,,,,,,,,,,,,
,Move,canvas.Screen,0_3_0_0_0_1,right,response,,143612.20000000298,143610.523,143627.189,145098.09999999404,1470.9109999940265,145102.20000000298,2021-11-03T09:33:59.465Z,145111.138,1635931890,incremental,ni_sequenzen,NI_Sequenzen,2,0,,,,,,,,,,,,
,Move,canvas.Screen,0_3_0_0_0_2,right,response,,145107.59999999404,145094.472,145111.138,151213.09999999404,6101.961999994033,151216.29999999702,2021-11-03T09:34:05.579Z,151227.56,1635931890,incremental,ni_sequenzen,NI_Sequenzen,3,0,,,,,,,,,,,,
,Move,canvas.Screen,0_3_0_0_0_3,down,response,,151221.20000000298,151210.894,151227.56,153603,2375.4400000000023,153605.90000000596,2021-11-03T09:34:07.969Z,153644.744,1635931890,incremental,ni_sequenzen,NI_Sequenzen,4,0,,,,,,,,,,,,
,Move,canvas.Screen,0_3_0_0_0_4,-999,skipped,,153610.5,,,153603,,153610.59999999404,2021-11-03T09:34:07.973Z,153644.744,1635931890,incremental,ni_sequenzen,NI_Sequenzen,5,0,,,,,,,,,,,,
,Move,canvas.Screen,0_3_0_0_0_5,-999,skipped,,153613.5,,,153603,,153613.59999999404,2021-11-03T09:34:07.976Z,153644.744,1635931890,incremental,ni_sequenzen,NI_Sequenzen,6,0,,,,,,,,,,,,
,Move,canvas.Screen,0_3_0_0_0_6,-999,skipped,,153615.5,,,153603,,153615.59999999404,2021-11-03T09:34:07.978Z,153644.744,1635931890,incremental,ni_sequenzen,NI_Sequenzen,7,0,,,,,,,,,,,,
,Move,canvas.Screen,0_3_0_0_0_7,-999,skipped,,153617.90000000596,,,153603,,153618,2021-11-03T09:34:07.981Z,153644.744,1635931890,incremental,ni_sequenzen,NI_Sequenzen,8,0,,,,,,,,,,,,
,Move,canvas.Screen,0_3_0_0_0_8,-999,skipped,,153619.5,,,153603,,153619.5,2021-11-03T09:34:07.982Z,153644.744,1635931890,incremental,ni_sequenzen,NI_Sequenzen,9,0,,,,,,,,,,,,
,Move,canvas.Screen,0_3_0_0_0_9,-999,skipped,,153621.09999999404,,,153603,,153621.09999999404,2021-11-03T09:34:07.984Z,153644.744,1635931890,incremental,ni_sequenzen,NI_Sequenzen,10,0,,,,,,,,,,,,
,Move,canvas.Screen,0_3_0_0_0_10,-999,skipped,,153623.09999999404,,,153603,,153623.09999999404,2021-11-03T09:34:07.986Z,153644.744,1635931890,incremental,ni_sequenzen,NI_Sequenzen,11,0,,,,,,,,,,,,
,Move,canvas.Screen,0_3_0_0_0_11,-999,skipped,,153624.70000000298,,,153603,,153624.70000000298,2021-11-03T09:34:07.987Z,153644.744,1635931890,incremental,ni_sequenzen,NI_Sequenzen,12,0,,,,,,,,,,,,
,Move,canvas.Screen,0_3_0_0_0_12,-999,skipped,,153626.90000000596,,,153603,,153627,2021-11-03T09:34:07.990Z,153644.744,1635931890,incremental,ni_sequenzen,NI_Sequenzen,13,0,,,,,,,,,,,,
,Move,canvas.Screen,0_3_0_0_0_13,-999,skipped,,153629.29999999702,,,153603,,153629.29999999702,2021-11-03T09:34:07.992Z,153644.744,1635931890,incremental,ni_sequenzen,NI_Sequenzen,14,0,,,,,,,,,,,,
,Move,canvas.Screen,0_3_0_0_0_14,-999,skipped,,153630.5,,,153603,,153630.59999999404,2021-11-03T09:34:07.993Z,153644.744,1635931890,incremental,ni_sequenzen,NI_Sequenzen,15,0,,,,,,,,,,,,
,Loop,flow.Loop,0_3_0_0_0,-999,completion,,133914.59999999404,133910.911,133927.577,153603,19675.42300000001,153630.70000000298,2021-11-03T09:34:07.993Z,153644.744,1635931890,incremental,ni_sequenzen,NI_Sequenzen,,0,,,,,,,,,,,,
,Feedback,canvas.Screen,0_3_0_0_1,,timeout,,153633.40000000596,153628.078,153644.744,157627.918,3999.8399999999965,157630.29999999702,2021-11-03T09:34:11.993Z,157644.584,1635931890,incremental,ni_sequenzen,NI_Sequenzen,,0,,,,,,,,,,,,
,Trial,flow.Sequence,0_3_0_0,,completion,,133911.59999999404,133910.911,133927.577,157627.918,23700.341000000015,157630.70000000298,2021-11-03T09:34:11.993Z,157661.25,1635931890,incremental,ni_sequenzen,NI_Sequenzen,,0,,,,,,,,,,,,
,Move,canvas.Screen,0_3_0_1_0_0,down,response,,157645.09999999404,157644.584,157661.25,165622.90000000596,7961.6500000059605,165626,2021-11-03T09:34:19.989Z,165644.264,1635931890,incremental,ni_sequenzen,NI_Sequenzen,1,1,,,,,,,,,,,,
,Move,canvas.Screen,0_3_0_1_0_1,left,response,,165632.09999999404,165627.598,165644.264,166230,585.7360000000044,166232.20000000298,2021-11-03T09:34:20.595Z,166244.992,1635931890,incremental,ni_sequenzen,NI_Sequenzen,2,1,,,,,,,,,,,,
,Move,canvas.Screen,0_3_0_1_0_2,down,response,,166237.5,166228.326,166244.992,166670.90000000596,425.9080000059621,166673.70000000298,2021-11-03T09:34:21.036Z,166694.974,1635931890,incremental,ni_sequenzen,NI_Sequenzen,3,1,,,,,,,,,,,,
,Move,canvas.Screen,0_3_0_1_0_3,left,response,,166678.20000000298,166678.308,166694.974,167232.70000000298,537.7260000029928,167235.70000000298,2021-11-03T09:34:21.598Z,167278.284,1635931890,incremental,ni_sequenzen,NI_Sequenzen,4,1,,,,,,,,,,,,
,Move,canvas.Screen,0_3_0_1_0_4,-999,skipped,,167241,,,167232.70000000298,,167241.20000000298,2021-11-03T09:34:21.604Z,167278.284,1635931890,incremental,ni_sequenzen,NI_Sequenzen,5,1,,,,,,,,,,,,
,Move,canvas.Screen,0_3_0_1_0_5,-999,skipped,,167243.5,,,167232.70000000298,,167243.5,2021-11-03T09:34:21.606Z,167278.284,1635931890,incremental,ni_sequenzen,NI_Sequenzen,6,1,,,,,,,,,,,,
,Move,canvas.Screen,0_3_0_1_0_6,-999,skipped,,167245.20000000298,,,167232.70000000298,,167245.40000000596,2021-11-03T09:34:21.608Z,167278.284,1635931890,incremental,ni_sequenzen,NI_Sequenzen,7,1,,,,,,,,,,,,
,Move,canvas.Screen,0_3_0_1_0_7,-999,skipped,,167247,,,167232.70000000298,,167247,2021-11-03T09:34:21.610Z,167278.284,1635931890,incremental,ni_sequenzen,NI_Sequenzen,8,1,,,,,,,,,,,,
,Move,canvas.Screen,0_3_0_1_0_8,-999,skipped,,167249,,,167232.70000000298,,167249.09999999404,2021-11-03T09:34:21.612Z,167278.284,1635931890,incremental,ni_sequenzen,NI_Sequenzen,9,1,,,,,,,,,,,,
,Move,canvas.Screen,0_3_0_1_0_9,-999,skipped,,167250.40000000596,,,167232.70000000298,,167250.40000000596,2021-11-03T09:34:21.613Z,167278.284,1635931890,incremental,ni_sequenzen,NI_Sequenzen,10,1,,,,,,,,,,,,
,Move,canvas.Screen,0_3_0_1_0_10,-999,skipped,,167251.90000000596,,,167232.70000000298,,167252,2021-11-03T09:34:21.614Z,167278.284,1635931890,incremental,ni_sequenzen,NI_Sequenzen,11,1,,,,,,,,,,,,
,Move,canvas.Screen,0_3_0_1_0_11,-999,skipped,,167253.29999999702,,,167232.70000000298,,167253.5,2021-11-03T09:34:21.616Z,167278.284,1635931890,incremental,ni_sequenzen,NI_Sequenzen,12,1,,,,,,,,,,,,
,Move,canvas.Screen,0_3_0_1_0_12,-999,skipped,,167254.5,,,167232.70000000298,,167254.59999999404,2021-11-03T09:34:21.617Z,167278.284,1635931890,incremental,ni_sequenzen,NI_Sequenzen,13,1,,,,,,,,,,,,
,Move,canvas.Screen,0_3_0_1_0_13,-999,skipped,,167263.70000000298,,,167232.70000000298,,167263.90000000596,2021-11-03T09:34:21.626Z,167278.284,1635931890,incremental,ni_sequenzen,NI_Sequenzen,14,1,,,,,,,,,,,,
,Move,canvas.Screen,0_3_0_1_0_14,-999,skipped,,167265.40000000596,,,167232.70000000298,,167265.40000000596,2021-11-03T09:34:21.628Z,167278.284,1635931890,incremental,ni_sequenzen,NI_Sequenzen,15,1,,,,,,,,,,,,
,Loop,flow.Loop,0_3_0_1_0,-999,completion,,157643.20000000298,157644.584,157661.25,167232.70000000298,9571.45000000298,167265.5,2021-11-03T09:34:21.628Z,167278.284,1635931890,incremental,ni_sequenzen,NI_Sequenzen,,1,,,,,,,,,,,,
,Feedback,canvas.Screen,0_3_0_1_1,,timeout,,167266.5,167261.618,167278.284,171261.458,3999.8399999999965,171264.20000000298,2021-11-03T09:34:25.627Z,171278.124,1635931890,incremental,ni_sequenzen,NI_Sequenzen,,1,,,,,,,,,,,,
,Trial,flow.Sequence,0_3_0_1,,completion,,157631.20000000298,157644.584,157661.25,171261.458,13600.208000000013,171264.5,2021-11-03T09:34:25.627Z,171294.79,1635931890,incremental,ni_sequenzen,NI_Sequenzen,,1,,,,,,,,,,,,
,Move,canvas.Screen,0_3_0_2_0_0,left,response,,171281.29999999702,171278.124,171294.79,185973.90000000596,14679.110000005952,185977.90000000596,2021-11-03T09:34:40.340Z,185994.202,1635931890,incremental,ni_sequenzen,NI_Sequenzen,1,2,,,,,,,,,,,,
,Move,canvas.Screen,0_3_0_2_0_1,down,response,,185982.79999999702,185977.536,185994.202,186484.59999999404,490.3979999940493,186487,2021-11-03T09:34:40.849Z,186494.935,1635931890,incremental,ni_sequenzen,NI_Sequenzen,2,2,,,,,,,,,,,,
,Move,canvas.Screen,0_3_0_2_0_2,down,response,,186491.90000000596,186478.269,186494.935,186914.59999999404,419.66499999404186,186917.20000000298,2021-11-03T09:34:41.279Z,186929.048,1635931890,incremental,ni_sequenzen,NI_Sequenzen,3,2,,,,,,,,,,,,
,Move,canvas.Screen,0_3_0_2_0_3,left,response,,186922.29999999702,186912.382,186929.048,187459.5,530.4519999999902,187462,2021-11-03T09:34:41.824Z,187495.692,1635931890,incremental,ni_sequenzen,NI_Sequenzen,4,2,,,,,,,,,,,,
,Move,canvas.Screen,0_3_0_2_0_4,-999,skipped,,187467.09999999404,,,187459.5,,187467.09999999404,2021-11-03T09:34:41.829Z,187495.692,1635931890,incremental,ni_sequenzen,NI_Sequenzen,5,2,,,,,,,,,,,,
,Move,canvas.Screen,0_3_0_2_0_5,-999,skipped,,187468.90000000596,,,187459.5,,187468.90000000596,2021-11-03T09:34:41.831Z,187495.692,1635931890,incremental,ni_sequenzen,NI_Sequenzen,6,2,,,,,,,,,,,,
,Move,canvas.Screen,0_3_0_2_0_6,-999,skipped,,187471.90000000596,,,187459.5,,187472,2021-11-03T09:34:41.834Z,187495.692,1635931890,incremental,ni_sequenzen,NI_Sequenzen,7,2,,,,,,,,,,,,
,Move,canvas.Screen,0_3_0_2_0_7,-999,skipped,,187473.59999999404,,,187459.5,,187473.79999999702,2021-11-03T09:34:41.836Z,187495.692,1635931890,incremental,ni_sequenzen,NI_Sequenzen,8,2,,,,,,,,,,,,
,Move,canvas.Screen,0_3_0_2_0_8,-999,skipped,,187475.5,,,187459.5,,187475.5,2021-11-03T09:34:41.838Z,187495.692,1635931890,incremental,ni_sequenzen,NI_Sequenzen,9,2,,,,,,,,,,,,
,Move,canvas.Screen,0_3_0_2_0_9,-999,skipped,,187477.29999999702,,,187459.5,,187477.5,2021-11-03T09:34:41.840Z,187495.692,1635931890,incremental,ni_sequenzen,NI_Sequenzen,10,2,,,,,,,,,,,,
,Move,canvas.Screen,0_3_0_2_0_10,-999,skipped,,187478.79999999702,,,187459.5,,187478.79999999702,2021-11-03T09:34:41.841Z,187495.692,1635931890,incremental,ni_sequenzen,NI_Sequenzen,11,2,,,,,,,,,,,,
,Move,canvas.Screen,0_3_0_2_0_11,-999,skipped,,187480.40000000596,,,187459.5,,187480.40000000596,2021-11-03T09:34:41.843Z,187495.692,1635931890,incremental,ni_sequenzen,NI_Sequenzen,12,2,,,,,,,,,,,,
,Move,canvas.Screen,0_3_0_2_0_12,-999,skipped,,187481.90000000596,,,187459.5,,187481.90000000596,2021-11-03T09:34:41.844Z,187495.692,1635931890,incremental,ni_sequenzen,NI_Sequenzen,13,2,,,,,,,,,,,,
,Move,canvas.Screen,0_3_0_2_0_13,-999,skipped,,187483.40000000596,,,187459.5,,187483.40000000596,2021-11-03T09:34:41.846Z,187495.692,1635931890,incremental,ni_sequenzen,NI_Sequenzen,14,2,,,,,,,,,,,,
,Move,canvas.Screen,0_3_0_2_0_14,-999,skipped,,187484.5,,,187459.5,,187484.5,2021-11-03T09:34:41.847Z,187495.692,1635931890,incremental,ni_sequenzen,NI_Sequenzen,15,2,,,,,,,,,,,,
,Loop,flow.Loop,0_3_0_2_0,-999,completion,,171279.09999999404,171278.124,171294.79,187459.5,16164.709999999992,187484.70000000298,2021-11-03T09:34:41.847Z,187495.692,1635931890,incremental,ni_sequenzen,NI_Sequenzen,,2,,,,,,,,,,,,
,Feedback,canvas.Screen,0_3_0_2_1,,timeout,,187487.29999999702,187479.026,187495.692,191478.866,3999.8399999999965,191481.29999999702,2021-11-03T09:34:45.843Z,191495.532,1635931890,incremental,ni_sequenzen,NI_Sequenzen,,2,,,,,,,,,,,,
,Trial,flow.Sequence,0_3_0_2,,completion,,171265.09999999404,171278.124,171294.79,191478.866,20184.076,191481.70000000298,2021-11-03T09:34:45.844Z,191512.198,1635931890,incremental,ni_sequenzen,NI_Sequenzen,,2,,,,,,,,,,,,
,Move,canvas.Screen,0_3_0_3_0_0,down,response,,191498.29999999702,191495.532,191512.198,195331.79999999702,3819.601999997016,195334.90000000596,2021-11-03T09:34:49.697Z,195345.378,1635931890,incremental,ni_sequenzen,NI_Sequenzen,1,3,,,,,,,,,,,,
,Move,canvas.Screen,0_3_0_3_0_1,right,response,,195339.20000000298,195328.712,195345.378,195992.5,647.122000000003,195996.20000000298,2021-11-03T09:34:50.358Z,196012.018,1635931890,incremental,ni_sequenzen,NI_Sequenzen,2,3,,,,,,,,,,,,
,Move,canvas.Screen,0_3_0_3_0_2,left,response,,196000.40000000596,195995.352,196012.018,196965.79999999702,953.7819999970088,196968.79999999702,2021-11-03T09:34:51.331Z,196978.646,1635931890,incremental,ni_sequenzen,NI_Sequenzen,3,3,,,,,,,,,,,,
,Move,canvas.Screen,0_3_0_3_0_3,down,response,,196973.79999999702,196961.98,196978.646,202109,5130.353999999992,202112,2021-11-03T09:34:56.474Z,202128.44,1635931890,incremental,ni_sequenzen,NI_Sequenzen,4,3,,,,,,,,,,,,
,Move,canvas.Screen,0_3_0_3_0_4,right,response,,202116.5,202111.774,202128.44,203449.59999999404,1321.1599999940372,203452.5,2021-11-03T09:34:57.815Z,203478.992,1635931890,incremental,ni_sequenzen,NI_Sequenzen,5,3,,,,,,,,,,,,
,Move,canvas.Screen,0_3_0_3_0_5,-999,skipped,,203458.20000000298,,,203449.59999999404,,203458.29999999702,2021-11-03T09:34:57.820Z,203478.992,1635931890,incremental,ni_sequenzen,NI_Sequenzen,6,3,,,,,,,,,,,,
,Move,canvas.Screen,0_3_0_3_0_6,-999,skipped,,203460.59999999404,,,203449.59999999404,,203460.70000000298,2021-11-03T09:34:57.823Z,203478.992,1635931890,incremental,ni_sequenzen,NI_Sequenzen,7,3,,,,,,,,,,,,
,Move,canvas.Screen,0_3_0_3_0_7,-999,skipped,,203462.29999999702,,,203449.59999999404,,203462.40000000596,2021-11-03T09:34:57.824Z,203478.992,1635931890,incremental,ni_sequenzen,NI_Sequenzen,8,3,,,,,,,,,,,,
,Move,canvas.Screen,0_3_0_3_0_8,-999,skipped,,203463.70000000298,,,203449.59999999404,,203463.90000000596,2021-11-03T09:34:57.826Z,203478.992,1635931890,incremental,ni_sequenzen,NI_Sequenzen,9,3,,,,,,,,,,,,
,Move,canvas.Screen,0_3_0_3_0_9,-999,skipped,,203465.70000000298,,,203449.59999999404,,203465.90000000596,2021-11-03T09:34:57.828Z,203478.992,1635931890,incremental,ni_sequenzen,NI_Sequenzen,10,3,,,,,,,,,,,,
,Move,canvas.Screen,0_3_0_3_0_10,-999,skipped,,203467.20000000298,,,203449.59999999404,,203467.40000000596,2021-11-03T09:34:57.829Z,203478.992,1635931890,incremental,ni_sequenzen,NI_Sequenzen,11,3,,,,,,,,,,,,
,Move,canvas.Screen,0_3_0_3_0_11,-999,skipped,,203468.70000000298,,,203449.59999999404,,203468.79999999702,2021-11-03T09:34:57.831Z,203478.992,1635931890,incremental,ni_sequenzen,NI_Sequenzen,12,3,,,,,,,,,,,,
,Move,canvas.Screen,0_3_0_3_0_12,-999,skipped,,203470.59999999404,,,203449.59999999404,,203470.79999999702,2021-11-03T09:34:57.833Z,203478.992,1635931890,incremental,ni_sequenzen,NI_Sequenzen,13,3,,,,,,,,,,,,
,Move,canvas.Screen,0_3_0_3_0_13,-999,skipped,,203471.90000000596,,,203449.59999999404,,203471.90000000596,2021-11-03T09:34:57.834Z,203478.992,1635931890,incremental,ni_sequenzen,NI_Sequenzen,14,3,,,,,,,,,,,,
,Move,canvas.Screen,0_3_0_3_0_14,-999,skipped,,203473.29999999702,,,203449.59999999404,,203473.29999999702,2021-11-03T09:34:57.835Z,203478.992,1635931890,incremental,ni_sequenzen,NI_Sequenzen,15,3,,,,,,,,,,,,
,Loop,flow.Loop,0_3_0_3_0,-999,completion,,191496.5,191495.532,191512.198,203449.59999999404,11937.401999994036,203473.29999999702,2021-11-03T09:34:57.835Z,203478.992,1635931890,incremental,ni_sequenzen,NI_Sequenzen,,3,,,,,,,,,,,,
,Feedback,canvas.Screen,0_3_0_3_1,,timeout,,203475.90000000596,203462.326,203478.992,207462.166,3999.8399999999965,207467.09999999404,2021-11-03T09:35:01.829Z,207478.832,1635931890,incremental,ni_sequenzen,NI_Sequenzen,,3,,,,,,,,,,,,
,Trial,flow.Sequence,0_3_0_3,,completion,,191482.09999999404,191495.532,191512.198,207462.166,15949.967999999993,207467.29999999702,2021-11-03T09:35:01.829Z,207495.498,1635931890,incremental,ni_sequenzen,NI_Sequenzen,,3,,,,,,,,,,,,
,Move,canvas.Screen,0_3_0_4_0_0,down,response,,207481.29999999702,207478.832,207495.498,209535.5,2040.0020000000077,209538.90000000596,2021-11-03T09:35:03.901Z,209545.416,1635931890,incremental,ni_sequenzen,NI_Sequenzen,1,4,,,,,,,,,,,,
,Move,canvas.Screen,0_3_0_4_0_1,left,response,,209544.40000000596,209528.75,209545.416,209830.29999999702,284.88399999702233,209832.70000000298,2021-11-03T09:35:04.195Z,209845.949,1635931890,incremental,ni_sequenzen,NI_Sequenzen,2,4,,,,,,,,,,,,
,Move,canvas.Screen,0_3_0_4_0_2,down,response,,209837.29999999702,209829.283,209845.949,210213.5,367.55100000000675,210215.90000000596,2021-11-03T09:35:04.578Z,210229.267,1635931890,incremental,ni_sequenzen,NI_Sequenzen,3,4,,,,,,,,,,,,
,Move,canvas.Screen,0_3_0_4_0_3,left,response,,210219.70000000298,210212.601,210229.267,210674.20000000298,444.9330000029877,210677.29999999702,2021-11-03T09:35:05.039Z,210712.581,1635931890,incremental,ni_sequenzen,NI_Sequenzen,4,4,,,,,,,,,,,,
,Move,canvas.Screen,0_3_0_4_0_4,-999,skipped,,210681.40000000596,,,210674.20000000298,,210681.5,2021-11-03T09:35:05.043Z,210712.581,1635931890,incremental,ni_sequenzen,NI_Sequenzen,5,4,,,,,,,,,,,,
,Move,canvas.Screen,0_3_0_4_0_5,-999,skipped,,210683,,,210674.20000000298,,210683.09999999404,2021-11-03T09:35:05.045Z,210712.581,1635931890,incremental,ni_sequenzen,NI_Sequenzen,6,4,,,,,,,,,,,,
,Move,canvas.Screen,0_3_0_4_0_6,-999,skipped,,210685.79999999702,,,210674.20000000298,,210685.79999999702,2021-11-03T09:35:05.048Z,210712.581,1635931890,incremental,ni_sequenzen,NI_Sequenzen,7,4,,,,,,,,,,,,
,Move,canvas.Screen,0_3_0_4_0_7,-999,skipped,,210687.79999999702,,,210674.20000000298,,210688,2021-11-03T09:35:05.050Z,210712.581,1635931890,incremental,ni_sequenzen,NI_Sequenzen,8,4,,,,,,,,,,,,
,Move,canvas.Screen,0_3_0_4_0_8,-999,skipped,,210689.40000000596,,,210674.20000000298,,210689.5,2021-11-03T09:35:05.051Z,210712.581,1635931890,incremental,ni_sequenzen,NI_Sequenzen,9,4,,,,,,,,,,,,
,Move,canvas.Screen,0_3_0_4_0_9,-999,skipped,,210691.20000000298,,,210674.20000000298,,210691.20000000298,2021-11-03T09:35:05.053Z,210712.581,1635931890,incremental,ni_sequenzen,NI_Sequenzen,10,4,,,,,,,,,,,,
,Move,canvas.Screen,0_3_0_4_0_10,-999,skipped,,210693,,,210674.20000000298,,210693,2021-11-03T09:35:05.055Z,210712.581,1635931890,incremental,ni_sequenzen,NI_Sequenzen,11,4,,,,,,,,,,,,
,Move,canvas.Screen,0_3_0_4_0_11,-999,skipped,,210694.5,,,210674.20000000298,,210694.5,2021-11-03T09:35:05.056Z,210712.581,1635931890,incremental,ni_sequenzen,NI_Sequenzen,12,4,,,,,,,,,,,,
,Move,canvas.Screen,0_3_0_4_0_12,-999,skipped,,210695.90000000596,,,210674.20000000298,,210695.90000000596,2021-11-03T09:35:05.058Z,210712.581,1635931890,incremental,ni_sequenzen,NI_Sequenzen,13,4,,,,,,,,,,,,
,Move,canvas.Screen,0_3_0_4_0_13,-999,skipped,,210697,,,210674.20000000298,,210697,2021-11-03T09:35:05.059Z,210712.581,1635931890,incremental,ni_sequenzen,NI_Sequenzen,14,4,,,,,,,,,,,,
,Move,canvas.Screen,0_3_0_4_0_14,-999,skipped,,210698.29999999702,,,210674.20000000298,,210698.29999999702,2021-11-03T09:35:05.060Z,210712.581,1635931890,incremental,ni_sequenzen,NI_Sequenzen,15,4,,,,,,,,,,,,
,Loop,flow.Loop,0_3_0_4_0,-999,completion,,207479.5,207478.832,207495.498,210674.20000000298,3178.702000002988,210698.5,2021-11-03T09:35:05.060Z,210712.581,1635931890,incremental,ni_sequenzen,NI_Sequenzen,,4,,,,,,,,,,,,
,Feedback,canvas.Screen,0_3_0_4_1,,timeout,,210700.90000000596,210695.915,210712.581,214695.755,3999.8399999999965,214697.79999999702,2021-11-03T09:35:09.060Z,214712.421,1635931890,incremental,ni_sequenzen,NI_Sequenzen,,4,,,,,,,,,,,,
,Trial,flow.Sequence,0_3_0_4,,completion,,207468,207478.832,207495.498,214695.755,7200.257000000012,214698.09999999404,2021-11-03T09:35:09.060Z,214729.087,1635931890,incremental,ni_sequenzen,NI_Sequenzen,,4,,,,,,,,,,,,
,Move,canvas.Screen,0_3_0_5_0_0,down,response,,214712.70000000298,214712.421,214729.087,218072.59999999404,3343.51299999404,218075.90000000596,2021-11-03T09:35:12.438Z,218095.619,1635931890,incremental,ni_sequenzen,NI_Sequenzen,1,5,,,,,,,,,,,,
,Move,canvas.Screen,0_3_0_5_0_1,right,response,,218080.09999999404,218078.953,218095.619,218792.59999999404,696.9809999940335,218795.40000000596,2021-11-03T09:35:13.157Z,218812.257,1635931890,incremental,ni_sequenzen,NI_Sequenzen,2,5,,,,,,,,,,,,
,Move,canvas.Screen,0_3_0_5_0_2,left,response,,218800.09999999404,218795.591,218812.257,219885.59999999404,1073.3429999940272,219889.29999999702,2021-11-03T09:35:14.251Z,219896.18,1635931890,incremental,ni_sequenzen,NI_Sequenzen,3,5,,,,,,,,,,,,
,Move,canvas.Screen,0_3_0_5_0_3,down,response,,219893.5,219879.514,219896.18,222827.5,2931.320000000007,222830.20000000298,2021-11-03T09:35:17.192Z,222846.062,1635931890,incremental,ni_sequenzen,NI_Sequenzen,4,5,,,,,,,,,,,,
,Move,canvas.Screen,0_3_0_5_0_4,right,response,,222835.09999999404,222829.396,222846.062,224756.5,1910.4379999999946,224759.40000000596,2021-11-03T09:35:19.121Z,224795.984,1635931890,incremental,ni_sequenzen,NI_Sequenzen,5,5,,,,,,,,,,,,
,Move,canvas.Screen,0_3_0_5_0_5,-999,skipped,,224763.5,,,224756.5,,224763.70000000298,2021-11-03T09:35:19.125Z,224795.984,1635931890,incremental,ni_sequenzen,NI_Sequenzen,6,5,,,,,,,,,,,,
,Move,canvas.Screen,0_3_0_5_0_6,-999,skipped,,224766.40000000596,,,224756.5,,224766.40000000596,2021-11-03T09:35:19.128Z,224795.984,1635931890,incremental,ni_sequenzen,NI_Sequenzen,7,5,,,,,,,,,,,,
,Move,canvas.Screen,0_3_0_5_0_7,-999,skipped,,224768.09999999404,,,224756.5,,224768.09999999404,2021-11-03T09:35:19.130Z,224795.984,1635931890,incremental,ni_sequenzen,NI_Sequenzen,8,5,,,,,,,,,,,,
,Move,canvas.Screen,0_3_0_5_0_8,-999,skipped,,224770.20000000298,,,224756.5,,224770.29999999702,2021-11-03T09:35:19.132Z,224795.984,1635931890,incremental,ni_sequenzen,NI_Sequenzen,9,5,,,,,,,,,,,,
,Move,canvas.Screen,0_3_0_5_0_9,-999,skipped,,224772,,,224756.5,,224772,2021-11-03T09:35:19.134Z,224795.984,1635931890,incremental,ni_sequenzen,NI_Sequenzen,10,5,,,,,,,,,,,,
,Move,canvas.Screen,0_3_0_5_0_10,-999,skipped,,224773.5,,,224756.5,,224773.5,2021-11-03T09:35:19.135Z,224795.984,1635931890,incremental,ni_sequenzen,NI_Sequenzen,11,5,,,,,,,,,,,,
,Move,canvas.Screen,0_3_0_5_0_11,-999,skipped,,224775.5,,,224756.5,,224775.59999999404,2021-11-03T09:35:19.137Z,224795.984,1635931890,incremental,ni_sequenzen,NI_Sequenzen,12,5,,,,,,,,,,,,
,Move,canvas.Screen,0_3_0_5_0_12,-999,skipped,,224777,,,224756.5,,224777,2021-11-03T09:35:19.139Z,224795.984,1635931890,incremental,ni_sequenzen,NI_Sequenzen,13,5,,,,,,,,,,,,
,Move,canvas.Screen,0_3_0_5_0_13,-999,skipped,,224778.20000000298,,,224756.5,,224778.20000000298,2021-11-03T09:35:19.140Z,224795.984,1635931890,incremental,ni_sequenzen,NI_Sequenzen,14,5,,,,,,,,,,,,
,Move,canvas.Screen,0_3_0_5_0_14,-999,skipped,,224779.5,,,224756.5,,224779.59999999404,2021-11-03T09:35:19.141Z,224795.984,1635931890,incremental,ni_sequenzen,NI_Sequenzen,15,5,,,,,,,,,,,,
,Loop,flow.Loop,0_3_0_5_0,-999,completion,,214711,214712.421,214729.087,224756.5,10027.413,224779.59999999404,2021-11-03T09:35:19.141Z,224795.984,1635931890,incremental,ni_sequenzen,NI_Sequenzen,,5,,,,,,,,,,,,
,Feedback,canvas.Screen,0_3_0_5_1,,timeout,,224782.40000000596,224779.318,224795.984,228779.158,3999.8399999999965,228783.40000000596,2021-11-03T09:35:23.145Z,228795.824,1635931890,incremental,ni_sequenzen,NI_Sequenzen,,5,,,,,,,,,,,,
,Trial,flow.Sequence,0_3_0_5,,completion,,214698.90000000596,214712.421,214729.087,228779.158,14050.070999999996,228783.5,2021-11-03T09:35:23.145Z,228812.49,1635931890,incremental,ni_sequenzen,NI_Sequenzen,,5,,,,,,,,,,,,
,Move,canvas.Screen,0_3_0_6_0_0,down,response,,228798.20000000298,228795.824,228812.49,234168.5,5356.010000000009,234172.29999999702,2021-11-03T09:35:28.534Z,234178.942,1635931890,incremental,ni_sequenzen,NI_Sequenzen,1,6,,,,,,,,,,,,
,Move,canvas.Screen,0_3_0_6_0_1,right,response,,234176.29999999702,234162.276,234178.942,234580.20000000298,401.2580000029702,234582.59999999404,2021-11-03T09:35:28.944Z,234596.145,1635931890,incremental,ni_sequenzen,NI_Sequenzen,2,6,,,,,,,,,,,,
,Move,canvas.Screen,0_3_0_6_0_2,right,response,,234586.79999999702,234579.479,234596.145,235121.20000000298,525.0550000029907,235123.70000000298,2021-11-03T09:35:29.485Z,235129.457,1635931890,incremental,ni_sequenzen,NI_Sequenzen,3,6,,,,,,,,,,,,
,Move,canvas.Screen,0_3_0_6_0_3,down,response,,235128.20000000298,235112.791,235129.457,235469.29999999702,339.8429999970249,235472.29999999702,2021-11-03T09:35:29.834Z,235496.109,1635931890,incremental,ni_sequenzen,NI_Sequenzen,4,6,,,,,,,,,,,,
,Move,canvas.Screen,0_3_0_6_0_4,-999,skipped,,235477.5,,,235469.29999999702,,235477.79999999702,2021-11-03T09:35:29.839Z,235496.109,1635931890,incremental,ni_sequenzen,NI_Sequenzen,5,6,,,,,,,,,,,,
,Move,canvas.Screen,0_3_0_6_0_5,-999,skipped,,235480.29999999702,,,235469.29999999702,,235480.29999999702,2021-11-03T09:35:29.842Z,235496.109,1635931890,incremental,ni_sequenzen,NI_Sequenzen,6,6,,,,,,,,,,,,
,Move,canvas.Screen,0_3_0_6_0_6,-999,skipped,,235482.29999999702,,,235469.29999999702,,235482.40000000596,2021-11-03T09:35:29.844Z,235496.109,1635931890,incremental,ni_sequenzen,NI_Sequenzen,7,6,,,,,,,,,,,,
,Move,canvas.Screen,0_3_0_6_0_7,-999,skipped,,235484,,,235469.29999999702,,235484,2021-11-03T09:35:29.846Z,235496.109,1635931890,incremental,ni_sequenzen,NI_Sequenzen,8,6,,,,,,,,,,,,
,Move,canvas.Screen,0_3_0_6_0_8,-999,skipped,,235485.70000000298,,,235469.29999999702,,235485.70000000298,2021-11-03T09:35:29.847Z,235496.109,1635931890,incremental,ni_sequenzen,NI_Sequenzen,9,6,,,,,,,,,,,,
,Move,canvas.Screen,0_3_0_6_0_9,-999,skipped,,235487.59999999404,,,235469.29999999702,,235487.59999999404,2021-11-03T09:35:29.849Z,235496.109,1635931890,incremental,ni_sequenzen,NI_Sequenzen,10,6,,,,,,,,,,,,
,Move,canvas.Screen,0_3_0_6_0_10,-999,skipped,,235489.09999999404,,,235469.29999999702,,235489.20000000298,2021-11-03T09:35:29.851Z,235496.109,1635931890,incremental,ni_sequenzen,NI_Sequenzen,11,6,,,,,,,,,,,,
,Move,canvas.Screen,0_3_0_6_0_11,-999,skipped,,235490.29999999702,,,235469.29999999702,,235490.5,2021-11-03T09:35:29.852Z,235496.109,1635931890,incremental,ni_sequenzen,NI_Sequenzen,12,6,,,,,,,,,,,,
,Move,canvas.Screen,0_3_0_6_0_12,-999,skipped,,235491.59999999404,,,235469.29999999702,,235491.59999999404,2021-11-03T09:35:29.853Z,235496.109,1635931890,incremental,ni_sequenzen,NI_Sequenzen,13,6,,,,,,,,,,,,
,Move,canvas.Screen,0_3_0_6_0_13,-999,skipped,,235493.20000000298,,,235469.29999999702,,235493.20000000298,2021-11-03T09:35:29.855Z,235496.109,1635931890,incremental,ni_sequenzen,NI_Sequenzen,14,6,,,,,,,,,,,,
,Move,canvas.Screen,0_3_0_6_0_14,-999,skipped,,235494.40000000596,,,235469.29999999702,,235494.40000000596,2021-11-03T09:35:29.856Z,235496.109,1635931890,incremental,ni_sequenzen,NI_Sequenzen,15,6,,,,,,,,,,,,
,Loop,flow.Loop,0_3_0_6_0,-999,completion,,228795.70000000298,228795.824,228812.49,235469.29999999702,6656.809999997029,235494.5,2021-11-03T09:35:29.856Z,235496.109,1635931890,incremental,ni_sequenzen,NI_Sequenzen,,6,,,,,,,,,,,,
,Feedback,canvas.Screen,0_3_0_6_1,,timeout,,235495.59999999404,235479.443,235496.109,239479.283,3999.8399999999965,239480.79999999702,2021-11-03T09:35:33.842Z,239495.949,1635931890,incremental,ni_sequenzen,NI_Sequenzen,,6,,,,,,,,,,,,
,Trial,flow.Sequence,0_3_0_6,,completion,,228784.29999999702,228795.824,228812.49,239479.283,10666.793000000005,239480.90000000596,2021-11-03T09:35:33.842Z,239512.615,1635931890,incremental,ni_sequenzen,NI_Sequenzen,,6,,,,,,,,,,,,
,Move,canvas.Screen,0_3_0_7_0_0,down,response,,239485,239495.949,239512.615,245792.70000000298,6280.08500000299,245796.5,2021-11-03T09:35:40.158Z,245812.363,1635931890,incremental,ni_sequenzen,NI_Sequenzen,1,7,,,,,,,,,,,,
,Move,canvas.Screen,0_3_0_7_0_1,left,response,,245801.5,245795.697,245812.363,246220.29999999702,407.93699999700766,246223.40000000596,2021-11-03T09:35:40.585Z,246229.566,1635931890,incremental,ni_sequenzen,NI_Sequenzen,2,7,,,,,,,,,,,,
,Move,canvas.Screen,0_3_0_7_0_2,down,response,,246228.40000000596,246212.9,246229.566,246543.90000000596,314.33400000596885,246546.09999999404,2021-11-03T09:35:40.907Z,246562.886,1635931890,incremental,ni_sequenzen,NI_Sequenzen,3,7,,,,,,,,,,,,
,Move,canvas.Screen,0_3_0_7_0_3,left,response,,246551.20000000298,246546.22,246562.886,247260.09999999404,697.2139999940409,247262.70000000298,2021-11-03T09:35:41.624Z,247296.19,1635931890,incremental,ni_sequenzen,NI_Sequenzen,4,7,,,,,,,,,,,,
,Move,canvas.Screen,0_3_0_7_0_4,-999,skipped,,247267.40000000596,,,247260.09999999404,,247267.5,2021-11-03T09:35:41.629Z,247296.19,1635931890,incremental,ni_sequenzen,NI_Sequenzen,5,7,,,,,,,,,,,,
,Move,canvas.Screen,0_3_0_7_0_5,-999,skipped,,247269.70000000298,,,247260.09999999404,,247269.79999999702,2021-11-03T09:35:41.631Z,247296.19,1635931890,incremental,ni_sequenzen,NI_Sequenzen,6,7,,,,,,,,,,,,
,Move,canvas.Screen,0_3_0_7_0_6,-999,skipped,,247272,,,247260.09999999404,,247272.09999999404,2021-11-03T09:35:41.633Z,247296.19,1635931890,incremental,ni_sequenzen,NI_Sequenzen,7,7,,,,,,,,,,,,
,Move,canvas.Screen,0_3_0_7_0_7,-999,skipped,,247274.20000000298,,,247260.09999999404,,247274.20000000298,2021-11-03T09:35:41.636Z,247296.19,1635931890,incremental,ni_sequenzen,NI_Sequenzen,8,7,,,,,,,,,,,,
,Move,canvas.Screen,0_3_0_7_0_8,-999,skipped,,247275.79999999702,,,247260.09999999404,,247275.79999999702,2021-11-03T09:35:41.637Z,247296.19,1635931890,incremental,ni_sequenzen,NI_Sequenzen,9,7,,,,,,,,,,,,
,Move,canvas.Screen,0_3_0_7_0_9,-999,skipped,,247277.20000000298,,,247260.09999999404,,247277.40000000596,2021-11-03T09:35:41.639Z,247296.19,1635931890,incremental,ni_sequenzen,NI_Sequenzen,10,7,,,,,,,,,,,,
,Move,canvas.Screen,0_3_0_7_0_10,-999,skipped,,247279.90000000596,,,247260.09999999404,,247280,2021-11-03T09:35:41.641Z,247296.19,1635931890,incremental,ni_sequenzen,NI_Sequenzen,11,7,,,,,,,,,,,,
,Move,canvas.Screen,0_3_0_7_0_11,-999,skipped,,247281.40000000596,,,247260.09999999404,,247281.40000000596,2021-11-03T09:35:41.643Z,247296.19,1635931890,incremental,ni_sequenzen,NI_Sequenzen,12,7,,,,,,,,,,,,
,Move,canvas.Screen,0_3_0_7_0_12,-999,skipped,,247282.79999999702,,,247260.09999999404,,247282.90000000596,2021-11-03T09:35:41.644Z,247296.19,1635931890,incremental,ni_sequenzen,NI_Sequenzen,13,7,,,,,,,,,,,,
,Move,canvas.Screen,0_3_0_7_0_13,-999,skipped,,247284.20000000298,,,247260.09999999404,,247284.20000000298,2021-11-03T09:35:41.645Z,247296.19,1635931890,incremental,ni_sequenzen,NI_Sequenzen,14,7,,,,,,,,,,,,
,Move,canvas.Screen,0_3_0_7_0_14,-999,skipped,,247285.5,,,247260.09999999404,,247285.70000000298,2021-11-03T09:35:41.647Z,247296.19,1635931890,incremental,ni_sequenzen,NI_Sequenzen,15,7,,,,,,,,,,,,
,Loop,flow.Loop,0_3_0_7_0,-999,completion,,239484.29999999702,239495.949,239512.615,247260.09999999404,7747.484999994049,247285.70000000298,2021-11-03T09:35:41.647Z,247296.19,1635931890,incremental,ni_sequenzen,NI_Sequenzen,,7,,,,,,,,,,,,
,Feedback,canvas.Screen,0_3_0_7_1,,timeout,,247288.20000000298,247279.524,247296.19,251279.364,3999.8399999999965,251281.59999999404,2021-11-03T09:35:45.643Z,251296.03,1635931890,incremental,ni_sequenzen,NI_Sequenzen,,7,,,,,,,,,,,,
,Trial,flow.Sequence,0_3_0_7,,completion,,239480.90000000596,239495.949,239512.615,251279.364,11766.74900000001,251281.90000000596,2021-11-03T09:35:45.643Z,251312.696,1635931890,incremental,ni_sequenzen,NI_Sequenzen,,7,,,,,,,,,,,,
,Move,canvas.Screen,0_3_0_8_0_0,right,response,,251299.20000000298,251296.03,251312.696,252125.09999999404,812.4039999940433,252127.40000000596,2021-11-03T09:35:46.489Z,252145.996,1635931890,incremental,ni_sequenzen,NI_Sequenzen,1,8,,,,,,,,,,,,
,Move,canvas.Screen,0_3_0_8_0_1,down,response,,252131.09999999404,252129.33,252145.996,253632.09999999404,1486.1039999940258,253634.59999999404,2021-11-03T09:35:47.996Z,253646.617,1635931890,incremental,ni_sequenzen,NI_Sequenzen,2,8,,,,,,,,,,,,
