meta,sender,sender_type,sender_id,response,ended_on,instrCount,time_run,time_render,time_show,time_end,duration,time_commit,timestamp,time_switch,openLabId,type,task,project,move,trialN,blockN_Train,blockN,moveCount,currPP,points,movesTrial,visitedFields,diff,reward,Strategie,Zweck,Probleme
[object Object],Screen_1,canvas.Screen,0_0_0_0,cont,response,1,1355.7000000476837,1356.074,1422.726,49820.700000047684,48397.97400004768,49824.10000002384,2021-10-27T13:30:16.934Z,49939.641,1635341358,full,ni_sequenzen,NI_Sequenzen,,,,,,,,,,,,,,
,Screen_2,canvas.Screen,0_0_0_1,cont,response,1,49925,49922.955,49939.641,81519.10000002384,31579.45900002384,81519.60000002384,2021-10-27T13:30:48.629Z,81762.204,1635341358,full,ni_sequenzen,NI_Sequenzen,,,,,,,,,,,,,,
,Screen_3,canvas.Screen,0_0_0_2,cont,response,1,81741.60000002384,81728.761,81762.204,113347.30000001192,31585.096000011923,113347.80000001192,2021-10-27T13:31:20.457Z,113368.155,1635341358,full,ni_sequenzen,NI_Sequenzen,,,,,,,,,,,,,,
,Screen_4,canvas.Screen,0_0_0_3,cont,response,1,113351.60000002384,113349.54,113368.155,334943.10000002384,221574.94500002384,334944.10000002384,2021-10-27T13:35:02.053Z,335143.047,1635341358,full,ni_sequenzen,NI_Sequenzen,,,,,,,,,,,,,,
,Sequence,flow.Sequence,0_0_0,,completion,1,1025.1000000238419,1356.074,1422.726,334943.10000002384,333520.3740000238,334947.5,2021-10-27T13:35:02.057Z,335143.047,1635341358,full,ni_sequenzen,NI_Sequenzen,,,,,,,,,,,,,,
,Screen_1,canvas.Screen,0_0_1_0,,skipped,2,334950.10000002384,,,334950.10000002384,,334950.2000000477,2021-10-27T13:35:02.059Z,335143.047,1635341358,full,ni_sequenzen,NI_Sequenzen,,,,,,,,,,,,,,
,Screen_2,canvas.Screen,0_0_1_1,,skipped,2,334951.7000000477,,,334950.10000002384,,334951.8000000119,2021-10-27T13:35:02.061Z,335143.047,1635341358,full,ni_sequenzen,NI_Sequenzen,,,,,,,,,,,,,,
,Screen_3,canvas.Screen,0_0_1_2,,skipped,2,334953.5,,,334950.10000002384,,334953.60000002384,2021-10-27T13:35:02.063Z,335143.047,1635341358,full,ni_sequenzen,NI_Sequenzen,,,,,,,,,,,,,,
,Screen_4,canvas.Screen,0_0_1_3,,skipped,2,334955.2000000477,,,334950.10000002384,,334955.40000003576,2021-10-27T13:35:02.065Z,335143.047,1635341358,full,ni_sequenzen,NI_Sequenzen,,,,,,,,,,,,,,
,Sequence,flow.Sequence,0_0_1,,completion,2,334948.3000000119,,,334950.10000002384,,334955.7000000477,2021-10-27T13:35:02.065Z,335143.047,1635341358,full,ni_sequenzen,NI_Sequenzen,,,,,,,,,,,,,,
,Screen_1,canvas.Screen,0_0_2_0,,skipped,3,334957.3000000119,,,334957.3000000119,,334957.5,2021-10-27T13:35:02.067Z,335143.047,1635341358,full,ni_sequenzen,NI_Sequenzen,,,,,,,,,,,,,,
,Screen_2,canvas.Screen,0_0_2_1,,skipped,3,334958.8000000119,,,334957.3000000119,,334958.90000003576,2021-10-27T13:35:02.068Z,335143.047,1635341358,full,ni_sequenzen,NI_Sequenzen,,,,,,,,,,,,,,
,Screen_3,canvas.Screen,0_0_2_2,,skipped,3,334960.60000002384,,,334957.3000000119,,334960.7000000477,2021-10-27T13:35:02.070Z,335143.047,1635341358,full,ni_sequenzen,NI_Sequenzen,,,,,,,,,,,,,,
,Screen_4,canvas.Screen,0_0_2_3,,skipped,3,334962,,,334957.3000000119,,334962.10000002384,2021-10-27T13:35:02.071Z,335143.047,1635341358,full,ni_sequenzen,NI_Sequenzen,,,,,,,,,,,,,,
,Sequence,flow.Sequence,0_0_2,,completion,3,334956.3000000119,,,334957.3000000119,,334962.3000000119,2021-10-27T13:35:02.072Z,335143.047,1635341358,full,ni_sequenzen,NI_Sequenzen,,,,,,,,,,,,,,
,Screen_1,canvas.Screen,0_0_3_0,,skipped,4,334963.8000000119,,,334963.8000000119,,334963.90000003576,2021-10-27T13:35:02.073Z,335143.047,1635341358,full,ni_sequenzen,NI_Sequenzen,,,,,,,,,,,,,,
,Screen_2,canvas.Screen,0_0_3_1,,skipped,4,334965.10000002384,,,334963.8000000119,,334971.5,2021-10-27T13:35:02.081Z,335143.047,1635341358,full,ni_sequenzen,NI_Sequenzen,,,,,,,,,,,,,,
,Screen_3,canvas.Screen,0_0_3_2,,skipped,4,334973,,,334963.8000000119,,334973.10000002384,2021-10-27T13:35:02.082Z,335143.047,1635341358,full,ni_sequenzen,NI_Sequenzen,,,,,,,,,,,,,,
,Screen_4,canvas.Screen,0_0_3_3,,skipped,4,334974.3000000119,,,334963.8000000119,,334974.40000003576,2021-10-27T13:35:02.084Z,335143.047,1635341358,full,ni_sequenzen,NI_Sequenzen,,,,,,,,,,,,,,
,Sequence,flow.Sequence,0_0_3,,completion,4,334962.90000003576,,,334963.8000000119,,334974.60000002384,2021-10-27T13:35:02.084Z,335143.047,1635341358,full,ni_sequenzen,NI_Sequenzen,,,,,,,,,,,,,,
,Screen_1,canvas.Screen,0_0_4_0,,skipped,5,334976.2000000477,,,334976.2000000477,,334976.40000003576,2021-10-27T13:35:02.086Z,335143.047,1635341358,full,ni_sequenzen,NI_Sequenzen,,,,,,,,,,,,,,
,Screen_2,canvas.Screen,0_0_4_1,,skipped,5,334977.60000002384,,,334976.2000000477,,334977.8000000119,2021-10-27T13:35:02.087Z,335143.047,1635341358,full,ni_sequenzen,NI_Sequenzen,,,,,,,,,,,,,,
,Screen_3,canvas.Screen,0_0_4_2,,skipped,5,334994.60000002384,,,334976.2000000477,,334994.7000000477,2021-10-27T13:35:02.104Z,335143.047,1635341358,full,ni_sequenzen,NI_Sequenzen,,,,,,,,,,,,,,
,Screen_4,canvas.Screen,0_0_4_3,,skipped,5,334996.2000000477,,,334976.2000000477,,334996.3000000119,2021-10-27T13:35:02.106Z,335143.047,1635341358,full,ni_sequenzen,NI_Sequenzen,,,,,,,,,,,,,,
,Sequence,flow.Sequence,0_0_4,,completion,5,334975.2000000477,,,334976.2000000477,,334996.40000003576,2021-10-27T13:35:02.106Z,335143.047,1635341358,full,ni_sequenzen,NI_Sequenzen,,,,,,,,,,,,,,
,Screen_1,canvas.Screen,0_0_5_0,,skipped,6,334998.10000002384,,,334998.10000002384,,334998.2000000477,2021-10-27T13:35:02.107Z,335143.047,1635341358,full,ni_sequenzen,NI_Sequenzen,,,,,,,,,,,,,,
,Screen_2,canvas.Screen,0_0_5_1,,skipped,6,334999.3000000119,,,334998.10000002384,,334999.40000003576,2021-10-27T13:35:02.109Z,335143.047,1635341358,full,ni_sequenzen,NI_Sequenzen,,,,,,,,,,,,,,
,Screen_3,canvas.Screen,0_0_5_2,,skipped,6,335000.8000000119,,,334998.10000002384,,335000.8000000119,2021-10-27T13:35:02.110Z,335143.047,1635341358,full,ni_sequenzen,NI_Sequenzen,,,,,,,,,,,,,,
,Screen_4,canvas.Screen,0_0_5_3,,skipped,6,335002.10000002384,,,334998.10000002384,,335002.2000000477,2021-10-27T13:35:02.111Z,335143.047,1635341358,full,ni_sequenzen,NI_Sequenzen,,,,,,,,,,,,,,
,Sequence,flow.Sequence,0_0_5,,completion,6,334996.90000003576,,,334998.10000002384,,335002.40000003576,2021-10-27T13:35:02.112Z,335143.047,1635341358,full,ni_sequenzen,NI_Sequenzen,,,,,,,,,,,,,,
,Screen_1,canvas.Screen,0_0_6_0,,skipped,7,335004,,,335004,,335004.10000002384,2021-10-27T13:35:02.113Z,335143.047,1635341358,full,ni_sequenzen,NI_Sequenzen,,,,,,,,,,,,,,
,Screen_2,canvas.Screen,0_0_6_1,,skipped,7,335005.2000000477,,,335004,,335005.3000000119,2021-10-27T13:35:02.115Z,335143.047,1635341358,full,ni_sequenzen,NI_Sequenzen,,,,,,,,,,,,,,
,Screen_3,canvas.Screen,0_0_6_2,,skipped,7,335006.5,,,335004,,335006.60000002384,2021-10-27T13:35:02.116Z,335143.047,1635341358,full,ni_sequenzen,NI_Sequenzen,,,,,,,,,,,,,,
,Screen_4,canvas.Screen,0_0_6_3,,skipped,7,335009.10000002384,,,335004,,335009.2000000477,2021-10-27T13:35:02.118Z,335143.047,1635341358,full,ni_sequenzen,NI_Sequenzen,,,,,,,,,,,,,,
,Sequence,flow.Sequence,0_0_6,,completion,7,335002.90000003576,,,335004,,335009.40000003576,2021-10-27T13:35:02.119Z,335143.047,1635341358,full,ni_sequenzen,NI_Sequenzen,,,,,,,,,,,,,,
,Screen_1,canvas.Screen,0_0_7_0,,skipped,8,335011.2000000477,,,335011.2000000477,,335011.3000000119,2021-10-27T13:35:02.121Z,335143.047,1635341358,full,ni_sequenzen,NI_Sequenzen,,,,,,,,,,,,,,
,Screen_2,canvas.Screen,0_0_7_1,,skipped,8,335012.5,,,335011.2000000477,,335012.5,2021-10-27T13:35:02.122Z,335143.047,1635341358,full,ni_sequenzen,NI_Sequenzen,,,,,,,,,,,,,,
,Screen_3,canvas.Screen,0_0_7_2,,skipped,8,335013.8000000119,,,335011.2000000477,,335013.90000003576,2021-10-27T13:35:02.123Z,335143.047,1635341358,full,ni_sequenzen,NI_Sequenzen,,,,,,,,,,,,,,
,Screen_4,canvas.Screen,0_0_7_3,,skipped,8,335015.10000002384,,,335011.2000000477,,335015.2000000477,2021-10-27T13:35:02.124Z,335143.047,1635341358,full,ni_sequenzen,NI_Sequenzen,,,,,,,,,,,,,,
,Sequence,flow.Sequence,0_0_7,,completion,8,335010,,,335011.2000000477,,335015.40000003576,2021-10-27T13:35:02.125Z,335143.047,1635341358,full,ni_sequenzen,NI_Sequenzen,,,,,,,,,,,,,,
,Screen_1,canvas.Screen,0_0_8_0,,skipped,9,335016.90000003576,,,335016.90000003576,,335017,2021-10-27T13:35:02.126Z,335143.047,1635341358,full,ni_sequenzen,NI_Sequenzen,,,,,,,,,,,,,,
,Screen_2,canvas.Screen,0_0_8_1,,skipped,9,335018.10000002384,,,335016.90000003576,,335018.2000000477,2021-10-27T13:35:02.127Z,335143.047,1635341358,full,ni_sequenzen,NI_Sequenzen,,,,,,,,,,,,,,
,Screen_3,canvas.Screen,0_0_8_2,,skipped,9,335019.40000003576,,,335016.90000003576,,335019.60000002384,2021-10-27T13:35:02.129Z,335143.047,1635341358,full,ni_sequenzen,NI_Sequenzen,,,,,,,,,,,,,,
,Screen_4,canvas.Screen,0_0_8_3,,skipped,9,335020.7000000477,,,335016.90000003576,,335020.90000003576,2021-10-27T13:35:02.130Z,335143.047,1635341358,full,ni_sequenzen,NI_Sequenzen,,,,,,,,,,,,,,
,Sequence,flow.Sequence,0_0_8,,completion,9,335015.90000003576,,,335016.90000003576,,335021,2021-10-27T13:35:02.130Z,335143.047,1635341358,full,ni_sequenzen,NI_Sequenzen,,,,,,,,,,,,,,
,Screen_1,canvas.Screen,0_0_9_0,,skipped,10,335022.7000000477,,,335022.7000000477,,335022.8000000119,2021-10-27T13:35:02.132Z,335143.047,1635341358,full,ni_sequenzen,NI_Sequenzen,,,,,,,,,,,,,,
,Screen_2,canvas.Screen,0_0_9_1,,skipped,10,335024.2000000477,,,335022.7000000477,,335024.3000000119,2021-10-27T13:35:02.134Z,335143.047,1635341358,full,ni_sequenzen,NI_Sequenzen,,,,,,,,,,,,,,
,Screen_3,canvas.Screen,0_0_9_2,,skipped,10,335025.7000000477,,,335022.7000000477,,335025.7000000477,2021-10-27T13:35:02.135Z,335143.047,1635341358,full,ni_sequenzen,NI_Sequenzen,,,,,,,,,,,,,,
,Screen_4,canvas.Screen,0_0_9_3,,skipped,10,335028.40000003576,,,335022.7000000477,,335028.5,2021-10-27T13:35:02.138Z,335143.047,1635341358,full,ni_sequenzen,NI_Sequenzen,,,,,,,,,,,,,,
,Sequence,flow.Sequence,0_0_9,,completion,10,335021.5,,,335022.7000000477,,335028.7000000477,2021-10-27T13:35:02.138Z,335143.047,1635341358,full,ni_sequenzen,NI_Sequenzen,,,,,,,,,,,,,,
,Screen_1,canvas.Screen,0_0_10_0,,skipped,11,335031.8000000119,,,335031.8000000119,,335032,2021-10-27T13:35:02.141Z,335143.047,1635341358,full,ni_sequenzen,NI_Sequenzen,,,,,,,,,,,,,,
,Screen_2,canvas.Screen,0_0_10_1,,skipped,11,335033.10000002384,,,335031.8000000119,,335033.2000000477,2021-10-27T13:35:02.142Z,335143.047,1635341358,full,ni_sequenzen,NI_Sequenzen,,,,,,,,,,,,,,
,Screen_3,canvas.Screen,0_0_10_2,,skipped,11,335034.40000003576,,,335031.8000000119,,335034.60000002384,2021-10-27T13:35:02.144Z,335143.047,1635341358,full,ni_sequenzen,NI_Sequenzen,,,,,,,,,,,,,,
,Screen_4,canvas.Screen,0_0_10_3,,skipped,11,335035.7000000477,,,335031.8000000119,,335035.90000003576,2021-10-27T13:35:02.145Z,335143.047,1635341358,full,ni_sequenzen,NI_Sequenzen,,,,,,,,,,,,,,
,Sequence,flow.Sequence,0_0_10,,completion,11,335029.40000003576,,,335031.8000000119,,335036.10000002384,2021-10-27T13:35:02.145Z,335143.047,1635341358,full,ni_sequenzen,NI_Sequenzen,,,,,,,,,,,,,,
,Screen_1,canvas.Screen,0_0_11_0,,skipped,12,335039.90000003576,,,335039.90000003576,,335040,2021-10-27T13:35:02.149Z,335143.047,1635341358,full,ni_sequenzen,NI_Sequenzen,,,,,,,,,,,,,,
,Screen_2,canvas.Screen,0_0_11_1,,skipped,12,335041.5,,,335039.90000003576,,335041.60000002384,2021-10-27T13:35:02.151Z,335143.047,1635341358,full,ni_sequenzen,NI_Sequenzen,,,,,,,,,,,,,,
,Screen_3,canvas.Screen,0_0_11_2,,skipped,12,335043,,,335039.90000003576,,335043.10000002384,2021-10-27T13:35:02.152Z,335143.047,1635341358,full,ni_sequenzen,NI_Sequenzen,,,,,,,,,,,,,,
,Screen_4,canvas.Screen,0_0_11_3,,skipped,12,335044.7000000477,,,335039.90000003576,,335044.8000000119,2021-10-27T13:35:02.154Z,335143.047,1635341358,full,ni_sequenzen,NI_Sequenzen,,,,,,,,,,,,,,
,Sequence,flow.Sequence,0_0_11,,completion,12,335037.3000000119,,,335039.90000003576,,335045,2021-10-27T13:35:02.154Z,335143.047,1635341358,full,ni_sequenzen,NI_Sequenzen,,,,,,,,,,,,,,
,Screen_1,canvas.Screen,0_0_12_0,,skipped,13,335046.60000002384,,,335046.60000002384,,335046.60000002384,2021-10-27T13:35:02.156Z,335143.047,1635341358,full,ni_sequenzen,NI_Sequenzen,,,,,,,,,,,,,,
,Screen_2,canvas.Screen,0_0_12_1,,skipped,13,335047.90000003576,,,335046.60000002384,,335048,2021-10-27T13:35:02.157Z,335143.047,1635341358,full,ni_sequenzen,NI_Sequenzen,,,,,,,,,,,,,,
,Screen_3,canvas.Screen,0_0_12_2,,skipped,13,335049.40000003576,,,335046.60000002384,,335049.5,2021-10-27T13:35:02.159Z,335143.047,1635341358,full,ni_sequenzen,NI_Sequenzen,,,,,,,,,,,,,,
,Screen_4,canvas.Screen,0_0_12_3,,skipped,13,335050.7000000477,,,335046.60000002384,,335050.8000000119,2021-10-27T13:35:02.160Z,335143.047,1635341358,full,ni_sequenzen,NI_Sequenzen,,,,,,,,,,,,,,
,Sequence,flow.Sequence,0_0_12,,completion,13,335045.60000002384,,,335046.60000002384,,335051,2021-10-27T13:35:02.160Z,335143.047,1635341358,full,ni_sequenzen,NI_Sequenzen,,,,,,,,,,,,,,
,Screen_1,canvas.Screen,0_0_13_0,,skipped,14,335052.40000003576,,,335052.40000003576,,335052.5,2021-10-27T13:35:02.162Z,335143.047,1635341358,full,ni_sequenzen,NI_Sequenzen,,,,,,,,,,,,,,
,Screen_2,canvas.Screen,0_0_13_1,,skipped,14,335054.5,,,335052.40000003576,,335054.7000000477,2021-10-27T13:35:02.164Z,335143.047,1635341358,full,ni_sequenzen,NI_Sequenzen,,,,,,,,,,,,,,
,Screen_3,canvas.Screen,0_0_13_2,,skipped,14,335056.10000002384,,,335052.40000003576,,335056.10000002384,2021-10-27T13:35:02.165Z,335143.047,1635341358,full,ni_sequenzen,NI_Sequenzen,,,,,,,,,,,,,,
,Screen_4,canvas.Screen,0_0_13_3,,skipped,14,335057.3000000119,,,335052.40000003576,,335057.40000003576,2021-10-27T13:35:02.167Z,335143.047,1635341358,full,ni_sequenzen,NI_Sequenzen,,,,,,,,,,,,,,
,Sequence,flow.Sequence,0_0_13,,completion,14,335051.5,,,335052.40000003576,,335057.60000002384,2021-10-27T13:35:02.167Z,335143.047,1635341358,full,ni_sequenzen,NI_Sequenzen,,,,,,,,,,,,,,
,Screen_1,canvas.Screen,0_0_14_0,,skipped,15,335059.10000002384,,,335059.10000002384,,335059.10000002384,2021-10-27T13:35:02.168Z,335143.047,1635341358,full,ni_sequenzen,NI_Sequenzen,,,,,,,,,,,,,,
,Screen_2,canvas.Screen,0_0_14_1,,skipped,15,335060.5,,,335059.10000002384,,335060.7000000477,2021-10-27T13:35:02.170Z,335143.047,1635341358,full,ni_sequenzen,NI_Sequenzen,,,,,,,,,,,,,,
,Screen_3,canvas.Screen,0_0_14_2,,skipped,15,335064.7000000477,,,335059.10000002384,,335064.8000000119,2021-10-27T13:35:02.174Z,335143.047,1635341358,full,ni_sequenzen,NI_Sequenzen,,,,,,,,,,,,,,
,Screen_4,canvas.Screen,0_0_14_3,,skipped,15,335066,,,335059.10000002384,,335066.10000002384,2021-10-27T13:35:02.175Z,335143.047,1635341358,full,ni_sequenzen,NI_Sequenzen,,,,,,,,,,,,,,
,Sequence,flow.Sequence,0_0_14,,completion,15,335058.10000002384,,,335059.10000002384,,335066.3000000119,2021-10-27T13:35:02.176Z,335143.047,1635341358,full,ni_sequenzen,NI_Sequenzen,,,,,,,,,,,,,,
,Screen_1,canvas.Screen,0_0_15_0,,skipped,16,335075.2000000477,,,335075.2000000477,,335075.40000003576,2021-10-27T13:35:02.185Z,335143.047,1635341358,full,ni_sequenzen,NI_Sequenzen,,,,,,,,,,,,,,
,Screen_2,canvas.Screen,0_0_15_1,,skipped,16,335077.8000000119,,,335075.2000000477,,335077.90000003576,2021-10-27T13:35:02.187Z,335143.047,1635341358,full,ni_sequenzen,NI_Sequenzen,,,,,,,,,,,,,,
,Screen_3,canvas.Screen,0_0_15_2,,skipped,16,335080.7000000477,,,335075.2000000477,,335080.8000000119,2021-10-27T13:35:02.190Z,335143.047,1635341358,full,ni_sequenzen,NI_Sequenzen,,,,,,,,,,,,,,
,Screen_4,canvas.Screen,0_0_15_3,,skipped,16,335082.40000003576,,,335075.2000000477,,335082.5,2021-10-27T13:35:02.192Z,335143.047,1635341358,full,ni_sequenzen,NI_Sequenzen,,,,,,,,,,,,,,
,Sequence,flow.Sequence,0_0_15,,completion,16,335066.7000000477,,,335075.2000000477,,335082.7000000477,2021-10-27T13:35:02.192Z,335143.047,1635341358,full,ni_sequenzen,NI_Sequenzen,,,,,,,,,,,,,,
,Screen_1,canvas.Screen,0_0_16_0,,skipped,17,335084.2000000477,,,335084.2000000477,,335084.3000000119,2021-10-27T13:35:02.194Z,335143.047,1635341358,full,ni_sequenzen,NI_Sequenzen,,,,,,,,,,,,,,
,Screen_2,canvas.Screen,0_0_16_1,,skipped,17,335085.40000003576,,,335084.2000000477,,335085.5,2021-10-27T13:35:02.195Z,335143.047,1635341358,full,ni_sequenzen,NI_Sequenzen,,,,,,,,,,,,,,
,Screen_3,canvas.Screen,0_0_16_2,,skipped,17,335086.7000000477,,,335084.2000000477,,335086.7000000477,2021-10-27T13:35:02.196Z,335143.047,1635341358,full,ni_sequenzen,NI_Sequenzen,,,,,,,,,,,,,,
,Screen_4,canvas.Screen,0_0_16_3,,skipped,17,335088,,,335084.2000000477,,335088.10000002384,2021-10-27T13:35:02.197Z,335143.047,1635341358,full,ni_sequenzen,NI_Sequenzen,,,,,,,,,,,,,,
,Sequence,flow.Sequence,0_0_16,,completion,17,335083.2000000477,,,335084.2000000477,,335088.3000000119,2021-10-27T13:35:02.198Z,335143.047,1635341358,full,ni_sequenzen,NI_Sequenzen,,,,,,,,,,,,,,
,Screen_1,canvas.Screen,0_0_17_0,,skipped,18,335089.8000000119,,,335089.8000000119,,335089.90000003576,2021-10-27T13:35:02.199Z,335143.047,1635341358,full,ni_sequenzen,NI_Sequenzen,,,,,,,,,,,,,,
,Screen_2,canvas.Screen,0_0_17_1,,skipped,18,335091,,,335089.8000000119,,335091.40000003576,2021-10-27T13:35:02.201Z,335143.047,1635341358,full,ni_sequenzen,NI_Sequenzen,,,,,,,,,,,,,,
,Screen_3,canvas.Screen,0_0_17_2,,skipped,18,335092.7000000477,,,335089.8000000119,,335092.8000000119,2021-10-27T13:35:02.202Z,335143.047,1635341358,full,ni_sequenzen,NI_Sequenzen,,,,,,,,,,,,,,
,Screen_4,canvas.Screen,0_0_17_3,,skipped,18,335094.3000000119,,,335089.8000000119,,335094.3000000119,2021-10-27T13:35:02.204Z,335143.047,1635341358,full,ni_sequenzen,NI_Sequenzen,,,,,,,,,,,,,,
,Sequence,flow.Sequence,0_0_17,,completion,18,335088.7000000477,,,335089.8000000119,,335094.90000003576,2021-10-27T13:35:02.204Z,335143.047,1635341358,full,ni_sequenzen,NI_Sequenzen,,,,,,,,,,,,,,
,Screen_1,canvas.Screen,0_0_18_0,,skipped,19,335096.40000003576,,,335096.40000003576,,335096.5,2021-10-27T13:35:02.206Z,335143.047,1635341358,full,ni_sequenzen,NI_Sequenzen,,,,,,,,,,,,,,
,Screen_2,canvas.Screen,0_0_18_1,,skipped,19,335099.7000000477,,,335096.40000003576,,335099.90000003576,2021-10-27T13:35:02.209Z,335143.047,1635341358,full,ni_sequenzen,NI_Sequenzen,,,,,,,,,,,,,,
,Screen_3,canvas.Screen,0_0_18_2,,skipped,19,335101,,,335096.40000003576,,335101.2000000477,2021-10-27T13:35:02.210Z,335143.047,1635341358,full,ni_sequenzen,NI_Sequenzen,,,,,,,,,,,,,,
,Screen_4,canvas.Screen,0_0_18_3,,skipped,19,335102.2000000477,,,335096.40000003576,,335102.7000000477,2021-10-27T13:35:02.212Z,335143.047,1635341358,full,ni_sequenzen,NI_Sequenzen,,,,,,,,,,,,,,
,Sequence,flow.Sequence,0_0_18,,completion,19,335095.40000003576,,,335096.40000003576,,335103.7000000477,2021-10-27T13:35:02.213Z,335143.047,1635341358,full,ni_sequenzen,NI_Sequenzen,,,,,,,,,,,,,,
,Screen_1,canvas.Screen,0_0_19_0,,skipped,20,335105.3000000119,,,335105.3000000119,,335105.40000003576,2021-10-27T13:35:02.215Z,335143.047,1635341358,full,ni_sequenzen,NI_Sequenzen,,,,,,,,,,,,,,
,Screen_2,canvas.Screen,0_0_19_1,,skipped,20,335106.40000003576,,,335105.3000000119,,335106.5,2021-10-27T13:35:02.216Z,335143.047,1635341358,full,ni_sequenzen,NI_Sequenzen,,,,,,,,,,,,,,
,Screen_3,canvas.Screen,0_0_19_2,,skipped,20,335107.60000002384,,,335105.3000000119,,335107.7000000477,2021-10-27T13:35:02.217Z,335143.047,1635341358,full,ni_sequenzen,NI_Sequenzen,,,,,,,,,,,,,,
,Screen_4,canvas.Screen,0_0_19_3,,skipped,20,335108.90000003576,,,335105.3000000119,,335108.90000003576,2021-10-27T13:35:02.218Z,335143.047,1635341358,full,ni_sequenzen,NI_Sequenzen,,,,,,,,,,,,,,
,Sequence,flow.Sequence,0_0_19,,completion,20,335104.2000000477,,,335105.3000000119,,335109.2000000477,2021-10-27T13:35:02.218Z,335143.047,1635341358,full,ni_sequenzen,NI_Sequenzen,,,,,,,,,,,,,,
,Instructions_I,flow.Loop,0_0,,completion,,1024,1356.074,1422.726,335105.3000000119,333682.5740000119,335109.3000000119,2021-10-27T13:35:02.219Z,335143.047,1635341358,full,ni_sequenzen,NI_Sequenzen,,,,,,,,,,,,,,
,Move,canvas.Screen,0_1_0_0,right,response,,335131.7000000477,335129.473,335143.047,337081.90000003576,1938.8530000357423,337082.60000002384,2021-10-27T13:35:04.192Z,337092.647,1635341358,full,ni_sequenzen,NI_Sequenzen,1,,,,,,,,,,,,,
,Move,canvas.Screen,0_1_0_1,down,response,,337085.90000003576,337075.588,337092.647,339247.90000003576,2155.2530000357656,339248.3000000119,2021-10-27T13:35:06.358Z,339258.323,1635341358,full,ni_sequenzen,NI_Sequenzen,2,,,,,,,,,,,,,
,Move,canvas.Screen,0_1_0_2,down,response,,339252,339241.502,339258.323,339891.3000000119,632.9770000119461,339891.90000003576,2021-10-27T13:35:07.001Z,339908.072,1635341358,full,ni_sequenzen,NI_Sequenzen,3,,,,,,,,,,,,,
,Move,canvas.Screen,0_1_0_3,left,response,,339894.40000003576,339891.361,339908.072,340216.3000000119,308.22800001193536,340216.8000000119,2021-10-27T13:35:07.326Z,340224.838,1635341358,full,ni_sequenzen,NI_Sequenzen,4,,,,,,,,,,,,,
,Move,canvas.Screen,0_1_0_4,left,response,,340219,340207.955,340224.838,340505.60000002384,280.76200002385303,340506.10000002384,2021-10-27T13:35:07.615Z,340524.702,1635341358,full,ni_sequenzen,NI_Sequenzen,5,,,,,,,,,,,,,
,Move,canvas.Screen,0_1_0_5,left,response,,340508.40000003576,340507.852,340524.702,340978.90000003576,454.19800003577257,340979.40000003576,2021-10-27T13:35:08.089Z,340991.164,1635341358,full,ni_sequenzen,NI_Sequenzen,6,,,,,,,,,,,,,
,Move,canvas.Screen,0_1_0_6,down,response,,340982,340974.356,340991.164,342181.90000003576,1190.736000035773,342182.40000003576,2021-10-27T13:35:09.292Z,342190.893,1635341358,full,ni_sequenzen,NI_Sequenzen,7,,,,,,,,,,,,,
,Move,canvas.Screen,0_1_0_7,down,response,,342184.60000002384,342173.9,342190.893,342351.10000002384,160.20700002386002,342351.60000002384,2021-10-27T13:35:09.461Z,342357.265,1635341358,full,ni_sequenzen,NI_Sequenzen,8,,,,,,,,,,,,,
,Move,canvas.Screen,0_1_0_8,right,response,,342353.7000000477,342340.587,342357.265,342593.40000003576,236.13500003574882,342594.10000002384,2021-10-27T13:35:09.703Z,342607.169,1635341358,full,ni_sequenzen,NI_Sequenzen,9,,,,,,,,,,,,,
,Move,canvas.Screen,0_1_0_9,right,response,,342596.5,342590.48,342607.169,343097.10000002384,489.93100002384745,343103.3000000119,2021-10-27T13:35:10.213Z,343107.016,1635341358,full,ni_sequenzen,NI_Sequenzen,10,,,,,,,,,,,,,
,Move,canvas.Screen,0_1_0_10,left,response,,343105.7000000477,343090.3,343107.016,343359.90000003576,252.88400003575953,343360.40000003576,2021-10-27T13:35:10.470Z,343373.583,1635341358,full,ni_sequenzen,NI_Sequenzen,11,,,,,,,,,,,,,
,Move,canvas.Screen,0_1_0_11,left,response,,343362.60000002384,343356.886,343373.583,343532,158.41700000001583,343532.40000003576,2021-10-27T13:35:10.642Z,343540.364,1635341358,full,ni_sequenzen,NI_Sequenzen,12,,,,,,,,,,,,,
,Move,canvas.Screen,0_1_0_12,down,response,,343534.90000003576,343523.509,343540.364,345367.7000000477,1827.3360000476823,345368.2000000477,2021-10-27T13:35:12.477Z,345372.904,1635341358,full,ni_sequenzen,NI_Sequenzen,13,,,,,,,,,,,,,
,Move,canvas.Screen,0_1_0_13,down,response,,345370.5,345356.116,345372.904,345667.8000000119,294.8960000119405,345668.2000000477,2021-10-27T13:35:12.777Z,345672.812,1635341358,full,ni_sequenzen,NI_Sequenzen,14,,,,,,,,,,,,,
,Move,canvas.Screen,0_1_0_14,down,response,,345670.40000003576,345656.122,345672.812,345825.2000000477,152.38800004770746,345825.8000000119,2021-10-27T13:35:12.935Z,345839.404,1635341358,full,ni_sequenzen,NI_Sequenzen,15,,,,,,,,,,,,,
,Move,canvas.Screen,0_1_0_15,down,response,,345828.2000000477,345822.738,345839.404,346029.60000002384,190.19600002386142,346030.10000002384,2021-10-27T13:35:13.139Z,346039.754,1635341358,full,ni_sequenzen,NI_Sequenzen,16,,,,,,,,,,,,,
,Move,canvas.Screen,0_1_0_16,left,response,,346032.60000002384,346022.684,346039.754,346846,806.2459999999846,346846.5,2021-10-27T13:35:13.956Z,346855.753,1635341358,full,ni_sequenzen,NI_Sequenzen,17,,,,,,,,,,,,,
,Move,canvas.Screen,0_1_0_17,right,response,,346848.60000002384,346839.022,346855.753,347239.5,383.7469999999739,347240.10000002384,2021-10-27T13:35:14.349Z,347255.584,1635341358,full,ni_sequenzen,NI_Sequenzen,18,,,,,,,,,,,,,
,Move,canvas.Screen,0_1_0_18,right,response,,347242.7000000477,347238.915,347255.584,347412,156.41600000002654,347412.5,2021-10-27T13:35:14.522Z,347422.616,1635341358,full,ni_sequenzen,NI_Sequenzen,19,,,,,,,,,,,,,
,Move,canvas.Screen,0_1_0_19,right,response,,347414.90000003576,347405.528,347422.616,347575.10000002384,152.48400002386188,347575.60000002384,2021-10-27T13:35:14.685Z,347589.014,1635341358,full,ni_sequenzen,NI_Sequenzen,20,,,,,,,,,,,,,
,Move,canvas.Screen,0_1_0_20,right,response,,347577.8000000119,347572.163,347589.014,348609.90000003576,1020.8860000357381,348610.5,2021-10-27T13:35:15.720Z,348621.968,1635341358,full,ni_sequenzen,NI_Sequenzen,21,,,,,,,,,,,,,
,Move,canvas.Screen,0_1_0_21,down,response,,348612.90000003576,348605.056,348621.968,354309.90000003576,5687.932000035769,354310.60000002384,2021-10-27T13:35:21.420Z,354320.031,1635341358,full,ni_sequenzen,NI_Sequenzen,22,,,,,,,,,,,,,
,Move,canvas.Screen,0_1_0_22,down,response,,354312.90000003576,354302.846,354320.031,354456.90000003576,136.86900003574556,354457.40000003576,2021-10-27T13:35:21.567Z,354469.813,1635341358,full,ni_sequenzen,NI_Sequenzen,23,,,,,,,,,,,,,
,Move,canvas.Screen,0_1_0_23,down,response,,354459.5,354453.151,354469.813,354651.90000003576,182.08700003573904,354652.40000003576,2021-10-27T13:35:21.762Z,354669.76,1635341358,full,ni_sequenzen,NI_Sequenzen,24,,,,,,,,,,,,,
,Move,canvas.Screen,0_1_0_24,left,response,,354655.10000002384,354653.06,354669.76,354955.2000000477,285.4400000476744,354955.5,2021-10-27T13:35:22.065Z,354969.651,1635341358,full,ni_sequenzen,NI_Sequenzen,25,,,,,,,,,,,,,
,Move,canvas.Screen,0_1_0_25,left,response,,354957.8000000119,354952.959,354969.651,355195.7000000477,226.04900004767114,355196.2000000477,2021-10-27T13:35:22.305Z,355202.921,1635341358,full,ni_sequenzen,NI_Sequenzen,26,,,,,,,,,,,,,
,Move,canvas.Screen,0_1_0_26,left,response,,355198.40000003576,355186.216,355202.921,355419.60000002384,216.67900002386887,355420.3000000119,2021-10-27T13:35:22.530Z,355436.15,1635341358,full,ni_sequenzen,NI_Sequenzen,27,,,,,,,,,,,,,
,Move,canvas.Screen,0_1_0_27,down,response,,355423.3000000119,355419.463,355436.15,356414.10000002384,977.9500000238186,356414.60000002384,2021-10-27T13:35:23.524Z,356419.168,1635341358,full,ni_sequenzen,NI_Sequenzen,28,,,,,,,,,,,,,
,Move,canvas.Screen,0_1_0_28,down,response,,356416.7000000477,356402.426,356419.168,358944.10000002384,2524.9320000238367,358944.60000002384,2021-10-27T13:35:26.054Z,358951.649,1635341358,full,ni_sequenzen,NI_Sequenzen,29,,,,,,,,,,,,,
,Move,canvas.Screen,0_1_0_29,right,response,,358946.8000000119,358934.799,358951.649,359275.8000000119,324.15100001194514,359276.3000000119,2021-10-27T13:35:26.386Z,359384.832,1635341358,full,ni_sequenzen,NI_Sequenzen,30,,,,,,,,,,,,,
,Loop,flow.Loop,0_1_0,-999,completion,,335128.60000002384,335129.473,335143.047,359275.8000000119,24132.7530000119,359276.5,2021-10-27T13:35:26.386Z,359384.832,1635341358,full,ni_sequenzen,NI_Sequenzen,,,,,,,,,,,,,,
,Training_I,flow.Sequence,0_1,,completion,,335110,335129.473,335143.047,359275.8000000119,24132.7530000119,359276.7000000477,2021-10-27T13:35:26.386Z,359384.832,1635341358,full,ni_sequenzen,NI_Sequenzen,,,,,,,,,,,,,,
,Screen_1,canvas.Screen,0_2_0_0,cont,response,1,359380.60000002384,359368.15,359384.832,359489.10000002384,104.26800002384698,359489.60000002384,2021-10-27T13:35:26.599Z,359584.766,1635341358,full,ni_sequenzen,NI_Sequenzen,,,,,,,,,,,,,,
,Screen_2,canvas.Screen,0_2_0_1,back,response,1,359580.10000002384,359568.093,359584.766,361140.10000002384,1555.3340000238386,361140.5,2021-10-27T13:35:28.250Z,361402.923,1635341358,full,ni_sequenzen,NI_Sequenzen,,,,,,,,,,,,,,
,Screen_3,canvas.Screen,0_2_0_2,,skipped,1,361142.5,,,361140.10000002384,,361142.60000002384,2021-10-27T13:35:28.252Z,361402.923,1635341358,full,ni_sequenzen,NI_Sequenzen,,,,,,,,,,,,,,
,Screen_4,canvas.Screen,0_2_0_3,,skipped,1,361230.40000003576,,,361140.10000002384,,361230.60000002384,2021-10-27T13:35:28.340Z,361402.923,1635341358,full,ni_sequenzen,NI_Sequenzen,,,,,,,,,,,,,,
,Screen_5,canvas.Screen,0_2_0_4,,skipped,1,361232.2000000477,,,361140.10000002384,,361232.3000000119,2021-10-27T13:35:28.342Z,361402.923,1635341358,full,ni_sequenzen,NI_Sequenzen,,,,,,,,,,,,,,
,Screen_6,canvas.Screen,0_2_0_5,,skipped,1,361381,,,361140.10000002384,,361381.10000002384,2021-10-27T13:35:28.490Z,361402.923,1635341358,full,ni_sequenzen,NI_Sequenzen,,,,,,,,,,,,,,
,Sequence,flow.Sequence,0_2_0,,completion,1,359379.2000000477,359368.15,359384.832,361140.10000002384,1755.268000023847,361381.40000003576,2021-10-27T13:35:28.491Z,361402.923,1635341358,full,ni_sequenzen,NI_Sequenzen,,,,,,,,,,,,,,
,Screen_1,canvas.Screen,0_2_1_0,cont,response,2,361383.5,361367.368,361402.923,401110.3000000119,39707.37700001191,401111.10000002384,2021-10-27T13:36:08.220Z,401120.928,1635341358,full,ni_sequenzen,NI_Sequenzen,,,,,,,,,,,,,,
,Screen_2,canvas.Screen,0_2_1_1,cont,response,2,401113.10000002384,401101.597,401120.928,429489.90000003576,28368.97200003575,429490.5,2021-10-27T13:36:36.600Z,429494.417,1635341358,full,ni_sequenzen,NI_Sequenzen,,,,,,,,,,,,,,
,Screen_3,canvas.Screen,0_2_1_2,cont,response,2,429492,429476.002,429494.417,469981.8000000119,40487.383000011905,469982.3000000119,2021-10-27T13:37:17.091Z,470014.023,1635341358,full,ni_sequenzen,NI_Sequenzen,,,,,,,,,,,,,,
,Screen_4,canvas.Screen,0_2_1_3,cont,response,2,469983.90000003576,469978.197,470014.023,491604.2000000477,21590.177000047697,491604.7000000477,2021-10-27T13:37:38.714Z,491635.607,1635341358,full,ni_sequenzen,NI_Sequenzen,,,,,,,,,,,,,,
,Screen_5,canvas.Screen,0_2_1_4,cont,response,2,491606.40000003576,491605.38,491635.607,518821.60000002384,27185.993000023824,518822.2000000477,2021-10-27T13:38:05.931Z,518830.919,1635341358,full,ni_sequenzen,NI_Sequenzen,,,,,,,,,,,,,,
,Screen_6,canvas.Screen,0_2_1_5,cont,response,2,518823.8000000119,518812.487,518830.919,535465.3000000119,16634.381000011927,535465.8000000119,2021-10-27T13:38:22.575Z,535858.428,1635341358,full,ni_sequenzen,NI_Sequenzen,,,,,,,,,,,,,,
,Sequence,flow.Sequence,0_2_1,,completion,2,361382,361367.368,361402.923,535465.3000000119,174062.3770000119,535466,2021-10-27T13:38:22.575Z,535858.428,1635341358,full,ni_sequenzen,NI_Sequenzen,,,,,,,,,,,,,,
,Screen_1,canvas.Screen,0_2_2_0,,skipped,3,535469.2000000477,,,535469.2000000477,,535469.3000000119,2021-10-27T13:38:22.579Z,535858.428,1635341358,full,ni_sequenzen,NI_Sequenzen,,,,,,,,,,,,,,
,Screen_2,canvas.Screen,0_2_2_1,,skipped,3,535470.3000000119,,,535469.2000000477,,535470.4000000358,2021-10-27T13:38:22.580Z,535858.428,1635341358,full,ni_sequenzen,NI_Sequenzen,,,,,,,,,,,,,,
,Screen_3,canvas.Screen,0_2_2_2,,skipped,3,535471.5,,,535469.2000000477,,535471.7000000477,2021-10-27T13:38:22.581Z,535858.428,1635341358,full,ni_sequenzen,NI_Sequenzen,,,,,,,,,,,,,,
,Screen_4,canvas.Screen,0_2_2_3,,skipped,3,535472.9000000358,,,535469.2000000477,,535473,2021-10-27T13:38:22.582Z,535858.428,1635341358,full,ni_sequenzen,NI_Sequenzen,,,,,,,,,,,,,,
,Screen_5,canvas.Screen,0_2_2_4,,skipped,3,535474.1000000238,,,535469.2000000477,,535474.9000000358,2021-10-27T13:38:22.584Z,535858.428,1635341358,full,ni_sequenzen,NI_Sequenzen,,,,,,,,,,,,,,
,Screen_6,canvas.Screen,0_2_2_5,,skipped,3,535476.3000000119,,,535469.2000000477,,535476.5,2021-10-27T13:38:22.586Z,535858.428,1635341358,full,ni_sequenzen,NI_Sequenzen,,,,,,,,,,,,,,
,Sequence,flow.Sequence,0_2_2,,completion,3,535468.1000000238,,,535469.2000000477,,535476.6000000238,2021-10-27T13:38:22.586Z,535858.428,1635341358,full,ni_sequenzen,NI_Sequenzen,,,,,,,,,,,,,,
,Screen_1,canvas.Screen,0_2_3_0,,skipped,4,535478.3000000119,,,535478.3000000119,,535478.4000000358,2021-10-27T13:38:22.588Z,535858.428,1635341358,full,ni_sequenzen,NI_Sequenzen,,,,,,,,,,,,,,
,Screen_2,canvas.Screen,0_2_3_1,,skipped,4,535479.4000000358,,,535478.3000000119,,535479.5,2021-10-27T13:38:22.589Z,535858.428,1635341358,full,ni_sequenzen,NI_Sequenzen,,,,,,,,,,,,,,
,Screen_3,canvas.Screen,0_2_3_2,,skipped,4,535480.6000000238,,,535478.3000000119,,535480.7000000477,2021-10-27T13:38:22.590Z,535858.428,1635341358,full,ni_sequenzen,NI_Sequenzen,,,,,,,,,,,,,,
,Screen_4,canvas.Screen,0_2_3_3,,skipped,4,535481.7000000477,,,535478.3000000119,,535481.8000000119,2021-10-27T13:38:22.591Z,535858.428,1635341358,full,ni_sequenzen,NI_Sequenzen,,,,,,,,,,,,,,
,Screen_5,canvas.Screen,0_2_3_4,,skipped,4,535482.8000000119,,,535478.3000000119,,535482.9000000358,2021-10-27T13:38:22.592Z,535858.428,1635341358,full,ni_sequenzen,NI_Sequenzen,,,,,,,,,,,,,,
,Screen_6,canvas.Screen,0_2_3_5,,skipped,4,535484,,,535478.3000000119,,535484,2021-10-27T13:38:22.593Z,535858.428,1635341358,full,ni_sequenzen,NI_Sequenzen,,,,,,,,,,,,,,
,Sequence,flow.Sequence,0_2_3,,completion,4,535477.1000000238,,,535478.3000000119,,535484.2000000477,2021-10-27T13:38:22.594Z,535858.428,1635341358,full,ni_sequenzen,NI_Sequenzen,,,,,,,,,,,,,,
,Screen_1,canvas.Screen,0_2_4_0,,skipped,5,535485.5,,,535485.5,,535485.7000000477,2021-10-27T13:38:22.595Z,535858.428,1635341358,full,ni_sequenzen,NI_Sequenzen,,,,,,,,,,,,,,
,Screen_2,canvas.Screen,0_2_4_1,,skipped,5,535486.6000000238,,,535485.5,,535486.8000000119,2021-10-27T13:38:22.596Z,535858.428,1635341358,full,ni_sequenzen,NI_Sequenzen,,,,,,,,,,,,,,
,Screen_3,canvas.Screen,0_2_4_2,,skipped,5,535487.9000000358,,,535485.5,,535488,2021-10-27T13:38:22.597Z,535858.428,1635341358,full,ni_sequenzen,NI_Sequenzen,,,,,,,,,,,,,,
,Screen_4,canvas.Screen,0_2_4_3,,skipped,5,535489.2000000477,,,535485.5,,535489.2000000477,2021-10-27T13:38:22.599Z,535858.428,1635341358,full,ni_sequenzen,NI_Sequenzen,,,,,,,,,,,,,,
,Screen_5,canvas.Screen,0_2_4_4,,skipped,5,535490.3000000119,,,535485.5,,535490.4000000358,2021-10-27T13:38:22.600Z,535858.428,1635341358,full,ni_sequenzen,NI_Sequenzen,,,,,,,,,,,,,,
,Screen_6,canvas.Screen,0_2_4_5,,skipped,5,535491.4000000358,,,535485.5,,535491.5,2021-10-27T13:38:22.601Z,535858.428,1635341358,full,ni_sequenzen,NI_Sequenzen,,,,,,,,,,,,,,
,Sequence,flow.Sequence,0_2_4,,completion,5,535484.7000000477,,,535485.5,,535491.7000000477,2021-10-27T13:38:22.601Z,535858.428,1635341358,full,ni_sequenzen,NI_Sequenzen,,,,,,,,,,,,,,
,Screen_1,canvas.Screen,0_2_5_0,,skipped,6,535493.4000000358,,,535493.4000000358,,535493.6000000238,2021-10-27T13:38:22.603Z,535858.428,1635341358,full,ni_sequenzen,NI_Sequenzen,,,,,,,,,,,,,,
,Screen_2,canvas.Screen,0_2_5_1,,skipped,6,535494.6000000238,,,535493.4000000358,,535494.7000000477,2021-10-27T13:38:22.604Z,535858.428,1635341358,full,ni_sequenzen,NI_Sequenzen,,,,,,,,,,,,,,
,Screen_3,canvas.Screen,0_2_5_2,,skipped,6,535497,,,535493.4000000358,,535497,2021-10-27T13:38:22.606Z,535858.428,1635341358,full,ni_sequenzen,NI_Sequenzen,,,,,,,,,,,,,,
,Screen_4,canvas.Screen,0_2_5_3,,skipped,6,535501.6000000238,,,535493.4000000358,,535501.7000000477,2021-10-27T13:38:22.611Z,535858.428,1635341358,full,ni_sequenzen,NI_Sequenzen,,,,,,,,,,,,,,
,Screen_5,canvas.Screen,0_2_5_4,,skipped,6,535502.8000000119,,,535493.4000000358,,535502.9000000358,2021-10-27T13:38:22.612Z,535858.428,1635341358,full,ni_sequenzen,NI_Sequenzen,,,,,,,,,,,,,,
,Screen_6,canvas.Screen,0_2_5_5,,skipped,6,535504.3000000119,,,535493.4000000358,,535504.5,2021-10-27T13:38:22.614Z,535858.428,1635341358,full,ni_sequenzen,NI_Sequenzen,,,,,,,,,,,,,,
,Sequence,flow.Sequence,0_2_5,,completion,6,535492.3000000119,,,535493.4000000358,,535504.7000000477,2021-10-27T13:38:22.614Z,535858.428,1635341358,full,ni_sequenzen,NI_Sequenzen,,,,,,,,,,,,,,
,Screen_1,canvas.Screen,0_2_6_0,,skipped,7,535506,,,535506,,535506.2000000477,2021-10-27T13:38:22.615Z,535858.428,1635341358,full,ni_sequenzen,NI_Sequenzen,,,,,,,,,,,,,,
,Screen_2,canvas.Screen,0_2_6_1,,skipped,7,535518.5,,,535506,,535518.8000000119,2021-10-27T13:38:22.628Z,535858.428,1635341358,full,ni_sequenzen,NI_Sequenzen,,,,,,,,,,,,,,
,Screen_3,canvas.Screen,0_2_6_2,,skipped,7,535520.2000000477,,,535506,,535520.4000000358,2021-10-27T13:38:22.630Z,535858.428,1635341358,full,ni_sequenzen,NI_Sequenzen,,,,,,,,,,,,,,
,Screen_4,canvas.Screen,0_2_6_3,,skipped,7,535521.7000000477,,,535506,,535521.8000000119,2021-10-27T13:38:22.631Z,535858.428,1635341358,full,ni_sequenzen,NI_Sequenzen,,,,,,,,,,,,,,
,Screen_5,canvas.Screen,0_2_6_4,,skipped,7,535522.9000000358,,,535506,,535522.9000000358,2021-10-27T13:38:22.632Z,535858.428,1635341358,full,ni_sequenzen,NI_Sequenzen,,,,,,,,,,,,,,
,Screen_6,canvas.Screen,0_2_6_5,,skipped,7,535524.1000000238,,,535506,,535524.2000000477,2021-10-27T13:38:22.633Z,535858.428,1635341358,full,ni_sequenzen,NI_Sequenzen,,,,,,,,,,,,,,
,Sequence,flow.Sequence,0_2_6,,completion,7,535505.1000000238,,,535506,,535524.4000000358,2021-10-27T13:38:22.634Z,535858.428,1635341358,full,ni_sequenzen,NI_Sequenzen,,,,,,,,,,,,,,
,Screen_1,canvas.Screen,0_2_7_0,,skipped,8,535526,,,535526,,535526.1000000238,2021-10-27T13:38:22.635Z,535858.428,1635341358,full,ni_sequenzen,NI_Sequenzen,,,,,,,,,,,,,,
,Screen_2,canvas.Screen,0_2_7_1,,skipped,8,535527.2000000477,,,535526,,535527.3000000119,2021-10-27T13:38:22.637Z,535858.428,1635341358,full,ni_sequenzen,NI_Sequenzen,,,,,,,,,,,,,,
,Screen_3,canvas.Screen,0_2_7_2,,skipped,8,535528.3000000119,,,535526,,535528.4000000358,2021-10-27T13:38:22.638Z,535858.428,1635341358,full,ni_sequenzen,NI_Sequenzen,,,,,,,,,,,,,,
,Screen_4,canvas.Screen,0_2_7_3,,skipped,8,535529.5,,,535526,,535529.5,2021-10-27T13:38:22.639Z,535858.428,1635341358,full,ni_sequenzen,NI_Sequenzen,,,,,,,,,,,,,,
,Screen_5,canvas.Screen,0_2_7_4,,skipped,8,535530.5,,,535526,,535530.7000000477,2021-10-27T13:38:22.640Z,535858.428,1635341358,full,ni_sequenzen,NI_Sequenzen,,,,,,,,,,,,,,
,Screen_6,canvas.Screen,0_2_7_5,,skipped,8,535531.6000000238,,,535526,,535531.7000000477,2021-10-27T13:38:22.641Z,535858.428,1635341358,full,ni_sequenzen,NI_Sequenzen,,,,,,,,,,,,,,
,Sequence,flow.Sequence,0_2_7,,completion,8,535524.8000000119,,,535526,,535531.9000000358,2021-10-27T13:38:22.641Z,535858.428,1635341358,full,ni_sequenzen,NI_Sequenzen,,,,,,,,,,,,,,
,Screen_1,canvas.Screen,0_2_8_0,,skipped,9,535538.4000000358,,,535538.4000000358,,535538.5,2021-10-27T13:38:22.648Z,535858.428,1635341358,full,ni_sequenzen,NI_Sequenzen,,,,,,,,,,,,,,
,Screen_2,canvas.Screen,0_2_8_1,,skipped,9,535539.6000000238,,,535538.4000000358,,535539.7000000477,2021-10-27T13:38:22.649Z,535858.428,1635341358,full,ni_sequenzen,NI_Sequenzen,,,,,,,,,,,,,,
,Screen_3,canvas.Screen,0_2_8_2,,skipped,9,535540.8000000119,,,535538.4000000358,,535540.9000000358,2021-10-27T13:38:22.650Z,535858.428,1635341358,full,ni_sequenzen,NI_Sequenzen,,,,,,,,,,,,,,
,Screen_4,canvas.Screen,0_2_8_3,,skipped,9,535541.9000000358,,,535538.4000000358,,535542.1000000238,2021-10-27T13:38:22.651Z,535858.428,1635341358,full,ni_sequenzen,NI_Sequenzen,,,,,,,,,,,,,,
,Screen_5,canvas.Screen,0_2_8_4,,skipped,9,535543.2000000477,,,535538.4000000358,,535543.2000000477,2021-10-27T13:38:22.653Z,535858.428,1635341358,full,ni_sequenzen,NI_Sequenzen,,,,,,,,,,,,,,
,Screen_6,canvas.Screen,0_2_8_5,,skipped,9,535545.2000000477,,,535538.4000000358,,535545.3000000119,2021-10-27T13:38:22.655Z,535858.428,1635341358,full,ni_sequenzen,NI_Sequenzen,,,,,,,,,,,,,,
,Sequence,flow.Sequence,0_2_8,,completion,9,535532.5,,,535538.4000000358,,535545.4000000358,2021-10-27T13:38:22.655Z,535858.428,1635341358,full,ni_sequenzen,NI_Sequenzen,,,,,,,,,,,,,,
,Screen_1,canvas.Screen,0_2_9_0,,skipped,10,535546.9000000358,,,535546.9000000358,,535547,2021-10-27T13:38:22.656Z,535858.428,1635341358,full,ni_sequenzen,NI_Sequenzen,,,,,,,,,,,,,,
,Screen_2,canvas.Screen,0_2_9_1,,skipped,10,535548,,,535546.9000000358,,535548.1000000238,2021-10-27T13:38:22.657Z,535858.428,1635341358,full,ni_sequenzen,NI_Sequenzen,,,,,,,,,,,,,,
,Screen_3,canvas.Screen,0_2_9_2,,skipped,10,535549.2000000477,,,535546.9000000358,,535549.3000000119,2021-10-27T13:38:22.659Z,535858.428,1635341358,full,ni_sequenzen,NI_Sequenzen,,,,,,,,,,,,,,
,Screen_4,canvas.Screen,0_2_9_3,,skipped,10,535550.3000000119,,,535546.9000000358,,535550.3000000119,2021-10-27T13:38:22.660Z,535858.428,1635341358,full,ni_sequenzen,NI_Sequenzen,,,,,,,,,,,,,,
,Screen_5,canvas.Screen,0_2_9_4,,skipped,10,535551.8000000119,,,535546.9000000358,,535551.9000000358,2021-10-27T13:38:22.661Z,535858.428,1635341358,full,ni_sequenzen,NI_Sequenzen,,,,,,,,,,,,,,
,Screen_6,canvas.Screen,0_2_9_5,,skipped,10,535553,,,535546.9000000358,,535553.1000000238,2021-10-27T13:38:22.662Z,535858.428,1635341358,full,ni_sequenzen,NI_Sequenzen,,,,,,,,,,,,,,
,Sequence,flow.Sequence,0_2_9,,completion,10,535546,,,535546.9000000358,,535553.3000000119,2021-10-27T13:38:22.663Z,535858.428,1635341358,full,ni_sequenzen,NI_Sequenzen,,,,,,,,,,,,,,
,Screen_1,canvas.Screen,0_2_10_0,,skipped,11,535554.7000000477,,,535554.7000000477,,535554.9000000358,2021-10-27T13:38:22.664Z,535858.428,1635341358,full,ni_sequenzen,NI_Sequenzen,,,,,,,,,,,,,,
,Screen_2,canvas.Screen,0_2_10_1,,skipped,11,535555.8000000119,,,535554.7000000477,,535556,2021-10-27T13:38:22.665Z,535858.428,1635341358,full,ni_sequenzen,NI_Sequenzen,,,,,,,,,,,,,,
,Screen_3,canvas.Screen,0_2_10_2,,skipped,11,535557,,,535554.7000000477,,535557.1000000238,2021-10-27T13:38:22.666Z,535858.428,1635341358,full,ni_sequenzen,NI_Sequenzen,,,,,,,,,,,,,,
,Screen_4,canvas.Screen,0_2_10_3,,skipped,11,535558.1000000238,,,535554.7000000477,,535558.2000000477,2021-10-27T13:38:22.668Z,535858.428,1635341358,full,ni_sequenzen,NI_Sequenzen,,,,,,,,,,,,,,
,Screen_5,canvas.Screen,0_2_10_4,,skipped,11,535559.4000000358,,,535554.7000000477,,535559.5,2021-10-27T13:38:22.669Z,535858.428,1635341358,full,ni_sequenzen,NI_Sequenzen,,,,,,,,,,,,,,
,Screen_6,canvas.Screen,0_2_10_5,,skipped,11,535560.6000000238,,,535554.7000000477,,535560.6000000238,2021-10-27T13:38:22.670Z,535858.428,1635341358,full,ni_sequenzen,NI_Sequenzen,,,,,,,,,,,,,,
,Sequence,flow.Sequence,0_2_10,,completion,11,535553.8000000119,,,535554.7000000477,,535560.8000000119,2021-10-27T13:38:22.670Z,535858.428,1635341358,full,ni_sequenzen,NI_Sequenzen,,,,,,,,,,,,,,
,Screen_1,canvas.Screen,0_2_11_0,,skipped,12,535562.3000000119,,,535562.3000000119,,535562.3000000119,2021-10-27T13:38:22.672Z,535858.428,1635341358,full,ni_sequenzen,NI_Sequenzen,,,,,,,,,,,,,,
,Screen_2,canvas.Screen,0_2_11_1,,skipped,12,535563.3000000119,,,535562.3000000119,,535563.4000000358,2021-10-27T13:38:22.673Z,535858.428,1635341358,full,ni_sequenzen,NI_Sequenzen,,,,,,,,,,,,,,
,Screen_3,canvas.Screen,0_2_11_2,,skipped,12,535565.5,,,535562.3000000119,,535565.6000000238,2021-10-27T13:38:22.675Z,535858.428,1635341358,full,ni_sequenzen,NI_Sequenzen,,,,,,,,,,,,,,
,Screen_4,canvas.Screen,0_2_11_3,,skipped,12,535566.7000000477,,,535562.3000000119,,535566.7000000477,2021-10-27T13:38:22.676Z,535858.428,1635341358,full,ni_sequenzen,NI_Sequenzen,,,,,,,,,,,,,,
,Screen_5,canvas.Screen,0_2_11_4,,skipped,12,535568,,,535562.3000000119,,535568.1000000238,2021-10-27T13:38:22.677Z,535858.428,1635341358,full,ni_sequenzen,NI_Sequenzen,,,,,,,,,,,,,,
,Screen_6,canvas.Screen,0_2_11_5,,skipped,12,535569.1000000238,,,535562.3000000119,,535569.2000000477,2021-10-27T13:38:22.679Z,535858.428,1635341358,full,ni_sequenzen,NI_Sequenzen,,,,,,,,,,,,,,
,Sequence,flow.Sequence,0_2_11,,completion,12,535561.3000000119,,,535562.3000000119,,535569.4000000358,2021-10-27T13:38:22.679Z,535858.428,1635341358,full,ni_sequenzen,NI_Sequenzen,,,,,,,,,,,,,,
,Screen_1,canvas.Screen,0_2_12_0,,skipped,13,535577.4000000358,,,535577.4000000358,,535577.6000000238,2021-10-27T13:38:22.687Z,535858.428,1635341358,full,ni_sequenzen,NI_Sequenzen,,,,,,,,,,,,,,
,Screen_2,canvas.Screen,0_2_12_1,,skipped,13,535578.6000000238,,,535577.4000000358,,535578.7000000477,2021-10-27T13:38:22.688Z,535858.428,1635341358,full,ni_sequenzen,NI_Sequenzen,,,,,,,,,,,,,,
,Screen_3,canvas.Screen,0_2_12_2,,skipped,13,535579.7000000477,,,535577.4000000358,,535579.8000000119,2021-10-27T13:38:22.689Z,535858.428,1635341358,full,ni_sequenzen,NI_Sequenzen,,,,,,,,,,,,,,
,Screen_4,canvas.Screen,0_2_12_3,,skipped,13,535580.7000000477,,,535577.4000000358,,535580.9000000358,2021-10-27T13:38:22.690Z,535858.428,1635341358,full,ni_sequenzen,NI_Sequenzen,,,,,,,,,,,,,,
,Screen_5,canvas.Screen,0_2_12_4,,skipped,13,535581.9000000358,,,535577.4000000358,,535582,2021-10-27T13:38:22.691Z,535858.428,1635341358,full,ni_sequenzen,NI_Sequenzen,,,,,,,,,,,,,,
,Screen_6,canvas.Screen,0_2_12_5,,skipped,13,535583,,,535577.4000000358,,535583.1000000238,2021-10-27T13:38:22.692Z,535858.428,1635341358,full,ni_sequenzen,NI_Sequenzen,,,,,,,,,,,,,,
,Sequence,flow.Sequence,0_2_12,,completion,13,535569.9000000358,,,535577.4000000358,,535583.3000000119,2021-10-27T13:38:22.693Z,535858.428,1635341358,full,ni_sequenzen,NI_Sequenzen,,,,,,,,,,,,,,
,Screen_1,canvas.Screen,0_2_13_0,,skipped,14,535584.8000000119,,,535584.8000000119,,535584.8000000119,2021-10-27T13:38:22.694Z,535858.428,1635341358,full,ni_sequenzen,NI_Sequenzen,,,,,,,,,,,,,,
,Screen_2,canvas.Screen,0_2_13_1,,skipped,14,535585.9000000358,,,535584.8000000119,,535586,2021-10-27T13:38:22.695Z,535858.428,1635341358,full,ni_sequenzen,NI_Sequenzen,,,,,,,,,,,,,,
,Screen_3,canvas.Screen,0_2_13_2,,skipped,14,535586.9000000358,,,535584.8000000119,,535587.1000000238,2021-10-27T13:38:22.696Z,535858.428,1635341358,full,ni_sequenzen,NI_Sequenzen,,,,,,,,,,,,,,
,Screen_4,canvas.Screen,0_2_13_3,,skipped,14,535588.9000000358,,,535584.8000000119,,535589.1000000238,2021-10-27T13:38:22.698Z,535858.428,1635341358,full,ni_sequenzen,NI_Sequenzen,,,,,,,,,,,,,,
,Screen_5,canvas.Screen,0_2_13_4,,skipped,14,535590.2000000477,,,535584.8000000119,,535590.3000000119,2021-10-27T13:38:22.700Z,535858.428,1635341358,full,ni_sequenzen,NI_Sequenzen,,,,,,,,,,,,,,
,Screen_6,canvas.Screen,0_2_13_5,,skipped,14,535591.3000000119,,,535584.8000000119,,535591.4000000358,2021-10-27T13:38:22.701Z,535858.428,1635341358,full,ni_sequenzen,NI_Sequenzen,,,,,,,,,,,,,,
,Sequence,flow.Sequence,0_2_13,,completion,14,535583.8000000119,,,535584.8000000119,,535591.6000000238,2021-10-27T13:38:22.701Z,535858.428,1635341358,full,ni_sequenzen,NI_Sequenzen,,,,,,,,,,,,,,
,Screen_1,canvas.Screen,0_2_14_0,,skipped,15,535593.2000000477,,,535593.2000000477,,535593.2000000477,2021-10-27T13:38:22.703Z,535858.428,1635341358,full,ni_sequenzen,NI_Sequenzen,,,,,,,,,,,,,,
,Screen_2,canvas.Screen,0_2_14_1,,skipped,15,535594.4000000358,,,535593.2000000477,,535594.4000000358,2021-10-27T13:38:22.704Z,535858.428,1635341358,full,ni_sequenzen,NI_Sequenzen,,,,,,,,,,,,,,
,Screen_3,canvas.Screen,0_2_14_2,,skipped,15,535595.7000000477,,,535593.2000000477,,535595.8000000119,2021-10-27T13:38:22.705Z,535858.428,1635341358,full,ni_sequenzen,NI_Sequenzen,,,,,,,,,,,,,,
,Screen_4,canvas.Screen,0_2_14_3,,skipped,15,535596.9000000358,,,535593.2000000477,,535597.1000000238,2021-10-27T13:38:22.706Z,535858.428,1635341358,full,ni_sequenzen,NI_Sequenzen,,,,,,,,,,,,,,
,Screen_5,canvas.Screen,0_2_14_4,,skipped,15,535598.2000000477,,,535593.2000000477,,535598.3000000119,2021-10-27T13:38:22.708Z,535858.428,1635341358,full,ni_sequenzen,NI_Sequenzen,,,,,,,,,,,,,,
,Screen_6,canvas.Screen,0_2_14_5,,skipped,15,535599.6000000238,,,535593.2000000477,,535599.7000000477,2021-10-27T13:38:22.709Z,535858.428,1635341358,full,ni_sequenzen,NI_Sequenzen,,,,,,,,,,,,,,
,Sequence,flow.Sequence,0_2_14,,completion,15,535592.1000000238,,,535593.2000000477,,535599.8000000119,2021-10-27T13:38:22.709Z,535858.428,1635341358,full,ni_sequenzen,NI_Sequenzen,,,,,,,,,,,,,,
,Screen_1,canvas.Screen,0_2_15_0,,skipped,16,535601.4000000358,,,535601.4000000358,,535601.5,2021-10-27T13:38:22.711Z,535858.428,1635341358,full,ni_sequenzen,NI_Sequenzen,,,,,,,,,,,,,,
,Screen_2,canvas.Screen,0_2_15_1,,skipped,16,535602.6000000238,,,535601.4000000358,,535602.7000000477,2021-10-27T13:38:22.712Z,535858.428,1635341358,full,ni_sequenzen,NI_Sequenzen,,,,,,,,,,,,,,
,Screen_3,canvas.Screen,0_2_15_2,,skipped,16,535603.7000000477,,,535601.4000000358,,535603.8000000119,2021-10-27T13:38:22.713Z,535858.428,1635341358,full,ni_sequenzen,NI_Sequenzen,,,,,,,,,,,,,,
,Screen_4,canvas.Screen,0_2_15_3,,skipped,16,535605.1000000238,,,535601.4000000358,,535605.1000000238,2021-10-27T13:38:22.714Z,535858.428,1635341358,full,ni_sequenzen,NI_Sequenzen,,,,,,,,,,,,,,
,Screen_5,canvas.Screen,0_2_15_4,,skipped,16,535606.2000000477,,,535601.4000000358,,535606.2000000477,2021-10-27T13:38:22.716Z,535858.428,1635341358,full,ni_sequenzen,NI_Sequenzen,,,,,,,,,,,,,,
,Screen_6,canvas.Screen,0_2_15_5,,skipped,16,535608.2000000477,,,535601.4000000358,,535608.3000000119,2021-10-27T13:38:22.718Z,535858.428,1635341358,full,ni_sequenzen,NI_Sequenzen,,,,,,,,,,,,,,
,Sequence,flow.Sequence,0_2_15,,completion,16,535600.3000000119,,,535601.4000000358,,535608.5,2021-10-27T13:38:22.718Z,535858.428,1635341358,full,ni_sequenzen,NI_Sequenzen,,,,,,,,,,,,,,
,Screen_1,canvas.Screen,0_2_16_0,,skipped,17,535634.6000000238,,,535634.7000000477,,535634.7000000477,2021-10-27T13:38:22.744Z,535858.428,1635341358,full,ni_sequenzen,NI_Sequenzen,,,,,,,,,,,,,,
,Screen_2,canvas.Screen,0_2_16_1,,skipped,17,535635.9000000358,,,535634.7000000477,,535635.9000000358,2021-10-27T13:38:22.745Z,535858.428,1635341358,full,ni_sequenzen,NI_Sequenzen,,,,,,,,,,,,,,
,Screen_3,canvas.Screen,0_2_16_2,,skipped,17,535636.9000000358,,,535634.7000000477,,535637,2021-10-27T13:38:22.746Z,535858.428,1635341358,full,ni_sequenzen,NI_Sequenzen,,,,,,,,,,,,,,
,Screen_4,canvas.Screen,0_2_16_3,,skipped,17,535638,,,535634.7000000477,,535638.1000000238,2021-10-27T13:38:22.747Z,535858.428,1635341358,full,ni_sequenzen,NI_Sequenzen,,,,,,,,,,,,,,
,Screen_5,canvas.Screen,0_2_16_4,,skipped,17,535639.2000000477,,,535634.7000000477,,535639.3000000119,2021-10-27T13:38:22.749Z,535858.428,1635341358,full,ni_sequenzen,NI_Sequenzen,,,,,,,,,,,,,,
,Screen_6,canvas.Screen,0_2_16_5,,skipped,17,535640.4000000358,,,535634.7000000477,,535640.5,2021-10-27T13:38:22.750Z,535858.428,1635341358,full,ni_sequenzen,NI_Sequenzen,,,,,,,,,,,,,,
,Sequence,flow.Sequence,0_2_16,,completion,17,535633.3000000119,,,535634.7000000477,,535640.7000000477,2021-10-27T13:38:22.750Z,535858.428,1635341358,full,ni_sequenzen,NI_Sequenzen,,,,,,,,,,,,,,
,Screen_1,canvas.Screen,0_2_17_0,,skipped,18,535642.7000000477,,,535642.7000000477,,535642.8000000119,2021-10-27T13:38:22.752Z,535858.428,1635341358,full,ni_sequenzen,NI_Sequenzen,,,,,,,,,,,,,,
,Screen_2,canvas.Screen,0_2_17_1,,skipped,18,535643.8000000119,,,535642.7000000477,,535644,2021-10-27T13:38:22.753Z,535858.428,1635341358,full,ni_sequenzen,NI_Sequenzen,,,,,,,,,,,,,,
,Screen_3,canvas.Screen,0_2_17_2,,skipped,18,535645,,,535642.7000000477,,535645.1000000238,2021-10-27T13:38:22.754Z,535858.428,1635341358,full,ni_sequenzen,NI_Sequenzen,,,,,,,,,,,,,,
,Screen_4,canvas.Screen,0_2_17_3,,skipped,18,535646.1000000238,,,535642.7000000477,,535646.1000000238,2021-10-27T13:38:22.756Z,535858.428,1635341358,full,ni_sequenzen,NI_Sequenzen,,,,,,,,,,,,,,
,Screen_5,canvas.Screen,0_2_17_4,,skipped,18,535647.2000000477,,,535642.7000000477,,535647.2000000477,2021-10-27T13:38:22.757Z,535858.428,1635341358,full,ni_sequenzen,NI_Sequenzen,,,,,,,,,,,,,,
,Screen_6,canvas.Screen,0_2_17_5,,skipped,18,535648.3000000119,,,535642.7000000477,,535648.4000000358,2021-10-27T13:38:22.758Z,535858.428,1635341358,full,ni_sequenzen,NI_Sequenzen,,,,,,,,,,,,,,
,Sequence,flow.Sequence,0_2_17,,completion,18,535641.4000000358,,,535642.7000000477,,535648.5,2021-10-27T13:38:22.758Z,535858.428,1635341358,full,ni_sequenzen,NI_Sequenzen,,,,,,,,,,,,,,
,Screen_1,canvas.Screen,0_2_18_0,,skipped,19,535650.9000000358,,,535650.9000000358,,535651,2021-10-27T13:38:22.760Z,535858.428,1635341358,full,ni_sequenzen,NI_Sequenzen,,,,,,,,,,,,,,
,Screen_2,canvas.Screen,0_2_18_1,,skipped,19,535652.1000000238,,,535650.9000000358,,535652.2000000477,2021-10-27T13:38:22.762Z,535858.428,1635341358,full,ni_sequenzen,NI_Sequenzen,,,,,,,,,,,,,,
,Screen_3,canvas.Screen,0_2_18_2,,skipped,19,535653.1000000238,,,535650.9000000358,,535653.3000000119,2021-10-27T13:38:22.763Z,535858.428,1635341358,full,ni_sequenzen,NI_Sequenzen,,,,,,,,,,,,,,
,Screen_4,canvas.Screen,0_2_18_3,,skipped,19,535654.3000000119,,,535650.9000000358,,535654.4000000358,2021-10-27T13:38:22.764Z,535858.428,1635341358,full,ni_sequenzen,NI_Sequenzen,,,,,,,,,,,,,,
,Screen_5,canvas.Screen,0_2_18_4,,skipped,19,535655.4000000358,,,535650.9000000358,,535655.5,2021-10-27T13:38:22.765Z,535858.428,1635341358,full,ni_sequenzen,NI_Sequenzen,,,,,,,,,,,,,,
,Screen_6,canvas.Screen,0_2_18_5,,skipped,19,535656.5,,,535650.9000000358,,535656.6000000238,2021-10-27T13:38:22.766Z,535858.428,1635341358,full,ni_sequenzen,NI_Sequenzen,,,,,,,,,,,,,,
,Sequence,flow.Sequence,0_2_18,,completion,19,535649,,,535650.9000000358,,535656.8000000119,2021-10-27T13:38:22.766Z,535858.428,1635341358,full,ni_sequenzen,NI_Sequenzen,,,,,,,,,,,,,,
,Screen_1,canvas.Screen,0_2_19_0,,skipped,20,535658.2000000477,,,535658.2000000477,,535658.4000000358,2021-10-27T13:38:22.768Z,535858.428,1635341358,full,ni_sequenzen,NI_Sequenzen,,,,,,,,,,,,,,
,Screen_2,canvas.Screen,0_2_19_1,,skipped,20,535659.7000000477,,,535658.2000000477,,535659.8000000119,2021-10-27T13:38:22.769Z,535858.428,1635341358,full,ni_sequenzen,NI_Sequenzen,,,,,,,,,,,,,,
,Screen_3,canvas.Screen,0_2_19_2,,skipped,20,535660.8000000119,,,535658.2000000477,,535661,2021-10-27T13:38:22.770Z,535858.428,1635341358,full,ni_sequenzen,NI_Sequenzen,,,,,,,,,,,,,,
,Screen_4,canvas.Screen,0_2_19_3,,skipped,20,535662.1000000238,,,535658.2000000477,,535662.2000000477,2021-10-27T13:38:22.772Z,535858.428,1635341358,full,ni_sequenzen,NI_Sequenzen,,,,,,,,,,,,,,
,Screen_5,canvas.Screen,0_2_19_4,,skipped,20,535663.3000000119,,,535658.2000000477,,535663.4000000358,2021-10-27T13:38:22.773Z,535858.428,1635341358,full,ni_sequenzen,NI_Sequenzen,,,,,,,,,,,,,,
,Screen_6,canvas.Screen,0_2_19_5,,skipped,20,535664.3000000119,,,535658.2000000477,,535664.5,2021-10-27T13:38:22.774Z,535858.428,1635341358,full,ni_sequenzen,NI_Sequenzen,,,,,,,,,,,,,,
,Sequence,flow.Sequence,0_2_19,,completion,20,535657.3000000119,,,535658.2000000477,,535664.6000000238,2021-10-27T13:38:22.774Z,535858.428,1635341358,full,ni_sequenzen,NI_Sequenzen,,,,,,,,,,,,,,
,Screen_1,canvas.Screen,0_2_20_0,,skipped,21,535668.6000000238,,,535668.6000000238,,535668.7000000477,2021-10-27T13:38:22.778Z,535858.428,1635341358,full,ni_sequenzen,NI_Sequenzen,,,,,,,,,,,,,,
,Screen_2,canvas.Screen,0_2_20_1,,skipped,21,535671,,,535668.6000000238,,535671.1000000238,2021-10-27T13:38:22.780Z,535858.428,1635341358,full,ni_sequenzen,NI_Sequenzen,,,,,,,,,,,,,,
,Screen_3,canvas.Screen,0_2_20_2,,skipped,21,535672.2000000477,,,535668.6000000238,,535672.3000000119,2021-10-27T13:38:22.782Z,535858.428,1635341358,full,ni_sequenzen,NI_Sequenzen,,,,,,,,,,,,,,
,Screen_4,canvas.Screen,0_2_20_3,,skipped,21,535673.5,,,535668.6000000238,,535673.6000000238,2021-10-27T13:38:22.783Z,535858.428,1635341358,full,ni_sequenzen,NI_Sequenzen,,,,,,,,,,,,,,
,Screen_5,canvas.Screen,0_2_20_4,,skipped,21,535674.6000000238,,,535668.6000000238,,535674.7000000477,2021-10-27T13:38:22.784Z,535858.428,1635341358,full,ni_sequenzen,NI_Sequenzen,,,,,,,,,,,,,,
,Screen_6,canvas.Screen,0_2_20_5,,skipped,21,535676.1000000238,,,535668.6000000238,,535676.3000000119,2021-10-27T13:38:22.786Z,535858.428,1635341358,full,ni_sequenzen,NI_Sequenzen,,,,,,,,,,,,,,
,Sequence,flow.Sequence,0_2_20,,completion,21,535665.2000000477,,,535668.6000000238,,535676.3000000119,2021-10-27T13:38:22.786Z,535858.428,1635341358,full,ni_sequenzen,NI_Sequenzen,,,,,,,,,,,,,,
,Screen_1,canvas.Screen,0_2_21_0,,skipped,22,535678.6000000238,,,535678.6000000238,,535678.7000000477,2021-10-27T13:38:22.788Z,535858.428,1635341358,full,ni_sequenzen,NI_Sequenzen,,,,,,,,,,,,,,
,Screen_2,canvas.Screen,0_2_21_1,,skipped,22,535679.7000000477,,,535678.6000000238,,535679.8000000119,2021-10-27T13:38:22.789Z,535858.428,1635341358,full,ni_sequenzen,NI_Sequenzen,,,,,,,,,,,,,,
,Screen_3,canvas.Screen,0_2_21_2,,skipped,22,535680.8000000119,,,535678.6000000238,,535690,2021-10-27T13:38:22.799Z,535858.428,1635341358,full,ni_sequenzen,NI_Sequenzen,,,,,,,,,,,,,,
,Screen_4,canvas.Screen,0_2_21_3,,skipped,22,535691.3000000119,,,535678.6000000238,,535691.3000000119,2021-10-27T13:38:22.801Z,535858.428,1635341358,full,ni_sequenzen,NI_Sequenzen,,,,,,,,,,,,,,
,Screen_5,canvas.Screen,0_2_21_4,,skipped,22,535692.8000000119,,,535678.6000000238,,535692.9000000358,2021-10-27T13:38:22.802Z,535858.428,1635341358,full,ni_sequenzen,NI_Sequenzen,,,,,,,,,,,,,,
,Screen_6,canvas.Screen,0_2_21_5,,skipped,22,535693.9000000358,,,535678.6000000238,,535694,2021-10-27T13:38:22.803Z,535858.428,1635341358,full,ni_sequenzen,NI_Sequenzen,,,,,,,,,,,,,,
,Sequence,flow.Sequence,0_2_21,,completion,22,535676.9000000358,,,535678.6000000238,,535694.2000000477,2021-10-27T13:38:22.804Z,535858.428,1635341358,full,ni_sequenzen,NI_Sequenzen,,,,,,,,,,,,,,
,Screen_1,canvas.Screen,0_2_22_0,,skipped,23,535695.6000000238,,,535695.6000000238,,535695.7000000477,2021-10-27T13:38:22.805Z,535858.428,1635341358,full,ni_sequenzen,NI_Sequenzen,,,,,,,,,,,,,,
,Screen_2,canvas.Screen,0_2_22_1,,skipped,23,535696.7000000477,,,535695.6000000238,,535696.7000000477,2021-10-27T13:38:22.806Z,535858.428,1635341358,full,ni_sequenzen,NI_Sequenzen,,,,,,,,,,,,,,
,Screen_3,canvas.Screen,0_2_22_2,,skipped,23,535698.1000000238,,,535695.6000000238,,535698.1000000238,2021-10-27T13:38:22.807Z,535858.428,1635341358,full,ni_sequenzen,NI_Sequenzen,,,,,,,,,,,,,,
,Screen_4,canvas.Screen,0_2_22_3,,skipped,23,535699.3000000119,,,535695.6000000238,,535699.4000000358,2021-10-27T13:38:22.809Z,535858.428,1635341358,full,ni_sequenzen,NI_Sequenzen,,,,,,,,,,,,,,
,Screen_5,canvas.Screen,0_2_22_4,,skipped,23,535700.4000000358,,,535695.6000000238,,535700.5,2021-10-27T13:38:22.810Z,535858.428,1635341358,full,ni_sequenzen,NI_Sequenzen,,,,,,,,,,,,,,
,Screen_6,canvas.Screen,0_2_22_5,,skipped,23,535701.5,,,535695.6000000238,,535702.6000000238,2021-10-27T13:38:22.812Z,535858.428,1635341358,full,ni_sequenzen,NI_Sequenzen,,,,,,,,,,,,,,
,Sequence,flow.Sequence,0_2_22,,completion,23,535694.7000000477,,,535695.6000000238,,535702.8000000119,2021-10-27T13:38:22.812Z,535858.428,1635341358,full,ni_sequenzen,NI_Sequenzen,,,,,,,,,,,,,,
,Screen_1,canvas.Screen,0_2_23_0,,skipped,24,535704.3000000119,,,535704.3000000119,,535704.4000000358,2021-10-27T13:38:22.814Z,535858.428,1635341358,full,ni_sequenzen,NI_Sequenzen,,,,,,,,,,,,,,
,Screen_2,canvas.Screen,0_2_23_1,,skipped,24,535705.4000000358,,,535704.3000000119,,535705.5,2021-10-27T13:38:22.815Z,535858.428,1635341358,full,ni_sequenzen,NI_Sequenzen,,,,,,,,,,,,,,
,Screen_3,canvas.Screen,0_2_23_2,,skipped,24,535706.5,,,535704.3000000119,,535706.6000000238,2021-10-27T13:38:22.816Z,535858.428,1635341358,full,ni_sequenzen,NI_Sequenzen,,,,,,,,,,,,,,
,Screen_4,canvas.Screen,0_2_23_3,,skipped,24,535707.8000000119,,,535704.3000000119,,535707.9000000358,2021-10-27T13:38:22.817Z,535858.428,1635341358,full,ni_sequenzen,NI_Sequenzen,,,,,,,,,,,,,,
,Screen_5,canvas.Screen,0_2_23_4,,skipped,24,535708.9000000358,,,535704.3000000119,,535709.1000000238,2021-10-27T13:38:22.818Z,535858.428,1635341358,full,ni_sequenzen,NI_Sequenzen,,,,,,,,,,,,,,
,Screen_6,canvas.Screen,0_2_23_5,,skipped,24,535710.2000000477,,,535704.3000000119,,535710.3000000119,2021-10-27T13:38:22.820Z,535858.428,1635341358,full,ni_sequenzen,NI_Sequenzen,,,,,,,,,,,,,,
,Sequence,flow.Sequence,0_2_23,,completion,24,535703.3000000119,,,535704.3000000119,,535710.5,2021-10-27T13:38:22.820Z,535858.428,1635341358,full,ni_sequenzen,NI_Sequenzen,,,,,,,,,,,,,,
,Screen_1,canvas.Screen,0_2_24_0,,skipped,25,535712.9000000358,,,535712.9000000358,,535713,2021-10-27T13:38:22.822Z,535858.428,1635341358,full,ni_sequenzen,NI_Sequenzen,,,,,,,,,,,,,,
,Screen_2,canvas.Screen,0_2_24_1,,skipped,25,535714,,,535712.9000000358,,535714.1000000238,2021-10-27T13:38:22.823Z,535858.428,1635341358,full,ni_sequenzen,NI_Sequenzen,,,,,,,,,,,,,,
,Screen_3,canvas.Screen,0_2_24_2,,skipped,25,535715.1000000238,,,535712.9000000358,,535715.2000000477,2021-10-27T13:38:22.825Z,535858.428,1635341358,full,ni_sequenzen,NI_Sequenzen,,,,,,,,,,,,,,
,Screen_4,canvas.Screen,0_2_24_3,,skipped,25,535716.2000000477,,,535712.9000000358,,535716.3000000119,2021-10-27T13:38:22.826Z,535858.428,1635341358,full,ni_sequenzen,NI_Sequenzen,,,,,,,,,,,,,,
,Screen_5,canvas.Screen,0_2_24_4,,skipped,25,535717.3000000119,,,535712.9000000358,,535717.4000000358,2021-10-27T13:38:22.827Z,535858.428,1635341358,full,ni_sequenzen,NI_Sequenzen,,,,,,,,,,,,,,
,Screen_6,canvas.Screen,0_2_24_5,,skipped,25,535718.4000000358,,,535712.9000000358,,535718.4000000358,2021-10-27T13:38:22.828Z,535858.428,1635341358,full,ni_sequenzen,NI_Sequenzen,,,,,,,,,,,,,,
,Sequence,flow.Sequence,0_2_24,,completion,25,535712,,,535712.9000000358,,535718.5,2021-10-27T13:38:22.828Z,535858.428,1635341358,full,ni_sequenzen,NI_Sequenzen,,,,,,,,,,,,,,
,Screen_1,canvas.Screen,0_2_25_0,,skipped,26,535720,,,535720,,535720,2021-10-27T13:38:22.829Z,535858.428,1635341358,full,ni_sequenzen,NI_Sequenzen,,,,,,,,,,,,,,
,Screen_2,canvas.Screen,0_2_25_1,,skipped,26,535721.1000000238,,,535720,,535721.2000000477,2021-10-27T13:38:22.830Z,535858.428,1635341358,full,ni_sequenzen,NI_Sequenzen,,,,,,,,,,,,,,
,Screen_3,canvas.Screen,0_2_25_2,,skipped,26,535722.1000000238,,,535720,,535722.2000000477,2021-10-27T13:38:22.832Z,535858.428,1635341358,full,ni_sequenzen,NI_Sequenzen,,,,,,,,,,,,,,
,Screen_4,canvas.Screen,0_2_25_3,,skipped,26,535724.6000000238,,,535720,,535724.7000000477,2021-10-27T13:38:22.834Z,535858.428,1635341358,full,ni_sequenzen,NI_Sequenzen,,,,,,,,,,,,,,
,Screen_5,canvas.Screen,0_2_25_4,,skipped,26,535725.9000000358,,,535720,,535726,2021-10-27T13:38:22.835Z,535858.428,1635341358,full,ni_sequenzen,NI_Sequenzen,,,,,,,,,,,,,,
,Screen_6,canvas.Screen,0_2_25_5,,skipped,26,535727.1000000238,,,535720,,535727.2000000477,2021-10-27T13:38:22.836Z,535858.428,1635341358,full,ni_sequenzen,NI_Sequenzen,,,,,,,,,,,,,,
,Sequence,flow.Sequence,0_2_25,,completion,26,535719.1000000238,,,535720,,535727.3000000119,2021-10-27T13:38:22.837Z,535858.428,1635341358,full,ni_sequenzen,NI_Sequenzen,,,,,,,,,,,,,,
,Screen_1,canvas.Screen,0_2_26_0,,skipped,27,535729,,,535729,,535729,2021-10-27T13:38:22.838Z,535858.428,1635341358,full,ni_sequenzen,NI_Sequenzen,,,,,,,,,,,,,,
,Screen_2,canvas.Screen,0_2_26_1,,skipped,27,535730.1000000238,,,535729,,535730.2000000477,2021-10-27T13:38:22.840Z,535858.428,1635341358,full,ni_sequenzen,NI_Sequenzen,,,,,,,,,,,,,,
,Screen_3,canvas.Screen,0_2_26_2,,skipped,27,535731.3000000119,,,535729,,535731.3000000119,2021-10-27T13:38:22.841Z,535858.428,1635341358,full,ni_sequenzen,NI_Sequenzen,,,,,,,,,,,,,,
,Screen_4,canvas.Screen,0_2_26_3,,skipped,27,535732.3000000119,,,535729,,535732.4000000358,2021-10-27T13:38:22.842Z,535858.428,1635341358,full,ni_sequenzen,NI_Sequenzen,,,,,,,,,,,,,,
,Screen_5,canvas.Screen,0_2_26_4,,skipped,27,535733.4000000358,,,535729,,535733.5,2021-10-27T13:38:22.843Z,535858.428,1635341358,full,ni_sequenzen,NI_Sequenzen,,,,,,,,,,,,,,
,Screen_6,canvas.Screen,0_2_26_5,,skipped,27,535734.5,,,535729,,535734.6000000238,2021-10-27T13:38:22.844Z,535858.428,1635341358,full,ni_sequenzen,NI_Sequenzen,,,,,,,,,,,,,,
,Sequence,flow.Sequence,0_2_26,,completion,27,535727.8000000119,,,535729,,535734.7000000477,2021-10-27T13:38:22.844Z,535858.428,1635341358,full,ni_sequenzen,NI_Sequenzen,,,,,,,,,,,,,,
,Screen_1,canvas.Screen,0_2_27_0,,skipped,28,535736,,,535736,,535736.2000000477,2021-10-27T13:38:22.845Z,535858.428,1635341358,full,ni_sequenzen,NI_Sequenzen,,,,,,,,,,,,,,
,Screen_2,canvas.Screen,0_2_27_1,,skipped,28,535737.2000000477,,,535736,,535737.2000000477,2021-10-27T13:38:22.847Z,535858.428,1635341358,full,ni_sequenzen,NI_Sequenzen,,,,,,,,,,,,,,
,Screen_3,canvas.Screen,0_2_27_2,,skipped,28,535738.3000000119,,,535736,,535738.3000000119,2021-10-27T13:38:22.848Z,535858.428,1635341358,full,ni_sequenzen,NI_Sequenzen,,,,,,,,,,,,,,
,Screen_4,canvas.Screen,0_2_27_3,,skipped,28,535739.4000000358,,,535736,,535739.6000000238,2021-10-27T13:38:22.849Z,535858.428,1635341358,full,ni_sequenzen,NI_Sequenzen,,,,,,,,,,,,,,
,Screen_5,canvas.Screen,0_2_27_4,,skipped,28,535740.6000000238,,,535736,,535740.7000000477,2021-10-27T13:38:22.850Z,535858.428,1635341358,full,ni_sequenzen,NI_Sequenzen,,,,,,,,,,,,,,
,Screen_6,canvas.Screen,0_2_27_5,,skipped,28,535741.9000000358,,,535736,,535742,2021-10-27T13:38:22.851Z,535858.428,1635341358,full,ni_sequenzen,NI_Sequenzen,,,,,,,,,,,,,,
,Sequence,flow.Sequence,0_2_27,,completion,28,535735.2000000477,,,535736,,535742.1000000238,2021-10-27T13:38:22.852Z,535858.428,1635341358,full,ni_sequenzen,NI_Sequenzen,,,,,,,,,,,,,,
,Screen_1,canvas.Screen,0_2_28_0,,skipped,29,535744.5,,,535744.5,,535744.5,2021-10-27T13:38:22.854Z,535858.428,1635341358,full,ni_sequenzen,NI_Sequenzen,,,,,,,,,,,,,,
,Screen_2,canvas.Screen,0_2_28_1,,skipped,29,535771.9000000358,,,535744.5,,535772,2021-10-27T13:38:22.881Z,535858.428,1635341358,full,ni_sequenzen,NI_Sequenzen,,,,,,,,,,,,,,
,Screen_3,canvas.Screen,0_2_28_2,,skipped,29,535773.1000000238,,,535744.5,,535773.2000000477,2021-10-27T13:38:22.883Z,535858.428,1635341358,full,ni_sequenzen,NI_Sequenzen,,,,,,,,,,,,,,
,Screen_4,canvas.Screen,0_2_28_3,,skipped,29,535774.4000000358,,,535744.5,,535774.4000000358,2021-10-27T13:38:22.884Z,535858.428,1635341358,full,ni_sequenzen,NI_Sequenzen,,,,,,,,,,,,,,
,Screen_5,canvas.Screen,0_2_28_4,,skipped,29,535776,,,535744.5,,535776.2000000477,2021-10-27T13:38:22.885Z,535858.428,1635341358,full,ni_sequenzen,NI_Sequenzen,,,,,,,,,,,,,,
,Screen_6,canvas.Screen,0_2_28_5,,skipped,29,535777.2000000477,,,535744.5,,535777.3000000119,2021-10-27T13:38:22.887Z,535858.428,1635341358,full,ni_sequenzen,NI_Sequenzen,,,,,,,,,,,,,,
,Sequence,flow.Sequence,0_2_28,,completion,29,535743.5,,,535744.5,,535777.4000000358,2021-10-27T13:38:22.887Z,535858.428,1635341358,full,ni_sequenzen,NI_Sequenzen,,,,,,,,,,,,,,
,Screen_1,canvas.Screen,0_2_29_0,,skipped,30,535779,,,535779,,535779.1000000238,2021-10-27T13:38:22.888Z,535858.428,1635341358,full,ni_sequenzen,NI_Sequenzen,,,,,,,,,,,,,,
,Screen_2,canvas.Screen,0_2_29_1,,skipped,30,535780.1000000238,,,535779,,535780.2000000477,2021-10-27T13:38:22.890Z,535858.428,1635341358,full,ni_sequenzen,NI_Sequenzen,,,,,,,,,,,,,,
,Screen_3,canvas.Screen,0_2_29_2,,skipped,30,535781.2000000477,,,535779,,535781.3000000119,2021-10-27T13:38:22.891Z,535858.428,1635341358,full,ni_sequenzen,NI_Sequenzen,,,,,,,,,,,,,,
,Screen_4,canvas.Screen,0_2_29_3,,skipped,30,535782.4000000358,,,535779,,535782.4000000358,2021-10-27T13:38:22.892Z,535858.428,1635341358,full,ni_sequenzen,NI_Sequenzen,,,,,,,,,,,,,,
,Screen_5,canvas.Screen,0_2_29_4,,skipped,30,535783.4000000358,,,535779,,535783.5,2021-10-27T13:38:22.893Z,535858.428,1635341358,full,ni_sequenzen,NI_Sequenzen,,,,,,,,,,,,,,
,Screen_6,canvas.Screen,0_2_29_5,,skipped,30,535784.5,,,535779,,535784.6000000238,2021-10-27T13:38:22.894Z,535858.428,1635341358,full,ni_sequenzen,NI_Sequenzen,,,,,,,,,,,,,,
,Sequence,flow.Sequence,0_2_29,,completion,30,535778.1000000238,,,535779,,535784.8000000119,2021-10-27T13:38:22.894Z,535858.428,1635341358,full,ni_sequenzen,NI_Sequenzen,,,,,,,,,,,,,,
,Instructions_II,flow.Loop,0_2,,completion,,359378.40000003576,359368.15,359384.832,535779,176394.168,535784.9000000358,2021-10-27T13:38:22.894Z,535858.428,1635341358,full,ni_sequenzen,NI_Sequenzen,,,,,,,,,,,,,,
,Move,canvas.Screen,0_3_0_0_0_0,right,response,,535845.5,535840.661,535858.428,559145.4000000358,23286.972000035807,559145.9000000358,2021-10-27T13:38:46.255Z,559167.27,1635341358,full,ni_sequenzen,NI_Sequenzen,1,0,,,,,,,,,,,,
,Move,canvas.Screen,0_3_0_0_0_1,down,response,,559155.8000000119,559149.084,559167.27,561704.4000000358,2537.130000035744,561704.9000000358,2021-10-27T13:38:48.814Z,561716.326,1635341358,full,ni_sequenzen,NI_Sequenzen,2,0,,,,,,,,,,,,
,Move,canvas.Screen,0_3_0_0_0_2,left,response,,561708.9000000358,561699.463,561716.326,566012.4000000358,4296.074000035762,566012.9000000358,2021-10-27T13:38:53.122Z,566031.509,1635341358,full,ni_sequenzen,NI_Sequenzen,3,0,,,,,,,,,,,,
,Move,canvas.Screen,0_3_0_0_0_3,down,response,,566017.1000000238,566014.571,566031.509,567593.7000000477,1562.191000047722,567594.2000000477,2021-10-27T13:38:54.704Z,567614.308,1635341358,full,ni_sequenzen,NI_Sequenzen,4,0,,,,,,,,,,,,
,Move,canvas.Screen,0_3_0_0_0_4,left,response,,567599,567597.54,567614.308,592122.5,24508.19200000004,592123.2000000477,2021-10-27T13:39:19.232Z,592209.635,1635341358,full,ni_sequenzen,NI_Sequenzen,5,0,,,,,,,,,,,,
,Move,canvas.Screen,0_3_0_0_0_5,-999,skipped,,592126.9000000358,,,592122.5,,592127,2021-10-27T13:39:19.236Z,592209.635,1635341358,full,ni_sequenzen,NI_Sequenzen,6,0,,,,,,,,,,,,
,Move,canvas.Screen,0_3_0_0_0_6,-999,skipped,,592139.2000000477,,,592122.5,,592139.7000000477,2021-10-27T13:39:19.249Z,592209.635,1635341358,full,ni_sequenzen,NI_Sequenzen,7,0,,,,,,,,,,,,
,Move,canvas.Screen,0_3_0_0_0_7,-999,skipped,,592143.5,,,592122.5,,592143.7000000477,2021-10-27T13:39:19.253Z,592209.635,1635341358,full,ni_sequenzen,NI_Sequenzen,8,0,,,,,,,,,,,,
,Move,canvas.Screen,0_3_0_0_0_8,-999,skipped,,592147.2000000477,,,592122.5,,592147.3000000119,2021-10-27T13:39:19.257Z,592209.635,1635341358,full,ni_sequenzen,NI_Sequenzen,9,0,,,,,,,,,,,,
,Move,canvas.Screen,0_3_0_0_0_9,-999,skipped,,592150.8000000119,,,592122.5,,592150.8000000119,2021-10-27T13:39:19.260Z,592209.635,1635341358,full,ni_sequenzen,NI_Sequenzen,10,0,,,,,,,,,,,,
,Move,canvas.Screen,0_3_0_0_0_10,-999,skipped,,592164.9000000358,,,592122.5,,592165.1000000238,2021-10-27T13:39:19.274Z,592209.635,1635341358,full,ni_sequenzen,NI_Sequenzen,11,0,,,,,,,,,,,,
,Move,canvas.Screen,0_3_0_0_0_11,-999,skipped,,592168.6000000238,,,592122.5,,592168.7000000477,2021-10-27T13:39:19.278Z,592209.635,1635341358,full,ni_sequenzen,NI_Sequenzen,12,0,,,,,,,,,,,,
,Move,canvas.Screen,0_3_0_0_0_12,-999,skipped,,592172.2000000477,,,592122.5,,592172.2000000477,2021-10-27T13:39:19.282Z,592209.635,1635341358,full,ni_sequenzen,NI_Sequenzen,13,0,,,,,,,,,,,,
,Move,canvas.Screen,0_3_0_0_0_13,-999,skipped,,592177.2000000477,,,592122.5,,592177.4000000358,2021-10-27T13:39:19.287Z,592209.635,1635341358,full,ni_sequenzen,NI_Sequenzen,14,0,,,,,,,,,,,,
,Move,canvas.Screen,0_3_0_0_0_14,-999,skipped,,592182.5,,,592122.5,,592182.6000000238,2021-10-27T13:39:19.292Z,592209.635,1635341358,full,ni_sequenzen,NI_Sequenzen,15,0,,,,,,,,,,,,
,Loop,flow.Loop,0_3_0_0_0,-999,completion,,535838.8000000119,535840.661,535858.428,592122.5,56264.072000000044,592182.8000000119,2021-10-27T13:39:19.292Z,592209.635,1635341358,full,ni_sequenzen,NI_Sequenzen,,0,,,,,,,,,,,,
,Feedback,canvas.Screen,0_3_0_0_1,,timeout,,592188.2000000477,592187.796,592209.635,596187.942,3994.996000000043,596188.6000000238,2021-10-27T13:39:23.298Z,596204.631,1635341358,full,ni_sequenzen,NI_Sequenzen,,0,,,,,,,,,,,,
,Trial,flow.Sequence,0_3_0_0,,completion,,535819.5,535840.661,535858.428,596187.942,60329.51400000008,596188.7000000477,2021-10-27T13:39:23.298Z,596221.368,1635341358,full,ni_sequenzen,NI_Sequenzen,,0,,,,,,,,,,,,
,Move,canvas.Screen,0_3_0_1_0_0,left,response,,596209.8000000119,596204.631,596221.368,600033.6000000238,3812.232000023825,600034.1000000238,2021-10-27T13:39:27.143Z,600053.597,1635341358,full,ni_sequenzen,NI_Sequenzen,1,1,,,,,,,,,,,,
,Move,canvas.Screen,0_3_0_1_0_1,down,response,,600038.2000000477,600036.411,600053.597,605869.9000000358,5816.303000035812,605870.4000000358,2021-10-27T13:39:32.980Z,605884.894,1635341358,full,ni_sequenzen,NI_Sequenzen,2,1,,,,,,,,,,,,
,Move,canvas.Screen,0_3_0_1_0_2,down,response,,605874.4000000358,605867.654,605884.894,620210.3000000119,14325.40600001195,620210.8000000119,2021-10-27T13:39:47.320Z,620229.814,1635341358,full,ni_sequenzen,NI_Sequenzen,3,1,,,,,,,,,,,,
,Move,canvas.Screen,0_3_0_1_0_3,left,response,,620215.3000000119,620212.262,620229.814,623252.1000000238,3022.286000023829,623252.5,2021-10-27T13:39:50.362Z,623312.11,1635341358,full,ni_sequenzen,NI_Sequenzen,4,1,,,,,,,,,,,,
,Move,canvas.Screen,0_3_0_1_0_4,-999,skipped,,623256,,,623252.1000000238,,623256.2000000477,2021-10-27T13:39:50.365Z,623312.11,1635341358,full,ni_sequenzen,NI_Sequenzen,5,1,,,,,,,,,,,,
,Move,canvas.Screen,0_3_0_1_0_5,-999,skipped,,623259.5,,,623252.1000000238,,623259.6000000238,2021-10-27T13:39:50.369Z,623312.11,1635341358,full,ni_sequenzen,NI_Sequenzen,6,1,,,,,,,,,,,,
,Move,canvas.Screen,0_3_0_1_0_6,-999,skipped,,623263.5,,,623252.1000000238,,623263.5,2021-10-27T13:39:50.373Z,623312.11,1635341358,full,ni_sequenzen,NI_Sequenzen,7,1,,,,,,,,,,,,
,Move,canvas.Screen,0_3_0_1_0_7,-999,skipped,,623267.2000000477,,,623252.1000000238,,623267.3000000119,2021-10-27T13:39:50.376Z,623312.11,1635341358,full,ni_sequenzen,NI_Sequenzen,8,1,,,,,,,,,,,,
,Move,canvas.Screen,0_3_0_1_0_8,-999,skipped,,623270.2000000477,,,623252.1000000238,,623270.2000000477,2021-10-27T13:39:50.379Z,623312.11,1635341358,full,ni_sequenzen,NI_Sequenzen,9,1,,,,,,,,,,,,
,Move,canvas.Screen,0_3_0_1_0_9,-999,skipped,,623273.9000000358,,,623252.1000000238,,623274.1000000238,2021-10-27T13:39:50.383Z,623312.11,1635341358,full,ni_sequenzen,NI_Sequenzen,10,1,,,,,,,,,,,,
,Move,canvas.Screen,0_3_0_1_0_10,-999,skipped,,623278.1000000238,,,623252.1000000238,,623278.2000000477,2021-10-27T13:39:50.387Z,623312.11,1635341358,full,ni_sequenzen,NI_Sequenzen,11,1,,,,,,,,,,,,
,Move,canvas.Screen,0_3_0_1_0_11,-999,skipped,,623281.9000000358,,,623252.1000000238,,623282,2021-10-27T13:39:50.391Z,623312.11,1635341358,full,ni_sequenzen,NI_Sequenzen,12,1,,,,,,,,,,,,
,Move,canvas.Screen,0_3_0_1_0_12,-999,skipped,,623296.8000000119,,,623252.1000000238,,623296.9000000358,2021-10-27T13:39:50.406Z,623312.11,1635341358,full,ni_sequenzen,NI_Sequenzen,13,1,,,,,,,,,,,,
,Move,canvas.Screen,0_3_0_1_0_13,-999,skipped,,623300.9000000358,,,623252.1000000238,,623301.1000000238,2021-10-27T13:39:50.410Z,623312.11,1635341358,full,ni_sequenzen,NI_Sequenzen,14,1,,,,,,,,,,,,
,Move,canvas.Screen,0_3_0_1_0_14,-999,skipped,,623304.7000000477,,,623252.1000000238,,623304.8000000119,2021-10-27T13:39:50.414Z,623312.11,1635341358,full,ni_sequenzen,NI_Sequenzen,15,1,,,,,,,,,,,,
,Loop,flow.Loop,0_3_0_1_0,-999,completion,,596205.3000000119,596204.631,596221.368,623252.1000000238,27030.732000023825,623305,2021-10-27T13:39:50.414Z,623312.11,1635341358,full,ni_sequenzen,NI_Sequenzen,,1,,,,,,,,,,,,
,Feedback,canvas.Screen,0_3_0_1_1,,timeout,,623308,623295.246,623312.11,627294.068,3998.667000000016,627294.6000000238,2021-10-27T13:39:54.404Z,627310.777,1635341358,full,ni_sequenzen,NI_Sequenzen,,1,,,,,,,,,,,,
,Trial,flow.Sequence,0_3_0_1,,completion,,596189.2000000477,596204.631,596221.368,627294.068,31072.699999999953,627294.8000000119,2021-10-27T13:39:54.404Z,627327.631,1635341358,full,ni_sequenzen,NI_Sequenzen,,1,,,,,,,,,,,,
,Move,canvas.Screen,0_3_0_2_0_0,right,response,,627316,627310.777,627327.631,672592.6000000238,45264.96900002379,672593.2000000477,2021-10-27T13:40:39.702Z,672612.068,1635341358,full,ni_sequenzen,NI_Sequenzen,1,2,,,,,,,,,,,,
,Move,canvas.Screen,0_3_0_2_0_1,down,response,,672597.6000000238,672592.612,672612.068,674106.3000000119,1494.2320000119507,674106.8000000119,2021-10-27T13:40:41.216Z,674138.517,1635341358,full,ni_sequenzen,NI_Sequenzen,2,2,,,,,,,,,,,,
,Move,canvas.Screen,0_3_0_2_0_2,right,response,,674110.5,674094.798,674138.517,675016.7000000477,878.1830000476912,675017.3000000119,2021-10-27T13:40:42.126Z,675027.934,1635341358,full,ni_sequenzen,NI_Sequenzen,3,2,,,,,,,,,,,,
,Move,canvas.Screen,0_3_0_2_0_3,down,response,,675021.3000000119,675011.183,675027.934,675612.1000000238,584.1660000238335,675612.4000000358,2021-10-27T13:40:42.722Z,675694.613,1635341358,full,ni_sequenzen,NI_Sequenzen,4,2,,,,,,,,,,,,
,Move,canvas.Screen,0_3_0_2_0_4,-999,skipped,,675616.7000000477,,,675612.1000000238,,675616.8000000119,2021-10-27T13:40:42.726Z,675694.613,1635341358,full,ni_sequenzen,NI_Sequenzen,5,2,,,,,,,,,,,,
,Move,canvas.Screen,0_3_0_2_0_5,-999,skipped,,675620.1000000238,,,675612.1000000238,,675620.1000000238,2021-10-27T13:40:42.729Z,675694.613,1635341358,full,ni_sequenzen,NI_Sequenzen,6,2,,,,,,,,,,,,
,Move,canvas.Screen,0_3_0_2_0_6,-999,skipped,,675624,,,675612.1000000238,,675624.2000000477,2021-10-27T13:40:42.733Z,675694.613,1635341358,full,ni_sequenzen,NI_Sequenzen,7,2,,,,,,,,,,,,
,Move,canvas.Screen,0_3_0_2_0_7,-999,skipped,,675627.3000000119,,,675612.1000000238,,675627.4000000358,2021-10-27T13:40:42.737Z,675694.613,1635341358,full,ni_sequenzen,NI_Sequenzen,8,2,,,,,,,,,,,,
,Move,canvas.Screen,0_3_0_2_0_8,-999,skipped,,675630.7000000477,,,675612.1000000238,,675630.8000000119,2021-10-27T13:40:42.740Z,675694.613,1635341358,full,ni_sequenzen,NI_Sequenzen,9,2,,,,,,,,,,,,
,Move,canvas.Screen,0_3_0_2_0_9,-999,skipped,,675634.6000000238,,,675612.1000000238,,675634.8000000119,2021-10-27T13:40:42.744Z,675694.613,1635341358,full,ni_sequenzen,NI_Sequenzen,10,2,,,,,,,,,,,,
,Move,canvas.Screen,0_3_0_2_0_10,-999,skipped,,675637.9000000358,,,675612.1000000238,,675637.9000000358,2021-10-27T13:40:42.747Z,675694.613,1635341358,full,ni_sequenzen,NI_Sequenzen,11,2,,,,,,,,,,,,
,Move,canvas.Screen,0_3_0_2_0_11,-999,skipped,,675641.5,,,675612.1000000238,,675641.7000000477,2021-10-27T13:40:42.751Z,675694.613,1635341358,full,ni_sequenzen,NI_Sequenzen,12,2,,,,,,,,,,,,
,Move,canvas.Screen,0_3_0_2_0_12,-999,skipped,,675671.4000000358,,,675612.1000000238,,675671.6000000238,2021-10-27T13:40:42.781Z,675694.613,1635341358,full,ni_sequenzen,NI_Sequenzen,13,2,,,,,,,,,,,,
,Move,canvas.Screen,0_3_0_2_0_13,-999,skipped,,675675.7000000477,,,675612.1000000238,,675675.9000000358,2021-10-27T13:40:42.785Z,675694.613,1635341358,full,ni_sequenzen,NI_Sequenzen,14,2,,,,,,,,,,,,
,Move,canvas.Screen,0_3_0_2_0_14,-999,skipped,,675679.3000000119,,,675612.1000000238,,675679.3000000119,2021-10-27T13:40:42.789Z,675694.613,1635341358,full,ni_sequenzen,NI_Sequenzen,15,2,,,,,,,,,,,,
,Loop,flow.Loop,0_3_0_2_0,-999,completion,,627312.6000000238,627310.777,627327.631,675612.1000000238,48284.46900002379,675679.6000000238,2021-10-27T13:40:42.789Z,675694.613,1635341358,full,ni_sequenzen,NI_Sequenzen,,2,,,,,,,,,,,,
,Feedback,canvas.Screen,0_3_0_2_1,,timeout,,675682.2000000477,675677.637,675694.613,679676.338,3998.4109999999637,679676.9000000358,2021-10-27T13:40:46.786Z,679693.024,1635341358,full,ni_sequenzen,NI_Sequenzen,,2,,,,,,,,,,,,
,Trial,flow.Sequence,0_3_0_2,,completion,,627295,627310.777,627327.631,679676.338,52348.70699999994,679677,2021-10-27T13:40:46.786Z,679709.672,1635341358,full,ni_sequenzen,NI_Sequenzen,,2,,,,,,,,,,,,
,Move,canvas.Screen,0_3_0_3_0_0,right,response,,679697.6000000238,679693.024,679709.672,695900.7000000477,16191.028000047663,695901.3000000119,2021-10-27T13:41:03.010Z,695920.83,1635341358,full,ni_sequenzen,NI_Sequenzen,1,3,,,,,,,,,,,,
,Move,canvas.Screen,0_3_0_3_0_1,down,response,,695905.6000000238,695903.17,695920.83,697095,1174.170000000042,697095.6000000238,2021-10-27T13:41:04.205Z,697103.775,1635341358,full,ni_sequenzen,NI_Sequenzen,2,3,,,,,,,,,,,,
,Move,canvas.Screen,0_3_0_3_0_2,right,response,,697099.6000000238,697087.058,697103.775,700165.5,3061.7249999999767,700166.1000000238,2021-10-27T13:41:07.275Z,700186.307,1635341358,full,ni_sequenzen,NI_Sequenzen,3,3,,,,,,,,,,,,
,Move,canvas.Screen,0_3_0_3_0_3,down,response,,700169.4000000358,700169.209,700186.307,701057.8000000119,871.4930000118911,701058.4000000358,2021-10-27T13:41:08.168Z,701135.917,1635341358,full,ni_sequenzen,NI_Sequenzen,4,3,,,,,,,,,,,,
,Move,canvas.Screen,0_3_0_3_0_4,-999,skipped,,701062.2000000477,,,701057.8000000119,,701062.3000000119,2021-10-27T13:41:08.172Z,701135.917,1635341358,full,ni_sequenzen,NI_Sequenzen,5,3,,,,,,,,,,,,
,Move,canvas.Screen,0_3_0_3_0_5,-999,skipped,,701065.7000000477,,,701057.8000000119,,701065.8000000119,2021-10-27T13:41:08.175Z,701135.917,1635341358,full,ni_sequenzen,NI_Sequenzen,6,3,,,,,,,,,,,,
,Move,canvas.Screen,0_3_0_3_0_6,-999,skipped,,701069,,,701057.8000000119,,701069.3000000119,2021-10-27T13:41:08.178Z,701135.917,1635341358,full,ni_sequenzen,NI_Sequenzen,7,3,,,,,,,,,,,,
,Move,canvas.Screen,0_3_0_3_0_7,-999,skipped,,701073.3000000119,,,701057.8000000119,,701073.4000000358,2021-10-27T13:41:08.183Z,701135.917,1635341358,full,ni_sequenzen,NI_Sequenzen,8,3,,,,,,,,,,,,
,Move,canvas.Screen,0_3_0_3_0_8,-999,skipped,,701076.5,,,701057.8000000119,,701076.6000000238,2021-10-27T13:41:08.186Z,701135.917,1635341358,full,ni_sequenzen,NI_Sequenzen,9,3,,,,,,,,,,,,
,Move,canvas.Screen,0_3_0_3_0_9,-999,skipped,,701079.8000000119,,,701057.8000000119,,701079.9000000358,2021-10-27T13:41:08.189Z,701135.917,1635341358,full,ni_sequenzen,NI_Sequenzen,10,3,,,,,,,,,,,,
,Move,canvas.Screen,0_3_0_3_0_10,-999,skipped,,701083.8000000119,,,701057.8000000119,,701084,2021-10-27T13:41:08.193Z,701135.917,1635341358,full,ni_sequenzen,NI_Sequenzen,11,3,,,,,,,,,,,,
,Move,canvas.Screen,0_3_0_3_0_11,-999,skipped,,701087.3000000119,,,701057.8000000119,,701087.4000000358,2021-10-27T13:41:08.197Z,701135.917,1635341358,full,ni_sequenzen,NI_Sequenzen,12,3,,,,,,,,,,,,
,Move,canvas.Screen,0_3_0_3_0_12,-999,skipped,,701113.9000000358,,,701057.8000000119,,701114,2021-10-27T13:41:08.223Z,701135.917,1635341358,full,ni_sequenzen,NI_Sequenzen,13,3,,,,,,,,,,,,
,Move,canvas.Screen,0_3_0_3_0_13,-999,skipped,,701117.5,,,701057.8000000119,,701117.6000000238,2021-10-27T13:41:08.227Z,701135.917,1635341358,full,ni_sequenzen,NI_Sequenzen,14,3,,,,,,,,,,,,
,Move,canvas.Screen,0_3_0_3_0_14,-999,skipped,,701121.5,,,701057.8000000119,,701121.6000000238,2021-10-27T13:41:08.231Z,701135.917,1635341358,full,ni_sequenzen,NI_Sequenzen,15,3,,,,,,,,,,,,
,Loop,flow.Loop,0_3_0_3_0,-999,completion,,679694.1000000238,679693.024,679709.672,701057.8000000119,21348.1280000119,701121.9000000358,2021-10-27T13:41:08.231Z,701135.917,1635341358,full,ni_sequenzen,NI_Sequenzen,,3,,,,,,,,,,,,
,Feedback,canvas.Screen,0_3_0_3_1,,timeout,,701124.5,701119.002,701135.917,705117.722,3998.4899999999907,705118.2000000477,2021-10-27T13:41:12.227Z,705134.407,1635341358,full,ni_sequenzen,NI_Sequenzen,,3,,,,,,,,,,,,
,Trial,flow.Sequence,0_3_0_3,,completion,,679677.4000000358,679693.024,679709.672,705117.722,25408.04999999993,705118.3000000119,2021-10-27T13:41:12.228Z,705151.111,1635341358,full,ni_sequenzen,NI_Sequenzen,,3,,,,,,,,,,,,
,Move,canvas.Screen,0_3_0_4_0_0,right,response,,705139.5,705134.407,705151.111,712699.9000000358,7548.789000035729,712700.3000000119,2021-10-27T13:41:19.810Z,712715.182,1635341358,full,ni_sequenzen,NI_Sequenzen,1,4,,,,,,,,,,,,
,Move,canvas.Screen,0_3_0_4_0_1,down,response,,712704.6000000238,712698.014,712715.182,713595.4000000358,880.218000035733,713595.9000000358,2021-10-27T13:41:20.705Z,713614.841,1635341358,full,ni_sequenzen,NI_Sequenzen,2,4,,,,,,,,,,,,
,Move,canvas.Screen,0_3_0_4_0_2,right,response,,713599.9000000358,713598.11,713614.841,714216.3000000119,601.459000011906,714216.8000000119,2021-10-27T13:41:21.326Z,714231.878,1635341358,full,ni_sequenzen,NI_Sequenzen,3,4,,,,,,,,,,,,
,Move,canvas.Screen,0_3_0_4_0_3,down,response,,714220.2000000477,714214.598,714231.878,714667.3000000119,435.42200001189485,714668.1000000238,2021-10-27T13:41:21.777Z,714731.143,1635341358,full,ni_sequenzen,NI_Sequenzen,4,4,,,,,,,,,,,,
,Move,canvas.Screen,0_3_0_4_0_4,-999,skipped,,714671.1000000238,,,714667.3000000119,,714671.3000000119,2021-10-27T13:41:21.780Z,714731.143,1635341358,full,ni_sequenzen,NI_Sequenzen,5,4,,,,,,,,,,,,
,Move,canvas.Screen,0_3_0_4_0_5,-999,skipped,,714675.3000000119,,,714667.3000000119,,714675.4000000358,2021-10-27T13:41:21.785Z,714731.143,1635341358,full,ni_sequenzen,NI_Sequenzen,6,4,,,,,,,,,,,,
,Move,canvas.Screen,0_3_0_4_0_6,-999,skipped,,714678.7000000477,,,714667.3000000119,,714678.8000000119,2021-10-27T13:41:21.788Z,714731.143,1635341358,full,ni_sequenzen,NI_Sequenzen,7,4,,,,,,,,,,,,
,Move,canvas.Screen,0_3_0_4_0_7,-999,skipped,,714682.2000000477,,,714667.3000000119,,714682.2000000477,2021-10-27T13:41:21.791Z,714731.143,1635341358,full,ni_sequenzen,NI_Sequenzen,8,4,,,,,,,,,,,,
,Move,canvas.Screen,0_3_0_4_0_8,-999,skipped,,714686.1000000238,,,714667.3000000119,,714686.2000000477,2021-10-27T13:41:21.795Z,714731.143,1635341358,full,ni_sequenzen,NI_Sequenzen,9,4,,,,,,,,,,,,
,Move,canvas.Screen,0_3_0_4_0_9,-999,skipped,,714689.7000000477,,,714667.3000000119,,714689.8000000119,2021-10-27T13:41:21.799Z,714731.143,1635341358,full,ni_sequenzen,NI_Sequenzen,10,4,,,,,,,,,,,,
,Move,canvas.Screen,0_3_0_4_0_10,-999,skipped,,714693.2000000477,,,714667.3000000119,,714693.3000000119,2021-10-27T13:41:21.803Z,714731.143,1635341358,full,ni_sequenzen,NI_Sequenzen,11,4,,,,,,,,,,,,
,Move,canvas.Screen,0_3_0_4_0_11,-999,skipped,,714696.5,,,714667.3000000119,,714697.2000000477,2021-10-27T13:41:21.806Z,714731.143,1635341358,full,ni_sequenzen,NI_Sequenzen,12,4,,,,,,,,,,,,
,Move,canvas.Screen,0_3_0_4_0_12,-999,skipped,,714716.6000000238,,,714667.3000000119,,714716.7000000477,2021-10-27T13:41:21.826Z,714731.143,1635341358,full,ni_sequenzen,NI_Sequenzen,13,4,,,,,,,,,,,,
,Move,canvas.Screen,0_3_0_4_0_13,-999,skipped,,714719.9000000358,,,714667.3000000119,,714719.9000000358,2021-10-27T13:41:21.829Z,714731.143,1635341358,full,ni_sequenzen,NI_Sequenzen,14,4,,,,,,,,,,,,
,Move,canvas.Screen,0_3_0_4_0_14,-999,skipped,,714723.1000000238,,,714667.3000000119,,714723.1000000238,2021-10-27T13:41:21.832Z,714731.143,1635341358,full,ni_sequenzen,NI_Sequenzen,15,4,,,,,,,,,,,,
,Loop,flow.Loop,0_3_0_4_0,-999,completion,,705135.7000000477,705134.407,705151.111,714667.3000000119,9516.189000011887,714723.4000000358,2021-10-27T13:41:21.833Z,714731.143,1635341358,full,ni_sequenzen,NI_Sequenzen,,4,,,,,,,,,,,,
,Feedback,canvas.Screen,0_3_0_4_1,,timeout,,714726.9000000358,714714.437,714731.143,718713.104,3998.659999999916,718713.6000000238,2021-10-27T13:41:25.823Z,718729.803,1635341358,full,ni_sequenzen,NI_Sequenzen,,4,,,,,,,,,,,,
,Trial,flow.Sequence,0_3_0_4,,completion,,705118.8000000119,705134.407,705151.111,718713.104,13561.993000000017,718713.8000000119,2021-10-27T13:41:25.823Z,718746.607,1635341358,full,ni_sequenzen,NI_Sequenzen,,4,,,,,,,,,,,,
,Move,canvas.Screen,0_3_0_5_0_0,right,response,,718734.5,718729.803,718746.607,725294.6000000238,6547.993000023882,725295.2000000477,2021-10-27T13:41:32.404Z,725310.888,1635341358,full,ni_sequenzen,NI_Sequenzen,1,5,,,,,,,,,,,,
,Move,canvas.Screen,0_3_0_5_0_1,down,response,,725298.5,725293.809,725310.888,725686.8000000119,375.91200001188554,725696.7000000477,2021-10-27T13:41:32.806Z,725710.974,1635341358,full,ni_sequenzen,NI_Sequenzen,2,5,,,,,,,,,,,,
,Move,canvas.Screen,0_3_0_5_0_2,right,response,,725700.2000000477,725694.058,725710.974,726093.4000000358,382.42600003571715,726093.9000000358,2021-10-27T13:41:33.203Z,726110.609,1635341358,full,ni_sequenzen,NI_Sequenzen,3,5,,,,,,,,,,,,
,Move,canvas.Screen,0_3_0_5_0_3,down,response,,726097.4000000358,726093.924,726110.609,726749.2000000477,638.5910000476288,726749.7000000477,2021-10-27T13:41:33.859Z,726843.71,1635341358,full,ni_sequenzen,NI_Sequenzen,4,5,,,,,,,,,,,,
,Move,canvas.Screen,0_3_0_5_0_4,-999,skipped,,726754.6000000238,,,726749.2000000477,,726754.7000000477,2021-10-27T13:41:33.864Z,726843.71,1635341358,full,ni_sequenzen,NI_Sequenzen,5,5,,,,,,,,,,,,
,Move,canvas.Screen,0_3_0_5_0_5,-999,skipped,,726758.8000000119,,,726749.2000000477,,726759,2021-10-27T13:41:33.868Z,726843.71,1635341358,full,ni_sequenzen,NI_Sequenzen,6,5,,,,,,,,,,,,
,Move,canvas.Screen,0_3_0_5_0_6,-999,skipped,,726762.5,,,726749.2000000477,,726762.6000000238,2021-10-27T13:41:33.872Z,726843.71,1635341358,full,ni_sequenzen,NI_Sequenzen,7,5,,,,,,,,,,,,
,Move,canvas.Screen,0_3_0_5_0_7,-999,skipped,,726766,,,726749.2000000477,,726766.4000000358,2021-10-27T13:41:33.876Z,726843.71,1635341358,full,ni_sequenzen,NI_Sequenzen,8,5,,,,,,,,,,,,
,Move,canvas.Screen,0_3_0_5_0_8,-999,skipped,,726770.4000000358,,,726749.2000000477,,726770.5,2021-10-27T13:41:33.880Z,726843.71,1635341358,full,ni_sequenzen,NI_Sequenzen,9,5,,,,,,,,,,,,
,Move,canvas.Screen,0_3_0_5_0_9,-999,skipped,,726773.7000000477,,,726749.2000000477,,726773.7000000477,2021-10-27T13:41:33.883Z,726843.71,1635341358,full,ni_sequenzen,NI_Sequenzen,10,5,,,,,,,,,,,,
,Move,canvas.Screen,0_3_0_5_0_10,-999,skipped,,726776.9000000358,,,726749.2000000477,,726777,2021-10-27T13:41:33.886Z,726843.71,1635341358,full,ni_sequenzen,NI_Sequenzen,11,5,,,,,,,,,,,,
,Move,canvas.Screen,0_3_0_5_0_11,-999,skipped,,726780.5,,,726749.2000000477,,726780.6000000238,2021-10-27T13:41:33.890Z,726843.71,1635341358,full,ni_sequenzen,NI_Sequenzen,12,5,,,,,,,,,,,,
,Move,canvas.Screen,0_3_0_5_0_12,-999,skipped,,726809,,,726749.2000000477,,726809.1000000238,2021-10-27T13:41:33.918Z,726843.71,1635341358,full,ni_sequenzen,NI_Sequenzen,13,5,,,,,,,,,,,,
,Move,canvas.Screen,0_3_0_5_0_13,-999,skipped,,726812.6000000238,,,726749.2000000477,,726812.7000000477,2021-10-27T13:41:33.922Z,726843.71,1635341358,full,ni_sequenzen,NI_Sequenzen,14,5,,,,,,,,,,,,
,Move,canvas.Screen,0_3_0_5_0_14,-999,skipped,,726815.9000000358,,,726749.2000000477,,726815.9000000358,2021-10-27T13:41:33.925Z,726843.71,1635341358,full,ni_sequenzen,NI_Sequenzen,15,5,,,,,,,,,,,,
,Loop,flow.Loop,0_3_0_5_0,-999,completion,,718730.8000000119,718729.803,718746.607,726749.2000000477,8002.593000047724,726816.2000000477,2021-10-27T13:41:33.925Z,726843.71,1635341358,full,ni_sequenzen,NI_Sequenzen,,5,,,,,,,,,,,,
,Feedback,canvas.Screen,0_3_0_5_1,,timeout,,726819.7000000477,726810.321,726843.71,730825.679,3998.646000000066,730826.3000000119,2021-10-27T13:41:37.935Z,730842.356,1635341358,full,ni_sequenzen,NI_Sequenzen,,5,,,,,,,,,,,,
,Trial,flow.Sequence,0_3_0_5,,completion,,718714.1000000238,718729.803,718746.607,730825.679,12079.072000000044,730826.4000000358,2021-10-27T13:41:37.936Z,730859.179,1635341358,full,ni_sequenzen,NI_Sequenzen,,5,,,,,,,,,,,,
,Move,canvas.Screen,0_3_0_6_0_0,right,response,,730848.2000000477,730842.356,730859.179,739040.6000000238,8181.421000023838,739041.2000000477,2021-10-27T13:41:46.151Z,739056.365,1635341358,full,ni_sequenzen,NI_Sequenzen,1,6,,,,,,,,,,,,
,Move,canvas.Screen,0_3_0_6_0_1,down,response,,739044.3000000119,739039.063,739056.365,739281.9000000358,225.5350000357721,739282.4000000358,2021-10-27T13:41:46.392Z,739289.501,1635341358,full,ni_sequenzen,NI_Sequenzen,2,6,,,,,,,,,,,,
,Move,canvas.Screen,0_3_0_6_0_2,right,response,,739286.4000000358,739272.804,739289.501,739568.2000000477,278.6990000476362,739568.7000000477,2021-10-27T13:41:46.678Z,739589.375,1635341358,full,ni_sequenzen,NI_Sequenzen,3,6,,,,,,,,,,,,
,Move,canvas.Screen,0_3_0_6_0_3,down,response,,739573.1000000238,739572.692,739589.375,739837.5,248.125,739838,2021-10-27T13:41:46.948Z,739906.095,1635341358,full,ni_sequenzen,NI_Sequenzen,4,6,,,,,,,,,,,,
,Move,canvas.Screen,0_3_0_6_0_4,-999,skipped,,739841.8000000119,,,739837.5,,739841.8000000119,2021-10-27T13:41:46.951Z,739906.095,1635341358,full,ni_sequenzen,NI_Sequenzen,5,6,,,,,,,,,,,,
,Move,canvas.Screen,0_3_0_6_0_5,-999,skipped,,739845.5,,,739837.5,,739845.6000000238,2021-10-27T13:41:46.955Z,739906.095,1635341358,full,ni_sequenzen,NI_Sequenzen,6,6,,,,,,,,,,,,
,Move,canvas.Screen,0_3_0_6_0_6,-999,skipped,,739849.6000000238,,,739837.5,,739849.7000000477,2021-10-27T13:41:46.959Z,739906.095,1635341358,full,ni_sequenzen,NI_Sequenzen,7,6,,,,,,,,,,,,
,Move,canvas.Screen,0_3_0_6_0_7,-999,skipped,,739853,,,739837.5,,739853,2021-10-27T13:41:46.963Z,739906.095,1635341358,full,ni_sequenzen,NI_Sequenzen,8,6,,,,,,,,,,,,
,Move,canvas.Screen,0_3_0_6_0_8,-999,skipped,,739856.4000000358,,,739837.5,,739856.5,2021-10-27T13:41:46.966Z,739906.095,1635341358,full,ni_sequenzen,NI_Sequenzen,9,6,,,,,,,,,,,,
,Move,canvas.Screen,0_3_0_6_0_9,-999,skipped,,739860.5,,,739837.5,,739860.6000000238,2021-10-27T13:41:46.970Z,739906.095,1635341358,full,ni_sequenzen,NI_Sequenzen,10,6,,,,,,,,,,,,
,Move,canvas.Screen,0_3_0_6_0_10,-999,skipped,,739863.8000000119,,,739837.5,,739863.9000000358,2021-10-27T13:41:46.973Z,739906.095,1635341358,full,ni_sequenzen,NI_Sequenzen,11,6,,,,,,,,,,,,
,Move,canvas.Screen,0_3_0_6_0_11,-999,skipped,,739867,,,739837.5,,739867.1000000238,2021-10-27T13:41:46.977Z,739906.095,1635341358,full,ni_sequenzen,NI_Sequenzen,12,6,,,,,,,,,,,,
,Move,canvas.Screen,0_3_0_6_0_12,-999,skipped,,739879.4000000358,,,739837.5,,739879.5,2021-10-27T13:41:46.989Z,739906.095,1635341358,full,ni_sequenzen,NI_Sequenzen,13,6,,,,,,,,,,,,
,Move,canvas.Screen,0_3_0_6_0_13,-999,skipped,,739883.3000000119,,,739837.5,,739883.5,2021-10-27T13:41:46.993Z,739906.095,1635341358,full,ni_sequenzen,NI_Sequenzen,14,6,,,,,,,,,,,,
,Move,canvas.Screen,0_3_0_6_0_14,-999,skipped,,739886.7000000477,,,739837.5,,739886.8000000119,2021-10-27T13:41:46.996Z,739906.095,1635341358,full,ni_sequenzen,NI_Sequenzen,15,6,,,,,,,,,,,,
,Loop,flow.Loop,0_3_0_6_0,-999,completion,,730844.3000000119,730842.356,730859.179,739837.5,8978.320999999996,739886.9000000358,2021-10-27T13:41:46.997Z,739906.095,1635341358,full,ni_sequenzen,NI_Sequenzen,,6,,,,,,,,,,,,
,Feedback,canvas.Screen,0_3_0_6_1,,timeout,,739890,739889.264,739906.095,743887.916,3998.5080000000307,743888.4000000358,2021-10-27T13:41:50.998Z,743904.603,1635341358,full,ni_sequenzen,NI_Sequenzen,,6,,,,,,,,,,,,
,Trial,flow.Sequence,0_3_0_6,,completion,,730826.8000000119,730842.356,730859.179,743887.916,13028.736999999965,743888.6000000238,2021-10-27T13:41:50.998Z,743921.552,1635341358,full,ni_sequenzen,NI_Sequenzen,,6,,,,,,,,,,,,
,Move,canvas.Screen,0_3_0_7_0_0,right,response,,743911.1000000238,743904.603,743921.552,747073.4000000358,3151.8480000357376,747073.8000000119,2021-10-27T13:41:54.183Z,747087.093,1635341358,full,ni_sequenzen,NI_Sequenzen,1,7,,,,,,,,,,,,
,Move,canvas.Screen,0_3_0_7_0_1,down,response,,747077.3000000119,747069.973,747087.093,747915.4000000358,828.3070000357693,747915.9000000358,2021-10-27T13:41:55.025Z,747936.716,1635341358,full,ni_sequenzen,NI_Sequenzen,2,7,,,,,,,,,,,,
,Move,canvas.Screen,0_3_0_7_0_2,right,response,,747920.3000000119,747919.838,747936.716,748215.5,278.7839999999851,748215.9000000358,2021-10-27T13:41:55.325Z,748236.454,1635341358,full,ni_sequenzen,NI_Sequenzen,3,7,,,,,,,,,,,,
,Move,canvas.Screen,0_3_0_7_0_3,down,response,,748220,748219.763,748236.454,748465.8000000119,229.34600001189392,748466.4000000358,2021-10-27T13:41:55.576Z,748519.699,1635341358,full,ni_sequenzen,NI_Sequenzen,4,7,,,,,,,,,,,,
,Move,canvas.Screen,0_3_0_7_0_4,-999,skipped,,748470.1000000238,,,748465.8000000119,,748470.3000000119,2021-10-27T13:41:55.580Z,748519.699,1635341358,full,ni_sequenzen,NI_Sequenzen,5,7,,,,,,,,,,,,
,Move,canvas.Screen,0_3_0_7_0_5,-999,skipped,,748473.5,,,748465.8000000119,,748473.6000000238,2021-10-27T13:41:55.583Z,748519.699,1635341358,full,ni_sequenzen,NI_Sequenzen,6,7,,,,,,,,,,,,
,Move,canvas.Screen,0_3_0_7_0_6,-999,skipped,,748477.6000000238,,,748465.8000000119,,748477.8000000119,2021-10-27T13:41:55.587Z,748519.699,1635341358,full,ni_sequenzen,NI_Sequenzen,7,7,,,,,,,,,,,,
,Move,canvas.Screen,0_3_0_7_0_7,-999,skipped,,748480.9000000358,,,748465.8000000119,,748481,2021-10-27T13:41:55.591Z,748519.699,1635341358,full,ni_sequenzen,NI_Sequenzen,8,7,,,,,,,,,,,,
,Move,canvas.Screen,0_3_0_7_0_8,-999,skipped,,748484.2000000477,,,748465.8000000119,,748484.3000000119,2021-10-27T13:41:55.594Z,748519.699,1635341358,full,ni_sequenzen,NI_Sequenzen,9,7,,,,,,,,,,,,
,Move,canvas.Screen,0_3_0_7_0_9,-999,skipped,,748488.9000000358,,,748465.8000000119,,748489,2021-10-27T13:41:55.599Z,748519.699,1635341358,full,ni_sequenzen,NI_Sequenzen,10,7,,,,,,,,,,,,
,Move,canvas.Screen,0_3_0_7_0_10,-999,skipped,,748492.1000000238,,,748465.8000000119,,748492.1000000238,2021-10-27T13:41:55.602Z,748519.699,1635341358,full,ni_sequenzen,NI_Sequenzen,11,7,,,,,,,,,,,,
,Move,canvas.Screen,0_3_0_7_0_11,-999,skipped,,748495.3000000119,,,748465.8000000119,,748495.4000000358,2021-10-27T13:41:55.605Z,748519.699,1635341358,full,ni_sequenzen,NI_Sequenzen,12,7,,,,,,,,,,,,
,Move,canvas.Screen,0_3_0_7_0_12,-999,skipped,,748498.4000000358,,,748465.8000000119,,748498.5,2021-10-27T13:41:55.608Z,748519.699,1635341358,full,ni_sequenzen,NI_Sequenzen,13,7,,,,,,,,,,,,
,Move,canvas.Screen,0_3_0_7_0_13,-999,skipped,,748506.7000000477,,,748465.8000000119,,748506.8000000119,2021-10-27T13:41:55.616Z,748519.699,1635341358,full,ni_sequenzen,NI_Sequenzen,14,7,,,,,,,,,,,,
,Move,canvas.Screen,0_3_0_7_0_14,-999,skipped,,748509.9000000358,,,748465.8000000119,,748510,2021-10-27T13:41:55.620Z,748519.699,1635341358,full,ni_sequenzen,NI_Sequenzen,15,7,,,,,,,,,,,,
,Loop,flow.Loop,0_3_0_7_0,-999,completion,,743906.8000000119,743904.603,743921.552,748465.8000000119,4544.248000011896,748510.1000000238,2021-10-27T13:41:55.620Z,748519.699,1635341358,full,ni_sequenzen,NI_Sequenzen,,7,,,,,,,,,,,,
,Feedback,canvas.Screen,0_3_0_7_1,,timeout,,748512.8000000119,748503.007,748519.699,752501.661,3998.658999999985,752502.2000000477,2021-10-27T13:41:59.612Z,752518.358,1635341358,full,ni_sequenzen,NI_Sequenzen,,7,,,,,,,,,,,,
,Trial,flow.Sequence,0_3_0_7,,completion,,743888.9000000358,743904.603,743921.552,752501.661,8580.108999999939,752502.4000000358,2021-10-27T13:41:59.612Z,752535.142,1635341358,full,ni_sequenzen,NI_Sequenzen,,7,,,,,,,,,,,,
,Move,canvas.Screen,0_3_0_8_0_0,right,response,,752523.7000000477,752518.358,752535.142,756603.3000000119,4068.1580000119284,756603.8000000119,2021-10-27T13:42:03.713Z,756616.97,1635341358,full,ni_sequenzen,NI_Sequenzen,1,8,,,,,,,,,,,,
,Move,canvas.Screen,0_3_0_8_0_1,down,response,,756607.3000000119,756600.04,756616.97,756966.3000000119,349.33000001194887,756966.8000000119,2021-10-27T13:42:04.076Z,756983.491,1635341358,full,ni_sequenzen,NI_Sequenzen,2,8,,,,,,,,,,,,
,Move,canvas.Screen,0_3_0_8_0_2,right,response,,756970.7000000477,756966.798,756983.491,757286.5,303.0089999999618,757287,2021-10-27T13:42:04.397Z,757300.326,1635341358,full,ni_sequenzen,NI_Sequenzen,3,8,,,,,,,,,,,,
,Move,canvas.Screen,0_3_0_8_0_3,down,response,,757290.3000000119,757283.369,757300.326,757529,228.67399999999907,757529.5,2021-10-27T13:42:04.639Z,757616.601,1635341358,full,ni_sequenzen,NI_Sequenzen,4,8,,,,,,,,,,,,
,Move,canvas.Screen,0_3_0_8_0_4,-999,skipped,,757532.9000000358,,,757529,,757533,2021-10-27T13:42:04.643Z,757616.601,1635341358,full,ni_sequenzen,NI_Sequenzen,5,8,,,,,,,,,,,,
,Move,canvas.Screen,0_3_0_8_0_5,-999,skipped,,757547.1000000238,,,757529,,757547.4000000358,2021-10-27T13:42:04.657Z,757616.601,1635341358,full,ni_sequenzen,NI_Sequenzen,6,8,,,,,,,,,,,,
,Move,canvas.Screen,0_3_0_8_0_6,-999,skipped,,757551.2000000477,,,757529,,757551.4000000358,2021-10-27T13:42:04.661Z,757616.601,1635341358,full,ni_sequenzen,NI_Sequenzen,7,8,,,,,,,,,,,,
,Move,canvas.Screen,0_3_0_8_0_7,-999,skipped,,757554.8000000119,,,757529,,757555,2021-10-27T13:42:04.665Z,757616.601,1635341358,full,ni_sequenzen,NI_Sequenzen,8,8,,,,,,,,,,,,
,Move,canvas.Screen,0_3_0_8_0_8,-999,skipped,,757558.7000000477,,,757529,,757558.8000000119,2021-10-27T13:42:04.668Z,757616.601,1635341358,full,ni_sequenzen,NI_Sequenzen,9,8,,,,,,,,,,,,
,Move,canvas.Screen,0_3_0_8_0_9,-999,skipped,,757579.5,,,757529,,757579.6000000238,2021-10-27T13:42:04.689Z,757616.601,1635341358,full,ni_sequenzen,NI_Sequenzen,10,8,,,,,,,,,,,,
,Move,canvas.Screen,0_3_0_8_0_10,-999,skipped,,757582.9000000358,,,757529,,757582.9000000358,2021-10-27T13:42:04.693Z,757616.601,1635341358,full,ni_sequenzen,NI_Sequenzen,11,8,,,,,,,,,,,,
,Move,canvas.Screen,0_3_0_8_0_11,-999,skipped,,757586.4000000358,,,757529,,757586.5,2021-10-27T13:42:04.696Z,757616.601,1635341358,full,ni_sequenzen,NI_Sequenzen,12,8,,,,,,,,,,,,
,Move,canvas.Screen,0_3_0_8_0_12,-999,skipped,,757590.4000000358,,,757529,,757590.6000000238,2021-10-27T13:42:04.700Z,757616.601,1635341358,full,ni_sequenzen,NI_Sequenzen,13,8,,,,,,,,,,,,
,Move,canvas.Screen,0_3_0_8_0_13,-999,skipped,,757593.8000000119,,,757529,,757593.9000000358,2021-10-27T13:42:04.703Z,757616.601,1635341358,full,ni_sequenzen,NI_Sequenzen,14,8,,,,,,,,,,,,
,Move,canvas.Screen,0_3_0_8_0_14,-999,skipped,,757597.4000000358,,,757529,,757597.5,2021-10-27T13:42:04.707Z,757616.601,1635341358,full,ni_sequenzen,NI_Sequenzen,15,8,,,,,,,,,,,,
