meta,sender,sender_type,sender_id,response,ended_on,instrCount,time_run,time_render,time_show,time_end,duration,time_commit,timestamp,time_switch,openLabId,type,task,project,move,trialN,blockN_Train,blockN,moveCount,currPP,points,movesTrial,visitedFields,diff,reward,Strategie,Zweck,Probleme
[object Object],Screen_1,canvas.Screen,0_0_0_0,cont,response,1,863,880.58,913.92,13405,12491.08,13418,2021-10-26T11:35:52.257Z,13545.66,1635248129,full,ni_sequenzen,NI_Sequenzen,,,,,,,,,,,,,,
,Screen_2,canvas.Screen,0_0_0_1,cont,response,1,13533,13532.82,13545.66,37265,23719.34,37274,2021-10-26T11:36:16.113Z,37359.2,1635248129,full,ni_sequenzen,NI_Sequenzen,,,,,,,,,,,,,,
,Screen_3,canvas.Screen,0_0_0_2,cont,response,1,37357,37356.62,37359.2,54015,16655.800000000003,54021,2021-10-26T11:36:32.859Z,54027.54,1635248129,full,ni_sequenzen,NI_Sequenzen,,,,,,,,,,,,,,
,Screen_4,canvas.Screen,0_0_0_3,cont,response,1,54027,54027.28,54027.54,59139,5111.459999999999,59142,2021-10-26T11:36:37.980Z,59372.98,1635248129,full,ni_sequenzen,NI_Sequenzen,,,,,,,,,,,,,,
,Sequence,flow.Sequence,0_0_0,,completion,1,795,880.58,913.92,59139,58225.08,59143,2021-10-26T11:36:37.981Z,59372.98,1635248129,full,ni_sequenzen,NI_Sequenzen,,,,,,,,,,,,,,
,Screen_1,canvas.Screen,0_0_1_0,,skipped,2,59150,,,59150,,59150,2021-10-26T11:36:37.989Z,59372.98,1635248129,full,ni_sequenzen,NI_Sequenzen,,,,,,,,,,,,,,
,Screen_2,canvas.Screen,0_0_1_1,,skipped,2,59153,,,59150,,59153,2021-10-26T11:36:37.991Z,59372.98,1635248129,full,ni_sequenzen,NI_Sequenzen,,,,,,,,,,,,,,
,Screen_3,canvas.Screen,0_0_1_2,,skipped,2,59156,,,59150,,59156,2021-10-26T11:36:37.994Z,59372.98,1635248129,full,ni_sequenzen,NI_Sequenzen,,,,,,,,,,,,,,
,Screen_4,canvas.Screen,0_0_1_3,,skipped,2,59158,,,59150,,59158,2021-10-26T11:36:37.997Z,59372.98,1635248129,full,ni_sequenzen,NI_Sequenzen,,,,,,,,,,,,,,
,Sequence,flow.Sequence,0_0_1,,completion,2,59147,,,59150,,59159,2021-10-26T11:36:37.997Z,59372.98,1635248129,full,ni_sequenzen,NI_Sequenzen,,,,,,,,,,,,,,
,Screen_1,canvas.Screen,0_0_2_0,,skipped,3,59161,,,59161,,59162,2021-10-26T11:36:38.001Z,59372.98,1635248129,full,ni_sequenzen,NI_Sequenzen,,,,,,,,,,,,,,
,Screen_2,canvas.Screen,0_0_2_1,,skipped,3,59166,,,59161,,59166,2021-10-26T11:36:38.004Z,59372.98,1635248129,full,ni_sequenzen,NI_Sequenzen,,,,,,,,,,,,,,
,Screen_3,canvas.Screen,0_0_2_2,,skipped,3,59169,,,59161,,59169,2021-10-26T11:36:38.008Z,59372.98,1635248129,full,ni_sequenzen,NI_Sequenzen,,,,,,,,,,,,,,
,Screen_4,canvas.Screen,0_0_2_3,,skipped,3,59172,,,59161,,59172,2021-10-26T11:36:38.010Z,59372.98,1635248129,full,ni_sequenzen,NI_Sequenzen,,,,,,,,,,,,,,
,Sequence,flow.Sequence,0_0_2,,completion,3,59160,,,59161,,59172,2021-10-26T11:36:38.010Z,59372.98,1635248129,full,ni_sequenzen,NI_Sequenzen,,,,,,,,,,,,,,
,Screen_1,canvas.Screen,0_0_3_0,,skipped,4,59175,,,59175,,59175,2021-10-26T11:36:38.013Z,59372.98,1635248129,full,ni_sequenzen,NI_Sequenzen,,,,,,,,,,,,,,
,Screen_2,canvas.Screen,0_0_3_1,,skipped,4,59176,,,59175,,59177,2021-10-26T11:36:38.015Z,59372.98,1635248129,full,ni_sequenzen,NI_Sequenzen,,,,,,,,,,,,,,
,Screen_3,canvas.Screen,0_0_3_2,,skipped,4,59180,,,59175,,59180,2021-10-26T11:36:38.018Z,59372.98,1635248129,full,ni_sequenzen,NI_Sequenzen,,,,,,,,,,,,,,
,Screen_4,canvas.Screen,0_0_3_3,,skipped,4,59182,,,59175,,59183,2021-10-26T11:36:38.020Z,59372.98,1635248129,full,ni_sequenzen,NI_Sequenzen,,,,,,,,,,,,,,
,Sequence,flow.Sequence,0_0_3,,completion,4,59173,,,59175,,59183,2021-10-26T11:36:38.021Z,59372.98,1635248129,full,ni_sequenzen,NI_Sequenzen,,,,,,,,,,,,,,
,Screen_1,canvas.Screen,0_0_4_0,,skipped,5,59186,,,59186,,59186,2021-10-26T11:36:38.025Z,59372.98,1635248129,full,ni_sequenzen,NI_Sequenzen,,,,,,,,,,,,,,
,Screen_2,canvas.Screen,0_0_4_1,,skipped,5,59188,,,59186,,59188,2021-10-26T11:36:38.026Z,59372.98,1635248129,full,ni_sequenzen,NI_Sequenzen,,,,,,,,,,,,,,
,Screen_3,canvas.Screen,0_0_4_2,,skipped,5,59190,,,59186,,59190,2021-10-26T11:36:38.028Z,59372.98,1635248129,full,ni_sequenzen,NI_Sequenzen,,,,,,,,,,,,,,
,Screen_4,canvas.Screen,0_0_4_3,,skipped,5,59192,,,59186,,59193,2021-10-26T11:36:38.031Z,59372.98,1635248129,full,ni_sequenzen,NI_Sequenzen,,,,,,,,,,,,,,
,Sequence,flow.Sequence,0_0_4,,completion,5,59183,,,59186,,59193,2021-10-26T11:36:38.031Z,59372.98,1635248129,full,ni_sequenzen,NI_Sequenzen,,,,,,,,,,,,,,
,Screen_1,canvas.Screen,0_0_5_0,,skipped,6,59196,,,59196,,59196,2021-10-26T11:36:38.034Z,59372.98,1635248129,full,ni_sequenzen,NI_Sequenzen,,,,,,,,,,,,,,
,Screen_2,canvas.Screen,0_0_5_1,,skipped,6,59198,,,59196,,59198,2021-10-26T11:36:38.036Z,59372.98,1635248129,full,ni_sequenzen,NI_Sequenzen,,,,,,,,,,,,,,
,Screen_3,canvas.Screen,0_0_5_2,,skipped,6,59200,,,59196,,59200,2021-10-26T11:36:38.038Z,59372.98,1635248129,full,ni_sequenzen,NI_Sequenzen,,,,,,,,,,,,,,
,Screen_4,canvas.Screen,0_0_5_3,,skipped,6,59202,,,59196,,59202,2021-10-26T11:36:38.040Z,59372.98,1635248129,full,ni_sequenzen,NI_Sequenzen,,,,,,,,,,,,,,
,Sequence,flow.Sequence,0_0_5,,completion,6,59194,,,59196,,59203,2021-10-26T11:36:38.040Z,59372.98,1635248129,full,ni_sequenzen,NI_Sequenzen,,,,,,,,,,,,,,
,Screen_1,canvas.Screen,0_0_6_0,,skipped,7,59205,,,59205,,59205,2021-10-26T11:36:38.043Z,59372.98,1635248129,full,ni_sequenzen,NI_Sequenzen,,,,,,,,,,,,,,
,Screen_2,canvas.Screen,0_0_6_1,,skipped,7,59207,,,59205,,59207,2021-10-26T11:36:38.045Z,59372.98,1635248129,full,ni_sequenzen,NI_Sequenzen,,,,,,,,,,,,,,
,Screen_3,canvas.Screen,0_0_6_2,,skipped,7,59209,,,59205,,59209,2021-10-26T11:36:38.047Z,59372.98,1635248129,full,ni_sequenzen,NI_Sequenzen,,,,,,,,,,,,,,
,Screen_4,canvas.Screen,0_0_6_3,,skipped,7,59211,,,59205,,59212,2021-10-26T11:36:38.050Z,59372.98,1635248129,full,ni_sequenzen,NI_Sequenzen,,,,,,,,,,,,,,
,Sequence,flow.Sequence,0_0_6,,completion,7,59203,,,59205,,59212,2021-10-26T11:36:38.050Z,59372.98,1635248129,full,ni_sequenzen,NI_Sequenzen,,,,,,,,,,,,,,
,Screen_1,canvas.Screen,0_0_7_0,,skipped,8,59214,,,59214,,59214,2021-10-26T11:36:38.053Z,59372.98,1635248129,full,ni_sequenzen,NI_Sequenzen,,,,,,,,,,,,,,
,Screen_2,canvas.Screen,0_0_7_1,,skipped,8,59216,,,59214,,59216,2021-10-26T11:36:38.054Z,59372.98,1635248129,full,ni_sequenzen,NI_Sequenzen,,,,,,,,,,,,,,
,Screen_3,canvas.Screen,0_0_7_2,,skipped,8,59218,,,59214,,59218,2021-10-26T11:36:38.056Z,59372.98,1635248129,full,ni_sequenzen,NI_Sequenzen,,,,,,,,,,,,,,
,Screen_4,canvas.Screen,0_0_7_3,,skipped,8,59221,,,59214,,59221,2021-10-26T11:36:38.060Z,59372.98,1635248129,full,ni_sequenzen,NI_Sequenzen,,,,,,,,,,,,,,
,Sequence,flow.Sequence,0_0_7,,completion,8,59213,,,59214,,59221,2021-10-26T11:36:38.060Z,59372.98,1635248129,full,ni_sequenzen,NI_Sequenzen,,,,,,,,,,,,,,
,Screen_1,canvas.Screen,0_0_8_0,,skipped,9,59225,,,59225,,59225,2021-10-26T11:36:38.064Z,59372.98,1635248129,full,ni_sequenzen,NI_Sequenzen,,,,,,,,,,,,,,
,Screen_2,canvas.Screen,0_0_8_1,,skipped,9,59227,,,59225,,59227,2021-10-26T11:36:38.066Z,59372.98,1635248129,full,ni_sequenzen,NI_Sequenzen,,,,,,,,,,,,,,
,Screen_3,canvas.Screen,0_0_8_2,,skipped,9,59229,,,59225,,59229,2021-10-26T11:36:38.068Z,59372.98,1635248129,full,ni_sequenzen,NI_Sequenzen,,,,,,,,,,,,,,
,Screen_4,canvas.Screen,0_0_8_3,,skipped,9,59231,,,59225,,59231,2021-10-26T11:36:38.070Z,59372.98,1635248129,full,ni_sequenzen,NI_Sequenzen,,,,,,,,,,,,,,
,Sequence,flow.Sequence,0_0_8,,completion,9,59222,,,59225,,59232,2021-10-26T11:36:38.070Z,59372.98,1635248129,full,ni_sequenzen,NI_Sequenzen,,,,,,,,,,,,,,
,Screen_1,canvas.Screen,0_0_9_0,,skipped,10,59235,,,59235,,59235,2021-10-26T11:36:38.073Z,59372.98,1635248129,full,ni_sequenzen,NI_Sequenzen,,,,,,,,,,,,,,
,Screen_2,canvas.Screen,0_0_9_1,,skipped,10,59236,,,59235,,59237,2021-10-26T11:36:38.075Z,59372.98,1635248129,full,ni_sequenzen,NI_Sequenzen,,,,,,,,,,,,,,
,Screen_3,canvas.Screen,0_0_9_2,,skipped,10,59239,,,59235,,59239,2021-10-26T11:36:38.077Z,59372.98,1635248129,full,ni_sequenzen,NI_Sequenzen,,,,,,,,,,,,,,
,Screen_4,canvas.Screen,0_0_9_3,,skipped,10,59240,,,59235,,59240,2021-10-26T11:36:38.078Z,59372.98,1635248129,full,ni_sequenzen,NI_Sequenzen,,,,,,,,,,,,,,
,Sequence,flow.Sequence,0_0_9,,completion,10,59233,,,59235,,59240,2021-10-26T11:36:38.079Z,59372.98,1635248129,full,ni_sequenzen,NI_Sequenzen,,,,,,,,,,,,,,
,Screen_1,canvas.Screen,0_0_10_0,,skipped,11,59244,,,59244,,59244,2021-10-26T11:36:38.082Z,59372.98,1635248129,full,ni_sequenzen,NI_Sequenzen,,,,,,,,,,,,,,
,Screen_2,canvas.Screen,0_0_10_1,,skipped,11,59246,,,59244,,59246,2021-10-26T11:36:38.084Z,59372.98,1635248129,full,ni_sequenzen,NI_Sequenzen,,,,,,,,,,,,,,
,Screen_3,canvas.Screen,0_0_10_2,,skipped,11,59248,,,59244,,59248,2021-10-26T11:36:38.086Z,59372.98,1635248129,full,ni_sequenzen,NI_Sequenzen,,,,,,,,,,,,,,
,Screen_4,canvas.Screen,0_0_10_3,,skipped,11,59250,,,59244,,59250,2021-10-26T11:36:38.088Z,59372.98,1635248129,full,ni_sequenzen,NI_Sequenzen,,,,,,,,,,,,,,
,Sequence,flow.Sequence,0_0_10,,completion,11,59241,,,59244,,59250,2021-10-26T11:36:38.088Z,59372.98,1635248129,full,ni_sequenzen,NI_Sequenzen,,,,,,,,,,,,,,
,Screen_1,canvas.Screen,0_0_11_0,,skipped,12,59252,,,59252,,59252,2021-10-26T11:36:38.091Z,59372.98,1635248129,full,ni_sequenzen,NI_Sequenzen,,,,,,,,,,,,,,
,Screen_2,canvas.Screen,0_0_11_1,,skipped,12,59255,,,59252,,59255,2021-10-26T11:36:38.093Z,59372.98,1635248129,full,ni_sequenzen,NI_Sequenzen,,,,,,,,,,,,,,
,Screen_3,canvas.Screen,0_0_11_2,,skipped,12,59257,,,59252,,59257,2021-10-26T11:36:38.095Z,59372.98,1635248129,full,ni_sequenzen,NI_Sequenzen,,,,,,,,,,,,,,
,Screen_4,canvas.Screen,0_0_11_3,,skipped,12,59259,,,59252,,59260,2021-10-26T11:36:38.098Z,59372.98,1635248129,full,ni_sequenzen,NI_Sequenzen,,,,,,,,,,,,,,
,Sequence,flow.Sequence,0_0_11,,completion,12,59251,,,59252,,59260,2021-10-26T11:36:38.098Z,59372.98,1635248129,full,ni_sequenzen,NI_Sequenzen,,,,,,,,,,,,,,
,Screen_1,canvas.Screen,0_0_12_0,,skipped,13,59262,,,59262,,59262,2021-10-26T11:36:38.101Z,59372.98,1635248129,full,ni_sequenzen,NI_Sequenzen,,,,,,,,,,,,,,
,Screen_2,canvas.Screen,0_0_12_1,,skipped,13,59265,,,59262,,59265,2021-10-26T11:36:38.103Z,59372.98,1635248129,full,ni_sequenzen,NI_Sequenzen,,,,,,,,,,,,,,
,Screen_3,canvas.Screen,0_0_12_2,,skipped,13,59266,,,59262,,59267,2021-10-26T11:36:38.105Z,59372.98,1635248129,full,ni_sequenzen,NI_Sequenzen,,,,,,,,,,,,,,
,Screen_4,canvas.Screen,0_0_12_3,,skipped,13,59268,,,59262,,59268,2021-10-26T11:36:38.107Z,59372.98,1635248129,full,ni_sequenzen,NI_Sequenzen,,,,,,,,,,,,,,
,Sequence,flow.Sequence,0_0_12,,completion,13,59261,,,59262,,59269,2021-10-26T11:36:38.107Z,59372.98,1635248129,full,ni_sequenzen,NI_Sequenzen,,,,,,,,,,,,,,
,Screen_1,canvas.Screen,0_0_13_0,,skipped,14,59271,,,59271,,59272,2021-10-26T11:36:38.110Z,59372.98,1635248129,full,ni_sequenzen,NI_Sequenzen,,,,,,,,,,,,,,
,Screen_2,canvas.Screen,0_0_13_1,,skipped,14,59275,,,59271,,59277,2021-10-26T11:36:38.115Z,59372.98,1635248129,full,ni_sequenzen,NI_Sequenzen,,,,,,,,,,,,,,
,Screen_3,canvas.Screen,0_0_13_2,,skipped,14,59281,,,59271,,59281,2021-10-26T11:36:38.118Z,59372.98,1635248129,full,ni_sequenzen,NI_Sequenzen,,,,,,,,,,,,,,
,Screen_4,canvas.Screen,0_0_13_3,,skipped,14,59282,,,59271,,59282,2021-10-26T11:36:38.121Z,59372.98,1635248129,full,ni_sequenzen,NI_Sequenzen,,,,,,,,,,,,,,
,Sequence,flow.Sequence,0_0_13,,completion,14,59270,,,59271,,59284,2021-10-26T11:36:38.121Z,59372.98,1635248129,full,ni_sequenzen,NI_Sequenzen,,,,,,,,,,,,,,
,Screen_1,canvas.Screen,0_0_14_0,,skipped,15,59287,,,59287,,59287,2021-10-26T11:36:38.125Z,59372.98,1635248129,full,ni_sequenzen,NI_Sequenzen,,,,,,,,,,,,,,
,Screen_2,canvas.Screen,0_0_14_1,,skipped,15,59289,,,59287,,59289,2021-10-26T11:36:38.127Z,59372.98,1635248129,full,ni_sequenzen,NI_Sequenzen,,,,,,,,,,,,,,
,Screen_3,canvas.Screen,0_0_14_2,,skipped,15,59292,,,59287,,59292,2021-10-26T11:36:38.130Z,59372.98,1635248129,full,ni_sequenzen,NI_Sequenzen,,,,,,,,,,,,,,
,Screen_4,canvas.Screen,0_0_14_3,,skipped,15,59296,,,59287,,59296,2021-10-26T11:36:38.133Z,59372.98,1635248129,full,ni_sequenzen,NI_Sequenzen,,,,,,,,,,,,,,
,Sequence,flow.Sequence,0_0_14,,completion,15,59285,,,59287,,59296,2021-10-26T11:36:38.134Z,59372.98,1635248129,full,ni_sequenzen,NI_Sequenzen,,,,,,,,,,,,,,
,Screen_1,canvas.Screen,0_0_15_0,,skipped,16,59298,,,59298,,59298,2021-10-26T11:36:38.136Z,59372.98,1635248129,full,ni_sequenzen,NI_Sequenzen,,,,,,,,,,,,,,
,Screen_2,canvas.Screen,0_0_15_1,,skipped,16,59300,,,59298,,59300,2021-10-26T11:36:38.138Z,59372.98,1635248129,full,ni_sequenzen,NI_Sequenzen,,,,,,,,,,,,,,
,Screen_3,canvas.Screen,0_0_15_2,,skipped,16,59302,,,59298,,59302,2021-10-26T11:36:38.139Z,59372.98,1635248129,full,ni_sequenzen,NI_Sequenzen,,,,,,,,,,,,,,
,Screen_4,canvas.Screen,0_0_15_3,,skipped,16,59305,,,59298,,59305,2021-10-26T11:36:38.143Z,59372.98,1635248129,full,ni_sequenzen,NI_Sequenzen,,,,,,,,,,,,,,
,Sequence,flow.Sequence,0_0_15,,completion,16,59297,,,59298,,59305,2021-10-26T11:36:38.143Z,59372.98,1635248129,full,ni_sequenzen,NI_Sequenzen,,,,,,,,,,,,,,
,Screen_1,canvas.Screen,0_0_16_0,,skipped,17,59308,,,59308,,59308,2021-10-26T11:36:38.146Z,59372.98,1635248129,full,ni_sequenzen,NI_Sequenzen,,,,,,,,,,,,,,
,Screen_2,canvas.Screen,0_0_16_1,,skipped,17,59309,,,59308,,59309,2021-10-26T11:36:38.147Z,59372.98,1635248129,full,ni_sequenzen,NI_Sequenzen,,,,,,,,,,,,,,
,Screen_3,canvas.Screen,0_0_16_2,,skipped,17,59311,,,59308,,59311,2021-10-26T11:36:38.149Z,59372.98,1635248129,full,ni_sequenzen,NI_Sequenzen,,,,,,,,,,,,,,
,Screen_4,canvas.Screen,0_0_16_3,,skipped,17,59313,,,59308,,59313,2021-10-26T11:36:38.151Z,59372.98,1635248129,full,ni_sequenzen,NI_Sequenzen,,,,,,,,,,,,,,
,Sequence,flow.Sequence,0_0_16,,completion,17,59306,,,59308,,59313,2021-10-26T11:36:38.151Z,59372.98,1635248129,full,ni_sequenzen,NI_Sequenzen,,,,,,,,,,,,,,
,Screen_1,canvas.Screen,0_0_17_0,,skipped,18,59315,,,59315,,59315,2021-10-26T11:36:38.153Z,59372.98,1635248129,full,ni_sequenzen,NI_Sequenzen,,,,,,,,,,,,,,
,Screen_2,canvas.Screen,0_0_17_1,,skipped,18,59317,,,59315,,59317,2021-10-26T11:36:38.155Z,59372.98,1635248129,full,ni_sequenzen,NI_Sequenzen,,,,,,,,,,,,,,
,Screen_3,canvas.Screen,0_0_17_2,,skipped,18,59319,,,59315,,59319,2021-10-26T11:36:38.157Z,59372.98,1635248129,full,ni_sequenzen,NI_Sequenzen,,,,,,,,,,,,,,
,Screen_4,canvas.Screen,0_0_17_3,,skipped,18,59320,,,59315,,59320,2021-10-26T11:36:38.159Z,59372.98,1635248129,full,ni_sequenzen,NI_Sequenzen,,,,,,,,,,,,,,
,Sequence,flow.Sequence,0_0_17,,completion,18,59314,,,59315,,59321,2021-10-26T11:36:38.159Z,59372.98,1635248129,full,ni_sequenzen,NI_Sequenzen,,,,,,,,,,,,,,
,Screen_1,canvas.Screen,0_0_18_0,,skipped,19,59323,,,59323,,59323,2021-10-26T11:36:38.161Z,59372.98,1635248129,full,ni_sequenzen,NI_Sequenzen,,,,,,,,,,,,,,
,Screen_2,canvas.Screen,0_0_18_1,,skipped,19,59325,,,59323,,59325,2021-10-26T11:36:38.163Z,59372.98,1635248129,full,ni_sequenzen,NI_Sequenzen,,,,,,,,,,,,,,
,Screen_3,canvas.Screen,0_0_18_2,,skipped,19,59327,,,59323,,59327,2021-10-26T11:36:38.165Z,59372.98,1635248129,full,ni_sequenzen,NI_Sequenzen,,,,,,,,,,,,,,
,Screen_4,canvas.Screen,0_0_18_3,,skipped,19,59329,,,59323,,59329,2021-10-26T11:36:38.167Z,59372.98,1635248129,full,ni_sequenzen,NI_Sequenzen,,,,,,,,,,,,,,
,Sequence,flow.Sequence,0_0_18,,completion,19,59322,,,59323,,59329,2021-10-26T11:36:38.167Z,59372.98,1635248129,full,ni_sequenzen,NI_Sequenzen,,,,,,,,,,,,,,
,Screen_1,canvas.Screen,0_0_19_0,,skipped,20,59331,,,59331,,59331,2021-10-26T11:36:38.169Z,59372.98,1635248129,full,ni_sequenzen,NI_Sequenzen,,,,,,,,,,,,,,
,Screen_2,canvas.Screen,0_0_19_1,,skipped,20,59333,,,59331,,59333,2021-10-26T11:36:38.171Z,59372.98,1635248129,full,ni_sequenzen,NI_Sequenzen,,,,,,,,,,,,,,
,Screen_3,canvas.Screen,0_0_19_2,,skipped,20,59335,,,59331,,59335,2021-10-26T11:36:38.173Z,59372.98,1635248129,full,ni_sequenzen,NI_Sequenzen,,,,,,,,,,,,,,
,Screen_4,canvas.Screen,0_0_19_3,,skipped,20,59336,,,59331,,59336,2021-10-26T11:36:38.174Z,59372.98,1635248129,full,ni_sequenzen,NI_Sequenzen,,,,,,,,,,,,,,
,Sequence,flow.Sequence,0_0_19,,completion,20,59330,,,59331,,59337,2021-10-26T11:36:38.175Z,59372.98,1635248129,full,ni_sequenzen,NI_Sequenzen,,,,,,,,,,,,,,
,Instructions_I,flow.Loop,0_0,,completion,,794,880.58,913.92,59331,58417.08,59338,2021-10-26T11:36:38.175Z,59372.98,1635248129,full,ni_sequenzen,NI_Sequenzen,,,,,,,,,,,,,,
,Move,canvas.Screen,0_1_0_0,left,response,,59366,59365.44,59372.98,61093,1720.0199999999968,61096,2021-10-26T11:36:39.934Z,61102.24,1635248129,full,ni_sequenzen,NI_Sequenzen,1,,,,,,,,,,,,,
,Move,canvas.Screen,0_1_0_1,left,response,,61102,61102.02,61102.24,61904,801.760000000002,61922,2021-10-26T11:36:40.760Z,61933.44,1635248129,full,ni_sequenzen,NI_Sequenzen,2,,,,,,,,,,,,,
,Move,canvas.Screen,0_1_0_2,right,response,,61934,61933.18,61933.44,62921,987.5599999999977,62935,2021-10-26T11:36:41.774Z,62950.08,1635248129,full,ni_sequenzen,NI_Sequenzen,3,,,,,,,,,,,,,
,Move,canvas.Screen,0_1_0_3,right,response,,62949,62949.78,62950.08,63109,158.91999999999825,63125,2021-10-26T11:36:41.964Z,63139.16,1635248129,full,ni_sequenzen,NI_Sequenzen,4,,,,,,,,,,,,,
,Move,canvas.Screen,0_1_0_4,down,response,,63132,63131.8,63139.16,64530,1390.8399999999965,64546,2021-10-26T11:36:43.384Z,64559.02,1635248129,full,ni_sequenzen,NI_Sequenzen,5,,,,,,,,,,,,,
,Move,canvas.Screen,0_1_0_5,down,response,,64559,64558.76,64559.02,64780,220.9800000000032,64792,2021-10-26T11:36:43.630Z,64805.62,1635248129,full,ni_sequenzen,NI_Sequenzen,6,,,,,,,,,,,,,
,Move,canvas.Screen,0_1_0_6,right,response,,64802,64802.16,64805.62,65421,615.3799999999974,65435,2021-10-26T11:36:44.273Z,65445.42,1635248129,full,ni_sequenzen,NI_Sequenzen,7,,,,,,,,,,,,,
,Move,canvas.Screen,0_1_0_7,right,response,,65445,65445.2,65445.42,65655,209.58000000000175,65672,2021-10-26T11:36:44.510Z,65681.32,1635248129,full,ni_sequenzen,NI_Sequenzen,8,,,,,,,,,,,,,
,Move,canvas.Screen,0_1_0_8,down,response,,65681,65681,65681.32,66812,1130.679999999993,66820,2021-10-26T11:36:45.658Z,66828.8,1635248129,full,ni_sequenzen,NI_Sequenzen,9,,,,,,,,,,,,,
,Move,canvas.Screen,0_1_0_9,down,response,,66828,66828.54,66828.8,67030,201.1999999999971,67033,2021-10-26T11:36:45.871Z,67042.08,1635248129,full,ni_sequenzen,NI_Sequenzen,10,,,,,,,,,,,,,
,Move,canvas.Screen,0_1_0_10,left,response,,67041,67041.82,67042.08,67437,394.91999999999825,67453,2021-10-26T11:36:46.291Z,67463.32,1635248129,full,ni_sequenzen,NI_Sequenzen,11,,,,,,,,,,,,,
,Move,canvas.Screen,0_1_0_11,down,response,,67463,67463.02,67463.32,69765,2301.679999999993,69776,2021-10-26T11:36:48.614Z,69783.02,1635248129,full,ni_sequenzen,NI_Sequenzen,12,,,,,,,,,,,,,
,Move,canvas.Screen,0_1_0_12,down,response,,69783,69782.84,69783.02,69968,184.97999999999593,69975,2021-10-26T11:36:48.813Z,69988.28,1635248129,full,ni_sequenzen,NI_Sequenzen,13,,,,,,,,,,,,,
,Move,canvas.Screen,0_1_0_13,down,response,,69983,69983.2,69988.28,70154,165.72000000000116,70165,2021-10-26T11:36:49.003Z,70188.24,1635248129,full,ni_sequenzen,NI_Sequenzen,14,,,,,,,,,,,,,
,Move,canvas.Screen,0_1_0_14,right,response,,70173,70172.38,70188.24,71359,1170.7599999999948,71374,2021-10-26T11:36:50.212Z,71382.06,1635248129,full,ni_sequenzen,NI_Sequenzen,15,,,,,,,,,,,,,
,Move,canvas.Screen,0_1_0_15,right,response,,71382,71381.84,71382.06,71592,209.94000000000233,71599,2021-10-26T11:36:50.437Z,71609.4,1635248129,full,ni_sequenzen,NI_Sequenzen,16,,,,,,,,,,,,,
,Move,canvas.Screen,0_1_0_16,right,response,,71609,71609.02,71609.4,71749,139.60000000000582,71764,2021-10-26T11:36:50.601Z,71771.36,1635248129,full,ni_sequenzen,NI_Sequenzen,17,,,,,,,,,,,,,
,Move,canvas.Screen,0_1_0_17,right,response,,71769,71769.34,71771.36,71968,196.63999999999942,71983,2021-10-26T11:36:50.822Z,71990.72,1635248129,full,ni_sequenzen,NI_Sequenzen,18,,,,,,,,,,,,,
,Move,canvas.Screen,0_1_0_18,left,response,,71991,71990.36,71990.72,72921,930.2799999999988,72925,2021-10-26T11:36:51.763Z,72931,1635248129,full,ni_sequenzen,NI_Sequenzen,19,,,,,,,,,,,,,
,Move,canvas.Screen,0_1_0_19,down,response,,72931,72930.6,72931,73671,740,73680,2021-10-26T11:36:52.518Z,73686.88,1635248129,full,ni_sequenzen,NI_Sequenzen,20,,,,,,,,,,,,,
,Move,canvas.Screen,0_1_0_20,down,response,,73686,73686.62,73686.88,73874,187.11999999999534,73887,2021-10-26T11:36:52.725Z,73904.4,1635248129,full,ni_sequenzen,NI_Sequenzen,21,,,,,,,,,,,,,
,Move,canvas.Screen,0_1_0_21,down,response,,73894,73894.78,73904.4,74093,188.60000000000582,74107,2021-10-26T11:36:52.944Z,74112.56,1635248129,full,ni_sequenzen,NI_Sequenzen,22,,,,,,,,,,,,,
,Move,canvas.Screen,0_1_0_22,left,response,,74112,74112.3,74112.56,74437,324.4400000000023,74442,2021-10-26T11:36:53.280Z,74449.02,1635248129,full,ni_sequenzen,NI_Sequenzen,23,,,,,,,,,,,,,
,Move,canvas.Screen,0_1_0_23,left,response,,74449,74448.78,74449.02,74670,220.97999999999593,74687,2021-10-26T11:36:53.526Z,74693.38,1635248129,full,ni_sequenzen,NI_Sequenzen,24,,,,,,,,,,,,,
,Move,canvas.Screen,0_1_0_24,down,response,,74693,74693.1,74693.38,75326,632.6199999999953,75331,2021-10-26T11:36:54.170Z,75340.06,1635248129,full,ni_sequenzen,NI_Sequenzen,25,,,,,,,,,,,,,
,Move,canvas.Screen,0_1_0_25,right,response,,75340,75339.74,75340.06,75686,345.9400000000023,75699,2021-10-26T11:36:54.537Z,75706.02,1635248129,full,ni_sequenzen,NI_Sequenzen,26,,,,,,,,,,,,,
,Move,canvas.Screen,0_1_0_26,right,response,,75706,75705.78,75706.02,75889,182.97999999999593,75902,2021-10-26T11:36:54.741Z,75920.82,1635248129,full,ni_sequenzen,NI_Sequenzen,27,,,,,,,,,,,,,
,Move,canvas.Screen,0_1_0_27,down,response,,75909,75909.02,75920.82,76468,547.179999999993,76479,2021-10-26T11:36:55.318Z,76487.2,1635248129,full,ni_sequenzen,NI_Sequenzen,28,,,,,,,,,,,,,
,Move,canvas.Screen,0_1_0_28,down,response,,76487,76486.96,76487.2,76701,213.8000000000029,76717,2021-10-26T11:36:55.555Z,76723.4,1635248129,full,ni_sequenzen,NI_Sequenzen,29,,,,,,,,,,,,,
,Move,canvas.Screen,0_1_0_29,down,response,,76723,76723.2,76723.4,77139,415.6000000000058,77149,2021-10-26T11:36:55.986Z,77208.98,1635248129,full,ni_sequenzen,NI_Sequenzen,30,,,,,,,,,,,,,
,Loop,flow.Loop,0_1_0,-999,completion,,59359,59365.44,59372.98,77139,17766.019999999997,77149,2021-10-26T11:36:55.987Z,77208.98,1635248129,full,ni_sequenzen,NI_Sequenzen,,,,,,,,,,,,,,
,Training_I,flow.Sequence,0_1,,completion,,59338,59365.44,59372.98,77139,17766.019999999997,77149,2021-10-26T11:36:55.987Z,77208.98,1635248129,full,ni_sequenzen,NI_Sequenzen,,,,,,,,,,,,,,
,Screen_1,canvas.Screen,0_2_0_0,cont,response,1,77209,77208.74,77208.98,84671,7462.020000000004,84678,2021-10-26T11:37:03.516Z,84788.16,1635248129,full,ni_sequenzen,NI_Sequenzen,,,,,,,,,,,,,,
,Screen_2,canvas.Screen,0_2_0_1,cont,response,1,84788,84788,84788.16,93984,9195.839999999997,93990,2021-10-26T11:37:12.828Z,93995.88,1635248129,full,ni_sequenzen,NI_Sequenzen,,,,,,,,,,,,,,
,Screen_3,canvas.Screen,0_2_0_2,cont,response,1,93996,93995.66,93995.88,102171,8175.119999999995,102182,2021-10-26T11:37:21.020Z,102284.06,1635248129,full,ni_sequenzen,NI_Sequenzen,,,,,,,,,,,,,,
,Screen_4,canvas.Screen,0_2_0_3,cont,response,1,102276,102275.5,102284.06,109624,7339.940000000002,109637,2021-10-26T11:37:28.475Z,109640.56,1635248129,full,ni_sequenzen,NI_Sequenzen,,,,,,,,,,,,,,
,Screen_5,canvas.Screen,0_2_0_4,cont,response,1,109640,109640.32,109640.56,109890,249.44000000000233,109904,2021-10-26T11:37:28.743Z,109983.4,1635248129,full,ni_sequenzen,NI_Sequenzen,,,,,,,,,,,,,,
,Screen_6,canvas.Screen,0_2_0_5,back,response,1,109983,109983.08,109983.4,111765,1781.6000000000058,111773,2021-10-26T11:37:30.611Z,111787.44,1635248129,full,ni_sequenzen,NI_Sequenzen,,,,,,,,,,,,,,
,Sequence,flow.Sequence,0_2_0,,completion,1,77207,77208.74,77208.98,111765,34556.020000000004,111773,2021-10-26T11:37:30.611Z,111787.44,1635248129,full,ni_sequenzen,NI_Sequenzen,,,,,,,,,,,,,,
,Screen_1,canvas.Screen,0_2_1_0,,skipped,2,111780,,,111780,,111780,2021-10-26T11:37:30.619Z,111787.44,1635248129,full,ni_sequenzen,NI_Sequenzen,,,,,,,,,,,,,,
,Screen_2,canvas.Screen,0_2_1_1,,skipped,2,111782,,,111780,,111782,2021-10-26T11:37:30.620Z,111787.44,1635248129,full,ni_sequenzen,NI_Sequenzen,,,,,,,,,,,,,,
,Screen_3,canvas.Screen,0_2_1_2,,skipped,2,111784,,,111780,,111784,2021-10-26T11:37:30.622Z,111787.44,1635248129,full,ni_sequenzen,NI_Sequenzen,,,,,,,,,,,,,,
,Screen_4,canvas.Screen,0_2_1_3,,skipped,2,111785,,,111780,,111785,2021-10-26T11:37:30.624Z,111787.44,1635248129,full,ni_sequenzen,NI_Sequenzen,,,,,,,,,,,,,,
,Screen_5,canvas.Screen,0_2_1_4,cont,response,2,111787,111787.18,111787.44,119609,7821.559999999998,119616,2021-10-26T11:37:38.454Z,119618.38,1635248129,full,ni_sequenzen,NI_Sequenzen,,,,,,,,,,,,,,
,Screen_6,canvas.Screen,0_2_1_5,cont,response,2,119618,119618.2,119618.38,134999,15380.619999999995,135010,2021-10-26T11:37:53.848Z,135430.02,1635248129,full,ni_sequenzen,NI_Sequenzen,,,,,,,,,,,,,,
,Sequence,flow.Sequence,0_2_1,,completion,2,111777,111787.18,111787.44,134999,23211.559999999998,135012,2021-10-26T11:37:53.850Z,135430.02,1635248129,full,ni_sequenzen,NI_Sequenzen,,,,,,,,,,,,,,
,Screen_1,canvas.Screen,0_2_2_0,,skipped,3,135020,,,135020,,135020,2021-10-26T11:37:53.859Z,135430.02,1635248129,full,ni_sequenzen,NI_Sequenzen,,,,,,,,,,,,,,
,Screen_2,canvas.Screen,0_2_2_1,,skipped,3,135025,,,135020,,135025,2021-10-26T11:37:53.863Z,135430.02,1635248129,full,ni_sequenzen,NI_Sequenzen,,,,,,,,,,,,,,
,Screen_3,canvas.Screen,0_2_2_2,,skipped,3,135029,,,135020,,135030,2021-10-26T11:37:53.868Z,135430.02,1635248129,full,ni_sequenzen,NI_Sequenzen,,,,,,,,,,,,,,
,Screen_4,canvas.Screen,0_2_2_3,,skipped,3,135032,,,135020,,135034,2021-10-26T11:37:53.872Z,135430.02,1635248129,full,ni_sequenzen,NI_Sequenzen,,,,,,,,,,,,,,
,Screen_5,canvas.Screen,0_2_2_4,,skipped,3,135037,,,135020,,135037,2021-10-26T11:37:53.875Z,135430.02,1635248129,full,ni_sequenzen,NI_Sequenzen,,,,,,,,,,,,,,
,Screen_6,canvas.Screen,0_2_2_5,,skipped,3,135040,,,135020,,135040,2021-10-26T11:37:53.878Z,135430.02,1635248129,full,ni_sequenzen,NI_Sequenzen,,,,,,,,,,,,,,
,Sequence,flow.Sequence,0_2_2,,completion,3,135016,,,135020,,135040,2021-10-26T11:37:53.878Z,135430.02,1635248129,full,ni_sequenzen,NI_Sequenzen,,,,,,,,,,,,,,
,Screen_1,canvas.Screen,0_2_3_0,,skipped,4,135044,,,135044,,135044,2021-10-26T11:37:53.882Z,135430.02,1635248129,full,ni_sequenzen,NI_Sequenzen,,,,,,,,,,,,,,
,Screen_2,canvas.Screen,0_2_3_1,,skipped,4,135046,,,135044,,135046,2021-10-26T11:37:53.884Z,135430.02,1635248129,full,ni_sequenzen,NI_Sequenzen,,,,,,,,,,,,,,
,Screen_3,canvas.Screen,0_2_3_2,,skipped,4,135049,,,135044,,135049,2021-10-26T11:37:53.887Z,135430.02,1635248129,full,ni_sequenzen,NI_Sequenzen,,,,,,,,,,,,,,
,Screen_4,canvas.Screen,0_2_3_3,,skipped,4,135052,,,135044,,135052,2021-10-26T11:37:53.890Z,135430.02,1635248129,full,ni_sequenzen,NI_Sequenzen,,,,,,,,,,,,,,
,Screen_5,canvas.Screen,0_2_3_4,,skipped,4,135054,,,135044,,135055,2021-10-26T11:37:53.893Z,135430.02,1635248129,full,ni_sequenzen,NI_Sequenzen,,,,,,,,,,,,,,
,Screen_6,canvas.Screen,0_2_3_5,,skipped,4,135057,,,135044,,135057,2021-10-26T11:37:53.894Z,135430.02,1635248129,full,ni_sequenzen,NI_Sequenzen,,,,,,,,,,,,,,
,Sequence,flow.Sequence,0_2_3,,completion,4,135040,,,135044,,135057,2021-10-26T11:37:53.895Z,135430.02,1635248129,full,ni_sequenzen,NI_Sequenzen,,,,,,,,,,,,,,
,Screen_1,canvas.Screen,0_2_4_0,,skipped,5,135062,,,135062,,135062,2021-10-26T11:37:53.900Z,135430.02,1635248129,full,ni_sequenzen,NI_Sequenzen,,,,,,,,,,,,,,
,Screen_2,canvas.Screen,0_2_4_1,,skipped,5,135065,,,135062,,135065,2021-10-26T11:37:53.904Z,135430.02,1635248129,full,ni_sequenzen,NI_Sequenzen,,,,,,,,,,,,,,
,Screen_3,canvas.Screen,0_2_4_2,,skipped,5,135067,,,135062,,135068,2021-10-26T11:37:53.906Z,135430.02,1635248129,full,ni_sequenzen,NI_Sequenzen,,,,,,,,,,,,,,
,Screen_4,canvas.Screen,0_2_4_3,,skipped,5,135069,,,135062,,135069,2021-10-26T11:37:53.907Z,135430.02,1635248129,full,ni_sequenzen,NI_Sequenzen,,,,,,,,,,,,,,
,Screen_5,canvas.Screen,0_2_4_4,,skipped,5,135072,,,135062,,135072,2021-10-26T11:37:53.910Z,135430.02,1635248129,full,ni_sequenzen,NI_Sequenzen,,,,,,,,,,,,,,
,Screen_6,canvas.Screen,0_2_4_5,,skipped,5,135075,,,135062,,135075,2021-10-26T11:37:53.913Z,135430.02,1635248129,full,ni_sequenzen,NI_Sequenzen,,,,,,,,,,,,,,
,Sequence,flow.Sequence,0_2_4,,completion,5,135059,,,135062,,135075,2021-10-26T11:37:53.913Z,135430.02,1635248129,full,ni_sequenzen,NI_Sequenzen,,,,,,,,,,,,,,
,Screen_1,canvas.Screen,0_2_5_0,,skipped,6,135078,,,135078,,135078,2021-10-26T11:37:53.916Z,135430.02,1635248129,full,ni_sequenzen,NI_Sequenzen,,,,,,,,,,,,,,
,Screen_2,canvas.Screen,0_2_5_1,,skipped,6,135080,,,135078,,135080,2021-10-26T11:37:53.918Z,135430.02,1635248129,full,ni_sequenzen,NI_Sequenzen,,,,,,,,,,,,,,
,Screen_3,canvas.Screen,0_2_5_2,,skipped,6,135082,,,135078,,135082,2021-10-26T11:37:53.921Z,135430.02,1635248129,full,ni_sequenzen,NI_Sequenzen,,,,,,,,,,,,,,
,Screen_4,canvas.Screen,0_2_5_3,,skipped,6,135085,,,135078,,135085,2021-10-26T11:37:53.924Z,135430.02,1635248129,full,ni_sequenzen,NI_Sequenzen,,,,,,,,,,,,,,
,Screen_5,canvas.Screen,0_2_5_4,,skipped,6,135087,,,135078,,135087,2021-10-26T11:37:53.926Z,135430.02,1635248129,full,ni_sequenzen,NI_Sequenzen,,,,,,,,,,,,,,
,Screen_6,canvas.Screen,0_2_5_5,,skipped,6,135089,,,135078,,135089,2021-10-26T11:37:53.927Z,135430.02,1635248129,full,ni_sequenzen,NI_Sequenzen,,,,,,,,,,,,,,
,Sequence,flow.Sequence,0_2_5,,completion,6,135076,,,135078,,135090,2021-10-26T11:37:53.928Z,135430.02,1635248129,full,ni_sequenzen,NI_Sequenzen,,,,,,,,,,,,,,
,Screen_1,canvas.Screen,0_2_6_0,,skipped,7,135092,,,135092,,135092,2021-10-26T11:37:53.930Z,135430.02,1635248129,full,ni_sequenzen,NI_Sequenzen,,,,,,,,,,,,,,
,Screen_2,canvas.Screen,0_2_6_1,,skipped,7,135094,,,135092,,135094,2021-10-26T11:37:53.932Z,135430.02,1635248129,full,ni_sequenzen,NI_Sequenzen,,,,,,,,,,,,,,
,Screen_3,canvas.Screen,0_2_6_2,,skipped,7,135096,,,135092,,135096,2021-10-26T11:37:53.935Z,135430.02,1635248129,full,ni_sequenzen,NI_Sequenzen,,,,,,,,,,,,,,
,Screen_4,canvas.Screen,0_2_6_3,,skipped,7,135099,,,135092,,135099,2021-10-26T11:37:53.937Z,135430.02,1635248129,full,ni_sequenzen,NI_Sequenzen,,,,,,,,,,,,,,
,Screen_5,canvas.Screen,0_2_6_4,,skipped,7,135100,,,135092,,135100,2021-10-26T11:37:53.938Z,135430.02,1635248129,full,ni_sequenzen,NI_Sequenzen,,,,,,,,,,,,,,
,Screen_6,canvas.Screen,0_2_6_5,,skipped,7,135103,,,135092,,135103,2021-10-26T11:37:53.940Z,135430.02,1635248129,full,ni_sequenzen,NI_Sequenzen,,,,,,,,,,,,,,
,Sequence,flow.Sequence,0_2_6,,completion,7,135091,,,135092,,135103,2021-10-26T11:37:53.941Z,135430.02,1635248129,full,ni_sequenzen,NI_Sequenzen,,,,,,,,,,,,,,
,Screen_1,canvas.Screen,0_2_7_0,,skipped,8,135106,,,135106,,135106,2021-10-26T11:37:53.945Z,135430.02,1635248129,full,ni_sequenzen,NI_Sequenzen,,,,,,,,,,,,,,
,Screen_2,canvas.Screen,0_2_7_1,,skipped,8,135108,,,135106,,135108,2021-10-26T11:37:53.946Z,135430.02,1635248129,full,ni_sequenzen,NI_Sequenzen,,,,,,,,,,,,,,
,Screen_3,canvas.Screen,0_2_7_2,,skipped,8,135109,,,135106,,135109,2021-10-26T11:37:53.947Z,135430.02,1635248129,full,ni_sequenzen,NI_Sequenzen,,,,,,,,,,,,,,
,Screen_4,canvas.Screen,0_2_7_3,,skipped,8,135112,,,135106,,135112,2021-10-26T11:37:53.950Z,135430.02,1635248129,full,ni_sequenzen,NI_Sequenzen,,,,,,,,,,,,,,
,Screen_5,canvas.Screen,0_2_7_4,,skipped,8,135115,,,135106,,135115,2021-10-26T11:37:53.953Z,135430.02,1635248129,full,ni_sequenzen,NI_Sequenzen,,,,,,,,,,,,,,
,Screen_6,canvas.Screen,0_2_7_5,,skipped,8,135117,,,135106,,135117,2021-10-26T11:37:53.955Z,135430.02,1635248129,full,ni_sequenzen,NI_Sequenzen,,,,,,,,,,,,,,
,Sequence,flow.Sequence,0_2_7,,completion,8,135103,,,135106,,135118,2021-10-26T11:37:53.956Z,135430.02,1635248129,full,ni_sequenzen,NI_Sequenzen,,,,,,,,,,,,,,
,Screen_1,canvas.Screen,0_2_8_0,,skipped,9,135121,,,135121,,135121,2021-10-26T11:37:53.959Z,135430.02,1635248129,full,ni_sequenzen,NI_Sequenzen,,,,,,,,,,,,,,
,Screen_2,canvas.Screen,0_2_8_1,,skipped,9,135123,,,135121,,135123,2021-10-26T11:37:53.960Z,135430.02,1635248129,full,ni_sequenzen,NI_Sequenzen,,,,,,,,,,,,,,
,Screen_3,canvas.Screen,0_2_8_2,,skipped,9,135125,,,135121,,135125,2021-10-26T11:37:53.963Z,135430.02,1635248129,full,ni_sequenzen,NI_Sequenzen,,,,,,,,,,,,,,
,Screen_4,canvas.Screen,0_2_8_3,,skipped,9,135127,,,135121,,135127,2021-10-26T11:37:53.965Z,135430.02,1635248129,full,ni_sequenzen,NI_Sequenzen,,,,,,,,,,,,,,
,Screen_5,canvas.Screen,0_2_8_4,,skipped,9,135128,,,135121,,135128,2021-10-26T11:37:53.966Z,135430.02,1635248129,full,ni_sequenzen,NI_Sequenzen,,,,,,,,,,,,,,
,Screen_6,canvas.Screen,0_2_8_5,,skipped,9,135130,,,135121,,135130,2021-10-26T11:37:53.968Z,135430.02,1635248129,full,ni_sequenzen,NI_Sequenzen,,,,,,,,,,,,,,
,Sequence,flow.Sequence,0_2_8,,completion,9,135118,,,135121,,135130,2021-10-26T11:37:53.969Z,135430.02,1635248129,full,ni_sequenzen,NI_Sequenzen,,,,,,,,,,,,,,
,Screen_1,canvas.Screen,0_2_9_0,,skipped,10,135133,,,135133,,135133,2021-10-26T11:37:53.971Z,135430.02,1635248129,full,ni_sequenzen,NI_Sequenzen,,,,,,,,,,,,,,
,Screen_2,canvas.Screen,0_2_9_1,,skipped,10,135135,,,135133,,135135,2021-10-26T11:37:53.974Z,135430.02,1635248129,full,ni_sequenzen,NI_Sequenzen,,,,,,,,,,,,,,
,Screen_3,canvas.Screen,0_2_9_2,,skipped,10,135138,,,135133,,135138,2021-10-26T11:37:53.976Z,135430.02,1635248129,full,ni_sequenzen,NI_Sequenzen,,,,,,,,,,,,,,
,Screen_4,canvas.Screen,0_2_9_3,,skipped,10,135140,,,135133,,135140,2021-10-26T11:37:53.978Z,135430.02,1635248129,full,ni_sequenzen,NI_Sequenzen,,,,,,,,,,,,,,
,Screen_5,canvas.Screen,0_2_9_4,,skipped,10,135142,,,135133,,135142,2021-10-26T11:37:53.980Z,135430.02,1635248129,full,ni_sequenzen,NI_Sequenzen,,,,,,,,,,,,,,
,Screen_6,canvas.Screen,0_2_9_5,,skipped,10,135144,,,135133,,135144,2021-10-26T11:37:53.982Z,135430.02,1635248129,full,ni_sequenzen,NI_Sequenzen,,,,,,,,,,,,,,
,Sequence,flow.Sequence,0_2_9,,completion,10,135131,,,135133,,135144,2021-10-26T11:37:53.982Z,135430.02,1635248129,full,ni_sequenzen,NI_Sequenzen,,,,,,,,,,,,,,
,Screen_1,canvas.Screen,0_2_10_0,,skipped,11,135146,,,135146,,135146,2021-10-26T11:37:53.985Z,135430.02,1635248129,full,ni_sequenzen,NI_Sequenzen,,,,,,,,,,,,,,
,Screen_2,canvas.Screen,0_2_10_1,,skipped,11,135148,,,135146,,135148,2021-10-26T11:37:53.987Z,135430.02,1635248129,full,ni_sequenzen,NI_Sequenzen,,,,,,,,,,,,,,
,Screen_3,canvas.Screen,0_2_10_2,,skipped,11,135150,,,135146,,135150,2021-10-26T11:37:53.988Z,135430.02,1635248129,full,ni_sequenzen,NI_Sequenzen,,,,,,,,,,,,,,
,Screen_4,canvas.Screen,0_2_10_3,,skipped,11,135152,,,135146,,135152,2021-10-26T11:37:53.990Z,135430.02,1635248129,full,ni_sequenzen,NI_Sequenzen,,,,,,,,,,,,,,
,Screen_5,canvas.Screen,0_2_10_4,,skipped,11,135154,,,135146,,135155,2021-10-26T11:37:53.993Z,135430.02,1635248129,full,ni_sequenzen,NI_Sequenzen,,,,,,,,,,,,,,
,Screen_6,canvas.Screen,0_2_10_5,,skipped,11,135156,,,135146,,135156,2021-10-26T11:37:53.994Z,135430.02,1635248129,full,ni_sequenzen,NI_Sequenzen,,,,,,,,,,,,,,
,Sequence,flow.Sequence,0_2_10,,completion,11,135145,,,135146,,135156,2021-10-26T11:37:53.994Z,135430.02,1635248129,full,ni_sequenzen,NI_Sequenzen,,,,,,,,,,,,,,
,Screen_1,canvas.Screen,0_2_11_0,,skipped,12,135159,,,135159,,135159,2021-10-26T11:37:53.997Z,135430.02,1635248129,full,ni_sequenzen,NI_Sequenzen,,,,,,,,,,,,,,
,Screen_2,canvas.Screen,0_2_11_1,,skipped,12,135160,,,135159,,135161,2021-10-26T11:37:53.999Z,135430.02,1635248129,full,ni_sequenzen,NI_Sequenzen,,,,,,,,,,,,,,
,Screen_3,canvas.Screen,0_2_11_2,,skipped,12,135163,,,135159,,135163,2021-10-26T11:37:54.002Z,135430.02,1635248129,full,ni_sequenzen,NI_Sequenzen,,,,,,,,,,,,,,
,Screen_4,canvas.Screen,0_2_11_3,,skipped,12,135165,,,135159,,135165,2021-10-26T11:37:54.003Z,135430.02,1635248129,full,ni_sequenzen,NI_Sequenzen,,,,,,,,,,,,,,
,Screen_5,canvas.Screen,0_2_11_4,,skipped,12,135167,,,135159,,135167,2021-10-26T11:37:54.005Z,135430.02,1635248129,full,ni_sequenzen,NI_Sequenzen,,,,,,,,,,,,,,
,Screen_6,canvas.Screen,0_2_11_5,,skipped,12,135168,,,135159,,135169,2021-10-26T11:37:54.007Z,135430.02,1635248129,full,ni_sequenzen,NI_Sequenzen,,,,,,,,,,,,,,
,Sequence,flow.Sequence,0_2_11,,completion,12,135157,,,135159,,135169,2021-10-26T11:37:54.007Z,135430.02,1635248129,full,ni_sequenzen,NI_Sequenzen,,,,,,,,,,,,,,
,Screen_1,canvas.Screen,0_2_12_0,,skipped,13,135171,,,135171,,135172,2021-10-26T11:37:54.010Z,135430.02,1635248129,full,ni_sequenzen,NI_Sequenzen,,,,,,,,,,,,,,
,Screen_2,canvas.Screen,0_2_12_1,,skipped,13,135174,,,135171,,135174,2021-10-26T11:37:54.012Z,135430.02,1635248129,full,ni_sequenzen,NI_Sequenzen,,,,,,,,,,,,,,
,Screen_3,canvas.Screen,0_2_12_2,,skipped,13,135176,,,135171,,135176,2021-10-26T11:37:54.014Z,135430.02,1635248129,full,ni_sequenzen,NI_Sequenzen,,,,,,,,,,,,,,
,Screen_4,canvas.Screen,0_2_12_3,,skipped,13,135178,,,135171,,135178,2021-10-26T11:37:54.016Z,135430.02,1635248129,full,ni_sequenzen,NI_Sequenzen,,,,,,,,,,,,,,
,Screen_5,canvas.Screen,0_2_12_4,,skipped,13,135179,,,135171,,135179,2021-10-26T11:37:54.017Z,135430.02,1635248129,full,ni_sequenzen,NI_Sequenzen,,,,,,,,,,,,,,
,Screen_6,canvas.Screen,0_2_12_5,,skipped,13,135182,,,135171,,135182,2021-10-26T11:37:54.020Z,135430.02,1635248129,full,ni_sequenzen,NI_Sequenzen,,,,,,,,,,,,,,
,Sequence,flow.Sequence,0_2_12,,completion,13,135170,,,135171,,135182,2021-10-26T11:37:54.020Z,135430.02,1635248129,full,ni_sequenzen,NI_Sequenzen,,,,,,,,,,,,,,
,Screen_1,canvas.Screen,0_2_13_0,,skipped,14,135185,,,135185,,135185,2021-10-26T11:37:54.023Z,135430.02,1635248129,full,ni_sequenzen,NI_Sequenzen,,,,,,,,,,,,,,
,Screen_2,canvas.Screen,0_2_13_1,,skipped,14,135186,,,135185,,135186,2021-10-26T11:37:54.025Z,135430.02,1635248129,full,ni_sequenzen,NI_Sequenzen,,,,,,,,,,,,,,
,Screen_3,canvas.Screen,0_2_13_2,,skipped,14,135189,,,135185,,135189,2021-10-26T11:37:54.026Z,135430.02,1635248129,full,ni_sequenzen,NI_Sequenzen,,,,,,,,,,,,,,
,Screen_4,canvas.Screen,0_2_13_3,,skipped,14,135190,,,135185,,135190,2021-10-26T11:37:54.028Z,135430.02,1635248129,full,ni_sequenzen,NI_Sequenzen,,,,,,,,,,,,,,
,Screen_5,canvas.Screen,0_2_13_4,,skipped,14,135191,,,135185,,135191,2021-10-26T11:37:54.030Z,135430.02,1635248129,full,ni_sequenzen,NI_Sequenzen,,,,,,,,,,,,,,
,Screen_6,canvas.Screen,0_2_13_5,,skipped,14,135193,,,135185,,135193,2021-10-26T11:37:54.032Z,135430.02,1635248129,full,ni_sequenzen,NI_Sequenzen,,,,,,,,,,,,,,
,Sequence,flow.Sequence,0_2_13,,completion,14,135183,,,135185,,135194,2021-10-26T11:37:54.032Z,135430.02,1635248129,full,ni_sequenzen,NI_Sequenzen,,,,,,,,,,,,,,
,Screen_1,canvas.Screen,0_2_14_0,,skipped,15,135196,,,135196,,135196,2021-10-26T11:37:54.034Z,135430.02,1635248129,full,ni_sequenzen,NI_Sequenzen,,,,,,,,,,,,,,
,Screen_2,canvas.Screen,0_2_14_1,,skipped,15,135197,,,135196,,135197,2021-10-26T11:37:54.035Z,135430.02,1635248129,full,ni_sequenzen,NI_Sequenzen,,,,,,,,,,,,,,
,Screen_3,canvas.Screen,0_2_14_2,,skipped,15,135198,,,135196,,135199,2021-10-26T11:37:54.037Z,135430.02,1635248129,full,ni_sequenzen,NI_Sequenzen,,,,,,,,,,,,,,
,Screen_4,canvas.Screen,0_2_14_3,,skipped,15,135200,,,135196,,135200,2021-10-26T11:37:54.039Z,135430.02,1635248129,full,ni_sequenzen,NI_Sequenzen,,,,,,,,,,,,,,
,Screen_5,canvas.Screen,0_2_14_4,,skipped,15,135202,,,135196,,135202,2021-10-26T11:37:54.040Z,135430.02,1635248129,full,ni_sequenzen,NI_Sequenzen,,,,,,,,,,,,,,
,Screen_6,canvas.Screen,0_2_14_5,,skipped,15,135203,,,135196,,135203,2021-10-26T11:37:54.042Z,135430.02,1635248129,full,ni_sequenzen,NI_Sequenzen,,,,,,,,,,,,,,
,Sequence,flow.Sequence,0_2_14,,completion,15,135194,,,135196,,135204,2021-10-26T11:37:54.042Z,135430.02,1635248129,full,ni_sequenzen,NI_Sequenzen,,,,,,,,,,,,,,
,Screen_1,canvas.Screen,0_2_15_0,,skipped,16,135206,,,135206,,135206,2021-10-26T11:37:54.044Z,135430.02,1635248129,full,ni_sequenzen,NI_Sequenzen,,,,,,,,,,,,,,
,Screen_2,canvas.Screen,0_2_15_1,,skipped,16,135207,,,135206,,135207,2021-10-26T11:37:54.045Z,135430.02,1635248129,full,ni_sequenzen,NI_Sequenzen,,,,,,,,,,,,,,
,Screen_3,canvas.Screen,0_2_15_2,,skipped,16,135209,,,135206,,135209,2021-10-26T11:37:54.046Z,135430.02,1635248129,full,ni_sequenzen,NI_Sequenzen,,,,,,,,,,,,,,
,Screen_4,canvas.Screen,0_2_15_3,,skipped,16,135209,,,135206,,135209,2021-10-26T11:37:54.048Z,135430.02,1635248129,full,ni_sequenzen,NI_Sequenzen,,,,,,,,,,,,,,
,Screen_5,canvas.Screen,0_2_15_4,,skipped,16,135211,,,135206,,135211,2021-10-26T11:37:54.050Z,135430.02,1635248129,full,ni_sequenzen,NI_Sequenzen,,,,,,,,,,,,,,
,Screen_6,canvas.Screen,0_2_15_5,,skipped,16,135213,,,135206,,135213,2021-10-26T11:37:54.051Z,135430.02,1635248129,full,ni_sequenzen,NI_Sequenzen,,,,,,,,,,,,,,
,Sequence,flow.Sequence,0_2_15,,completion,16,135204,,,135206,,135214,2021-10-26T11:37:54.052Z,135430.02,1635248129,full,ni_sequenzen,NI_Sequenzen,,,,,,,,,,,,,,
,Screen_1,canvas.Screen,0_2_16_0,,skipped,17,135216,,,135216,,135216,2021-10-26T11:37:54.054Z,135430.02,1635248129,full,ni_sequenzen,NI_Sequenzen,,,,,,,,,,,,,,
,Screen_2,canvas.Screen,0_2_16_1,,skipped,17,135218,,,135216,,135218,2021-10-26T11:37:54.056Z,135430.02,1635248129,full,ni_sequenzen,NI_Sequenzen,,,,,,,,,,,,,,
,Screen_3,canvas.Screen,0_2_16_2,,skipped,17,135219,,,135216,,135219,2021-10-26T11:37:54.057Z,135430.02,1635248129,full,ni_sequenzen,NI_Sequenzen,,,,,,,,,,,,,,
,Screen_4,canvas.Screen,0_2_16_3,,skipped,17,135221,,,135216,,135221,2021-10-26T11:37:54.059Z,135430.02,1635248129,full,ni_sequenzen,NI_Sequenzen,,,,,,,,,,,,,,
,Screen_5,canvas.Screen,0_2_16_4,,skipped,17,135223,,,135216,,135223,2021-10-26T11:37:54.061Z,135430.02,1635248129,full,ni_sequenzen,NI_Sequenzen,,,,,,,,,,,,,,
,Screen_6,canvas.Screen,0_2_16_5,,skipped,17,135224,,,135216,,135224,2021-10-26T11:37:54.063Z,135430.02,1635248129,full,ni_sequenzen,NI_Sequenzen,,,,,,,,,,,,,,
,Sequence,flow.Sequence,0_2_16,,completion,17,135214,,,135216,,135225,2021-10-26T11:37:54.063Z,135430.02,1635248129,full,ni_sequenzen,NI_Sequenzen,,,,,,,,,,,,,,
,Screen_1,canvas.Screen,0_2_17_0,,skipped,18,135226,,,135226,,135226,2021-10-26T11:37:54.065Z,135430.02,1635248129,full,ni_sequenzen,NI_Sequenzen,,,,,,,,,,,,,,
,Screen_2,canvas.Screen,0_2_17_1,,skipped,18,135228,,,135226,,135228,2021-10-26T11:37:54.066Z,135430.02,1635248129,full,ni_sequenzen,NI_Sequenzen,,,,,,,,,,,,,,
,Screen_3,canvas.Screen,0_2_17_2,,skipped,18,135229,,,135226,,135229,2021-10-26T11:37:54.068Z,135430.02,1635248129,full,ni_sequenzen,NI_Sequenzen,,,,,,,,,,,,,,
,Screen_4,canvas.Screen,0_2_17_3,,skipped,18,135230,,,135226,,135230,2021-10-26T11:37:54.069Z,135430.02,1635248129,full,ni_sequenzen,NI_Sequenzen,,,,,,,,,,,,,,
,Screen_5,canvas.Screen,0_2_17_4,,skipped,18,135234,,,135226,,135234,2021-10-26T11:37:54.073Z,135430.02,1635248129,full,ni_sequenzen,NI_Sequenzen,,,,,,,,,,,,,,
,Screen_6,canvas.Screen,0_2_17_5,,skipped,18,135235,,,135226,,135235,2021-10-26T11:37:54.074Z,135430.02,1635248129,full,ni_sequenzen,NI_Sequenzen,,,,,,,,,,,,,,
,Sequence,flow.Sequence,0_2_17,,completion,18,135225,,,135226,,135235,2021-10-26T11:37:54.074Z,135430.02,1635248129,full,ni_sequenzen,NI_Sequenzen,,,,,,,,,,,,,,
,Screen_1,canvas.Screen,0_2_18_0,,skipped,19,135237,,,135237,,135237,2021-10-26T11:37:54.076Z,135430.02,1635248129,full,ni_sequenzen,NI_Sequenzen,,,,,,,,,,,,,,
,Screen_2,canvas.Screen,0_2_18_1,,skipped,19,135239,,,135237,,135239,2021-10-26T11:37:54.077Z,135430.02,1635248129,full,ni_sequenzen,NI_Sequenzen,,,,,,,,,,,,,,
,Screen_3,canvas.Screen,0_2_18_2,,skipped,19,135240,,,135237,,135240,2021-10-26T11:37:54.079Z,135430.02,1635248129,full,ni_sequenzen,NI_Sequenzen,,,,,,,,,,,,,,
,Screen_4,canvas.Screen,0_2_18_3,,skipped,19,135242,,,135237,,135242,2021-10-26T11:37:54.080Z,135430.02,1635248129,full,ni_sequenzen,NI_Sequenzen,,,,,,,,,,,,,,
,Screen_5,canvas.Screen,0_2_18_4,,skipped,19,135244,,,135237,,135244,2021-10-26T11:37:54.082Z,135430.02,1635248129,full,ni_sequenzen,NI_Sequenzen,,,,,,,,,,,,,,
,Screen_6,canvas.Screen,0_2_18_5,,skipped,19,135246,,,135237,,135246,2021-10-26T11:37:54.084Z,135430.02,1635248129,full,ni_sequenzen,NI_Sequenzen,,,,,,,,,,,,,,
,Sequence,flow.Sequence,0_2_18,,completion,19,135236,,,135237,,135246,2021-10-26T11:37:54.084Z,135430.02,1635248129,full,ni_sequenzen,NI_Sequenzen,,,,,,,,,,,,,,
,Screen_1,canvas.Screen,0_2_19_0,,skipped,20,135248,,,135248,,135248,2021-10-26T11:37:54.086Z,135430.02,1635248129,full,ni_sequenzen,NI_Sequenzen,,,,,,,,,,,,,,
,Screen_2,canvas.Screen,0_2_19_1,,skipped,20,135250,,,135248,,135250,2021-10-26T11:37:54.088Z,135430.02,1635248129,full,ni_sequenzen,NI_Sequenzen,,,,,,,,,,,,,,
,Screen_3,canvas.Screen,0_2_19_2,,skipped,20,135252,,,135248,,135252,2021-10-26T11:37:54.090Z,135430.02,1635248129,full,ni_sequenzen,NI_Sequenzen,,,,,,,,,,,,,,
,Screen_4,canvas.Screen,0_2_19_3,,skipped,20,135253,,,135248,,135253,2021-10-26T11:37:54.091Z,135430.02,1635248129,full,ni_sequenzen,NI_Sequenzen,,,,,,,,,,,,,,
,Screen_5,canvas.Screen,0_2_19_4,,skipped,20,135254,,,135248,,135254,2021-10-26T11:37:54.093Z,135430.02,1635248129,full,ni_sequenzen,NI_Sequenzen,,,,,,,,,,,,,,
,Screen_6,canvas.Screen,0_2_19_5,,skipped,20,135256,,,135248,,135256,2021-10-26T11:37:54.095Z,135430.02,1635248129,full,ni_sequenzen,NI_Sequenzen,,,,,,,,,,,,,,
,Sequence,flow.Sequence,0_2_19,,completion,20,135246,,,135248,,135256,2021-10-26T11:37:54.095Z,135430.02,1635248129,full,ni_sequenzen,NI_Sequenzen,,,,,,,,,,,,,,
,Screen_1,canvas.Screen,0_2_20_0,,skipped,21,135259,,,135259,,135259,2021-10-26T11:37:54.097Z,135430.02,1635248129,full,ni_sequenzen,NI_Sequenzen,,,,,,,,,,,,,,
,Screen_2,canvas.Screen,0_2_20_1,,skipped,21,135260,,,135259,,135260,2021-10-26T11:37:54.098Z,135430.02,1635248129,full,ni_sequenzen,NI_Sequenzen,,,,,,,,,,,,,,
,Screen_3,canvas.Screen,0_2_20_2,,skipped,21,135262,,,135259,,135262,2021-10-26T11:37:54.100Z,135430.02,1635248129,full,ni_sequenzen,NI_Sequenzen,,,,,,,,,,,,,,
,Screen_4,canvas.Screen,0_2_20_3,,skipped,21,135264,,,135259,,135264,2021-10-26T11:37:54.103Z,135430.02,1635248129,full,ni_sequenzen,NI_Sequenzen,,,,,,,,,,,,,,
,Screen_5,canvas.Screen,0_2_20_4,,skipped,21,135266,,,135259,,135266,2021-10-26T11:37:54.104Z,135430.02,1635248129,full,ni_sequenzen,NI_Sequenzen,,,,,,,,,,,,,,
,Screen_6,canvas.Screen,0_2_20_5,,skipped,21,135267,,,135259,,135267,2021-10-26T11:37:54.106Z,135430.02,1635248129,full,ni_sequenzen,NI_Sequenzen,,,,,,,,,,,,,,
,Sequence,flow.Sequence,0_2_20,,completion,21,135257,,,135259,,135267,2021-10-26T11:37:54.106Z,135430.02,1635248129,full,ni_sequenzen,NI_Sequenzen,,,,,,,,,,,,,,
,Screen_1,canvas.Screen,0_2_21_0,,skipped,22,135269,,,135269,,135269,2021-10-26T11:37:54.108Z,135430.02,1635248129,full,ni_sequenzen,NI_Sequenzen,,,,,,,,,,,,,,
,Screen_2,canvas.Screen,0_2_21_1,,skipped,22,135271,,,135269,,135271,2021-10-26T11:37:54.109Z,135430.02,1635248129,full,ni_sequenzen,NI_Sequenzen,,,,,,,,,,,,,,
,Screen_3,canvas.Screen,0_2_21_2,,skipped,22,135273,,,135269,,135273,2021-10-26T11:37:54.111Z,135430.02,1635248129,full,ni_sequenzen,NI_Sequenzen,,,,,,,,,,,,,,
,Screen_4,canvas.Screen,0_2_21_3,,skipped,22,135274,,,135269,,135274,2021-10-26T11:37:54.113Z,135430.02,1635248129,full,ni_sequenzen,NI_Sequenzen,,,,,,,,,,,,,,
,Screen_5,canvas.Screen,0_2_21_4,,skipped,22,135276,,,135269,,135276,2021-10-26T11:37:54.115Z,135430.02,1635248129,full,ni_sequenzen,NI_Sequenzen,,,,,,,,,,,,,,
,Screen_6,canvas.Screen,0_2_21_5,,skipped,22,135277,,,135269,,135278,2021-10-26T11:37:54.116Z,135430.02,1635248129,full,ni_sequenzen,NI_Sequenzen,,,,,,,,,,,,,,
,Sequence,flow.Sequence,0_2_21,,completion,22,135268,,,135269,,135279,2021-10-26T11:37:54.117Z,135430.02,1635248129,full,ni_sequenzen,NI_Sequenzen,,,,,,,,,,,,,,
,Screen_1,canvas.Screen,0_2_22_0,,skipped,23,135280,,,135280,,135280,2021-10-26T11:37:54.118Z,135430.02,1635248129,full,ni_sequenzen,NI_Sequenzen,,,,,,,,,,,,,,
,Screen_2,canvas.Screen,0_2_22_1,,skipped,23,135282,,,135280,,135282,2021-10-26T11:37:54.120Z,135430.02,1635248129,full,ni_sequenzen,NI_Sequenzen,,,,,,,,,,,,,,
,Screen_3,canvas.Screen,0_2_22_2,,skipped,23,135285,,,135280,,135285,2021-10-26T11:37:54.124Z,135430.02,1635248129,full,ni_sequenzen,NI_Sequenzen,,,,,,,,,,,,,,
,Screen_4,canvas.Screen,0_2_22_3,,skipped,23,135286,,,135280,,135287,2021-10-26T11:37:54.125Z,135430.02,1635248129,full,ni_sequenzen,NI_Sequenzen,,,,,,,,,,,,,,
,Screen_5,canvas.Screen,0_2_22_4,,skipped,23,135288,,,135280,,135288,2021-10-26T11:37:54.127Z,135430.02,1635248129,full,ni_sequenzen,NI_Sequenzen,,,,,,,,,,,,,,
,Screen_6,canvas.Screen,0_2_22_5,,skipped,23,135289,,,135280,,135289,2021-10-26T11:37:54.128Z,135430.02,1635248129,full,ni_sequenzen,NI_Sequenzen,,,,,,,,,,,,,,
,Sequence,flow.Sequence,0_2_22,,completion,23,135279,,,135280,,135289,2021-10-26T11:37:54.128Z,135430.02,1635248129,full,ni_sequenzen,NI_Sequenzen,,,,,,,,,,,,,,
,Screen_1,canvas.Screen,0_2_23_0,,skipped,24,135292,,,135292,,135292,2021-10-26T11:37:54.130Z,135430.02,1635248129,full,ni_sequenzen,NI_Sequenzen,,,,,,,,,,,,,,
,Screen_2,canvas.Screen,0_2_23_1,,skipped,24,135294,,,135292,,135294,2021-10-26T11:37:54.132Z,135430.02,1635248129,full,ni_sequenzen,NI_Sequenzen,,,,,,,,,,,,,,
,Screen_3,canvas.Screen,0_2_23_2,,skipped,24,135296,,,135292,,135296,2021-10-26T11:37:54.134Z,135430.02,1635248129,full,ni_sequenzen,NI_Sequenzen,,,,,,,,,,,,,,
,Screen_4,canvas.Screen,0_2_23_3,,skipped,24,135298,,,135292,,135298,2021-10-26T11:37:54.136Z,135430.02,1635248129,full,ni_sequenzen,NI_Sequenzen,,,,,,,,,,,,,,
,Screen_5,canvas.Screen,0_2_23_4,,skipped,24,135299,,,135292,,135299,2021-10-26T11:37:54.138Z,135430.02,1635248129,full,ni_sequenzen,NI_Sequenzen,,,,,,,,,,,,,,
,Screen_6,canvas.Screen,0_2_23_5,,skipped,24,135301,,,135292,,135301,2021-10-26T11:37:54.139Z,135430.02,1635248129,full,ni_sequenzen,NI_Sequenzen,,,,,,,,,,,,,,
,Sequence,flow.Sequence,0_2_23,,completion,24,135290,,,135292,,135301,2021-10-26T11:37:54.139Z,135430.02,1635248129,full,ni_sequenzen,NI_Sequenzen,,,,,,,,,,,,,,
,Screen_1,canvas.Screen,0_2_24_0,,skipped,25,135304,,,135304,,135304,2021-10-26T11:37:54.141Z,135430.02,1635248129,full,ni_sequenzen,NI_Sequenzen,,,,,,,,,,,,,,
,Screen_2,canvas.Screen,0_2_24_1,,skipped,25,135305,,,135304,,135305,2021-10-26T11:37:54.143Z,135430.02,1635248129,full,ni_sequenzen,NI_Sequenzen,,,,,,,,,,,,,,
,Screen_3,canvas.Screen,0_2_24_2,,skipped,25,135307,,,135304,,135307,2021-10-26T11:37:54.145Z,135430.02,1635248129,full,ni_sequenzen,NI_Sequenzen,,,,,,,,,,,,,,
,Screen_4,canvas.Screen,0_2_24_3,,skipped,25,135308,,,135304,,135308,2021-10-26T11:37:54.146Z,135430.02,1635248129,full,ni_sequenzen,NI_Sequenzen,,,,,,,,,,,,,,
,Screen_5,canvas.Screen,0_2_24_4,,skipped,25,135310,,,135304,,135310,2021-10-26T11:37:54.149Z,135430.02,1635248129,full,ni_sequenzen,NI_Sequenzen,,,,,,,,,,,,,,
,Screen_6,canvas.Screen,0_2_24_5,,skipped,25,135312,,,135304,,135312,2021-10-26T11:37:54.150Z,135430.02,1635248129,full,ni_sequenzen,NI_Sequenzen,,,,,,,,,,,,,,
,Sequence,flow.Sequence,0_2_24,,completion,25,135302,,,135304,,135312,2021-10-26T11:37:54.150Z,135430.02,1635248129,full,ni_sequenzen,NI_Sequenzen,,,,,,,,,,,,,,
,Screen_1,canvas.Screen,0_2_25_0,,skipped,26,135317,,,135317,,135317,2021-10-26T11:37:54.155Z,135430.02,1635248129,full,ni_sequenzen,NI_Sequenzen,,,,,,,,,,,,,,
,Screen_2,canvas.Screen,0_2_25_1,,skipped,26,135318,,,135317,,135318,2021-10-26T11:37:54.156Z,135430.02,1635248129,full,ni_sequenzen,NI_Sequenzen,,,,,,,,,,,,,,
,Screen_3,canvas.Screen,0_2_25_2,,skipped,26,135320,,,135317,,135320,2021-10-26T11:37:54.158Z,135430.02,1635248129,full,ni_sequenzen,NI_Sequenzen,,,,,,,,,,,,,,
,Screen_4,canvas.Screen,0_2_25_3,,skipped,26,135321,,,135317,,135321,2021-10-26T11:37:54.159Z,135430.02,1635248129,full,ni_sequenzen,NI_Sequenzen,,,,,,,,,,,,,,
,Screen_5,canvas.Screen,0_2_25_4,,skipped,26,135323,,,135317,,135323,2021-10-26T11:37:54.161Z,135430.02,1635248129,full,ni_sequenzen,NI_Sequenzen,,,,,,,,,,,,,,
,Screen_6,canvas.Screen,0_2_25_5,,skipped,26,135327,,,135317,,135327,2021-10-26T11:37:54.165Z,135430.02,1635248129,full,ni_sequenzen,NI_Sequenzen,,,,,,,,,,,,,,
,Sequence,flow.Sequence,0_2_25,,completion,26,135315,,,135317,,135327,2021-10-26T11:37:54.165Z,135430.02,1635248129,full,ni_sequenzen,NI_Sequenzen,,,,,,,,,,,,,,
,Screen_1,canvas.Screen,0_2_26_0,,skipped,27,135329,,,135329,,135329,2021-10-26T11:37:54.167Z,135430.02,1635248129,full,ni_sequenzen,NI_Sequenzen,,,,,,,,,,,,,,
,Screen_2,canvas.Screen,0_2_26_1,,skipped,27,135330,,,135329,,135330,2021-10-26T11:37:54.169Z,135430.02,1635248129,full,ni_sequenzen,NI_Sequenzen,,,,,,,,,,,,,,
,Screen_3,canvas.Screen,0_2_26_2,,skipped,27,135332,,,135329,,135332,2021-10-26T11:37:54.170Z,135430.02,1635248129,full,ni_sequenzen,NI_Sequenzen,,,,,,,,,,,,,,
,Screen_4,canvas.Screen,0_2_26_3,,skipped,27,135333,,,135329,,135333,2021-10-26T11:37:54.171Z,135430.02,1635248129,full,ni_sequenzen,NI_Sequenzen,,,,,,,,,,,,,,
,Screen_5,canvas.Screen,0_2_26_4,,skipped,27,135335,,,135329,,135335,2021-10-26T11:37:54.173Z,135430.02,1635248129,full,ni_sequenzen,NI_Sequenzen,,,,,,,,,,,,,,
,Screen_6,canvas.Screen,0_2_26_5,,skipped,27,135337,,,135329,,135337,2021-10-26T11:37:54.175Z,135430.02,1635248129,full,ni_sequenzen,NI_Sequenzen,,,,,,,,,,,,,,
,Sequence,flow.Sequence,0_2_26,,completion,27,135328,,,135329,,135337,2021-10-26T11:37:54.175Z,135430.02,1635248129,full,ni_sequenzen,NI_Sequenzen,,,,,,,,,,,,,,
,Screen_1,canvas.Screen,0_2_27_0,,skipped,28,135338,,,135338,,135339,2021-10-26T11:37:54.177Z,135430.02,1635248129,full,ni_sequenzen,NI_Sequenzen,,,,,,,,,,,,,,
,Screen_2,canvas.Screen,0_2_27_1,,skipped,28,135340,,,135338,,135340,2021-10-26T11:37:54.178Z,135430.02,1635248129,full,ni_sequenzen,NI_Sequenzen,,,,,,,,,,,,,,
,Screen_3,canvas.Screen,0_2_27_2,,skipped,28,135342,,,135338,,135342,2021-10-26T11:37:54.181Z,135430.02,1635248129,full,ni_sequenzen,NI_Sequenzen,,,,,,,,,,,,,,
,Screen_4,canvas.Screen,0_2_27_3,,skipped,28,135344,,,135338,,135344,2021-10-26T11:37:54.182Z,135430.02,1635248129,full,ni_sequenzen,NI_Sequenzen,,,,,,,,,,,,,,
,Screen_5,canvas.Screen,0_2_27_4,,skipped,28,135345,,,135338,,135346,2021-10-26T11:37:54.184Z,135430.02,1635248129,full,ni_sequenzen,NI_Sequenzen,,,,,,,,,,,,,,
,Screen_6,canvas.Screen,0_2_27_5,,skipped,28,135348,,,135338,,135348,2021-10-26T11:37:54.186Z,135430.02,1635248129,full,ni_sequenzen,NI_Sequenzen,,,,,,,,,,,,,,
,Sequence,flow.Sequence,0_2_27,,completion,28,135337,,,135338,,135348,2021-10-26T11:37:54.186Z,135430.02,1635248129,full,ni_sequenzen,NI_Sequenzen,,,,,,,,,,,,,,
,Screen_1,canvas.Screen,0_2_28_0,,skipped,29,135349,,,135349,,135349,2021-10-26T11:37:54.188Z,135430.02,1635248129,full,ni_sequenzen,NI_Sequenzen,,,,,,,,,,,,,,
,Screen_2,canvas.Screen,0_2_28_1,,skipped,29,135351,,,135349,,135351,2021-10-26T11:37:54.189Z,135430.02,1635248129,full,ni_sequenzen,NI_Sequenzen,,,,,,,,,,,,,,
,Screen_3,canvas.Screen,0_2_28_2,,skipped,29,135352,,,135349,,135352,2021-10-26T11:37:54.191Z,135430.02,1635248129,full,ni_sequenzen,NI_Sequenzen,,,,,,,,,,,,,,
,Screen_4,canvas.Screen,0_2_28_3,,skipped,29,135354,,,135349,,135354,2021-10-26T11:37:54.192Z,135430.02,1635248129,full,ni_sequenzen,NI_Sequenzen,,,,,,,,,,,,,,
,Screen_5,canvas.Screen,0_2_28_4,,skipped,29,135355,,,135349,,135355,2021-10-26T11:37:54.194Z,135430.02,1635248129,full,ni_sequenzen,NI_Sequenzen,,,,,,,,,,,,,,
,Screen_6,canvas.Screen,0_2_28_5,,skipped,29,135358,,,135349,,135358,2021-10-26T11:37:54.195Z,135430.02,1635248129,full,ni_sequenzen,NI_Sequenzen,,,,,,,,,,,,,,
,Sequence,flow.Sequence,0_2_28,,completion,29,135348,,,135349,,135358,2021-10-26T11:37:54.195Z,135430.02,1635248129,full,ni_sequenzen,NI_Sequenzen,,,,,,,,,,,,,,
,Screen_1,canvas.Screen,0_2_29_0,,skipped,30,135359,,,135359,,135360,2021-10-26T11:37:54.197Z,135430.02,1635248129,full,ni_sequenzen,NI_Sequenzen,,,,,,,,,,,,,,
,Screen_2,canvas.Screen,0_2_29_1,,skipped,30,135362,,,135359,,135362,2021-10-26T11:37:54.200Z,135430.02,1635248129,full,ni_sequenzen,NI_Sequenzen,,,,,,,,,,,,,,
,Screen_3,canvas.Screen,0_2_29_2,,skipped,30,135365,,,135359,,135365,2021-10-26T11:37:54.203Z,135430.02,1635248129,full,ni_sequenzen,NI_Sequenzen,,,,,,,,,,,,,,
,Screen_4,canvas.Screen,0_2_29_3,,skipped,30,135366,,,135359,,135366,2021-10-26T11:37:54.204Z,135430.02,1635248129,full,ni_sequenzen,NI_Sequenzen,,,,,,,,,,,,,,
,Screen_5,canvas.Screen,0_2_29_4,,skipped,30,135367,,,135359,,135367,2021-10-26T11:37:54.205Z,135430.02,1635248129,full,ni_sequenzen,NI_Sequenzen,,,,,,,,,,,,,,
,Screen_6,canvas.Screen,0_2_29_5,,skipped,30,135368,,,135359,,135368,2021-10-26T11:37:54.207Z,135430.02,1635248129,full,ni_sequenzen,NI_Sequenzen,,,,,,,,,,,,,,
,Sequence,flow.Sequence,0_2_29,,completion,30,135358,,,135359,,135368,2021-10-26T11:37:54.207Z,135430.02,1635248129,full,ni_sequenzen,NI_Sequenzen,,,,,,,,,,,,,,
,Instructions_II,flow.Loop,0_2,,completion,,77206,77208.74,77208.98,135359,58150.020000000004,135369,2021-10-26T11:37:54.207Z,135430.02,1635248129,full,ni_sequenzen,NI_Sequenzen,,,,,,,,,,,,,,
,Move,canvas.Screen,0_3_0_0_0_0,down,response,,135419,135418.98,135430.02,140655,5224.9800000000105,140667,2021-10-26T11:37:59.505Z,140678.76,1635248129,full,ni_sequenzen,NI_Sequenzen,1,0,,,,,,,,,,,,
,Move,canvas.Screen,0_3_0_0_0_1,right,response,,140679,140678.5,140678.76,142577,1898.2399999999907,142580,2021-10-26T11:38:01.418Z,142591.62,1635248129,full,ni_sequenzen,NI_Sequenzen,2,0,,,,,,,,,,,,
,Move,canvas.Screen,0_3_0_0_0_2,right,response,,142591,142591.28,142591.62,142890,298.38000000000466,142892,2021-10-26T11:38:01.731Z,142903.18,1635248129,full,ni_sequenzen,NI_Sequenzen,3,0,,,,,,,,,,,,
,Move,canvas.Screen,0_3_0_0_0_3,down,response,,142903,142902.9,142903.18,144937,2033.820000000007,144952,2021-10-26T11:38:03.790Z,145034.18,1635248129,full,ni_sequenzen,NI_Sequenzen,4,0,,,,,,,,,,,,
,Move,canvas.Screen,0_3_0_0_0_4,-999,skipped,,144964,,,144937,,144965,2021-10-26T11:38:03.802Z,145034.18,1635248129,full,ni_sequenzen,NI_Sequenzen,5,0,,,,,,,,,,,,
,Move,canvas.Screen,0_3_0_0_0_5,-999,skipped,,144970,,,144937,,144970,2021-10-26T11:38:03.809Z,145034.18,1635248129,full,ni_sequenzen,NI_Sequenzen,6,0,,,,,,,,,,,,
,Move,canvas.Screen,0_3_0_0_0_6,-999,skipped,,144978,,,144937,,144978,2021-10-26T11:38:03.817Z,145034.18,1635248129,full,ni_sequenzen,NI_Sequenzen,7,0,,,,,,,,,,,,
,Move,canvas.Screen,0_3_0_0_0_7,-999,skipped,,144986,,,144937,,144986,2021-10-26T11:38:03.823Z,145034.18,1635248129,full,ni_sequenzen,NI_Sequenzen,8,0,,,,,,,,,,,,
,Move,canvas.Screen,0_3_0_0_0_8,-999,skipped,,144992,,,144937,,144992,2021-10-26T11:38:03.830Z,145034.18,1635248129,full,ni_sequenzen,NI_Sequenzen,9,0,,,,,,,,,,,,
,Move,canvas.Screen,0_3_0_0_0_9,-999,skipped,,144998,,,144937,,144998,2021-10-26T11:38:03.836Z,145034.18,1635248129,full,ni_sequenzen,NI_Sequenzen,10,0,,,,,,,,,,,,
,Move,canvas.Screen,0_3_0_0_0_10,-999,skipped,,145004,,,144937,,145004,2021-10-26T11:38:03.842Z,145034.18,1635248129,full,ni_sequenzen,NI_Sequenzen,11,0,,,,,,,,,,,,
,Move,canvas.Screen,0_3_0_0_0_11,-999,skipped,,145010,,,144937,,145010,2021-10-26T11:38:03.849Z,145034.18,1635248129,full,ni_sequenzen,NI_Sequenzen,12,0,,,,,,,,,,,,
,Move,canvas.Screen,0_3_0_0_0_12,-999,skipped,,145017,,,144937,,145017,2021-10-26T11:38:03.854Z,145034.18,1635248129,full,ni_sequenzen,NI_Sequenzen,13,0,,,,,,,,,,,,
,Move,canvas.Screen,0_3_0_0_0_13,-999,skipped,,145022,,,144937,,145022,2021-10-26T11:38:03.861Z,145034.18,1635248129,full,ni_sequenzen,NI_Sequenzen,14,0,,,,,,,,,,,,
,Move,canvas.Screen,0_3_0_0_0_14,-999,skipped,,145028,,,144937,,145028,2021-10-26T11:38:03.867Z,145034.18,1635248129,full,ni_sequenzen,NI_Sequenzen,15,0,,,,,,,,,,,,
,Loop,flow.Loop,0_3_0_0_0,-999,completion,,135411,135418.98,135430.02,144937,9506.98000000001,145028,2021-10-26T11:38:03.867Z,145034.18,1635248129,full,ni_sequenzen,NI_Sequenzen,,0,,,,,,,,,,,,
,Feedback,canvas.Screen,0_3_0_0_1,,timeout,,145034,145033.94,145034.18,149011.32,3996.6199999999953,149012,2021-10-26T11:38:07.850Z,149030.8,1635248129,full,ni_sequenzen,NI_Sequenzen,,0,,,,,,,,,,,,
,Trial,flow.Sequence,0_3_0_0,,completion,,135401,135418.98,135430.02,149011.32,13581.300000000017,149012,2021-10-26T11:38:07.850Z,149044.6,1635248129,full,ni_sequenzen,NI_Sequenzen,,0,,,,,,,,,,,,
,Move,canvas.Screen,0_3_0_1_0_0,down,response,,149031,149030.8,149044.6,152248,3203.399999999994,152256,2021-10-26T11:38:11.094Z,152266.88,1635248129,full,ni_sequenzen,NI_Sequenzen,1,1,,,,,,,,,,,,
,Move,canvas.Screen,0_3_0_1_0_1,right,response,,152267,152266.66,152266.88,154843,2576.1199999999953,154845,2021-10-26T11:38:13.683Z,154860.54,1635248129,full,ni_sequenzen,NI_Sequenzen,2,1,,,,,,,,,,,,
,Move,canvas.Screen,0_3_0_1_0_2,right,response,,154859,154858.48,154860.54,155421,560.4599999999919,155429,2021-10-26T11:38:14.266Z,155439.12,1635248129,full,ni_sequenzen,NI_Sequenzen,3,1,,,,,,,,,,,,
,Move,canvas.Screen,0_3_0_1_0_3,down,response,,155439,155438.86,155439.12,156187,747.8800000000047,156191,2021-10-26T11:38:15.029Z,156271.02,1635248129,full,ni_sequenzen,NI_Sequenzen,4,1,,,,,,,,,,,,
,Move,canvas.Screen,0_3_0_1_0_4,-999,skipped,,156200,,,156187,,156201,2021-10-26T11:38:15.039Z,156271.02,1635248129,full,ni_sequenzen,NI_Sequenzen,5,1,,,,,,,,,,,,
,Move,canvas.Screen,0_3_0_1_0_5,-999,skipped,,156208,,,156187,,156208,2021-10-26T11:38:15.046Z,156271.02,1635248129,full,ni_sequenzen,NI_Sequenzen,6,1,,,,,,,,,,,,
,Move,canvas.Screen,0_3_0_1_0_6,-999,skipped,,156214,,,156187,,156214,2021-10-26T11:38:15.053Z,156271.02,1635248129,full,ni_sequenzen,NI_Sequenzen,7,1,,,,,,,,,,,,
,Move,canvas.Screen,0_3_0_1_0_7,-999,skipped,,156221,,,156187,,156221,2021-10-26T11:38:15.060Z,156271.02,1635248129,full,ni_sequenzen,NI_Sequenzen,8,1,,,,,,,,,,,,
,Move,canvas.Screen,0_3_0_1_0_8,-999,skipped,,156227,,,156187,,156227,2021-10-26T11:38:15.065Z,156271.02,1635248129,full,ni_sequenzen,NI_Sequenzen,9,1,,,,,,,,,,,,
,Move,canvas.Screen,0_3_0_1_0_9,-999,skipped,,156234,,,156187,,156234,2021-10-26T11:38:15.072Z,156271.02,1635248129,full,ni_sequenzen,NI_Sequenzen,10,1,,,,,,,,,,,,
,Move,canvas.Screen,0_3_0_1_0_10,-999,skipped,,156240,,,156187,,156240,2021-10-26T11:38:15.078Z,156271.02,1635248129,full,ni_sequenzen,NI_Sequenzen,11,1,,,,,,,,,,,,
,Move,canvas.Screen,0_3_0_1_0_11,-999,skipped,,156246,,,156187,,156246,2021-10-26T11:38:15.085Z,156271.02,1635248129,full,ni_sequenzen,NI_Sequenzen,12,1,,,,,,,,,,,,
,Move,canvas.Screen,0_3_0_1_0_12,-999,skipped,,156251,,,156187,,156251,2021-10-26T11:38:15.090Z,156271.02,1635248129,full,ni_sequenzen,NI_Sequenzen,13,1,,,,,,,,,,,,
,Move,canvas.Screen,0_3_0_1_0_13,-999,skipped,,156258,,,156187,,156258,2021-10-26T11:38:15.097Z,156271.02,1635248129,full,ni_sequenzen,NI_Sequenzen,14,1,,,,,,,,,,,,
,Move,canvas.Screen,0_3_0_1_0_14,-999,skipped,,156263,,,156187,,156264,2021-10-26T11:38:15.102Z,156271.02,1635248129,full,ni_sequenzen,NI_Sequenzen,15,1,,,,,,,,,,,,
,Loop,flow.Loop,0_3_0_1_0,-999,completion,,149023,149030.8,149044.6,156187,7142.399999999994,156264,2021-10-26T11:38:15.102Z,156271.02,1635248129,full,ni_sequenzen,NI_Sequenzen,,1,,,,,,,,,,,,
,Feedback,canvas.Screen,0_3_0_1_1,,timeout,,156270,156270.8,156271.02,160259.82,4007.220000000001,160260,2021-10-26T11:38:19.098Z,160278.24,1635248129,full,ni_sequenzen,NI_Sequenzen,,1,,,,,,,,,,,,
,Trial,flow.Sequence,0_3_0_1,,completion,,149012,149030.8,149044.6,160259.82,11215.220000000001,160261,2021-10-26T11:38:19.099Z,160293.16,1635248129,full,ni_sequenzen,NI_Sequenzen,,1,,,,,,,,,,,,
,Move,canvas.Screen,0_3_0_2_0_0,right,response,,160279,160278.24,160293.16,166327,6033.8399999999965,166333,2021-10-26T11:38:25.171Z,166342.08,1635248129,full,ni_sequenzen,NI_Sequenzen,1,2,,,,,,,,,,,,
,Move,canvas.Screen,0_3_0_2_0_1,down,response,,166342,166341.9,166342.08,167264,921.9200000000128,167281,2021-10-26T11:38:26.120Z,167291.98,1635248129,full,ni_sequenzen,NI_Sequenzen,2,2,,,,,,,,,,,,
,Move,canvas.Screen,0_3_0_2_0_2,right,response,,167292,167291.74,167291.98,169671,2379.0199999999895,169676,2021-10-26T11:38:28.514Z,169684.9,1635248129,full,ni_sequenzen,NI_Sequenzen,3,2,,,,,,,,,,,,
,Move,canvas.Screen,0_3_0_2_0_3,down,response,,169685,169684.66,169684.9,170327,642.1000000000058,170331,2021-10-26T11:38:29.168Z,170410.7,1635248129,full,ni_sequenzen,NI_Sequenzen,4,2,,,,,,,,,,,,
,Move,canvas.Screen,0_3_0_2_0_4,-999,skipped,,170340,,,170327,,170340,2021-10-26T11:38:29.178Z,170410.7,1635248129,full,ni_sequenzen,NI_Sequenzen,5,2,,,,,,,,,,,,
,Move,canvas.Screen,0_3_0_2_0_5,-999,skipped,,170347,,,170327,,170347,2021-10-26T11:38:29.185Z,170410.7,1635248129,full,ni_sequenzen,NI_Sequenzen,6,2,,,,,,,,,,,,
,Move,canvas.Screen,0_3_0_2_0_6,-999,skipped,,170353,,,170327,,170354,2021-10-26T11:38:29.192Z,170410.7,1635248129,full,ni_sequenzen,NI_Sequenzen,7,2,,,,,,,,,,,,
,Move,canvas.Screen,0_3_0_2_0_7,-999,skipped,,170359,,,170327,,170360,2021-10-26T11:38:29.197Z,170410.7,1635248129,full,ni_sequenzen,NI_Sequenzen,8,2,,,,,,,,,,,,
,Move,canvas.Screen,0_3_0_2_0_8,-999,skipped,,170366,,,170327,,170366,2021-10-26T11:38:29.205Z,170410.7,1635248129,full,ni_sequenzen,NI_Sequenzen,9,2,,,,,,,,,,,,
,Move,canvas.Screen,0_3_0_2_0_9,-999,skipped,,170372,,,170327,,170372,2021-10-26T11:38:29.210Z,170410.7,1635248129,full,ni_sequenzen,NI_Sequenzen,10,2,,,,,,,,,,,,
,Move,canvas.Screen,0_3_0_2_0_10,-999,skipped,,170378,,,170327,,170378,2021-10-26T11:38:29.217Z,170410.7,1635248129,full,ni_sequenzen,NI_Sequenzen,11,2,,,,,,,,,,,,
,Move,canvas.Screen,0_3_0_2_0_11,-999,skipped,,170387,,,170327,,170387,2021-10-26T11:38:29.225Z,170410.7,1635248129,full,ni_sequenzen,NI_Sequenzen,12,2,,,,,,,,,,,,
,Move,canvas.Screen,0_3_0_2_0_12,-999,skipped,,170393,,,170327,,170393,2021-10-26T11:38:29.231Z,170410.7,1635248129,full,ni_sequenzen,NI_Sequenzen,13,2,,,,,,,,,,,,
,Move,canvas.Screen,0_3_0_2_0_13,-999,skipped,,170399,,,170327,,170399,2021-10-26T11:38:29.238Z,170410.7,1635248129,full,ni_sequenzen,NI_Sequenzen,14,2,,,,,,,,,,,,
,Move,canvas.Screen,0_3_0_2_0_14,-999,skipped,,170405,,,170327,,170405,2021-10-26T11:38:29.244Z,170410.7,1635248129,full,ni_sequenzen,NI_Sequenzen,15,2,,,,,,,,,,,,
,Loop,flow.Loop,0_3_0_2_0,-999,completion,,160272,160278.24,160293.16,170327,10033.839999999997,170405,2021-10-26T11:38:29.244Z,170410.7,1635248129,full,ni_sequenzen,NI_Sequenzen,,2,,,,,,,,,,,,
,Feedback,canvas.Screen,0_3_0_2_1,,timeout,,170410,170410.48,170410.7,174391.3,3998.679999999993,174392,2021-10-26T11:38:33.230Z,174409.38,1635248129,full,ni_sequenzen,NI_Sequenzen,,2,,,,,,,,,,,,
,Trial,flow.Sequence,0_3_0_2,,completion,,160261,160278.24,160293.16,174391.3,14098.139999999985,174393,2021-10-26T11:38:33.231Z,174424.64,1635248129,full,ni_sequenzen,NI_Sequenzen,,2,,,,,,,,,,,,
,Move,canvas.Screen,0_3_0_3_0_0,down,response,,174409,174409.38,174424.64,175843,1418.359999999986,175858,2021-10-26T11:38:34.696Z,175868.38,1635248129,full,ni_sequenzen,NI_Sequenzen,1,3,,,,,,,,,,,,
,Move,canvas.Screen,0_3_0_3_0_1,right,response,,175868,175868.14,175868.38,176420,551.6199999999953,176430,2021-10-26T11:38:35.268Z,176440.08,1635248129,full,ni_sequenzen,NI_Sequenzen,2,3,,,,,,,,,,,,
,Move,canvas.Screen,0_3_0_3_0_2,right,response,,176440,176439.86,176440.08,176654,213.9200000000128,176665,2021-10-26T11:38:35.504Z,176673.76,1635248129,full,ni_sequenzen,NI_Sequenzen,3,3,,,,,,,,,,,,
,Move,canvas.Screen,0_3_0_3_0_3,down,response,,176674,176673.58,176673.76,177343,669.2399999999907,177352,2021-10-26T11:38:36.191Z,177435.64,1635248129,full,ni_sequenzen,NI_Sequenzen,4,3,,,,,,,,,,,,
,Move,canvas.Screen,0_3_0_3_0_4,-999,skipped,,177361,,,177343,,177361,2021-10-26T11:38:36.200Z,177435.64,1635248129,full,ni_sequenzen,NI_Sequenzen,5,3,,,,,,,,,,,,
,Move,canvas.Screen,0_3_0_3_0_5,-999,skipped,,177369,,,177343,,177369,2021-10-26T11:38:36.207Z,177435.64,1635248129,full,ni_sequenzen,NI_Sequenzen,6,3,,,,,,,,,,,,
,Move,canvas.Screen,0_3_0_3_0_6,-999,skipped,,177375,,,177343,,177375,2021-10-26T11:38:36.213Z,177435.64,1635248129,full,ni_sequenzen,NI_Sequenzen,7,3,,,,,,,,,,,,
,Move,canvas.Screen,0_3_0_3_0_7,-999,skipped,,177381,,,177343,,177381,2021-10-26T11:38:36.219Z,177435.64,1635248129,full,ni_sequenzen,NI_Sequenzen,8,3,,,,,,,,,,,,
,Move,canvas.Screen,0_3_0_3_0_8,-999,skipped,,177387,,,177343,,177387,2021-10-26T11:38:36.225Z,177435.64,1635248129,full,ni_sequenzen,NI_Sequenzen,9,3,,,,,,,,,,,,
,Move,canvas.Screen,0_3_0_3_0_9,-999,skipped,,177394,,,177343,,177394,2021-10-26T11:38:36.232Z,177435.64,1635248129,full,ni_sequenzen,NI_Sequenzen,10,3,,,,,,,,,,,,
,Move,canvas.Screen,0_3_0_3_0_10,-999,skipped,,177400,,,177343,,177400,2021-10-26T11:38:36.238Z,177435.64,1635248129,full,ni_sequenzen,NI_Sequenzen,11,3,,,,,,,,,,,,
,Move,canvas.Screen,0_3_0_3_0_11,-999,skipped,,177406,,,177343,,177406,2021-10-26T11:38:36.245Z,177435.64,1635248129,full,ni_sequenzen,NI_Sequenzen,12,3,,,,,,,,,,,,
,Move,canvas.Screen,0_3_0_3_0_12,-999,skipped,,177412,,,177343,,177412,2021-10-26T11:38:36.250Z,177435.64,1635248129,full,ni_sequenzen,NI_Sequenzen,13,3,,,,,,,,,,,,
,Move,canvas.Screen,0_3_0_3_0_13,-999,skipped,,177420,,,177343,,177421,2021-10-26T11:38:36.259Z,177435.64,1635248129,full,ni_sequenzen,NI_Sequenzen,14,3,,,,,,,,,,,,
,Move,canvas.Screen,0_3_0_3_0_14,-999,skipped,,177427,,,177343,,177427,2021-10-26T11:38:36.266Z,177435.64,1635248129,full,ni_sequenzen,NI_Sequenzen,15,3,,,,,,,,,,,,
,Loop,flow.Loop,0_3_0_3_0,-999,completion,,174403,174409.38,174424.64,177343,2918.359999999986,177427,2021-10-26T11:38:36.266Z,177435.64,1635248129,full,ni_sequenzen,NI_Sequenzen,,3,,,,,,,,,,,,
,Feedback,canvas.Screen,0_3_0_3_1,,timeout,,177436,177435.38,177435.64,181423.72,4004.7399999999907,181425,2021-10-26T11:38:40.263Z,181440.38,1635248129,full,ni_sequenzen,NI_Sequenzen,,3,,,,,,,,,,,,
,Trial,flow.Sequence,0_3_0_3,,completion,,174393,174409.38,174424.64,181423.72,6999.079999999987,181425,2021-10-26T11:38:40.263Z,181457.04,1635248129,full,ni_sequenzen,NI_Sequenzen,,3,,,,,,,,,,,,
,Move,canvas.Screen,0_3_0_4_0_0,down,response,,181441,181440.38,181457.04,183467,2009.9599999999919,183476,2021-10-26T11:38:42.314Z,183492.3,1635248129,full,ni_sequenzen,NI_Sequenzen,1,4,,,,,,,,,,,,
,Move,canvas.Screen,0_3_0_4_0_1,right,response,,183492,183492.06,183492.3,184389,896.7000000000116,184403,2021-10-26T11:38:43.240Z,184416.78,1635248129,full,ni_sequenzen,NI_Sequenzen,2,4,,,,,,,,,,,,
,Move,canvas.Screen,0_3_0_4_0_2,right,response,,184416,184416.52,184416.78,184734,317.22000000000116,184744,2021-10-26T11:38:43.582Z,184758.52,1635248129,full,ni_sequenzen,NI_Sequenzen,3,4,,,,,,,,,,,,
,Move,canvas.Screen,0_3_0_4_0_3,down,response,,184758,184758.28,184758.52,185140,381.4800000000105,185155,2021-10-26T11:38:43.994Z,185252.72,1635248129,full,ni_sequenzen,NI_Sequenzen,4,4,,,,,,,,,,,,
,Move,canvas.Screen,0_3_0_4_0_4,-999,skipped,,185167,,,185140,,185167,2021-10-26T11:38:44.006Z,185252.72,1635248129,full,ni_sequenzen,NI_Sequenzen,5,4,,,,,,,,,,,,
,Move,canvas.Screen,0_3_0_4_0_5,-999,skipped,,185176,,,185140,,185176,2021-10-26T11:38:44.015Z,185252.72,1635248129,full,ni_sequenzen,NI_Sequenzen,6,4,,,,,,,,,,,,
,Move,canvas.Screen,0_3_0_4_0_6,-999,skipped,,185186,,,185140,,185186,2021-10-26T11:38:44.025Z,185252.72,1635248129,full,ni_sequenzen,NI_Sequenzen,7,4,,,,,,,,,,,,
,Move,canvas.Screen,0_3_0_4_0_7,-999,skipped,,185193,,,185140,,185194,2021-10-26T11:38:44.032Z,185252.72,1635248129,full,ni_sequenzen,NI_Sequenzen,8,4,,,,,,,,,,,,
,Move,canvas.Screen,0_3_0_4_0_8,-999,skipped,,185201,,,185140,,185201,2021-10-26T11:38:44.039Z,185252.72,1635248129,full,ni_sequenzen,NI_Sequenzen,9,4,,,,,,,,,,,,
,Move,canvas.Screen,0_3_0_4_0_9,-999,skipped,,185207,,,185140,,185208,2021-10-26T11:38:44.046Z,185252.72,1635248129,full,ni_sequenzen,NI_Sequenzen,10,4,,,,,,,,,,,,
,Move,canvas.Screen,0_3_0_4_0_10,-999,skipped,,185215,,,185140,,185216,2021-10-26T11:38:44.054Z,185252.72,1635248129,full,ni_sequenzen,NI_Sequenzen,11,4,,,,,,,,,,,,
,Move,canvas.Screen,0_3_0_4_0_11,-999,skipped,,185224,,,185140,,185224,2021-10-26T11:38:44.062Z,185252.72,1635248129,full,ni_sequenzen,NI_Sequenzen,12,4,,,,,,,,,,,,
,Move,canvas.Screen,0_3_0_4_0_12,-999,skipped,,185231,,,185140,,185231,2021-10-26T11:38:44.070Z,185252.72,1635248129,full,ni_sequenzen,NI_Sequenzen,13,4,,,,,,,,,,,,
,Move,canvas.Screen,0_3_0_4_0_13,-999,skipped,,185239,,,185140,,185239,2021-10-26T11:38:44.077Z,185252.72,1635248129,full,ni_sequenzen,NI_Sequenzen,14,4,,,,,,,,,,,,
,Move,canvas.Screen,0_3_0_4_0_14,-999,skipped,,185246,,,185140,,185246,2021-10-26T11:38:44.084Z,185252.72,1635248129,full,ni_sequenzen,NI_Sequenzen,15,4,,,,,,,,,,,,
,Loop,flow.Loop,0_3_0_4_0,-999,completion,,181435,181440.38,181457.04,185140,3682.959999999992,185247,2021-10-26T11:38:44.084Z,185252.72,1635248129,full,ni_sequenzen,NI_Sequenzen,,4,,,,,,,,,,,,
,Feedback,canvas.Screen,0_3_0_4_1,,timeout,,185253,185252.5,185252.72,189239.34,4018.6199999999953,189241,2021-10-26T11:38:48.079Z,189271.34,1635248129,full,ni_sequenzen,NI_Sequenzen,,4,,,,,,,,,,,,
,Trial,flow.Sequence,0_3_0_4,,completion,,181425,181440.38,181457.04,189239.34,7782.299999999988,189241,2021-10-26T11:38:48.079Z,189272.68,1635248129,full,ni_sequenzen,NI_Sequenzen,,4,,,,,,,,,,,,
,Move,canvas.Screen,0_3_0_5_0_0,down,response,,189272,189271.34,189272.68,190702,1429.320000000007,190708,2021-10-26T11:38:49.546Z,190717.96,1635248129,full,ni_sequenzen,NI_Sequenzen,1,5,,,,,,,,,,,,
,Move,canvas.Screen,0_3_0_5_0_1,right,response,,190718,190717.72,190717.96,192202,1484.0400000000081,192207,2021-10-26T11:38:51.046Z,192218.68,1635248129,full,ni_sequenzen,NI_Sequenzen,2,5,,,,,,,,,,,,
,Move,canvas.Screen,0_3_0_5_0_2,right,response,,192218,192218.4,192218.68,192484,265.320000000007,192494,2021-10-26T11:38:51.332Z,192505.62,1635248129,full,ni_sequenzen,NI_Sequenzen,3,5,,,,,,,,,,,,
,Move,canvas.Screen,0_3_0_5_0_3,down,response,,192504,192503.82,192505.62,192780,274.38000000000466,192796,2021-10-26T11:38:51.633Z,192888.96,1635248129,full,ni_sequenzen,NI_Sequenzen,4,5,,,,,,,,,,,,
,Move,canvas.Screen,0_3_0_5_0_4,-999,skipped,,192804,,,192780,,192804,2021-10-26T11:38:51.642Z,192888.96,1635248129,full,ni_sequenzen,NI_Sequenzen,5,5,,,,,,,,,,,,
,Move,canvas.Screen,0_3_0_5_0_5,-999,skipped,,192811,,,192780,,192811,2021-10-26T11:38:51.649Z,192888.96,1635248129,full,ni_sequenzen,NI_Sequenzen,6,5,,,,,,,,,,,,
,Move,canvas.Screen,0_3_0_5_0_6,-999,skipped,,192820,,,192780,,192820,2021-10-26T11:38:51.657Z,192888.96,1635248129,full,ni_sequenzen,NI_Sequenzen,7,5,,,,,,,,,,,,
,Move,canvas.Screen,0_3_0_5_0_7,-999,skipped,,192828,,,192780,,192828,2021-10-26T11:38:51.666Z,192888.96,1635248129,full,ni_sequenzen,NI_Sequenzen,8,5,,,,,,,,,,,,
,Move,canvas.Screen,0_3_0_5_0_8,-999,skipped,,192838,,,192780,,192838,2021-10-26T11:38:51.675Z,192888.96,1635248129,full,ni_sequenzen,NI_Sequenzen,9,5,,,,,,,,,,,,
,Move,canvas.Screen,0_3_0_5_0_9,-999,skipped,,192845,,,192780,,192845,2021-10-26T11:38:51.683Z,192888.96,1635248129,full,ni_sequenzen,NI_Sequenzen,10,5,,,,,,,,,,,,
,Move,canvas.Screen,0_3_0_5_0_10,-999,skipped,,192851,,,192780,,192851,2021-10-26T11:38:51.688Z,192888.96,1635248129,full,ni_sequenzen,NI_Sequenzen,11,5,,,,,,,,,,,,
,Move,canvas.Screen,0_3_0_5_0_11,-999,skipped,,192859,,,192780,,192859,2021-10-26T11:38:51.697Z,192888.96,1635248129,full,ni_sequenzen,NI_Sequenzen,12,5,,,,,,,,,,,,
,Move,canvas.Screen,0_3_0_5_0_12,-999,skipped,,192865,,,192780,,192865,2021-10-26T11:38:51.703Z,192888.96,1635248129,full,ni_sequenzen,NI_Sequenzen,13,5,,,,,,,,,,,,
,Move,canvas.Screen,0_3_0_5_0_13,-999,skipped,,192871,,,192780,,192872,2021-10-26T11:38:51.710Z,192888.96,1635248129,full,ni_sequenzen,NI_Sequenzen,14,5,,,,,,,,,,,,
,Move,canvas.Screen,0_3_0_5_0_14,-999,skipped,,192878,,,192780,,192878,2021-10-26T11:38:51.716Z,192888.96,1635248129,full,ni_sequenzen,NI_Sequenzen,15,5,,,,,,,,,,,,
,Loop,flow.Loop,0_3_0_5_0,-999,completion,,189264,189271.34,189272.68,192780,3507.320000000007,192878,2021-10-26T11:38:51.716Z,192888.96,1635248129,full,ni_sequenzen,NI_Sequenzen,,5,,,,,,,,,,,,
,Feedback,canvas.Screen,0_3_0_5_1,,timeout,,192883,192882.9,192888.96,196871.7,4006.7600000000093,196872,2021-10-26T11:38:55.711Z,196895.72,1635248129,full,ni_sequenzen,NI_Sequenzen,,5,,,,,,,,,,,,
,Trial,flow.Sequence,0_3_0_5,,completion,,189242,189271.34,189272.68,196871.7,7599.020000000019,196872,2021-10-26T11:38:55.711Z,196905.04,1635248129,full,ni_sequenzen,NI_Sequenzen,,5,,,,,,,,,,,,
,Move,canvas.Screen,0_3_0_6_0_0,down,response,,196896,196895.72,196905.04,197921,1015.9599999999919,197929,2021-10-26T11:38:56.768Z,197940,1635248129,full,ni_sequenzen,NI_Sequenzen,1,6,,,,,,,,,,,,
,Move,canvas.Screen,0_3_0_6_0_1,right,response,,197940,197939.78,197940,198265,325,198276,2021-10-26T11:38:57.114Z,198284.76,1635248129,full,ni_sequenzen,NI_Sequenzen,2,6,,,,,,,,,,,,
,Move,canvas.Screen,0_3_0_6_0_2,right,response,,198284,198284.6,198284.76,198514,229.2399999999907,198528,2021-10-26T11:38:57.366Z,198538.3,1635248129,full,ni_sequenzen,NI_Sequenzen,3,6,,,,,,,,,,,,
,Move,canvas.Screen,0_3_0_6_0_3,down,response,,198538,198538.02,198538.3,198733,194.70000000001164,198750,2021-10-26T11:38:57.588Z,198838.16,1635248129,full,ni_sequenzen,NI_Sequenzen,4,6,,,,,,,,,,,,
,Move,canvas.Screen,0_3_0_6_0_4,-999,skipped,,198758,,,198733,,198758,2021-10-26T11:38:57.597Z,198838.16,1635248129,full,ni_sequenzen,NI_Sequenzen,5,6,,,,,,,,,,,,
,Move,canvas.Screen,0_3_0_6_0_5,-999,skipped,,198766,,,198733,,198766,2021-10-26T11:38:57.603Z,198838.16,1635248129,full,ni_sequenzen,NI_Sequenzen,6,6,,,,,,,,,,,,
,Move,canvas.Screen,0_3_0_6_0_6,-999,skipped,,198773,,,198733,,198773,2021-10-26T11:38:57.611Z,198838.16,1635248129,full,ni_sequenzen,NI_Sequenzen,7,6,,,,,,,,,,,,
,Move,canvas.Screen,0_3_0_6_0_7,-999,skipped,,198779,,,198733,,198779,2021-10-26T11:38:57.616Z,198838.16,1635248129,full,ni_sequenzen,NI_Sequenzen,8,6,,,,,,,,,,,,
,Move,canvas.Screen,0_3_0_6_0_8,-999,skipped,,198786,,,198733,,198786,2021-10-26T11:38:57.624Z,198838.16,1635248129,full,ni_sequenzen,NI_Sequenzen,9,6,,,,,,,,,,,,
,Move,canvas.Screen,0_3_0_6_0_9,-999,skipped,,198792,,,198733,,198792,2021-10-26T11:38:57.630Z,198838.16,1635248129,full,ni_sequenzen,NI_Sequenzen,10,6,,,,,,,,,,,,
,Move,canvas.Screen,0_3_0_6_0_10,-999,skipped,,198798,,,198733,,198798,2021-10-26T11:38:57.636Z,198838.16,1635248129,full,ni_sequenzen,NI_Sequenzen,11,6,,,,,,,,,,,,
,Move,canvas.Screen,0_3_0_6_0_11,-999,skipped,,198805,,,198733,,198805,2021-10-26T11:38:57.643Z,198838.16,1635248129,full,ni_sequenzen,NI_Sequenzen,12,6,,,,,,,,,,,,
,Move,canvas.Screen,0_3_0_6_0_12,-999,skipped,,198811,,,198733,,198811,2021-10-26T11:38:57.650Z,198838.16,1635248129,full,ni_sequenzen,NI_Sequenzen,13,6,,,,,,,,,,,,
,Move,canvas.Screen,0_3_0_6_0_13,-999,skipped,,198820,,,198733,,198820,2021-10-26T11:38:57.658Z,198838.16,1635248129,full,ni_sequenzen,NI_Sequenzen,14,6,,,,,,,,,,,,
,Move,canvas.Screen,0_3_0_6_0_14,-999,skipped,,198828,,,198733,,198828,2021-10-26T11:38:57.666Z,198838.16,1635248129,full,ni_sequenzen,NI_Sequenzen,15,6,,,,,,,,,,,,
,Loop,flow.Loop,0_3_0_6_0,-999,completion,,196888,196895.72,196905.04,198733,1827.9599999999919,198828,2021-10-26T11:38:57.666Z,198838.16,1635248129,full,ni_sequenzen,NI_Sequenzen,,6,,,,,,,,,,,,
,Feedback,canvas.Screen,0_3_0_6_1,,timeout,,198836,198836,198838.16,202820.9,4002.4400000000023,202821,2021-10-26T11:39:01.659Z,202840.6,1635248129,full,ni_sequenzen,NI_Sequenzen,,6,,,,,,,,,,,,
,Trial,flow.Sequence,0_3_0_6,,completion,,196874,196895.72,196905.04,202820.9,5915.859999999986,202821,2021-10-26T11:39:01.660Z,202854.24,1635248129,full,ni_sequenzen,NI_Sequenzen,,6,,,,,,,,,,,,
,Move,canvas.Screen,0_3_0_7_0_0,down,response,,202840,202840.6,202854.24,206046,3191.7600000000093,206061,2021-10-26T11:39:04.899Z,206071.78,1635248129,full,ni_sequenzen,NI_Sequenzen,1,7,,,,,,,,,,,,
,Move,canvas.Screen,0_3_0_7_0_1,right,response,,206072,206071.52,206071.78,206389,317.22000000000116,206405,2021-10-26T11:39:05.244Z,206424.24,1635248129,full,ni_sequenzen,NI_Sequenzen,2,7,,,,,,,,,,,,
,Move,canvas.Screen,0_3_0_7_0_2,right,response,,206424,206423.92,206424.24,206654,229.7600000000093,206658,2021-10-26T11:39:05.497Z,206670.44,1635248129,full,ni_sequenzen,NI_Sequenzen,3,7,,,,,,,,,,,,
,Move,canvas.Screen,0_3_0_7_0_3,down,response,,206669,206668.26,206670.44,206937,266.5599999999977,206947,2021-10-26T11:39:05.784Z,207024.72,1635248129,full,ni_sequenzen,NI_Sequenzen,4,7,,,,,,,,,,,,
,Move,canvas.Screen,0_3_0_7_0_4,-999,skipped,,206957,,,206937,,206957,2021-10-26T11:39:05.794Z,207024.72,1635248129,full,ni_sequenzen,NI_Sequenzen,5,7,,,,,,,,,,,,
,Move,canvas.Screen,0_3_0_7_0_5,-999,skipped,,206963,,,206937,,206963,2021-10-26T11:39:05.801Z,207024.72,1635248129,full,ni_sequenzen,NI_Sequenzen,6,7,,,,,,,,,,,,
,Move,canvas.Screen,0_3_0_7_0_6,-999,skipped,,206969,,,206937,,206969,2021-10-26T11:39:05.807Z,207024.72,1635248129,full,ni_sequenzen,NI_Sequenzen,7,7,,,,,,,,,,,,
,Move,canvas.Screen,0_3_0_7_0_7,-999,skipped,,206975,,,206937,,206975,2021-10-26T11:39:05.814Z,207024.72,1635248129,full,ni_sequenzen,NI_Sequenzen,8,7,,,,,,,,,,,,
,Move,canvas.Screen,0_3_0_7_0_8,-999,skipped,,206981,,,206937,,206981,2021-10-26T11:39:05.819Z,207024.72,1635248129,full,ni_sequenzen,NI_Sequenzen,9,7,,,,,,,,,,,,
,Move,canvas.Screen,0_3_0_7_0_9,-999,skipped,,206988,,,206937,,206988,2021-10-26T11:39:05.827Z,207024.72,1635248129,full,ni_sequenzen,NI_Sequenzen,10,7,,,,,,,,,,,,
,Move,canvas.Screen,0_3_0_7_0_10,-999,skipped,,206994,,,206937,,206994,2021-10-26T11:39:05.833Z,207024.72,1635248129,full,ni_sequenzen,NI_Sequenzen,11,7,,,,,,,,,,,,
,Move,canvas.Screen,0_3_0_7_0_11,-999,skipped,,207000,,,206937,,207000,2021-10-26T11:39:05.839Z,207024.72,1635248129,full,ni_sequenzen,NI_Sequenzen,12,7,,,,,,,,,,,,
,Move,canvas.Screen,0_3_0_7_0_12,-999,skipped,,207008,,,206937,,207008,2021-10-26T11:39:05.846Z,207024.72,1635248129,full,ni_sequenzen,NI_Sequenzen,13,7,,,,,,,,,,,,
,Move,canvas.Screen,0_3_0_7_0_13,-999,skipped,,207013,,,206937,,207013,2021-10-26T11:39:05.852Z,207024.72,1635248129,full,ni_sequenzen,NI_Sequenzen,14,7,,,,,,,,,,,,
,Move,canvas.Screen,0_3_0_7_0_14,-999,skipped,,207019,,,206937,,207019,2021-10-26T11:39:05.857Z,207024.72,1635248129,full,ni_sequenzen,NI_Sequenzen,15,7,,,,,,,,,,,,
,Loop,flow.Loop,0_3_0_7_0,-999,completion,,202833,202840.6,202854.24,206937,4082.7600000000093,207019,2021-10-26T11:39:05.857Z,207024.72,1635248129,full,ni_sequenzen,NI_Sequenzen,,7,,,,,,,,,,,,
,Feedback,canvas.Screen,0_3_0_7_1,,timeout,,207025,207024.44,207024.72,211003.18,3995.1199999999953,211004,2021-10-26T11:39:09.843Z,211019.84,1635248129,full,ni_sequenzen,NI_Sequenzen,,7,,,,,,,,,,,,
,Trial,flow.Sequence,0_3_0_7,,completion,,202822,202840.6,202854.24,211003.18,8148.940000000002,211005,2021-10-26T11:39:09.843Z,211036.52,1635248129,full,ni_sequenzen,NI_Sequenzen,,7,,,,,,,,,,,,
,Move,canvas.Screen,0_3_0_8_0_0,down,response,,211020,211019.84,211036.52,211749,712.4800000000105,211761,2021-10-26T11:39:10.599Z,211771.22,1635248129,full,ni_sequenzen,NI_Sequenzen,1,8,,,,,,,,,,,,
,Move,canvas.Screen,0_3_0_8_0_1,right,response,,211771,211771.06,211771.22,212077,305.77999999999884,212081,2021-10-26T11:39:10.920Z,212090.68,1635248129,full,ni_sequenzen,NI_Sequenzen,2,8,,,,,,,,,,,,
,Move,canvas.Screen,0_3_0_8_0_2,right,response,,212091,212090.46,212090.68,212296,205.32000000000698,212303,2021-10-26T11:39:11.141Z,212312,1635248129,full,ni_sequenzen,NI_Sequenzen,3,8,,,,,,,,,,,,
,Move,canvas.Screen,0_3_0_8_0_3,down,response,,212311,212311.82,212312,212515,203,212521,2021-10-26T11:39:11.359Z,212619.88,1635248129,full,ni_sequenzen,NI_Sequenzen,4,8,,,,,,,,,,,,
,Move,canvas.Screen,0_3_0_8_0_4,-999,skipped,,212533,,,212515,,212533,2021-10-26T11:39:11.372Z,212619.88,1635248129,full,ni_sequenzen,NI_Sequenzen,5,8,,,,,,,,,,,,
,Move,canvas.Screen,0_3_0_8_0_5,-999,skipped,,212541,,,212515,,212541,2021-10-26T11:39:11.380Z,212619.88,1635248129,full,ni_sequenzen,NI_Sequenzen,6,8,,,,,,,,,,,,
,Move,canvas.Screen,0_3_0_8_0_6,-999,skipped,,212552,,,212515,,212552,2021-10-26T11:39:11.391Z,212619.88,1635248129,full,ni_sequenzen,NI_Sequenzen,7,8,,,,,,,,,,,,
,Move,canvas.Screen,0_3_0_8_0_7,-999,skipped,,212559,,,212515,,212560,2021-10-26T11:39:11.398Z,212619.88,1635248129,full,ni_sequenzen,NI_Sequenzen,8,8,,,,,,,,,,,,
,Move,canvas.Screen,0_3_0_8_0_8,-999,skipped,,212573,,,212515,,212573,2021-10-26T11:39:11.411Z,212619.88,1635248129,full,ni_sequenzen,NI_Sequenzen,9,8,,,,,,,,,,,,
,Move,canvas.Screen,0_3_0_8_0_9,-999,skipped,,212579,,,212515,,212579,2021-10-26T11:39:11.417Z,212619.88,1635248129,full,ni_sequenzen,NI_Sequenzen,10,8,,,,,,,,,,,,
,Move,canvas.Screen,0_3_0_8_0_10,-999,skipped,,212585,,,212515,,212585,2021-10-26T11:39:11.423Z,212619.88,1635248129,full,ni_sequenzen,NI_Sequenzen,11,8,,,,,,,,,,,,
,Move,canvas.Screen,0_3_0_8_0_11,-999,skipped,,212590,,,212515,,212590,2021-10-26T11:39:11.429Z,212619.88,1635248129,full,ni_sequenzen,NI_Sequenzen,12,8,,,,,,,,,,,,
,Move,canvas.Screen,0_3_0_8_0_12,-999,skipped,,212597,,,212515,,212597,2021-10-26T11:39:11.436Z,212619.88,1635248129,full,ni_sequenzen,NI_Sequenzen,13,8,,,,,,,,,,,,
,Move,canvas.Screen,0_3_0_8_0_13,-999,skipped,,212603,,,212515,,212603,2021-10-26T11:39:11.441Z,212619.88,1635248129,full,ni_sequenzen,NI_Sequenzen,14,8,,,,,,,,,,,,
,Move,canvas.Screen,0_3_0_8_0_14,-999,skipped,,212609,,,212515,,212610,2021-10-26T11:39:11.448Z,212619.88,1635248129,full,ni_sequenzen,NI_Sequenzen,15,8,,,,,,,,,,,,
,Loop,flow.Loop,0_3_0_8_0,-999,completion,,211014,211019.84,211036.52,212515,1478.4800000000105,212611,2021-10-26T11:39:11.449Z,212619.88,1635248129,full,ni_sequenzen,NI_Sequenzen,,8,,,,,,,,,,,,
,Feedback,canvas.Screen,0_3_0_8_1,,timeout,,212617,212617.52,212619.88,216602.44,4000.5,216603,2021-10-26T11:39:15.441Z,216620.38,1635248129,full,ni_sequenzen,NI_Sequenzen,,8,,,,,,,,,,,,
,Trial,flow.Sequence,0_3_0_8,,completion,,211006,211019.84,211036.52,216602.44,5565.920000000013,216603,2021-10-26T11:39:15.442Z,216635.78,1635248129,full,ni_sequenzen,NI_Sequenzen,,8,,,,,,,,,,,,
,Move,canvas.Screen,0_3_0_9_0_0,down,response,,216621,216620.38,216635.78,217468,832.2200000000012,217480,2021-10-26T11:39:16.319Z,217490.26,1635248129,full,ni_sequenzen,NI_Sequenzen,1,9,,,,,,,,,,,,
,Move,canvas.Screen,0_3_0_9_0_1,left,response,,217490,217489.94,217490.26,218326,835.7399999999907,218332,2021-10-26T11:39:17.170Z,218341.06,1635248129,full,ni_sequenzen,NI_Sequenzen,2,9,,,,,,,,,,,,
,Move,canvas.Screen,0_3_0_9_0_2,down,response,,218341,218340.88,218341.06,219311,969.9400000000023,219325,2021-10-26T11:39:18.164Z,219336.22,1635248129,full,ni_sequenzen,NI_Sequenzen,3,9,,,,,,,,,,,,
,Move,canvas.Screen,0_3_0_9_0_3,left,response,,219336,219335.96,219336.22,221140,1803.7799999999988,221148,2021-10-26T11:39:19.986Z,221228.42,1635248129,full,ni_sequenzen,NI_Sequenzen,4,9,,,,,,,,,,,,
,Move,canvas.Screen,0_3_0_9_0_4,-999,skipped,,221158,,,221140,,221158,2021-10-26T11:39:19.996Z,221228.42,1635248129,full,ni_sequenzen,NI_Sequenzen,5,9,,,,,,,,,,,,
,Move,canvas.Screen,0_3_0_9_0_5,-999,skipped,,221165,,,221140,,221165,2021-10-26T11:39:20.003Z,221228.42,1635248129,full,ni_sequenzen,NI_Sequenzen,6,9,,,,,,,,,,,,
,Move,canvas.Screen,0_3_0_9_0_6,-999,skipped,,221171,,,221140,,221171,2021-10-26T11:39:20.009Z,221228.42,1635248129,full,ni_sequenzen,NI_Sequenzen,7,9,,,,,,,,,,,,
,Move,canvas.Screen,0_3_0_9_0_7,-999,skipped,,221176,,,221140,,221176,2021-10-26T11:39:20.015Z,221228.42,1635248129,full,ni_sequenzen,NI_Sequenzen,8,9,,,,,,,,,,,,
,Move,canvas.Screen,0_3_0_9_0_8,-999,skipped,,221183,,,221140,,221183,2021-10-26T11:39:20.021Z,221228.42,1635248129,full,ni_sequenzen,NI_Sequenzen,9,9,,,,,,,,,,,,
,Move,canvas.Screen,0_3_0_9_0_9,-999,skipped,,221189,,,221140,,221189,2021-10-26T11:39:20.027Z,221228.42,1635248129,full,ni_sequenzen,NI_Sequenzen,10,9,,,,,,,,,,,,
,Move,canvas.Screen,0_3_0_9_0_10,-999,skipped,,221196,,,221140,,221196,2021-10-26T11:39:20.034Z,221228.42,1635248129,full,ni_sequenzen,NI_Sequenzen,11,9,,,,,,,,,,,,
,Move,canvas.Screen,0_3_0_9_0_11,-999,skipped,,221202,,,221140,,221202,2021-10-26T11:39:20.040Z,221228.42,1635248129,full,ni_sequenzen,NI_Sequenzen,12,9,,,,,,,,,,,,
,Move,canvas.Screen,0_3_0_9_0_12,-999,skipped,,221207,,,221140,,221208,2021-10-26T11:39:20.046Z,221228.42,1635248129,full,ni_sequenzen,NI_Sequenzen,13,9,,,,,,,,,,,,
,Move,canvas.Screen,0_3_0_9_0_13,-999,skipped,,221214,,,221140,,221214,2021-10-26T11:39:20.052Z,221228.42,1635248129,full,ni_sequenzen,NI_Sequenzen,14,9,,,,,,,,,,,,
,Move,canvas.Screen,0_3_0_9_0_14,-999,skipped,,221223,,,221140,,221223,2021-10-26T11:39:20.061Z,221228.42,1635248129,full,ni_sequenzen,NI_Sequenzen,15,9,,,,,,,,,,,,
,Loop,flow.Loop,0_3_0_9_0,-999,completion,,216615,216620.38,216635.78,221140,4504.220000000001,221224,2021-10-26T11:39:20.062Z,221228.42,1635248129,full,ni_sequenzen,NI_Sequenzen,,9,,,,,,,,,,,,
,Feedback,canvas.Screen,0_3_0_9_1,,timeout,,221228,221228.14,221228.42,225217.98,4064.319999999978,225219,2021-10-26T11:39:24.057Z,225292.74,1635248129,full,ni_sequenzen,NI_Sequenzen,,9,,,,,,,,,,,,
,Trial,flow.Sequence,0_3_0_9,,completion,,216604,216620.38,216635.78,225217.98,8582.200000000012,225219,2021-10-26T11:39:24.057Z,225301.3,1635248129,full,ni_sequenzen,NI_Sequenzen,,9,,,,,,,,,,,,
,Block,flow.Loop,0_3_0,,completion,,135401,135418.98,135430.02,225217.98,89787.96000000002,225219,2021-10-26T11:39:24.057Z,225301.3,1635248129,full,ni_sequenzen,NI_Sequenzen,,,,,,,,,,,,,,
,Training_II,flow.Sequence,0_3,,completion,,135371,135418.98,135430.02,225217.98,89787.96000000002,225220,2021-10-26T11:39:24.058Z,225301.3,1635248129,full,ni_sequenzen,NI_Sequenzen,,,,,,,,,,,,,,
,Screen_1,canvas.Screen,0_4_0_0,cont,response,1,225292,225292.74,225301.3,232624,7322.700000000012,232634,2021-10-26T11:39:31.472Z,232650.42,1635248129,full,ni_sequenzen,NI_Sequenzen,,,,,,,,,,,,,,
,Screen_2,canvas.Screen,0_4_0_1,cont,response,1,232636,232636.72,232650.42,241015,8364.579999999987,241024,2021-10-26T11:39:39.862Z,241115.92,1635248129,full,ni_sequenzen,NI_Sequenzen,,,,,,,,,,,,,,
,Screen_3,canvas.Screen,0_4_0_2,cont,response,1,241105,241104.42,241115.92,251796,10680.079999999987,251802,2021-10-26T11:39:50.640Z,252070.7,1635248129,full,ni_sequenzen,NI_Sequenzen,,,,,,,,,,,,,,
,Sequence,flow.Sequence,0_4_0,,completion,1,225249,225292.74,225301.3,251796,26494.70000000001,251806,2021-10-26T11:39:50.644Z,252070.7,1635248129,full,ni_sequenzen,NI_Sequenzen,,,,,,,,,,,,,,
,Screen_1,canvas.Screen,0_4_1_0,,skipped,2,251814,,,251814,,251814,2021-10-26T11:39:50.652Z,252070.7,1635248129,full,ni_sequenzen,NI_Sequenzen,,,,,,,,,,,,,,
,Screen_2,canvas.Screen,0_4_1_1,,skipped,2,251817,,,251814,,251817,2021-10-26T11:39:50.656Z,252070.7,1635248129,full,ni_sequenzen,NI_Sequenzen,,,,,,,,,,,,,,
,Screen_3,canvas.Screen,0_4_1_2,,skipped,2,251820,,,251814,,251820,2021-10-26T11:39:50.659Z,252070.7,1635248129,full,ni_sequenzen,NI_Sequenzen,,,,,,,,,,,,,,
,Sequence,flow.Sequence,0_4_1,,completion,2,251809,,,251814,,251821,2021-10-26T11:39:50.659Z,252070.7,1635248129,full,ni_sequenzen,NI_Sequenzen,,,,,,,,,,,,,,
,Screen_1,canvas.Screen,0_4_2_0,,skipped,3,251826,,,251826,,251826,2021-10-26T11:39:50.664Z,252070.7,1635248129,full,ni_sequenzen,NI_Sequenzen,,,,,,,,,,,,,,
,Screen_2,canvas.Screen,0_4_2_1,,skipped,3,251828,,,251826,,251828,2021-10-26T11:39:50.667Z,252070.7,1635248129,full,ni_sequenzen,NI_Sequenzen,,,,,,,,,,,,,,
,Screen_3,canvas.Screen,0_4_2_2,,skipped,3,251831,,,251826,,251831,2021-10-26T11:39:50.670Z,252070.7,1635248129,full,ni_sequenzen,NI_Sequenzen,,,,,,,,,,,,,,
,Sequence,flow.Sequence,0_4_2,,completion,3,251823,,,251826,,251832,2021-10-26T11:39:50.671Z,252070.7,1635248129,full,ni_sequenzen,NI_Sequenzen,,,,,,,,,,,,,,
,Screen_1,canvas.Screen,0_4_3_0,,skipped,4,251837,,,251837,,251837,2021-10-26T11:39:50.675Z,252070.7,1635248129,full,ni_sequenzen,NI_Sequenzen,,,,,,,,,,,,,,
,Screen_2,canvas.Screen,0_4_3_1,,skipped,4,251840,,,251837,,251841,2021-10-26T11:39:50.679Z,252070.7,1635248129,full,ni_sequenzen,NI_Sequenzen,,,,,,,,,,,,,,
,Screen_3,canvas.Screen,0_4_3_2,,skipped,4,251843,,,251837,,251843,2021-10-26T11:39:50.682Z,252070.7,1635248129,full,ni_sequenzen,NI_Sequenzen,,,,,,,,,,,,,,
,Sequence,flow.Sequence,0_4_3,,completion,4,251834,,,251837,,251844,2021-10-26T11:39:50.682Z,252070.7,1635248129,full,ni_sequenzen,NI_Sequenzen,,,,,,,,,,,,,,
,Screen_1,canvas.Screen,0_4_4_0,,skipped,5,251850,,,251850,,251850,2021-10-26T11:39:50.688Z,252070.7,1635248129,full,ni_sequenzen,NI_Sequenzen,,,,,,,,,,,,,,
,Screen_2,canvas.Screen,0_4_4_1,,skipped,5,251852,,,251850,,251852,2021-10-26T11:39:50.690Z,252070.7,1635248129,full,ni_sequenzen,NI_Sequenzen,,,,,,,,,,,,,,
,Screen_3,canvas.Screen,0_4_4_2,,skipped,5,251854,,,251850,,251855,2021-10-26T11:39:50.693Z,252070.7,1635248129,full,ni_sequenzen,NI_Sequenzen,,,,,,,,,,,,,,
,Sequence,flow.Sequence,0_4_4,,completion,5,251846,,,251850,,251855,2021-10-26T11:39:50.693Z,252070.7,1635248129,full,ni_sequenzen,NI_Sequenzen,,,,,,,,,,,,,,
,Screen_1,canvas.Screen,0_4_5_0,,skipped,6,251856,,,251856,,251857,2021-10-26T11:39:50.695Z,252070.7,1635248129,full,ni_sequenzen,NI_Sequenzen,,,,,,,,,,,,,,
,Screen_2,canvas.Screen,0_4_5_1,,skipped,6,251859,,,251856,,251859,2021-10-26T11:39:50.697Z,252070.7,1635248129,full,ni_sequenzen,NI_Sequenzen,,,,,,,,,,,,,,
,Screen_3,canvas.Screen,0_4_5_2,,skipped,6,251861,,,251856,,251861,2021-10-26T11:39:50.700Z,252070.7,1635248129,full,ni_sequenzen,NI_Sequenzen,,,,,,,,,,,,,,
,Sequence,flow.Sequence,0_4_5,,completion,6,251855,,,251856,,251861,2021-10-26T11:39:50.700Z,252070.7,1635248129,full,ni_sequenzen,NI_Sequenzen,,,,,,,,,,,,,,
,Screen_1,canvas.Screen,0_4_6_0,,skipped,7,251866,,,251866,,251866,2021-10-26T11:39:50.704Z,252070.7,1635248129,full,ni_sequenzen,NI_Sequenzen,,,,,,,,,,,,,,
,Screen_2,canvas.Screen,0_4_6_1,,skipped,7,251868,,,251866,,251868,2021-10-26T11:39:50.706Z,252070.7,1635248129,full,ni_sequenzen,NI_Sequenzen,,,,,,,,,,,,,,
,Screen_3,canvas.Screen,0_4_6_2,,skipped,7,251870,,,251866,,251870,2021-10-26T11:39:50.708Z,252070.7,1635248129,full,ni_sequenzen,NI_Sequenzen,,,,,,,,,,,,,,
,Sequence,flow.Sequence,0_4_6,,completion,7,251862,,,251866,,251870,2021-10-26T11:39:50.708Z,252070.7,1635248129,full,ni_sequenzen,NI_Sequenzen,,,,,,,,,,,,,,
,Screen_1,canvas.Screen,0_4_7_0,,skipped,8,251873,,,251873,,251873,2021-10-26T11:39:50.711Z,252070.7,1635248129,full,ni_sequenzen,NI_Sequenzen,,,,,,,,,,,,,,
,Screen_2,canvas.Screen,0_4_7_1,,skipped,8,251875,,,251873,,251875,2021-10-26T11:39:50.713Z,252070.7,1635248129,full,ni_sequenzen,NI_Sequenzen,,,,,,,,,,,,,,
,Screen_3,canvas.Screen,0_4_7_2,,skipped,8,251878,,,251873,,251878,2021-10-26T11:39:50.715Z,252070.7,1635248129,full,ni_sequenzen,NI_Sequenzen,,,,,,,,,,,,,,
,Sequence,flow.Sequence,0_4_7,,completion,8,251871,,,251873,,251878,2021-10-26T11:39:50.716Z,252070.7,1635248129,full,ni_sequenzen,NI_Sequenzen,,,,,,,,,,,,,,
,Screen_1,canvas.Screen,0_4_8_0,,skipped,9,251880,,,251880,,251881,2021-10-26T11:39:50.719Z,252070.7,1635248129,full,ni_sequenzen,NI_Sequenzen,,,,,,,,,,,,,,
,Screen_2,canvas.Screen,0_4_8_1,,skipped,9,251884,,,251880,,251884,2021-10-26T11:39:50.723Z,252070.7,1635248129,full,ni_sequenzen,NI_Sequenzen,,,,,,,,,,,,,,
,Screen_3,canvas.Screen,0_4_8_2,,skipped,9,251886,,,251880,,251886,2021-10-26T11:39:50.724Z,252070.7,1635248129,full,ni_sequenzen,NI_Sequenzen,,,,,,,,,,,,,,
,Sequence,flow.Sequence,0_4_8,,completion,9,251879,,,251880,,251886,2021-10-26T11:39:50.725Z,252070.7,1635248129,full,ni_sequenzen,NI_Sequenzen,,,,,,,,,,,,,,
,Screen_1,canvas.Screen,0_4_9_0,,skipped,10,251888,,,251888,,251889,2021-10-26T11:39:50.727Z,252070.7,1635248129,full,ni_sequenzen,NI_Sequenzen,,,,,,,,,,,,,,
,Screen_2,canvas.Screen,0_4_9_1,,skipped,10,251891,,,251888,,251891,2021-10-26T11:39:50.729Z,252070.7,1635248129,full,ni_sequenzen,NI_Sequenzen,,,,,,,,,,,,,,
,Screen_3,canvas.Screen,0_4_9_2,,skipped,10,251893,,,251888,,251893,2021-10-26T11:39:50.731Z,252070.7,1635248129,full,ni_sequenzen,NI_Sequenzen,,,,,,,,,,,,,,
,Sequence,flow.Sequence,0_4_9,,completion,10,251887,,,251888,,251893,2021-10-26T11:39:50.732Z,252070.7,1635248129,full,ni_sequenzen,NI_Sequenzen,,,,,,,,,,,,,,
,Screen_1,canvas.Screen,0_4_10_0,,skipped,11,251896,,,251896,,251896,2021-10-26T11:39:50.734Z,252070.7,1635248129,full,ni_sequenzen,NI_Sequenzen,,,,,,,,,,,,,,
,Screen_2,canvas.Screen,0_4_10_1,,skipped,11,251897,,,251896,,251898,2021-10-26T11:39:50.736Z,252070.7,1635248129,full,ni_sequenzen,NI_Sequenzen,,,,,,,,,,,,,,
,Screen_3,canvas.Screen,0_4_10_2,,skipped,11,251900,,,251896,,251900,2021-10-26T11:39:50.738Z,252070.7,1635248129,full,ni_sequenzen,NI_Sequenzen,,,,,,,,,,,,,,
,Sequence,flow.Sequence,0_4_10,,completion,11,251894,,,251896,,251900,2021-10-26T11:39:50.738Z,252070.7,1635248129,full,ni_sequenzen,NI_Sequenzen,,,,,,,,,,,,,,
,Screen_1,canvas.Screen,0_4_11_0,,skipped,12,251902,,,251902,,251902,2021-10-26T11:39:50.741Z,252070.7,1635248129,full,ni_sequenzen,NI_Sequenzen,,,,,,,,,,,,,,
,Screen_2,canvas.Screen,0_4_11_1,,skipped,12,251904,,,251902,,251904,2021-10-26T11:39:50.743Z,252070.7,1635248129,full,ni_sequenzen,NI_Sequenzen,,,,,,,,,,,,,,
,Screen_3,canvas.Screen,0_4_11_2,,skipped,12,251906,,,251902,,251906,2021-10-26T11:39:50.744Z,252070.7,1635248129,full,ni_sequenzen,NI_Sequenzen,,,,,,,,,,,,,,
,Sequence,flow.Sequence,0_4_11,,completion,12,251901,,,251902,,251906,2021-10-26T11:39:50.744Z,252070.7,1635248129,full,ni_sequenzen,NI_Sequenzen,,,,,,,,,,,,,,
,Screen_1,canvas.Screen,0_4_12_0,,skipped,13,251908,,,251908,,251908,2021-10-26T11:39:50.747Z,252070.7,1635248129,full,ni_sequenzen,NI_Sequenzen,,,,,,,,,,,,,,
,Screen_2,canvas.Screen,0_4_12_1,,skipped,13,251912,,,251908,,251912,2021-10-26T11:39:50.751Z,252070.7,1635248129,full,ni_sequenzen,NI_Sequenzen,,,,,,,,,,,,,,
,Screen_3,canvas.Screen,0_4_12_2,,skipped,13,251915,,,251908,,251916,2021-10-26T11:39:50.753Z,252070.7,1635248129,full,ni_sequenzen,NI_Sequenzen,,,,,,,,,,,,,,
,Sequence,flow.Sequence,0_4_12,,completion,13,251907,,,251908,,251916,2021-10-26T11:39:50.754Z,252070.7,1635248129,full,ni_sequenzen,NI_Sequenzen,,,,,,,,,,,,,,
,Screen_1,canvas.Screen,0_4_13_0,,skipped,14,251918,,,251918,,251918,2021-10-26T11:39:50.756Z,252070.7,1635248129,full,ni_sequenzen,NI_Sequenzen,,,,,,,,,,,,,,
,Screen_2,canvas.Screen,0_4_13_1,,skipped,14,251920,,,251918,,251920,2021-10-26T11:39:50.758Z,252070.7,1635248129,full,ni_sequenzen,NI_Sequenzen,,,,,,,,,,,,,,
,Screen_3,canvas.Screen,0_4_13_2,,skipped,14,251921,,,251918,,251921,2021-10-26T11:39:50.759Z,252070.7,1635248129,full,ni_sequenzen,NI_Sequenzen,,,,,,,,,,,,,,
,Sequence,flow.Sequence,0_4_13,,completion,14,251917,,,251918,,251921,2021-10-26T11:39:50.759Z,252070.7,1635248129,full,ni_sequenzen,NI_Sequenzen,,,,,,,,,,,,,,
,Screen_1,canvas.Screen,0_4_14_0,,skipped,15,251924,,,251924,,251924,2021-10-26T11:39:50.763Z,252070.7,1635248129,full,ni_sequenzen,NI_Sequenzen,,,,,,,,,,,,,,
,Screen_2,canvas.Screen,0_4_14_1,,skipped,15,251928,,,251924,,251928,2021-10-26T11:39:50.767Z,252070.7,1635248129,full,ni_sequenzen,NI_Sequenzen,,,,,,,,,,,,,,
,Screen_3,canvas.Screen,0_4_14_2,,skipped,15,251931,,,251924,,251931,2021-10-26T11:39:50.769Z,252070.7,1635248129,full,ni_sequenzen,NI_Sequenzen,,,,,,,,,,,,,,
,Sequence,flow.Sequence,0_4_14,,completion,15,251922,,,251924,,251931,2021-10-26T11:39:50.769Z,252070.7,1635248129,full,ni_sequenzen,NI_Sequenzen,,,,,,,,,,,,,,
,Screen_1,canvas.Screen,0_4_15_0,,skipped,16,251935,,,251935,,251935,2021-10-26T11:39:50.773Z,252070.7,1635248129,full,ni_sequenzen,NI_Sequenzen,,,,,,,,,,,,,,
,Screen_2,canvas.Screen,0_4_15_1,,skipped,16,251937,,,251935,,251937,2021-10-26T11:39:50.775Z,252070.7,1635248129,full,ni_sequenzen,NI_Sequenzen,,,,,,,,,,,,,,
,Screen_3,canvas.Screen,0_4_15_2,,skipped,16,251938,,,251935,,251938,2021-10-26T11:39:50.776Z,252070.7,1635248129,full,ni_sequenzen,NI_Sequenzen,,,,,,,,,,,,,,
,Sequence,flow.Sequence,0_4_15,,completion,16,251933,,,251935,,251938,2021-10-26T11:39:50.777Z,252070.7,1635248129,full,ni_sequenzen,NI_Sequenzen,,,,,,,,,,,,,,
,Screen_1,canvas.Screen,0_4_16_0,,skipped,17,251941,,,251941,,251941,2021-10-26T11:39:50.779Z,252070.7,1635248129,full,ni_sequenzen,NI_Sequenzen,,,,,,,,,,,,,,
,Screen_2,canvas.Screen,0_4_16_1,,skipped,17,251944,,,251941,,251944,2021-10-26T11:39:50.782Z,252070.7,1635248129,full,ni_sequenzen,NI_Sequenzen,,,,,,,,,,,,,,
,Screen_3,canvas.Screen,0_4_16_2,,skipped,17,251946,,,251941,,251946,2021-10-26T11:39:50.784Z,252070.7,1635248129,full,ni_sequenzen,NI_Sequenzen,,,,,,,,,,,,,,
,Sequence,flow.Sequence,0_4_16,,completion,17,251938,,,251941,,251946,2021-10-26T11:39:50.784Z,252070.7,1635248129,full,ni_sequenzen,NI_Sequenzen,,,,,,,,,,,,,,
