meta,sender,sender_type,sender_id,response,ended_on,instrCount,time_run,time_render,time_show,time_end,duration,time_commit,timestamp,time_switch,openLabId,type,task,project,move,trialN,blockN_Train,blockN,moveCount,currPP,points,movesTrial,visitedFields,diff,reward,Strategie,Zweck,Probleme
[object Object],Screen_1,canvas.Screen,0_0_0_0,cont,response,1,540,541.38,548.86,2279,1730.1399999999999,2301,2021-10-29T13:15:03.773Z,2343.36,1635513200,full,ni_sequenzen,NI_Sequenzen,,,,,,,,,,,,,,
,Screen_2,canvas.Screen,0_0_0_1,cont,response,1,2343,2343.22,2343.36,3388,1044.6399999999999,3403,2021-10-29T13:15:04.874Z,3451.52,1635513200,full,ni_sequenzen,NI_Sequenzen,,,,,,,,,,,,,,
,Screen_3,canvas.Screen,0_0_0_2,cont,response,1,3451,3451.16,3451.52,3982,530.48,3998,2021-10-29T13:15:05.469Z,4000.92,1635513200,full,ni_sequenzen,NI_Sequenzen,,,,,,,,,,,,,,
,Screen_4,canvas.Screen,0_0_0_3,cont,response,1,4000,4000.1,4000.92,4419,418.0799999999999,4425,2021-10-29T13:15:05.897Z,4528.94,1635513200,full,ni_sequenzen,NI_Sequenzen,,,,,,,,,,,,,,
,Sequence,flow.Sequence,0_0_0,,completion,1,493,541.38,548.86,4419,3870.14,4426,2021-10-29T13:15:05.897Z,4528.94,1635513200,full,ni_sequenzen,NI_Sequenzen,,,,,,,,,,,,,,
,Screen_1,canvas.Screen,0_0_1_0,,skipped,2,4428,,,4428,,4429,2021-10-29T13:15:05.900Z,4528.94,1635513200,full,ni_sequenzen,NI_Sequenzen,,,,,,,,,,,,,,
,Screen_2,canvas.Screen,0_0_1_1,,skipped,2,4431,,,4428,,4431,2021-10-29T13:15:05.902Z,4528.94,1635513200,full,ni_sequenzen,NI_Sequenzen,,,,,,,,,,,,,,
,Screen_3,canvas.Screen,0_0_1_2,,skipped,2,4432,,,4428,,4432,2021-10-29T13:15:05.904Z,4528.94,1635513200,full,ni_sequenzen,NI_Sequenzen,,,,,,,,,,,,,,
,Screen_4,canvas.Screen,0_0_1_3,,skipped,2,4434,,,4428,,4434,2021-10-29T13:15:05.906Z,4528.94,1635513200,full,ni_sequenzen,NI_Sequenzen,,,,,,,,,,,,,,
,Sequence,flow.Sequence,0_0_1,,completion,2,4427,,,4428,,4434,2021-10-29T13:15:05.906Z,4528.94,1635513200,full,ni_sequenzen,NI_Sequenzen,,,,,,,,,,,,,,
,Screen_1,canvas.Screen,0_0_2_0,,skipped,3,4435,,,4435,,4435,2021-10-29T13:15:05.907Z,4528.94,1635513200,full,ni_sequenzen,NI_Sequenzen,,,,,,,,,,,,,,
,Screen_2,canvas.Screen,0_0_2_1,,skipped,3,4436,,,4435,,4436,2021-10-29T13:15:05.908Z,4528.94,1635513200,full,ni_sequenzen,NI_Sequenzen,,,,,,,,,,,,,,
,Screen_3,canvas.Screen,0_0_2_2,,skipped,3,4438,,,4435,,4438,2021-10-29T13:15:05.909Z,4528.94,1635513200,full,ni_sequenzen,NI_Sequenzen,,,,,,,,,,,,,,
,Screen_4,canvas.Screen,0_0_2_3,,skipped,3,4439,,,4435,,4439,2021-10-29T13:15:05.910Z,4528.94,1635513200,full,ni_sequenzen,NI_Sequenzen,,,,,,,,,,,,,,
,Sequence,flow.Sequence,0_0_2,,completion,3,4434,,,4435,,4439,2021-10-29T13:15:05.910Z,4528.94,1635513200,full,ni_sequenzen,NI_Sequenzen,,,,,,,,,,,,,,
,Screen_1,canvas.Screen,0_0_3_0,,skipped,4,4441,,,4441,,4441,2021-10-29T13:15:05.912Z,4528.94,1635513200,full,ni_sequenzen,NI_Sequenzen,,,,,,,,,,,,,,
,Screen_2,canvas.Screen,0_0_3_1,,skipped,4,4442,,,4441,,4442,2021-10-29T13:15:05.914Z,4528.94,1635513200,full,ni_sequenzen,NI_Sequenzen,,,,,,,,,,,,,,
,Screen_3,canvas.Screen,0_0_3_2,,skipped,4,4443,,,4441,,4443,2021-10-29T13:15:05.915Z,4528.94,1635513200,full,ni_sequenzen,NI_Sequenzen,,,,,,,,,,,,,,
,Screen_4,canvas.Screen,0_0_3_3,,skipped,4,4444,,,4441,,4444,2021-10-29T13:15:05.916Z,4528.94,1635513200,full,ni_sequenzen,NI_Sequenzen,,,,,,,,,,,,,,
,Sequence,flow.Sequence,0_0_3,,completion,4,4440,,,4441,,4444,2021-10-29T13:15:05.916Z,4528.94,1635513200,full,ni_sequenzen,NI_Sequenzen,,,,,,,,,,,,,,
,Screen_1,canvas.Screen,0_0_4_0,,skipped,5,4446,,,4446,,4446,2021-10-29T13:15:05.917Z,4528.94,1635513200,full,ni_sequenzen,NI_Sequenzen,,,,,,,,,,,,,,
,Screen_2,canvas.Screen,0_0_4_1,,skipped,5,4447,,,4446,,4447,2021-10-29T13:15:05.918Z,4528.94,1635513200,full,ni_sequenzen,NI_Sequenzen,,,,,,,,,,,,,,
,Screen_3,canvas.Screen,0_0_4_2,,skipped,5,4448,,,4446,,4448,2021-10-29T13:15:05.920Z,4528.94,1635513200,full,ni_sequenzen,NI_Sequenzen,,,,,,,,,,,,,,
,Screen_4,canvas.Screen,0_0_4_3,,skipped,5,4449,,,4446,,4449,2021-10-29T13:15:05.921Z,4528.94,1635513200,full,ni_sequenzen,NI_Sequenzen,,,,,,,,,,,,,,
,Sequence,flow.Sequence,0_0_4,,completion,5,4445,,,4446,,4449,2021-10-29T13:15:05.921Z,4528.94,1635513200,full,ni_sequenzen,NI_Sequenzen,,,,,,,,,,,,,,
,Screen_1,canvas.Screen,0_0_5_0,,skipped,6,4451,,,4451,,4451,2021-10-29T13:15:05.922Z,4528.94,1635513200,full,ni_sequenzen,NI_Sequenzen,,,,,,,,,,,,,,
,Screen_2,canvas.Screen,0_0_5_1,,skipped,6,4452,,,4451,,4452,2021-10-29T13:15:05.924Z,4528.94,1635513200,full,ni_sequenzen,NI_Sequenzen,,,,,,,,,,,,,,
,Screen_3,canvas.Screen,0_0_5_2,,skipped,6,4453,,,4451,,4453,2021-10-29T13:15:05.925Z,4528.94,1635513200,full,ni_sequenzen,NI_Sequenzen,,,,,,,,,,,,,,
,Screen_4,canvas.Screen,0_0_5_3,,skipped,6,4454,,,4451,,4454,2021-10-29T13:15:05.926Z,4528.94,1635513200,full,ni_sequenzen,NI_Sequenzen,,,,,,,,,,,,,,
,Sequence,flow.Sequence,0_0_5,,completion,6,4450,,,4451,,4454,2021-10-29T13:15:05.926Z,4528.94,1635513200,full,ni_sequenzen,NI_Sequenzen,,,,,,,,,,,,,,
,Screen_1,canvas.Screen,0_0_6_0,,skipped,7,4456,,,4456,,4456,2021-10-29T13:15:05.927Z,4528.94,1635513200,full,ni_sequenzen,NI_Sequenzen,,,,,,,,,,,,,,
,Screen_2,canvas.Screen,0_0_6_1,,skipped,7,4457,,,4456,,4457,2021-10-29T13:15:05.928Z,4528.94,1635513200,full,ni_sequenzen,NI_Sequenzen,,,,,,,,,,,,,,
,Screen_3,canvas.Screen,0_0_6_2,,skipped,7,4457,,,4456,,4457,2021-10-29T13:15:05.929Z,4528.94,1635513200,full,ni_sequenzen,NI_Sequenzen,,,,,,,,,,,,,,
,Screen_4,canvas.Screen,0_0_6_3,,skipped,7,4458,,,4456,,4458,2021-10-29T13:15:05.930Z,4528.94,1635513200,full,ni_sequenzen,NI_Sequenzen,,,,,,,,,,,,,,
,Sequence,flow.Sequence,0_0_6,,completion,7,4455,,,4456,,4459,2021-10-29T13:15:05.930Z,4528.94,1635513200,full,ni_sequenzen,NI_Sequenzen,,,,,,,,,,,,,,
,Screen_1,canvas.Screen,0_0_7_0,,skipped,8,4460,,,4460,,4460,2021-10-29T13:15:05.932Z,4528.94,1635513200,full,ni_sequenzen,NI_Sequenzen,,,,,,,,,,,,,,
,Screen_2,canvas.Screen,0_0_7_1,,skipped,8,4461,,,4460,,4461,2021-10-29T13:15:05.932Z,4528.94,1635513200,full,ni_sequenzen,NI_Sequenzen,,,,,,,,,,,,,,
,Screen_3,canvas.Screen,0_0_7_2,,skipped,8,4462,,,4460,,4462,2021-10-29T13:15:05.933Z,4528.94,1635513200,full,ni_sequenzen,NI_Sequenzen,,,,,,,,,,,,,,
,Screen_4,canvas.Screen,0_0_7_3,,skipped,8,4463,,,4460,,4463,2021-10-29T13:15:05.935Z,4528.94,1635513200,full,ni_sequenzen,NI_Sequenzen,,,,,,,,,,,,,,
,Sequence,flow.Sequence,0_0_7,,completion,8,4459,,,4460,,4463,2021-10-29T13:15:05.935Z,4528.94,1635513200,full,ni_sequenzen,NI_Sequenzen,,,,,,,,,,,,,,
,Screen_1,canvas.Screen,0_0_8_0,,skipped,9,4464,,,4464,,4465,2021-10-29T13:15:05.936Z,4528.94,1635513200,full,ni_sequenzen,NI_Sequenzen,,,,,,,,,,,,,,
,Screen_2,canvas.Screen,0_0_8_1,,skipped,9,4465,,,4464,,4465,2021-10-29T13:15:05.937Z,4528.94,1635513200,full,ni_sequenzen,NI_Sequenzen,,,,,,,,,,,,,,
,Screen_3,canvas.Screen,0_0_8_2,,skipped,9,4466,,,4464,,4466,2021-10-29T13:15:05.938Z,4528.94,1635513200,full,ni_sequenzen,NI_Sequenzen,,,,,,,,,,,,,,
,Screen_4,canvas.Screen,0_0_8_3,,skipped,9,4467,,,4464,,4467,2021-10-29T13:15:05.939Z,4528.94,1635513200,full,ni_sequenzen,NI_Sequenzen,,,,,,,,,,,,,,
,Sequence,flow.Sequence,0_0_8,,completion,9,4464,,,4464,,4467,2021-10-29T13:15:05.939Z,4528.94,1635513200,full,ni_sequenzen,NI_Sequenzen,,,,,,,,,,,,,,
,Screen_1,canvas.Screen,0_0_9_0,,skipped,10,4469,,,4469,,4469,2021-10-29T13:15:05.940Z,4528.94,1635513200,full,ni_sequenzen,NI_Sequenzen,,,,,,,,,,,,,,
,Screen_2,canvas.Screen,0_0_9_1,,skipped,10,4470,,,4469,,4470,2021-10-29T13:15:05.941Z,4528.94,1635513200,full,ni_sequenzen,NI_Sequenzen,,,,,,,,,,,,,,
,Screen_3,canvas.Screen,0_0_9_2,,skipped,10,4471,,,4469,,4471,2021-10-29T13:15:05.942Z,4528.94,1635513200,full,ni_sequenzen,NI_Sequenzen,,,,,,,,,,,,,,
,Screen_4,canvas.Screen,0_0_9_3,,skipped,10,4472,,,4469,,4472,2021-10-29T13:15:05.943Z,4528.94,1635513200,full,ni_sequenzen,NI_Sequenzen,,,,,,,,,,,,,,
,Sequence,flow.Sequence,0_0_9,,completion,10,4468,,,4469,,4473,2021-10-29T13:15:05.944Z,4528.94,1635513200,full,ni_sequenzen,NI_Sequenzen,,,,,,,,,,,,,,
,Screen_1,canvas.Screen,0_0_10_0,,skipped,11,4474,,,4474,,4474,2021-10-29T13:15:05.945Z,4528.94,1635513200,full,ni_sequenzen,NI_Sequenzen,,,,,,,,,,,,,,
,Screen_2,canvas.Screen,0_0_10_1,,skipped,11,4475,,,4474,,4475,2021-10-29T13:15:05.946Z,4528.94,1635513200,full,ni_sequenzen,NI_Sequenzen,,,,,,,,,,,,,,
,Screen_3,canvas.Screen,0_0_10_2,,skipped,11,4476,,,4474,,4476,2021-10-29T13:15:05.947Z,4528.94,1635513200,full,ni_sequenzen,NI_Sequenzen,,,,,,,,,,,,,,
,Screen_4,canvas.Screen,0_0_10_3,,skipped,11,4477,,,4474,,4477,2021-10-29T13:15:05.948Z,4528.94,1635513200,full,ni_sequenzen,NI_Sequenzen,,,,,,,,,,,,,,
,Sequence,flow.Sequence,0_0_10,,completion,11,4473,,,4474,,4477,2021-10-29T13:15:05.948Z,4528.94,1635513200,full,ni_sequenzen,NI_Sequenzen,,,,,,,,,,,,,,
,Screen_1,canvas.Screen,0_0_11_0,,skipped,12,4477,,,4477,,4477,2021-10-29T13:15:05.949Z,4528.94,1635513200,full,ni_sequenzen,NI_Sequenzen,,,,,,,,,,,,,,
,Screen_2,canvas.Screen,0_0_11_1,,skipped,12,4479,,,4477,,4479,2021-10-29T13:15:05.951Z,4528.94,1635513200,full,ni_sequenzen,NI_Sequenzen,,,,,,,,,,,,,,
,Screen_3,canvas.Screen,0_0_11_2,,skipped,12,4479,,,4477,,4479,2021-10-29T13:15:05.952Z,4528.94,1635513200,full,ni_sequenzen,NI_Sequenzen,,,,,,,,,,,,,,
,Screen_4,canvas.Screen,0_0_11_3,,skipped,12,4480,,,4477,,4480,2021-10-29T13:15:05.952Z,4528.94,1635513200,full,ni_sequenzen,NI_Sequenzen,,,,,,,,,,,,,,
,Sequence,flow.Sequence,0_0_11,,completion,12,4477,,,4477,,4480,2021-10-29T13:15:05.953Z,4528.94,1635513200,full,ni_sequenzen,NI_Sequenzen,,,,,,,,,,,,,,
,Screen_1,canvas.Screen,0_0_12_0,,skipped,13,4483,,,4483,,4483,2021-10-29T13:15:05.954Z,4528.94,1635513200,full,ni_sequenzen,NI_Sequenzen,,,,,,,,,,,,,,
,Screen_2,canvas.Screen,0_0_12_1,,skipped,13,4484,,,4483,,4484,2021-10-29T13:15:05.956Z,4528.94,1635513200,full,ni_sequenzen,NI_Sequenzen,,,,,,,,,,,,,,
,Screen_3,canvas.Screen,0_0_12_2,,skipped,13,4485,,,4483,,4485,2021-10-29T13:15:05.957Z,4528.94,1635513200,full,ni_sequenzen,NI_Sequenzen,,,,,,,,,,,,,,
,Screen_4,canvas.Screen,0_0_12_3,,skipped,13,4486,,,4483,,4486,2021-10-29T13:15:05.957Z,4528.94,1635513200,full,ni_sequenzen,NI_Sequenzen,,,,,,,,,,,,,,
,Sequence,flow.Sequence,0_0_12,,completion,13,4481,,,4483,,4486,2021-10-29T13:15:05.957Z,4528.94,1635513200,full,ni_sequenzen,NI_Sequenzen,,,,,,,,,,,,,,
,Screen_1,canvas.Screen,0_0_13_0,,skipped,14,4487,,,4487,,4487,2021-10-29T13:15:05.958Z,4528.94,1635513200,full,ni_sequenzen,NI_Sequenzen,,,,,,,,,,,,,,
,Screen_2,canvas.Screen,0_0_13_1,,skipped,14,4487,,,4487,,4487,2021-10-29T13:15:05.959Z,4528.94,1635513200,full,ni_sequenzen,NI_Sequenzen,,,,,,,,,,,,,,
,Screen_3,canvas.Screen,0_0_13_2,,skipped,14,4488,,,4487,,4488,2021-10-29T13:15:05.960Z,4528.94,1635513200,full,ni_sequenzen,NI_Sequenzen,,,,,,,,,,,,,,
,Screen_4,canvas.Screen,0_0_13_3,,skipped,14,4489,,,4487,,4489,2021-10-29T13:15:05.961Z,4528.94,1635513200,full,ni_sequenzen,NI_Sequenzen,,,,,,,,,,,,,,
,Sequence,flow.Sequence,0_0_13,,completion,14,4487,,,4487,,4489,2021-10-29T13:15:05.961Z,4528.94,1635513200,full,ni_sequenzen,NI_Sequenzen,,,,,,,,,,,,,,
,Screen_1,canvas.Screen,0_0_14_0,,skipped,15,4490,,,4490,,4490,2021-10-29T13:15:05.962Z,4528.94,1635513200,full,ni_sequenzen,NI_Sequenzen,,,,,,,,,,,,,,
,Screen_2,canvas.Screen,0_0_14_1,,skipped,15,4492,,,4490,,4492,2021-10-29T13:15:05.963Z,4528.94,1635513200,full,ni_sequenzen,NI_Sequenzen,,,,,,,,,,,,,,
,Screen_3,canvas.Screen,0_0_14_2,,skipped,15,4492,,,4490,,4492,2021-10-29T13:15:05.964Z,4528.94,1635513200,full,ni_sequenzen,NI_Sequenzen,,,,,,,,,,,,,,
,Screen_4,canvas.Screen,0_0_14_3,,skipped,15,4493,,,4490,,4493,2021-10-29T13:15:05.965Z,4528.94,1635513200,full,ni_sequenzen,NI_Sequenzen,,,,,,,,,,,,,,
,Sequence,flow.Sequence,0_0_14,,completion,15,4490,,,4490,,4493,2021-10-29T13:15:05.965Z,4528.94,1635513200,full,ni_sequenzen,NI_Sequenzen,,,,,,,,,,,,,,
,Screen_1,canvas.Screen,0_0_15_0,,skipped,16,4494,,,4494,,4495,2021-10-29T13:15:05.966Z,4528.94,1635513200,full,ni_sequenzen,NI_Sequenzen,,,,,,,,,,,,,,
,Screen_2,canvas.Screen,0_0_15_1,,skipped,16,4495,,,4494,,4495,2021-10-29T13:15:05.967Z,4528.94,1635513200,full,ni_sequenzen,NI_Sequenzen,,,,,,,,,,,,,,
,Screen_3,canvas.Screen,0_0_15_2,,skipped,16,4496,,,4494,,4496,2021-10-29T13:15:05.968Z,4528.94,1635513200,full,ni_sequenzen,NI_Sequenzen,,,,,,,,,,,,,,
,Screen_4,canvas.Screen,0_0_15_3,,skipped,16,4497,,,4494,,4497,2021-10-29T13:15:05.969Z,4528.94,1635513200,full,ni_sequenzen,NI_Sequenzen,,,,,,,,,,,,,,
,Sequence,flow.Sequence,0_0_15,,completion,16,4494,,,4494,,4497,2021-10-29T13:15:05.969Z,4528.94,1635513200,full,ni_sequenzen,NI_Sequenzen,,,,,,,,,,,,,,
,Screen_1,canvas.Screen,0_0_16_0,,skipped,17,4498,,,4498,,4498,2021-10-29T13:15:05.970Z,4528.94,1635513200,full,ni_sequenzen,NI_Sequenzen,,,,,,,,,,,,,,
,Screen_2,canvas.Screen,0_0_16_1,,skipped,17,4500,,,4498,,4500,2021-10-29T13:15:05.971Z,4528.94,1635513200,full,ni_sequenzen,NI_Sequenzen,,,,,,,,,,,,,,
,Screen_3,canvas.Screen,0_0_16_2,,skipped,17,4500,,,4498,,4500,2021-10-29T13:15:05.972Z,4528.94,1635513200,full,ni_sequenzen,NI_Sequenzen,,,,,,,,,,,,,,
,Screen_4,canvas.Screen,0_0_16_3,,skipped,17,4501,,,4498,,4501,2021-10-29T13:15:05.973Z,4528.94,1635513200,full,ni_sequenzen,NI_Sequenzen,,,,,,,,,,,,,,
,Sequence,flow.Sequence,0_0_16,,completion,17,4498,,,4498,,4501,2021-10-29T13:15:05.973Z,4528.94,1635513200,full,ni_sequenzen,NI_Sequenzen,,,,,,,,,,,,,,
,Screen_1,canvas.Screen,0_0_17_0,,skipped,18,4503,,,4503,,4503,2021-10-29T13:15:05.974Z,4528.94,1635513200,full,ni_sequenzen,NI_Sequenzen,,,,,,,,,,,,,,
,Screen_2,canvas.Screen,0_0_17_1,,skipped,18,4503,,,4503,,4504,2021-10-29T13:15:05.975Z,4528.94,1635513200,full,ni_sequenzen,NI_Sequenzen,,,,,,,,,,,,,,
,Screen_3,canvas.Screen,0_0_17_2,,skipped,18,4504,,,4503,,4505,2021-10-29T13:15:05.976Z,4528.94,1635513200,full,ni_sequenzen,NI_Sequenzen,,,,,,,,,,,,,,
,Screen_4,canvas.Screen,0_0_17_3,,skipped,18,4505,,,4503,,4505,2021-10-29T13:15:05.977Z,4528.94,1635513200,full,ni_sequenzen,NI_Sequenzen,,,,,,,,,,,,,,
,Sequence,flow.Sequence,0_0_17,,completion,18,4502,,,4503,,4506,2021-10-29T13:15:05.977Z,4528.94,1635513200,full,ni_sequenzen,NI_Sequenzen,,,,,,,,,,,,,,
,Screen_1,canvas.Screen,0_0_18_0,,skipped,19,4507,,,4507,,4507,2021-10-29T13:15:05.978Z,4528.94,1635513200,full,ni_sequenzen,NI_Sequenzen,,,,,,,,,,,,,,
,Screen_2,canvas.Screen,0_0_18_1,,skipped,19,4507,,,4507,,4507,2021-10-29T13:15:05.979Z,4528.94,1635513200,full,ni_sequenzen,NI_Sequenzen,,,,,,,,,,,,,,
,Screen_3,canvas.Screen,0_0_18_2,,skipped,19,4508,,,4507,,4508,2021-10-29T13:15:05.980Z,4528.94,1635513200,full,ni_sequenzen,NI_Sequenzen,,,,,,,,,,,,,,
,Screen_4,canvas.Screen,0_0_18_3,,skipped,19,4511,,,4507,,4511,2021-10-29T13:15:05.982Z,4528.94,1635513200,full,ni_sequenzen,NI_Sequenzen,,,,,,,,,,,,,,
,Sequence,flow.Sequence,0_0_18,,completion,19,4506,,,4507,,4511,2021-10-29T13:15:05.982Z,4528.94,1635513200,full,ni_sequenzen,NI_Sequenzen,,,,,,,,,,,,,,
,Screen_1,canvas.Screen,0_0_19_0,,skipped,20,4512,,,4512,,4512,2021-10-29T13:15:05.983Z,4528.94,1635513200,full,ni_sequenzen,NI_Sequenzen,,,,,,,,,,,,,,
,Screen_2,canvas.Screen,0_0_19_1,,skipped,20,4513,,,4512,,4513,2021-10-29T13:15:05.984Z,4528.94,1635513200,full,ni_sequenzen,NI_Sequenzen,,,,,,,,,,,,,,
,Screen_3,canvas.Screen,0_0_19_2,,skipped,20,4514,,,4512,,4514,2021-10-29T13:15:05.985Z,4528.94,1635513200,full,ni_sequenzen,NI_Sequenzen,,,,,,,,,,,,,,
,Screen_4,canvas.Screen,0_0_19_3,,skipped,20,4514,,,4512,,4514,2021-10-29T13:15:05.986Z,4528.94,1635513200,full,ni_sequenzen,NI_Sequenzen,,,,,,,,,,,,,,
,Sequence,flow.Sequence,0_0_19,,completion,20,4511,,,4512,,4515,2021-10-29T13:15:05.986Z,4528.94,1635513200,full,ni_sequenzen,NI_Sequenzen,,,,,,,,,,,,,,
,Instructions_I,flow.Loop,0_0,,completion,,491,541.38,548.86,4512,3963.14,4515,2021-10-29T13:15:05.986Z,4528.94,1635513200,full,ni_sequenzen,NI_Sequenzen,,,,,,,,,,,,,,
,Move,canvas.Screen,0_1_0_0,left,response,,4523,4523.12,4528.94,5465,936.0600000000004,5489,2021-10-29T13:15:06.961Z,5493.26,1635513200,full,ni_sequenzen,NI_Sequenzen,1,,,,,,,,,,,,,
,Move,canvas.Screen,0_1_0_1,left,response,,5493,5492.96,5493.26,5685,191.73999999999978,5702,2021-10-29T13:15:07.173Z,5707.86,1635513200,full,ni_sequenzen,NI_Sequenzen,2,,,,,,,,,,,,,
,Move,canvas.Screen,0_1_0_2,right,response,,5708,5707.42,5707.86,6076,368.1400000000003,6090,2021-10-29T13:15:07.562Z,6097.98,1635513200,full,ni_sequenzen,NI_Sequenzen,3,,,,,,,,,,,,,
,Move,canvas.Screen,0_1_0_3,down,response,,6098,6097.54,6097.98,6779,681.0200000000004,6799,2021-10-29T13:15:08.271Z,6810.44,1635513200,full,ni_sequenzen,NI_Sequenzen,4,,,,,,,,,,,,,
,Move,canvas.Screen,0_1_0_4,down,response,,6806,6805.9,6810.44,6982,171.5600000000004,6989,2021-10-29T13:15:08.461Z,7010.28,1635513200,full,ni_sequenzen,NI_Sequenzen,5,,,,,,,,,,,,,
,Move,canvas.Screen,0_1_0_5,down,response,,6996,6996.24,7010.28,7248,237.72000000000025,7269,2021-10-29T13:15:08.741Z,7278.62,1635513200,full,ni_sequenzen,NI_Sequenzen,6,,,,,,,,,,,,,
,Move,canvas.Screen,0_1_0_6,right,response,,7278,7278.14,7278.62,7576,297.3800000000001,7594,2021-10-29T13:15:09.066Z,7599.78,1635513200,full,ni_sequenzen,NI_Sequenzen,7,,,,,,,,,,,,,
,Move,canvas.Screen,0_1_0_7,right,response,,7600,7599.38,7599.78,7998,398.22000000000025,8010,2021-10-29T13:15:09.482Z,8015.82,1635513200,full,ni_sequenzen,NI_Sequenzen,8,,,,,,,,,,,,,
,Move,canvas.Screen,0_1_0_8,down,response,,8015,8015.38,8015.82,8451,435.1800000000003,8465,2021-10-29T13:15:09.936Z,8470.06,1635513200,full,ni_sequenzen,NI_Sequenzen,9,,,,,,,,,,,,,
,Move,canvas.Screen,0_1_0_9,down,response,,8469,8469.7,8470.06,8841,370.9400000000005,8850,2021-10-29T13:15:10.322Z,8858.78,1635513200,full,ni_sequenzen,NI_Sequenzen,10,,,,,,,,,,,,,
,Move,canvas.Screen,0_1_0_10,right,response,,8855,8854.72,8858.78,9169,310.21999999999935,9188,2021-10-29T13:15:10.659Z,9194.68,1635513200,full,ni_sequenzen,NI_Sequenzen,11,,,,,,,,,,,,,
,Move,canvas.Screen,0_1_0_11,down,response,,9195,9194.32,9194.68,9669,474.3199999999997,9690,2021-10-29T13:15:11.161Z,9694.02,1635513200,full,ni_sequenzen,NI_Sequenzen,12,,,,,,,,,,,,,
,Move,canvas.Screen,0_1_0_12,right,response,,9694,9693.62,9694.02,10076,381.97999999999956,10098,2021-10-29T13:15:11.570Z,10106,1635513200,full,ni_sequenzen,NI_Sequenzen,13,,,,,,,,,,,,,
,Move,canvas.Screen,0_1_0_13,down,response,,10106,10105.48,10106,12060,1954,12072,2021-10-29T13:15:13.544Z,12079.04,1635513200,full,ni_sequenzen,NI_Sequenzen,14,,,,,,,,,,,,,
,Move,canvas.Screen,0_1_0_14,left,response,,12078,12078.66,12079.04,13185,1105.9599999999991,13208,2021-10-29T13:15:14.680Z,13214.9,1635513200,full,ni_sequenzen,NI_Sequenzen,15,,,,,,,,,,,,,
,Move,canvas.Screen,0_1_0_15,left,response,,13214,13214.5,13214.9,13529,314.10000000000036,13548,2021-10-29T13:15:15.021Z,13552.88,1635513200,full,ni_sequenzen,NI_Sequenzen,16,,,,,,,,,,,,,
,Move,canvas.Screen,0_1_0_16,down,response,,13552,13552.44,13552.88,13981,428.1200000000008,14003,2021-10-29T13:15:15.475Z,14013.08,1635513200,full,ni_sequenzen,NI_Sequenzen,17,,,,,,,,,,,,,
,Move,canvas.Screen,0_1_0_17,down,response,,14013,14012.74,14013.08,14326,312.9200000000001,14351,2021-10-29T13:15:15.822Z,14360.54,1635513200,full,ni_sequenzen,NI_Sequenzen,18,,,,,,,,,,,,,
,Move,canvas.Screen,0_1_0_18,down,response,,14360,14360.16,14360.54,14560,199.45999999999913,14583,2021-10-29T13:15:16.055Z,14592.68,1635513200,full,ni_sequenzen,NI_Sequenzen,19,,,,,,,,,,,,,
,Move,canvas.Screen,0_1_0_19,left,response,,14592,14592.34,14592.68,15294,701.3199999999997,15304,2021-10-29T13:15:16.776Z,15313.44,1635513200,full,ni_sequenzen,NI_Sequenzen,20,,,,,,,,,,,,,
,Move,canvas.Screen,0_1_0_20,left,response,,15313,15313.12,15313.44,15513,199.5599999999995,15533,2021-10-29T13:15:17.004Z,15537.36,1635513200,full,ni_sequenzen,NI_Sequenzen,21,,,,,,,,,,,,,
,Move,canvas.Screen,0_1_0_21,down,response,,15537,15537.2,15537.36,16732,1194.6399999999994,16754,2021-10-29T13:15:18.226Z,16768.9,1635513200,full,ni_sequenzen,NI_Sequenzen,22,,,,,,,,,,,,,
,Move,canvas.Screen,0_1_0_22,right,response,,16758,16757.86,16768.9,17357,588.0999999999985,17370,2021-10-29T13:15:18.841Z,17376.86,1635513200,full,ni_sequenzen,NI_Sequenzen,23,,,,,,,,,,,,,
,Move,canvas.Screen,0_1_0_23,right,response,,17377,17376.5,17376.86,17591,214.13999999999942,17615,2021-10-29T13:15:19.087Z,17630.42,1635513200,full,ni_sequenzen,NI_Sequenzen,24,,,,,,,,,,,,,
,Move,canvas.Screen,0_1_0_24,right,response,,17630,17629.58,17630.42,18013,382.58000000000175,18025,2021-10-29T13:15:19.496Z,18031.26,1635513200,full,ni_sequenzen,NI_Sequenzen,25,,,,,,,,,,,,,
,Move,canvas.Screen,0_1_0_25,left,response,,18030,18030.84,18031.26,18716,684.7400000000016,18730,2021-10-29T13:15:20.202Z,18734.44,1635513200,full,ni_sequenzen,NI_Sequenzen,26,,,,,,,,,,,,,
,Move,canvas.Screen,0_1_0_26,left,response,,18734,18734.22,18734.44,19012,277.5600000000013,19020,2021-10-29T13:15:20.492Z,19024.68,1635513200,full,ni_sequenzen,NI_Sequenzen,27,,,,,,,,,,,,,
,Move,canvas.Screen,0_1_0_27,down,response,,19024,19024.52,19024.68,19356,331.3199999999997,19384,2021-10-29T13:15:20.856Z,19388.14,1635513200,full,ni_sequenzen,NI_Sequenzen,28,,,,,,,,,,,,,
,Move,canvas.Screen,0_1_0_28,down,response,,19388,19387.92,19388.14,19591,202.86000000000058,19617,2021-10-29T13:15:21.089Z,19621.24,1635513200,full,ni_sequenzen,NI_Sequenzen,29,,,,,,,,,,,,,
,Move,canvas.Screen,0_1_0_29,left,response,,19620,19620.92,19621.24,20123,501.7599999999984,20133,2021-10-29T13:15:21.604Z,20182.78,1635513200,full,ni_sequenzen,NI_Sequenzen,30,,,,,,,,,,,,,
,Loop,flow.Loop,0_1_0,-999,completion,,4521,4523.12,4528.94,20123,15594.060000000001,20133,2021-10-29T13:15:21.605Z,20182.78,1635513200,full,ni_sequenzen,NI_Sequenzen,,,,,,,,,,,,,,
,Training_I,flow.Sequence,0_1,,completion,,4515,4523.12,4528.94,20123,15594.060000000001,20133,2021-10-29T13:15:21.605Z,20182.78,1635513200,full,ni_sequenzen,NI_Sequenzen,,,,,,,,,,,,,,
,Screen_1,canvas.Screen,0_2_0_0,cont,response,1,20171,20171.56,20182.78,21388,1205.2200000000012,21405,2021-10-29T13:15:22.876Z,21506.4,1635513200,full,ni_sequenzen,NI_Sequenzen,,,,,,,,,,,,,,
,Screen_2,canvas.Screen,0_2_0_1,cont,response,1,21507,21506.22,21506.4,27107,5600.5999999999985,27120,2021-10-29T13:15:28.591Z,27128.44,1635513200,full,ni_sequenzen,NI_Sequenzen,,,,,,,,,,,,,,
,Screen_3,canvas.Screen,0_2_0_2,cont,response,1,27127,27127.48,27128.44,30825,3696.5600000000013,30845,2021-10-29T13:15:32.317Z,30923.9,1635513200,full,ni_sequenzen,NI_Sequenzen,,,,,,,,,,,,,,
,Screen_4,canvas.Screen,0_2_0_3,cont,response,1,30918,30918.44,30923.9,33341,2417.0999999999985,33358,2021-10-29T13:15:34.830Z,33362.92,1635513200,full,ni_sequenzen,NI_Sequenzen,,,,,,,,,,,,,,
,Screen_5,canvas.Screen,0_2_0_4,cont,response,1,33363,33362.62,33362.92,33560,197.08000000000175,33583,2021-10-29T13:15:35.054Z,33656.8,1635513200,full,ni_sequenzen,NI_Sequenzen,,,,,,,,,,,,,,
,Screen_6,canvas.Screen,0_2_0_5,cont,response,1,33656,33656.56,33656.8,37404,3747.199999999997,37411,2021-10-29T13:15:38.883Z,37602,1635513200,full,ni_sequenzen,NI_Sequenzen,,,,,,,,,,,,,,
,Sequence,flow.Sequence,0_2_0,,completion,1,20169,20171.56,20182.78,37404,17221.22,37412,2021-10-29T13:15:38.884Z,37602,1635513200,full,ni_sequenzen,NI_Sequenzen,,,,,,,,,,,,,,
,Screen_1,canvas.Screen,0_2_1_0,,skipped,2,37417,,,37417,,37417,2021-10-29T13:15:38.889Z,37602,1635513200,full,ni_sequenzen,NI_Sequenzen,,,,,,,,,,,,,,
,Screen_2,canvas.Screen,0_2_1_1,,skipped,2,37419,,,37417,,37419,2021-10-29T13:15:38.890Z,37602,1635513200,full,ni_sequenzen,NI_Sequenzen,,,,,,,,,,,,,,
,Screen_3,canvas.Screen,0_2_1_2,,skipped,2,37420,,,37417,,37420,2021-10-29T13:15:38.891Z,37602,1635513200,full,ni_sequenzen,NI_Sequenzen,,,,,,,,,,,,,,
,Screen_4,canvas.Screen,0_2_1_3,,skipped,2,37421,,,37417,,37421,2021-10-29T13:15:38.892Z,37602,1635513200,full,ni_sequenzen,NI_Sequenzen,,,,,,,,,,,,,,
,Screen_5,canvas.Screen,0_2_1_4,,skipped,2,37422,,,37417,,37422,2021-10-29T13:15:38.893Z,37602,1635513200,full,ni_sequenzen,NI_Sequenzen,,,,,,,,,,,,,,
,Screen_6,canvas.Screen,0_2_1_5,,skipped,2,37423,,,37417,,37423,2021-10-29T13:15:38.895Z,37602,1635513200,full,ni_sequenzen,NI_Sequenzen,,,,,,,,,,,,,,
,Sequence,flow.Sequence,0_2_1,,completion,2,37414,,,37417,,37423,2021-10-29T13:15:38.895Z,37602,1635513200,full,ni_sequenzen,NI_Sequenzen,,,,,,,,,,,,,,
,Screen_1,canvas.Screen,0_2_2_0,,skipped,3,37425,,,37425,,37425,2021-10-29T13:15:38.896Z,37602,1635513200,full,ni_sequenzen,NI_Sequenzen,,,,,,,,,,,,,,
,Screen_2,canvas.Screen,0_2_2_1,,skipped,3,37425,,,37425,,37426,2021-10-29T13:15:38.897Z,37602,1635513200,full,ni_sequenzen,NI_Sequenzen,,,,,,,,,,,,,,
,Screen_3,canvas.Screen,0_2_2_2,,skipped,3,37426,,,37425,,37427,2021-10-29T13:15:38.897Z,37602,1635513200,full,ni_sequenzen,NI_Sequenzen,,,,,,,,,,,,,,
,Screen_4,canvas.Screen,0_2_2_3,,skipped,3,37427,,,37425,,37427,2021-10-29T13:15:38.898Z,37602,1635513200,full,ni_sequenzen,NI_Sequenzen,,,,,,,,,,,,,,
,Screen_5,canvas.Screen,0_2_2_4,,skipped,3,37428,,,37425,,37428,2021-10-29T13:15:38.899Z,37602,1635513200,full,ni_sequenzen,NI_Sequenzen,,,,,,,,,,,,,,
,Screen_6,canvas.Screen,0_2_2_5,,skipped,3,37429,,,37425,,37429,2021-10-29T13:15:38.900Z,37602,1635513200,full,ni_sequenzen,NI_Sequenzen,,,,,,,,,,,,,,
,Sequence,flow.Sequence,0_2_2,,completion,3,37424,,,37425,,37429,2021-10-29T13:15:38.900Z,37602,1635513200,full,ni_sequenzen,NI_Sequenzen,,,,,,,,,,,,,,
,Screen_1,canvas.Screen,0_2_3_0,,skipped,4,37429,,,37429,,37430,2021-10-29T13:15:38.902Z,37602,1635513200,full,ni_sequenzen,NI_Sequenzen,,,,,,,,,,,,,,
,Screen_2,canvas.Screen,0_2_3_1,,skipped,4,37431,,,37429,,37431,2021-10-29T13:15:38.903Z,37602,1635513200,full,ni_sequenzen,NI_Sequenzen,,,,,,,,,,,,,,
,Screen_3,canvas.Screen,0_2_3_2,,skipped,4,37432,,,37429,,37432,2021-10-29T13:15:38.903Z,37602,1635513200,full,ni_sequenzen,NI_Sequenzen,,,,,,,,,,,,,,
,Screen_4,canvas.Screen,0_2_3_3,,skipped,4,37433,,,37429,,37433,2021-10-29T13:15:38.904Z,37602,1635513200,full,ni_sequenzen,NI_Sequenzen,,,,,,,,,,,,,,
,Screen_5,canvas.Screen,0_2_3_4,,skipped,4,37435,,,37429,,37435,2021-10-29T13:15:38.906Z,37602,1635513200,full,ni_sequenzen,NI_Sequenzen,,,,,,,,,,,,,,
,Screen_6,canvas.Screen,0_2_3_5,,skipped,4,37436,,,37429,,37436,2021-10-29T13:15:38.907Z,37602,1635513200,full,ni_sequenzen,NI_Sequenzen,,,,,,,,,,,,,,
,Sequence,flow.Sequence,0_2_3,,completion,4,37429,,,37429,,37436,2021-10-29T13:15:38.907Z,37602,1635513200,full,ni_sequenzen,NI_Sequenzen,,,,,,,,,,,,,,
,Screen_1,canvas.Screen,0_2_4_0,,skipped,5,37437,,,37437,,37437,2021-10-29T13:15:38.909Z,37602,1635513200,full,ni_sequenzen,NI_Sequenzen,,,,,,,,,,,,,,
,Screen_2,canvas.Screen,0_2_4_1,,skipped,5,37439,,,37437,,37439,2021-10-29T13:15:38.910Z,37602,1635513200,full,ni_sequenzen,NI_Sequenzen,,,,,,,,,,,,,,
,Screen_3,canvas.Screen,0_2_4_2,,skipped,5,37439,,,37437,,37440,2021-10-29T13:15:38.911Z,37602,1635513200,full,ni_sequenzen,NI_Sequenzen,,,,,,,,,,,,,,
,Screen_4,canvas.Screen,0_2_4_3,,skipped,5,37440,,,37437,,37440,2021-10-29T13:15:38.911Z,37602,1635513200,full,ni_sequenzen,NI_Sequenzen,,,,,,,,,,,,,,
,Screen_5,canvas.Screen,0_2_4_4,,skipped,5,37440,,,37437,,37440,2021-10-29T13:15:38.912Z,37602,1635513200,full,ni_sequenzen,NI_Sequenzen,,,,,,,,,,,,,,
,Screen_6,canvas.Screen,0_2_4_5,,skipped,5,37442,,,37437,,37442,2021-10-29T13:15:38.913Z,37602,1635513200,full,ni_sequenzen,NI_Sequenzen,,,,,,,,,,,,,,
,Sequence,flow.Sequence,0_2_4,,completion,5,37437,,,37437,,37442,2021-10-29T13:15:38.913Z,37602,1635513200,full,ni_sequenzen,NI_Sequenzen,,,,,,,,,,,,,,
,Screen_1,canvas.Screen,0_2_5_0,,skipped,6,37443,,,37443,,37443,2021-10-29T13:15:38.914Z,37602,1635513200,full,ni_sequenzen,NI_Sequenzen,,,,,,,,,,,,,,
,Screen_2,canvas.Screen,0_2_5_1,,skipped,6,37443,,,37443,,37444,2021-10-29T13:15:38.915Z,37602,1635513200,full,ni_sequenzen,NI_Sequenzen,,,,,,,,,,,,,,
,Screen_3,canvas.Screen,0_2_5_2,,skipped,6,37445,,,37443,,37445,2021-10-29T13:15:38.916Z,37602,1635513200,full,ni_sequenzen,NI_Sequenzen,,,,,,,,,,,,,,
,Screen_4,canvas.Screen,0_2_5_3,,skipped,6,37447,,,37443,,37447,2021-10-29T13:15:38.918Z,37602,1635513200,full,ni_sequenzen,NI_Sequenzen,,,,,,,,,,,,,,
,Screen_5,canvas.Screen,0_2_5_4,,skipped,6,37448,,,37443,,37448,2021-10-29T13:15:38.919Z,37602,1635513200,full,ni_sequenzen,NI_Sequenzen,,,,,,,,,,,,,,
,Screen_6,canvas.Screen,0_2_5_5,,skipped,6,37448,,,37443,,37448,2021-10-29T13:15:38.920Z,37602,1635513200,full,ni_sequenzen,NI_Sequenzen,,,,,,,,,,,,,,
,Sequence,flow.Sequence,0_2_5,,completion,6,37442,,,37443,,37449,2021-10-29T13:15:38.920Z,37602,1635513200,full,ni_sequenzen,NI_Sequenzen,,,,,,,,,,,,,,
,Screen_1,canvas.Screen,0_2_6_0,,skipped,7,37450,,,37450,,37450,2021-10-29T13:15:38.923Z,37602,1635513200,full,ni_sequenzen,NI_Sequenzen,,,,,,,,,,,,,,
,Screen_2,canvas.Screen,0_2_6_1,,skipped,7,37451,,,37450,,37451,2021-10-29T13:15:38.923Z,37602,1635513200,full,ni_sequenzen,NI_Sequenzen,,,,,,,,,,,,,,
,Screen_3,canvas.Screen,0_2_6_2,,skipped,7,37452,,,37450,,37452,2021-10-29T13:15:38.924Z,37602,1635513200,full,ni_sequenzen,NI_Sequenzen,,,,,,,,,,,,,,
,Screen_4,canvas.Screen,0_2_6_3,,skipped,7,37453,,,37450,,37453,2021-10-29T13:15:38.925Z,37602,1635513200,full,ni_sequenzen,NI_Sequenzen,,,,,,,,,,,,,,
,Screen_5,canvas.Screen,0_2_6_4,,skipped,7,37454,,,37450,,37454,2021-10-29T13:15:38.927Z,37602,1635513200,full,ni_sequenzen,NI_Sequenzen,,,,,,,,,,,,,,
,Screen_6,canvas.Screen,0_2_6_5,,skipped,7,37456,,,37450,,37456,2021-10-29T13:15:38.929Z,37602,1635513200,full,ni_sequenzen,NI_Sequenzen,,,,,,,,,,,,,,
,Sequence,flow.Sequence,0_2_6,,completion,7,37450,,,37450,,37457,2021-10-29T13:15:38.929Z,37602,1635513200,full,ni_sequenzen,NI_Sequenzen,,,,,,,,,,,,,,
,Screen_1,canvas.Screen,0_2_7_0,,skipped,8,37458,,,37458,,37458,2021-10-29T13:15:38.930Z,37602,1635513200,full,ni_sequenzen,NI_Sequenzen,,,,,,,,,,,,,,
,Screen_2,canvas.Screen,0_2_7_1,,skipped,8,37458,,,37458,,37459,2021-10-29T13:15:38.930Z,37602,1635513200,full,ni_sequenzen,NI_Sequenzen,,,,,,,,,,,,,,
,Screen_3,canvas.Screen,0_2_7_2,,skipped,8,37459,,,37458,,37459,2021-10-29T13:15:38.931Z,37602,1635513200,full,ni_sequenzen,NI_Sequenzen,,,,,,,,,,,,,,
,Screen_4,canvas.Screen,0_2_7_3,,skipped,8,37460,,,37458,,37460,2021-10-29T13:15:38.932Z,37602,1635513200,full,ni_sequenzen,NI_Sequenzen,,,,,,,,,,,,,,
,Screen_5,canvas.Screen,0_2_7_4,,skipped,8,37461,,,37458,,37461,2021-10-29T13:15:38.933Z,37602,1635513200,full,ni_sequenzen,NI_Sequenzen,,,,,,,,,,,,,,
,Screen_6,canvas.Screen,0_2_7_5,,skipped,8,37462,,,37458,,37462,2021-10-29T13:15:38.934Z,37602,1635513200,full,ni_sequenzen,NI_Sequenzen,,,,,,,,,,,,,,
,Sequence,flow.Sequence,0_2_7,,completion,8,37457,,,37458,,37462,2021-10-29T13:15:38.934Z,37602,1635513200,full,ni_sequenzen,NI_Sequenzen,,,,,,,,,,,,,,
,Screen_1,canvas.Screen,0_2_8_0,,skipped,9,37463,,,37463,,37463,2021-10-29T13:15:38.935Z,37602,1635513200,full,ni_sequenzen,NI_Sequenzen,,,,,,,,,,,,,,
,Screen_2,canvas.Screen,0_2_8_1,,skipped,9,37463,,,37463,,37463,2021-10-29T13:15:38.936Z,37602,1635513200,full,ni_sequenzen,NI_Sequenzen,,,,,,,,,,,,,,
,Screen_3,canvas.Screen,0_2_8_2,,skipped,9,37464,,,37463,,37464,2021-10-29T13:15:38.936Z,37602,1635513200,full,ni_sequenzen,NI_Sequenzen,,,,,,,,,,,,,,
,Screen_4,canvas.Screen,0_2_8_3,,skipped,9,37465,,,37463,,37465,2021-10-29T13:15:38.937Z,37602,1635513200,full,ni_sequenzen,NI_Sequenzen,,,,,,,,,,,,,,
,Screen_5,canvas.Screen,0_2_8_4,,skipped,9,37466,,,37463,,37466,2021-10-29T13:15:38.938Z,37602,1635513200,full,ni_sequenzen,NI_Sequenzen,,,,,,,,,,,,,,
,Screen_6,canvas.Screen,0_2_8_5,,skipped,9,37467,,,37463,,37467,2021-10-29T13:15:38.939Z,37602,1635513200,full,ni_sequenzen,NI_Sequenzen,,,,,,,,,,,,,,
,Sequence,flow.Sequence,0_2_8,,completion,9,37462,,,37463,,37467,2021-10-29T13:15:38.939Z,37602,1635513200,full,ni_sequenzen,NI_Sequenzen,,,,,,,,,,,,,,
,Screen_1,canvas.Screen,0_2_9_0,,skipped,10,37468,,,37468,,37468,2021-10-29T13:15:38.940Z,37602,1635513200,full,ni_sequenzen,NI_Sequenzen,,,,,,,,,,,,,,
,Screen_2,canvas.Screen,0_2_9_1,,skipped,10,37469,,,37468,,37469,2021-10-29T13:15:38.940Z,37602,1635513200,full,ni_sequenzen,NI_Sequenzen,,,,,,,,,,,,,,
,Screen_3,canvas.Screen,0_2_9_2,,skipped,10,37470,,,37468,,37470,2021-10-29T13:15:38.941Z,37602,1635513200,full,ni_sequenzen,NI_Sequenzen,,,,,,,,,,,,,,
,Screen_4,canvas.Screen,0_2_9_3,,skipped,10,37470,,,37468,,37470,2021-10-29T13:15:38.942Z,37602,1635513200,full,ni_sequenzen,NI_Sequenzen,,,,,,,,,,,,,,
,Screen_5,canvas.Screen,0_2_9_4,,skipped,10,37471,,,37468,,37471,2021-10-29T13:15:38.943Z,37602,1635513200,full,ni_sequenzen,NI_Sequenzen,,,,,,,,,,,,,,
,Screen_6,canvas.Screen,0_2_9_5,,skipped,10,37472,,,37468,,37472,2021-10-29T13:15:38.943Z,37602,1635513200,full,ni_sequenzen,NI_Sequenzen,,,,,,,,,,,,,,
,Sequence,flow.Sequence,0_2_9,,completion,10,37467,,,37468,,37472,2021-10-29T13:15:38.943Z,37602,1635513200,full,ni_sequenzen,NI_Sequenzen,,,,,,,,,,,,,,
,Screen_1,canvas.Screen,0_2_10_0,,skipped,11,37473,,,37473,,37473,2021-10-29T13:15:38.945Z,37602,1635513200,full,ni_sequenzen,NI_Sequenzen,,,,,,,,,,,,,,
,Screen_2,canvas.Screen,0_2_10_1,,skipped,11,37474,,,37473,,37474,2021-10-29T13:15:38.946Z,37602,1635513200,full,ni_sequenzen,NI_Sequenzen,,,,,,,,,,,,,,
,Screen_3,canvas.Screen,0_2_10_2,,skipped,11,37475,,,37473,,37475,2021-10-29T13:15:38.946Z,37602,1635513200,full,ni_sequenzen,NI_Sequenzen,,,,,,,,,,,,,,
,Screen_4,canvas.Screen,0_2_10_3,,skipped,11,37475,,,37473,,37476,2021-10-29T13:15:38.947Z,37602,1635513200,full,ni_sequenzen,NI_Sequenzen,,,,,,,,,,,,,,
,Screen_5,canvas.Screen,0_2_10_4,,skipped,11,37476,,,37473,,37476,2021-10-29T13:15:38.948Z,37602,1635513200,full,ni_sequenzen,NI_Sequenzen,,,,,,,,,,,,,,
,Screen_6,canvas.Screen,0_2_10_5,,skipped,11,37477,,,37473,,37477,2021-10-29T13:15:38.949Z,37602,1635513200,full,ni_sequenzen,NI_Sequenzen,,,,,,,,,,,,,,
,Sequence,flow.Sequence,0_2_10,,completion,11,37472,,,37473,,37477,2021-10-29T13:15:38.949Z,37602,1635513200,full,ni_sequenzen,NI_Sequenzen,,,,,,,,,,,,,,
,Screen_1,canvas.Screen,0_2_11_0,,skipped,12,37478,,,37478,,37478,2021-10-29T13:15:38.950Z,37602,1635513200,full,ni_sequenzen,NI_Sequenzen,,,,,,,,,,,,,,
,Screen_2,canvas.Screen,0_2_11_1,,skipped,12,37479,,,37478,,37479,2021-10-29T13:15:38.951Z,37602,1635513200,full,ni_sequenzen,NI_Sequenzen,,,,,,,,,,,,,,
,Screen_3,canvas.Screen,0_2_11_2,,skipped,12,37480,,,37478,,37480,2021-10-29T13:15:38.952Z,37602,1635513200,full,ni_sequenzen,NI_Sequenzen,,,,,,,,,,,,,,
,Screen_4,canvas.Screen,0_2_11_3,,skipped,12,37480,,,37478,,37480,2021-10-29T13:15:38.952Z,37602,1635513200,full,ni_sequenzen,NI_Sequenzen,,,,,,,,,,,,,,
,Screen_5,canvas.Screen,0_2_11_4,,skipped,12,37481,,,37478,,37481,2021-10-29T13:15:38.953Z,37602,1635513200,full,ni_sequenzen,NI_Sequenzen,,,,,,,,,,,,,,
,Screen_6,canvas.Screen,0_2_11_5,,skipped,12,37482,,,37478,,37482,2021-10-29T13:15:38.954Z,37602,1635513200,full,ni_sequenzen,NI_Sequenzen,,,,,,,,,,,,,,
,Sequence,flow.Sequence,0_2_11,,completion,12,37478,,,37478,,37482,2021-10-29T13:15:38.954Z,37602,1635513200,full,ni_sequenzen,NI_Sequenzen,,,,,,,,,,,,,,
,Screen_1,canvas.Screen,0_2_12_0,,skipped,13,37484,,,37484,,37484,2021-10-29T13:15:38.956Z,37602,1635513200,full,ni_sequenzen,NI_Sequenzen,,,,,,,,,,,,,,
,Screen_2,canvas.Screen,0_2_12_1,,skipped,13,37484,,,37484,,37485,2021-10-29T13:15:38.956Z,37602,1635513200,full,ni_sequenzen,NI_Sequenzen,,,,,,,,,,,,,,
,Screen_3,canvas.Screen,0_2_12_2,,skipped,13,37485,,,37484,,37485,2021-10-29T13:15:38.957Z,37602,1635513200,full,ni_sequenzen,NI_Sequenzen,,,,,,,,,,,,,,
,Screen_4,canvas.Screen,0_2_12_3,,skipped,13,37486,,,37484,,37486,2021-10-29T13:15:38.958Z,37602,1635513200,full,ni_sequenzen,NI_Sequenzen,,,,,,,,,,,,,,
,Screen_5,canvas.Screen,0_2_12_4,,skipped,13,37487,,,37484,,37487,2021-10-29T13:15:38.958Z,37602,1635513200,full,ni_sequenzen,NI_Sequenzen,,,,,,,,,,,,,,
,Screen_6,canvas.Screen,0_2_12_5,,skipped,13,37488,,,37484,,37488,2021-10-29T13:15:38.959Z,37602,1635513200,full,ni_sequenzen,NI_Sequenzen,,,,,,,,,,,,,,
,Sequence,flow.Sequence,0_2_12,,completion,13,37483,,,37484,,37488,2021-10-29T13:15:38.959Z,37602,1635513200,full,ni_sequenzen,NI_Sequenzen,,,,,,,,,,,,,,
,Screen_1,canvas.Screen,0_2_13_0,,skipped,14,37489,,,37489,,37489,2021-10-29T13:15:38.960Z,37602,1635513200,full,ni_sequenzen,NI_Sequenzen,,,,,,,,,,,,,,
,Screen_2,canvas.Screen,0_2_13_1,,skipped,14,37490,,,37489,,37490,2021-10-29T13:15:38.962Z,37602,1635513200,full,ni_sequenzen,NI_Sequenzen,,,,,,,,,,,,,,
,Screen_3,canvas.Screen,0_2_13_2,,skipped,14,37490,,,37489,,37490,2021-10-29T13:15:38.962Z,37602,1635513200,full,ni_sequenzen,NI_Sequenzen,,,,,,,,,,,,,,
,Screen_4,canvas.Screen,0_2_13_3,,skipped,14,37491,,,37489,,37491,2021-10-29T13:15:38.963Z,37602,1635513200,full,ni_sequenzen,NI_Sequenzen,,,,,,,,,,,,,,
,Screen_5,canvas.Screen,0_2_13_4,,skipped,14,37492,,,37489,,37492,2021-10-29T13:15:38.964Z,37602,1635513200,full,ni_sequenzen,NI_Sequenzen,,,,,,,,,,,,,,
,Screen_6,canvas.Screen,0_2_13_5,,skipped,14,37493,,,37489,,37493,2021-10-29T13:15:38.965Z,37602,1635513200,full,ni_sequenzen,NI_Sequenzen,,,,,,,,,,,,,,
,Sequence,flow.Sequence,0_2_13,,completion,14,37488,,,37489,,37493,2021-10-29T13:15:38.965Z,37602,1635513200,full,ni_sequenzen,NI_Sequenzen,,,,,,,,,,,,,,
,Screen_1,canvas.Screen,0_2_14_0,,skipped,15,37494,,,37494,,37494,2021-10-29T13:15:38.966Z,37602,1635513200,full,ni_sequenzen,NI_Sequenzen,,,,,,,,,,,,,,
,Screen_2,canvas.Screen,0_2_14_1,,skipped,15,37495,,,37494,,37495,2021-10-29T13:15:38.966Z,37602,1635513200,full,ni_sequenzen,NI_Sequenzen,,,,,,,,,,,,,,
,Screen_3,canvas.Screen,0_2_14_2,,skipped,15,37495,,,37494,,37495,2021-10-29T13:15:38.968Z,37602,1635513200,full,ni_sequenzen,NI_Sequenzen,,,,,,,,,,,,,,
,Screen_4,canvas.Screen,0_2_14_3,,skipped,15,37496,,,37494,,37496,2021-10-29T13:15:38.968Z,37602,1635513200,full,ni_sequenzen,NI_Sequenzen,,,,,,,,,,,,,,
,Screen_5,canvas.Screen,0_2_14_4,,skipped,15,37497,,,37494,,37497,2021-10-29T13:15:38.969Z,37602,1635513200,full,ni_sequenzen,NI_Sequenzen,,,,,,,,,,,,,,
,Screen_6,canvas.Screen,0_2_14_5,,skipped,15,37498,,,37494,,37498,2021-10-29T13:15:38.969Z,37602,1635513200,full,ni_sequenzen,NI_Sequenzen,,,,,,,,,,,,,,
,Sequence,flow.Sequence,0_2_14,,completion,15,37493,,,37494,,37498,2021-10-29T13:15:38.969Z,37602,1635513200,full,ni_sequenzen,NI_Sequenzen,,,,,,,,,,,,,,
,Screen_1,canvas.Screen,0_2_15_0,,skipped,16,37500,,,37500,,37500,2021-10-29T13:15:38.971Z,37602,1635513200,full,ni_sequenzen,NI_Sequenzen,,,,,,,,,,,,,,
,Screen_2,canvas.Screen,0_2_15_1,,skipped,16,37500,,,37500,,37501,2021-10-29T13:15:38.972Z,37602,1635513200,full,ni_sequenzen,NI_Sequenzen,,,,,,,,,,,,,,
,Screen_3,canvas.Screen,0_2_15_2,,skipped,16,37502,,,37500,,37502,2021-10-29T13:15:38.973Z,37602,1635513200,full,ni_sequenzen,NI_Sequenzen,,,,,,,,,,,,,,
,Screen_4,canvas.Screen,0_2_15_3,,skipped,16,37502,,,37500,,37502,2021-10-29T13:15:38.974Z,37602,1635513200,full,ni_sequenzen,NI_Sequenzen,,,,,,,,,,,,,,
,Screen_5,canvas.Screen,0_2_15_4,,skipped,16,37503,,,37500,,37503,2021-10-29T13:15:38.975Z,37602,1635513200,full,ni_sequenzen,NI_Sequenzen,,,,,,,,,,,,,,
,Screen_6,canvas.Screen,0_2_15_5,,skipped,16,37504,,,37500,,37504,2021-10-29T13:15:38.975Z,37602,1635513200,full,ni_sequenzen,NI_Sequenzen,,,,,,,,,,,,,,
,Sequence,flow.Sequence,0_2_15,,completion,16,37499,,,37500,,37504,2021-10-29T13:15:38.975Z,37602,1635513200,full,ni_sequenzen,NI_Sequenzen,,,,,,,,,,,,,,
,Screen_1,canvas.Screen,0_2_16_0,,skipped,17,37506,,,37506,,37506,2021-10-29T13:15:38.978Z,37602,1635513200,full,ni_sequenzen,NI_Sequenzen,,,,,,,,,,,,,,
,Screen_2,canvas.Screen,0_2_16_1,,skipped,17,37507,,,37506,,37507,2021-10-29T13:15:38.979Z,37602,1635513200,full,ni_sequenzen,NI_Sequenzen,,,,,,,,,,,,,,
,Screen_3,canvas.Screen,0_2_16_2,,skipped,17,37508,,,37506,,37508,2021-10-29T13:15:38.980Z,37602,1635513200,full,ni_sequenzen,NI_Sequenzen,,,,,,,,,,,,,,
,Screen_4,canvas.Screen,0_2_16_3,,skipped,17,37509,,,37506,,37509,2021-10-29T13:15:38.981Z,37602,1635513200,full,ni_sequenzen,NI_Sequenzen,,,,,,,,,,,,,,
,Screen_5,canvas.Screen,0_2_16_4,,skipped,17,37510,,,37506,,37510,2021-10-29T13:15:38.982Z,37602,1635513200,full,ni_sequenzen,NI_Sequenzen,,,,,,,,,,,,,,
,Screen_6,canvas.Screen,0_2_16_5,,skipped,17,37511,,,37506,,37511,2021-10-29T13:15:38.982Z,37602,1635513200,full,ni_sequenzen,NI_Sequenzen,,,,,,,,,,,,,,
,Sequence,flow.Sequence,0_2_16,,completion,17,37505,,,37506,,37511,2021-10-29T13:15:38.983Z,37602,1635513200,full,ni_sequenzen,NI_Sequenzen,,,,,,,,,,,,,,
,Screen_1,canvas.Screen,0_2_17_0,,skipped,18,37512,,,37512,,37512,2021-10-29T13:15:38.984Z,37602,1635513200,full,ni_sequenzen,NI_Sequenzen,,,,,,,,,,,,,,
,Screen_2,canvas.Screen,0_2_17_1,,skipped,18,37513,,,37512,,37513,2021-10-29T13:15:38.985Z,37602,1635513200,full,ni_sequenzen,NI_Sequenzen,,,,,,,,,,,,,,
,Screen_3,canvas.Screen,0_2_17_2,,skipped,18,37514,,,37512,,37514,2021-10-29T13:15:38.985Z,37602,1635513200,full,ni_sequenzen,NI_Sequenzen,,,,,,,,,,,,,,
,Screen_4,canvas.Screen,0_2_17_3,,skipped,18,37515,,,37512,,37515,2021-10-29T13:15:38.986Z,37602,1635513200,full,ni_sequenzen,NI_Sequenzen,,,,,,,,,,,,,,
,Screen_5,canvas.Screen,0_2_17_4,,skipped,18,37517,,,37512,,37517,2021-10-29T13:15:38.988Z,37602,1635513200,full,ni_sequenzen,NI_Sequenzen,,,,,,,,,,,,,,
,Screen_6,canvas.Screen,0_2_17_5,,skipped,18,37518,,,37512,,37518,2021-10-29T13:15:38.989Z,37602,1635513200,full,ni_sequenzen,NI_Sequenzen,,,,,,,,,,,,,,
,Sequence,flow.Sequence,0_2_17,,completion,18,37512,,,37512,,37518,2021-10-29T13:15:38.989Z,37602,1635513200,full,ni_sequenzen,NI_Sequenzen,,,,,,,,,,,,,,
,Screen_1,canvas.Screen,0_2_18_0,,skipped,19,37520,,,37520,,37520,2021-10-29T13:15:38.991Z,37602,1635513200,full,ni_sequenzen,NI_Sequenzen,,,,,,,,,,,,,,
,Screen_2,canvas.Screen,0_2_18_1,,skipped,19,37521,,,37520,,37521,2021-10-29T13:15:38.992Z,37602,1635513200,full,ni_sequenzen,NI_Sequenzen,,,,,,,,,,,,,,
,Screen_3,canvas.Screen,0_2_18_2,,skipped,19,37522,,,37520,,37522,2021-10-29T13:15:38.993Z,37602,1635513200,full,ni_sequenzen,NI_Sequenzen,,,,,,,,,,,,,,
,Screen_4,canvas.Screen,0_2_18_3,,skipped,19,37523,,,37520,,37523,2021-10-29T13:15:38.994Z,37602,1635513200,full,ni_sequenzen,NI_Sequenzen,,,,,,,,,,,,,,
,Screen_5,canvas.Screen,0_2_18_4,,skipped,19,37524,,,37520,,37524,2021-10-29T13:15:38.995Z,37602,1635513200,full,ni_sequenzen,NI_Sequenzen,,,,,,,,,,,,,,
,Screen_6,canvas.Screen,0_2_18_5,,skipped,19,37525,,,37520,,37525,2021-10-29T13:15:38.996Z,37602,1635513200,full,ni_sequenzen,NI_Sequenzen,,,,,,,,,,,,,,
,Sequence,flow.Sequence,0_2_18,,completion,19,37519,,,37520,,37525,2021-10-29T13:15:38.997Z,37602,1635513200,full,ni_sequenzen,NI_Sequenzen,,,,,,,,,,,,,,
,Screen_1,canvas.Screen,0_2_19_0,,skipped,20,37526,,,37526,,37526,2021-10-29T13:15:38.998Z,37602,1635513200,full,ni_sequenzen,NI_Sequenzen,,,,,,,,,,,,,,
,Screen_2,canvas.Screen,0_2_19_1,,skipped,20,37527,,,37526,,37527,2021-10-29T13:15:38.998Z,37602,1635513200,full,ni_sequenzen,NI_Sequenzen,,,,,,,,,,,,,,
,Screen_3,canvas.Screen,0_2_19_2,,skipped,20,37528,,,37526,,37528,2021-10-29T13:15:38.999Z,37602,1635513200,full,ni_sequenzen,NI_Sequenzen,,,,,,,,,,,,,,
,Screen_4,canvas.Screen,0_2_19_3,,skipped,20,37529,,,37526,,37529,2021-10-29T13:15:39.000Z,37602,1635513200,full,ni_sequenzen,NI_Sequenzen,,,,,,,,,,,,,,
,Screen_5,canvas.Screen,0_2_19_4,,skipped,20,37530,,,37526,,37530,2021-10-29T13:15:39.001Z,37602,1635513200,full,ni_sequenzen,NI_Sequenzen,,,,,,,,,,,,,,
,Screen_6,canvas.Screen,0_2_19_5,,skipped,20,37531,,,37526,,37531,2021-10-29T13:15:39.002Z,37602,1635513200,full,ni_sequenzen,NI_Sequenzen,,,,,,,,,,,,,,
,Sequence,flow.Sequence,0_2_19,,completion,20,37525,,,37526,,37531,2021-10-29T13:15:39.002Z,37602,1635513200,full,ni_sequenzen,NI_Sequenzen,,,,,,,,,,,,,,
,Screen_1,canvas.Screen,0_2_20_0,,skipped,21,37532,,,37532,,37532,2021-10-29T13:15:39.004Z,37602,1635513200,full,ni_sequenzen,NI_Sequenzen,,,,,,,,,,,,,,
,Screen_2,canvas.Screen,0_2_20_1,,skipped,21,37534,,,37532,,37534,2021-10-29T13:15:39.005Z,37602,1635513200,full,ni_sequenzen,NI_Sequenzen,,,,,,,,,,,,,,
,Screen_3,canvas.Screen,0_2_20_2,,skipped,21,37534,,,37532,,37535,2021-10-29T13:15:39.006Z,37602,1635513200,full,ni_sequenzen,NI_Sequenzen,,,,,,,,,,,,,,
,Screen_4,canvas.Screen,0_2_20_3,,skipped,21,37536,,,37532,,37536,2021-10-29T13:15:39.007Z,37602,1635513200,full,ni_sequenzen,NI_Sequenzen,,,,,,,,,,,,,,
,Screen_5,canvas.Screen,0_2_20_4,,skipped,21,37536,,,37532,,37536,2021-10-29T13:15:39.008Z,37602,1635513200,full,ni_sequenzen,NI_Sequenzen,,,,,,,,,,,,,,
,Screen_6,canvas.Screen,0_2_20_5,,skipped,21,37537,,,37532,,37537,2021-10-29T13:15:39.009Z,37602,1635513200,full,ni_sequenzen,NI_Sequenzen,,,,,,,,,,,,,,
,Sequence,flow.Sequence,0_2_20,,completion,21,37532,,,37532,,37537,2021-10-29T13:15:39.009Z,37602,1635513200,full,ni_sequenzen,NI_Sequenzen,,,,,,,,,,,,,,
,Screen_1,canvas.Screen,0_2_21_0,,skipped,22,37538,,,37538,,37538,2021-10-29T13:15:39.010Z,37602,1635513200,full,ni_sequenzen,NI_Sequenzen,,,,,,,,,,,,,,
,Screen_2,canvas.Screen,0_2_21_1,,skipped,22,37539,,,37538,,37539,2021-10-29T13:15:39.011Z,37602,1635513200,full,ni_sequenzen,NI_Sequenzen,,,,,,,,,,,,,,
,Screen_3,canvas.Screen,0_2_21_2,,skipped,22,37540,,,37538,,37540,2021-10-29T13:15:39.012Z,37602,1635513200,full,ni_sequenzen,NI_Sequenzen,,,,,,,,,,,,,,
,Screen_4,canvas.Screen,0_2_21_3,,skipped,22,37540,,,37538,,37540,2021-10-29T13:15:39.012Z,37602,1635513200,full,ni_sequenzen,NI_Sequenzen,,,,,,,,,,,,,,
,Screen_5,canvas.Screen,0_2_21_4,,skipped,22,37541,,,37538,,37541,2021-10-29T13:15:39.013Z,37602,1635513200,full,ni_sequenzen,NI_Sequenzen,,,,,,,,,,,,,,
,Screen_6,canvas.Screen,0_2_21_5,,skipped,22,37542,,,37538,,37542,2021-10-29T13:15:39.013Z,37602,1635513200,full,ni_sequenzen,NI_Sequenzen,,,,,,,,,,,,,,
,Sequence,flow.Sequence,0_2_21,,completion,22,37537,,,37538,,37542,2021-10-29T13:15:39.014Z,37602,1635513200,full,ni_sequenzen,NI_Sequenzen,,,,,,,,,,,,,,
,Screen_1,canvas.Screen,0_2_22_0,,skipped,23,37543,,,37543,,37543,2021-10-29T13:15:39.014Z,37602,1635513200,full,ni_sequenzen,NI_Sequenzen,,,,,,,,,,,,,,
,Screen_2,canvas.Screen,0_2_22_1,,skipped,23,37544,,,37543,,37544,2021-10-29T13:15:39.015Z,37602,1635513200,full,ni_sequenzen,NI_Sequenzen,,,,,,,,,,,,,,
,Screen_3,canvas.Screen,0_2_22_2,,skipped,23,37544,,,37543,,37544,2021-10-29T13:15:39.016Z,37602,1635513200,full,ni_sequenzen,NI_Sequenzen,,,,,,,,,,,,,,
,Screen_4,canvas.Screen,0_2_22_3,,skipped,23,37545,,,37543,,37545,2021-10-29T13:15:39.017Z,37602,1635513200,full,ni_sequenzen,NI_Sequenzen,,,,,,,,,,,,,,
,Screen_5,canvas.Screen,0_2_22_4,,skipped,23,37546,,,37543,,37546,2021-10-29T13:15:39.018Z,37602,1635513200,full,ni_sequenzen,NI_Sequenzen,,,,,,,,,,,,,,
,Screen_6,canvas.Screen,0_2_22_5,,skipped,23,37547,,,37543,,37547,2021-10-29T13:15:39.019Z,37602,1635513200,full,ni_sequenzen,NI_Sequenzen,,,,,,,,,,,,,,
,Sequence,flow.Sequence,0_2_22,,completion,23,37542,,,37543,,37547,2021-10-29T13:15:39.019Z,37602,1635513200,full,ni_sequenzen,NI_Sequenzen,,,,,,,,,,,,,,
,Screen_1,canvas.Screen,0_2_23_0,,skipped,24,37548,,,37548,,37548,2021-10-29T13:15:39.020Z,37602,1635513200,full,ni_sequenzen,NI_Sequenzen,,,,,,,,,,,,,,
,Screen_2,canvas.Screen,0_2_23_1,,skipped,24,37549,,,37548,,37549,2021-10-29T13:15:39.021Z,37602,1635513200,full,ni_sequenzen,NI_Sequenzen,,,,,,,,,,,,,,
,Screen_3,canvas.Screen,0_2_23_2,,skipped,24,37549,,,37548,,37549,2021-10-29T13:15:39.021Z,37602,1635513200,full,ni_sequenzen,NI_Sequenzen,,,,,,,,,,,,,,
,Screen_4,canvas.Screen,0_2_23_3,,skipped,24,37550,,,37548,,37550,2021-10-29T13:15:39.022Z,37602,1635513200,full,ni_sequenzen,NI_Sequenzen,,,,,,,,,,,,,,
,Screen_5,canvas.Screen,0_2_23_4,,skipped,24,37551,,,37548,,37551,2021-10-29T13:15:39.023Z,37602,1635513200,full,ni_sequenzen,NI_Sequenzen,,,,,,,,,,,,,,
,Screen_6,canvas.Screen,0_2_23_5,,skipped,24,37552,,,37548,,37552,2021-10-29T13:15:39.024Z,37602,1635513200,full,ni_sequenzen,NI_Sequenzen,,,,,,,,,,,,,,
,Sequence,flow.Sequence,0_2_23,,completion,24,37547,,,37548,,37552,2021-10-29T13:15:39.024Z,37602,1635513200,full,ni_sequenzen,NI_Sequenzen,,,,,,,,,,,,,,
,Screen_1,canvas.Screen,0_2_24_0,,skipped,25,37553,,,37553,,37553,2021-10-29T13:15:39.024Z,37602,1635513200,full,ni_sequenzen,NI_Sequenzen,,,,,,,,,,,,,,
,Screen_2,canvas.Screen,0_2_24_1,,skipped,25,37554,,,37553,,37554,2021-10-29T13:15:39.026Z,37602,1635513200,full,ni_sequenzen,NI_Sequenzen,,,,,,,,,,,,,,
,Screen_3,canvas.Screen,0_2_24_2,,skipped,25,37555,,,37553,,37555,2021-10-29T13:15:39.027Z,37602,1635513200,full,ni_sequenzen,NI_Sequenzen,,,,,,,,,,,,,,
,Screen_4,canvas.Screen,0_2_24_3,,skipped,25,37555,,,37553,,37556,2021-10-29T13:15:39.027Z,37602,1635513200,full,ni_sequenzen,NI_Sequenzen,,,,,,,,,,,,,,
,Screen_5,canvas.Screen,0_2_24_4,,skipped,25,37556,,,37553,,37556,2021-10-29T13:15:39.028Z,37602,1635513200,full,ni_sequenzen,NI_Sequenzen,,,,,,,,,,,,,,
,Screen_6,canvas.Screen,0_2_24_5,,skipped,25,37557,,,37553,,37557,2021-10-29T13:15:39.029Z,37602,1635513200,full,ni_sequenzen,NI_Sequenzen,,,,,,,,,,,,,,
,Sequence,flow.Sequence,0_2_24,,completion,25,37552,,,37553,,37557,2021-10-29T13:15:39.029Z,37602,1635513200,full,ni_sequenzen,NI_Sequenzen,,,,,,,,,,,,,,
,Screen_1,canvas.Screen,0_2_25_0,,skipped,26,37558,,,37558,,37558,2021-10-29T13:15:39.030Z,37602,1635513200,full,ni_sequenzen,NI_Sequenzen,,,,,,,,,,,,,,
,Screen_2,canvas.Screen,0_2_25_1,,skipped,26,37559,,,37558,,37559,2021-10-29T13:15:39.031Z,37602,1635513200,full,ni_sequenzen,NI_Sequenzen,,,,,,,,,,,,,,
,Screen_3,canvas.Screen,0_2_25_2,,skipped,26,37560,,,37558,,37560,2021-10-29T13:15:39.031Z,37602,1635513200,full,ni_sequenzen,NI_Sequenzen,,,,,,,,,,,,,,
,Screen_4,canvas.Screen,0_2_25_3,,skipped,26,37560,,,37558,,37561,2021-10-29T13:15:39.032Z,37602,1635513200,full,ni_sequenzen,NI_Sequenzen,,,,,,,,,,,,,,
,Screen_5,canvas.Screen,0_2_25_4,,skipped,26,37561,,,37558,,37561,2021-10-29T13:15:39.033Z,37602,1635513200,full,ni_sequenzen,NI_Sequenzen,,,,,,,,,,,,,,
,Screen_6,canvas.Screen,0_2_25_5,,skipped,26,37562,,,37558,,37562,2021-10-29T13:15:39.033Z,37602,1635513200,full,ni_sequenzen,NI_Sequenzen,,,,,,,,,,,,,,
,Sequence,flow.Sequence,0_2_25,,completion,26,37558,,,37558,,37562,2021-10-29T13:15:39.033Z,37602,1635513200,full,ni_sequenzen,NI_Sequenzen,,,,,,,,,,,,,,
,Screen_1,canvas.Screen,0_2_26_0,,skipped,27,37563,,,37563,,37563,2021-10-29T13:15:39.034Z,37602,1635513200,full,ni_sequenzen,NI_Sequenzen,,,,,,,,,,,,,,
,Screen_2,canvas.Screen,0_2_26_1,,skipped,27,37563,,,37563,,37563,2021-10-29T13:15:39.036Z,37602,1635513200,full,ni_sequenzen,NI_Sequenzen,,,,,,,,,,,,,,
,Screen_3,canvas.Screen,0_2_26_2,,skipped,27,37564,,,37563,,37564,2021-10-29T13:15:39.036Z,37602,1635513200,full,ni_sequenzen,NI_Sequenzen,,,,,,,,,,,,,,
,Screen_4,canvas.Screen,0_2_26_3,,skipped,27,37565,,,37563,,37565,2021-10-29T13:15:39.037Z,37602,1635513200,full,ni_sequenzen,NI_Sequenzen,,,,,,,,,,,,,,
,Screen_5,canvas.Screen,0_2_26_4,,skipped,27,37566,,,37563,,37566,2021-10-29T13:15:39.037Z,37602,1635513200,full,ni_sequenzen,NI_Sequenzen,,,,,,,,,,,,,,
,Screen_6,canvas.Screen,0_2_26_5,,skipped,27,37566,,,37563,,37566,2021-10-29T13:15:39.038Z,37602,1635513200,full,ni_sequenzen,NI_Sequenzen,,,,,,,,,,,,,,
,Sequence,flow.Sequence,0_2_26,,completion,27,37562,,,37563,,37567,2021-10-29T13:15:39.038Z,37602,1635513200,full,ni_sequenzen,NI_Sequenzen,,,,,,,,,,,,,,
,Screen_1,canvas.Screen,0_2_27_0,,skipped,28,37568,,,37568,,37568,2021-10-29T13:15:39.039Z,37602,1635513200,full,ni_sequenzen,NI_Sequenzen,,,,,,,,,,,,,,
,Screen_2,canvas.Screen,0_2_27_1,,skipped,28,37568,,,37568,,37568,2021-10-29T13:15:39.040Z,37602,1635513200,full,ni_sequenzen,NI_Sequenzen,,,,,,,,,,,,,,
,Screen_3,canvas.Screen,0_2_27_2,,skipped,28,37569,,,37568,,37569,2021-10-29T13:15:39.040Z,37602,1635513200,full,ni_sequenzen,NI_Sequenzen,,,,,,,,,,,,,,
,Screen_4,canvas.Screen,0_2_27_3,,skipped,28,37570,,,37568,,37570,2021-10-29T13:15:39.042Z,37602,1635513200,full,ni_sequenzen,NI_Sequenzen,,,,,,,,,,,,,,
,Screen_5,canvas.Screen,0_2_27_4,,skipped,28,37571,,,37568,,37571,2021-10-29T13:15:39.043Z,37602,1635513200,full,ni_sequenzen,NI_Sequenzen,,,,,,,,,,,,,,
,Screen_6,canvas.Screen,0_2_27_5,,skipped,28,37571,,,37568,,37571,2021-10-29T13:15:39.043Z,37602,1635513200,full,ni_sequenzen,NI_Sequenzen,,,,,,,,,,,,,,
,Sequence,flow.Sequence,0_2_27,,completion,28,37567,,,37568,,37572,2021-10-29T13:15:39.043Z,37602,1635513200,full,ni_sequenzen,NI_Sequenzen,,,,,,,,,,,,,,
,Screen_1,canvas.Screen,0_2_28_0,,skipped,29,37573,,,37573,,37573,2021-10-29T13:15:39.044Z,37602,1635513200,full,ni_sequenzen,NI_Sequenzen,,,,,,,,,,,,,,
,Screen_2,canvas.Screen,0_2_28_1,,skipped,29,37573,,,37573,,37573,2021-10-29T13:15:39.045Z,37602,1635513200,full,ni_sequenzen,NI_Sequenzen,,,,,,,,,,,,,,
,Screen_3,canvas.Screen,0_2_28_2,,skipped,29,37574,,,37573,,37574,2021-10-29T13:15:39.046Z,37602,1635513200,full,ni_sequenzen,NI_Sequenzen,,,,,,,,,,,,,,
,Screen_4,canvas.Screen,0_2_28_3,,skipped,29,37575,,,37573,,37575,2021-10-29T13:15:39.046Z,37602,1635513200,full,ni_sequenzen,NI_Sequenzen,,,,,,,,,,,,,,
,Screen_5,canvas.Screen,0_2_28_4,,skipped,29,37576,,,37573,,37576,2021-10-29T13:15:39.047Z,37602,1635513200,full,ni_sequenzen,NI_Sequenzen,,,,,,,,,,,,,,
,Screen_6,canvas.Screen,0_2_28_5,,skipped,29,37576,,,37573,,37577,2021-10-29T13:15:39.048Z,37602,1635513200,full,ni_sequenzen,NI_Sequenzen,,,,,,,,,,,,,,
,Sequence,flow.Sequence,0_2_28,,completion,29,37572,,,37573,,37577,2021-10-29T13:15:39.048Z,37602,1635513200,full,ni_sequenzen,NI_Sequenzen,,,,,,,,,,,,,,
,Screen_1,canvas.Screen,0_2_29_0,,skipped,30,37577,,,37577,,37577,2021-10-29T13:15:39.049Z,37602,1635513200,full,ni_sequenzen,NI_Sequenzen,,,,,,,,,,,,,,
,Screen_2,canvas.Screen,0_2_29_1,,skipped,30,37578,,,37577,,37578,2021-10-29T13:15:39.049Z,37602,1635513200,full,ni_sequenzen,NI_Sequenzen,,,,,,,,,,,,,,
,Screen_3,canvas.Screen,0_2_29_2,,skipped,30,37579,,,37577,,37579,2021-10-29T13:15:39.050Z,37602,1635513200,full,ni_sequenzen,NI_Sequenzen,,,,,,,,,,,,,,
,Screen_4,canvas.Screen,0_2_29_3,,skipped,30,37579,,,37577,,37580,2021-10-29T13:15:39.050Z,37602,1635513200,full,ni_sequenzen,NI_Sequenzen,,,,,,,,,,,,,,
,Screen_5,canvas.Screen,0_2_29_4,,skipped,30,37580,,,37577,,37580,2021-10-29T13:15:39.052Z,37602,1635513200,full,ni_sequenzen,NI_Sequenzen,,,,,,,,,,,,,,
,Screen_6,canvas.Screen,0_2_29_5,,skipped,30,37581,,,37577,,37581,2021-10-29T13:15:39.053Z,37602,1635513200,full,ni_sequenzen,NI_Sequenzen,,,,,,,,,,,,,,
,Sequence,flow.Sequence,0_2_29,,completion,30,37577,,,37577,,37581,2021-10-29T13:15:39.053Z,37602,1635513200,full,ni_sequenzen,NI_Sequenzen,,,,,,,,,,,,,,
,Instructions_II,flow.Loop,0_2,,completion,,20169,20171.56,20182.78,37577,17394.22,37581,2021-10-29T13:15:39.053Z,37602,1635513200,full,ni_sequenzen,NI_Sequenzen,,,,,,,,,,,,,,
,Move,canvas.Screen,0_3_0_0_0_0,down,response,,37601,37601.56,37602,49137,11535,49174,2021-10-29T13:15:50.645Z,49184.86,1635513200,full,ni_sequenzen,NI_Sequenzen,1,0,,,,,,,,,,,,
,Move,canvas.Screen,0_3_0_0_0_1,left,response,,49185,49184.52,49184.86,50201,1016.1399999999994,50210,2021-10-29T13:15:51.682Z,50217.92,1635513200,full,ni_sequenzen,NI_Sequenzen,2,0,,,,,,,,,,,,
,Move,canvas.Screen,0_3_0_0_0_2,down,response,,50218,50217.62,50217.92,50872,654.0800000000017,50882,2021-10-29T13:15:52.353Z,50890.44,1635513200,full,ni_sequenzen,NI_Sequenzen,3,0,,,,,,,,,,,,
,Move,canvas.Screen,0_3_0_0_0_3,left,response,,50890,50890.08,50890.44,51357,466.5599999999977,51368,2021-10-29T13:15:52.840Z,51424.58,1635513200,full,ni_sequenzen,NI_Sequenzen,4,0,,,,,,,,,,,,
,Move,canvas.Screen,0_3_0_0_0_4,-999,skipped,,51379,,,51357,,51379,2021-10-29T13:15:52.851Z,51424.58,1635513200,full,ni_sequenzen,NI_Sequenzen,5,0,,,,,,,,,,,,
,Move,canvas.Screen,0_3_0_0_0_5,-999,skipped,,51384,,,51357,,51384,2021-10-29T13:15:52.855Z,51424.58,1635513200,full,ni_sequenzen,NI_Sequenzen,6,0,,,,,,,,,,,,
,Move,canvas.Screen,0_3_0_0_0_6,-999,skipped,,51388,,,51357,,51389,2021-10-29T13:15:52.860Z,51424.58,1635513200,full,ni_sequenzen,NI_Sequenzen,7,0,,,,,,,,,,,,
,Move,canvas.Screen,0_3_0_0_0_7,-999,skipped,,51392,,,51357,,51393,2021-10-29T13:15:52.863Z,51424.58,1635513200,full,ni_sequenzen,NI_Sequenzen,8,0,,,,,,,,,,,,
,Move,canvas.Screen,0_3_0_0_0_8,-999,skipped,,51397,,,51357,,51397,2021-10-29T13:15:52.868Z,51424.58,1635513200,full,ni_sequenzen,NI_Sequenzen,9,0,,,,,,,,,,,,
,Move,canvas.Screen,0_3_0_0_0_9,-999,skipped,,51401,,,51357,,51401,2021-10-29T13:15:52.873Z,51424.58,1635513200,full,ni_sequenzen,NI_Sequenzen,10,0,,,,,,,,,,,,
,Move,canvas.Screen,0_3_0_0_0_10,-999,skipped,,51406,,,51357,,51406,2021-10-29T13:15:52.877Z,51424.58,1635513200,full,ni_sequenzen,NI_Sequenzen,11,0,,,,,,,,,,,,
,Move,canvas.Screen,0_3_0_0_0_11,-999,skipped,,51409,,,51357,,51409,2021-10-29T13:15:52.880Z,51424.58,1635513200,full,ni_sequenzen,NI_Sequenzen,12,0,,,,,,,,,,,,
,Move,canvas.Screen,0_3_0_0_0_12,-999,skipped,,51413,,,51357,,51413,2021-10-29T13:15:52.884Z,51424.58,1635513200,full,ni_sequenzen,NI_Sequenzen,13,0,,,,,,,,,,,,
,Move,canvas.Screen,0_3_0_0_0_13,-999,skipped,,51417,,,51357,,51417,2021-10-29T13:15:52.889Z,51424.58,1635513200,full,ni_sequenzen,NI_Sequenzen,14,0,,,,,,,,,,,,
,Move,canvas.Screen,0_3_0_0_0_14,-999,skipped,,51421,,,51357,,51421,2021-10-29T13:15:52.892Z,51424.58,1635513200,full,ni_sequenzen,NI_Sequenzen,15,0,,,,,,,,,,,,
,Loop,flow.Loop,0_3_0_0_0,-999,completion,,37597,37601.56,37602,51357,13755,51421,2021-10-29T13:15:52.893Z,51424.58,1635513200,full,ni_sequenzen,NI_Sequenzen,,0,,,,,,,,,,,,
,Feedback,canvas.Screen,0_3_0_0_1,,timeout,,51424,51424.16,51424.58,55403.8,3999.6199999999953,55406,2021-10-29T13:15:56.877Z,55424.2,1635513200,full,ni_sequenzen,NI_Sequenzen,,0,,,,,,,,,,,,
,Trial,flow.Sequence,0_3_0_0,,completion,,37590,37601.56,37602,55403.8,17801.800000000003,55406,2021-10-29T13:15:56.878Z,55437.1,1635513200,full,ni_sequenzen,NI_Sequenzen,,0,,,,,,,,,,,,
,Move,canvas.Screen,0_3_0_1_0_0,down,response,,55424,55424.2,55437.1,58888,3450.9000000000015,58896,2021-10-29T13:16:00.367Z,58905.32,1635513200,full,ni_sequenzen,NI_Sequenzen,1,1,,,,,,,,,,,,
,Move,canvas.Screen,0_3_0_1_0_1,left,response,,58905,58904.96,58905.32,60185,1279.6800000000003,60206,2021-10-29T13:16:01.677Z,60216.44,1635513200,full,ni_sequenzen,NI_Sequenzen,2,1,,,,,,,,,,,,
,Move,canvas.Screen,0_3_0_1_0_2,down,response,,60215,60214.98,60216.44,61029,812.5599999999977,61044,2021-10-29T13:16:02.515Z,61052,1635513200,full,ni_sequenzen,NI_Sequenzen,3,1,,,,,,,,,,,,
,Move,canvas.Screen,0_3_0_1_0_3,left,response,,61051,61051.68,61052,61450,398,61452,2021-10-29T13:16:02.923Z,61496.5,1635513200,full,ni_sequenzen,NI_Sequenzen,4,1,,,,,,,,,,,,
,Move,canvas.Screen,0_3_0_1_0_4,-999,skipped,,61457,,,61450,,61457,2021-10-29T13:16:02.928Z,61496.5,1635513200,full,ni_sequenzen,NI_Sequenzen,5,1,,,,,,,,,,,,
,Move,canvas.Screen,0_3_0_1_0_5,-999,skipped,,61461,,,61450,,61462,2021-10-29T13:16:02.932Z,61496.5,1635513200,full,ni_sequenzen,NI_Sequenzen,6,1,,,,,,,,,,,,
,Move,canvas.Screen,0_3_0_1_0_6,-999,skipped,,61465,,,61450,,61465,2021-10-29T13:16:02.937Z,61496.5,1635513200,full,ni_sequenzen,NI_Sequenzen,7,1,,,,,,,,,,,,
,Move,canvas.Screen,0_3_0_1_0_7,-999,skipped,,61469,,,61450,,61469,2021-10-29T13:16:02.941Z,61496.5,1635513200,full,ni_sequenzen,NI_Sequenzen,8,1,,,,,,,,,,,,
,Move,canvas.Screen,0_3_0_1_0_8,-999,skipped,,61473,,,61450,,61473,2021-10-29T13:16:02.944Z,61496.5,1635513200,full,ni_sequenzen,NI_Sequenzen,9,1,,,,,,,,,,,,
,Move,canvas.Screen,0_3_0_1_0_9,-999,skipped,,61476,,,61450,,61476,2021-10-29T13:16:02.948Z,61496.5,1635513200,full,ni_sequenzen,NI_Sequenzen,10,1,,,,,,,,,,,,
,Move,canvas.Screen,0_3_0_1_0_10,-999,skipped,,61479,,,61450,,61479,2021-10-29T13:16:02.951Z,61496.5,1635513200,full,ni_sequenzen,NI_Sequenzen,11,1,,,,,,,,,,,,
,Move,canvas.Screen,0_3_0_1_0_11,-999,skipped,,61483,,,61450,,61483,2021-10-29T13:16:02.955Z,61496.5,1635513200,full,ni_sequenzen,NI_Sequenzen,12,1,,,,,,,,,,,,
,Move,canvas.Screen,0_3_0_1_0_12,-999,skipped,,61486,,,61450,,61486,2021-10-29T13:16:02.958Z,61496.5,1635513200,full,ni_sequenzen,NI_Sequenzen,13,1,,,,,,,,,,,,
,Move,canvas.Screen,0_3_0_1_0_13,-999,skipped,,61490,,,61450,,61490,2021-10-29T13:16:02.961Z,61496.5,1635513200,full,ni_sequenzen,NI_Sequenzen,14,1,,,,,,,,,,,,
,Move,canvas.Screen,0_3_0_1_0_14,-999,skipped,,61493,,,61450,,61493,2021-10-29T13:16:02.965Z,61496.5,1635513200,full,ni_sequenzen,NI_Sequenzen,15,1,,,,,,,,,,,,
,Loop,flow.Loop,0_3_0_1_0,-999,completion,,55420,55424.2,55437.1,61450,6012.9000000000015,61493,2021-10-29T13:16:02.965Z,61496.5,1635513200,full,ni_sequenzen,NI_Sequenzen,,1,,,,,,,,,,,,
,Feedback,canvas.Screen,0_3_0_1_1,,timeout,,61496,61496.12,61496.5,65478.96,4001.6200000000026,65481,2021-10-29T13:16:06.952Z,65498.12,1635513200,full,ni_sequenzen,NI_Sequenzen,,1,,,,,,,,,,,,
,Trial,flow.Sequence,0_3_0_1,,completion,,55407,55424.2,55437.1,65478.96,10041.86,65481,2021-10-29T13:16:06.953Z,65512.16,1635513200,full,ni_sequenzen,NI_Sequenzen,,1,,,,,,,,,,,,
,Move,canvas.Screen,0_3_0_2_0_0,right,response,,65498,65498.12,65512.16,68560,3047.8399999999965,68581,2021-10-29T13:16:10.052Z,68590.32,1635513200,full,ni_sequenzen,NI_Sequenzen,1,2,,,,,,,,,,,,
,Move,canvas.Screen,0_3_0_2_0_1,down,response,,68590,68590.02,68590.32,69091,500.679999999993,69107,2021-10-29T13:16:10.579Z,69115.66,1635513200,full,ni_sequenzen,NI_Sequenzen,2,2,,,,,,,,,,,,
,Move,canvas.Screen,0_3_0_2_0_2,right,response,,69115,69115.28,69115.66,69638,522.3399999999965,69664,2021-10-29T13:16:11.135Z,69672.14,1635513200,full,ni_sequenzen,NI_Sequenzen,3,2,,,,,,,,,,,,
,Move,canvas.Screen,0_3_0_2_0_3,down,response,,69672,69671.8,69672.14,70044,371.8600000000006,70058,2021-10-29T13:16:11.530Z,70105.2,1635513200,full,ni_sequenzen,NI_Sequenzen,4,2,,,,,,,,,,,,
,Move,canvas.Screen,0_3_0_2_0_4,-999,skipped,,70066,,,70044,,70067,2021-10-29T13:16:11.537Z,70105.2,1635513200,full,ni_sequenzen,NI_Sequenzen,5,2,,,,,,,,,,,,
,Move,canvas.Screen,0_3_0_2_0_5,-999,skipped,,70070,,,70044,,70070,2021-10-29T13:16:11.541Z,70105.2,1635513200,full,ni_sequenzen,NI_Sequenzen,6,2,,,,,,,,,,,,
,Move,canvas.Screen,0_3_0_2_0_6,-999,skipped,,70073,,,70044,,70073,2021-10-29T13:16:11.544Z,70105.2,1635513200,full,ni_sequenzen,NI_Sequenzen,7,2,,,,,,,,,,,,
,Move,canvas.Screen,0_3_0_2_0_7,-999,skipped,,70076,,,70044,,70076,2021-10-29T13:16:11.547Z,70105.2,1635513200,full,ni_sequenzen,NI_Sequenzen,8,2,,,,,,,,,,,,
,Move,canvas.Screen,0_3_0_2_0_8,-999,skipped,,70080,,,70044,,70081,2021-10-29T13:16:11.551Z,70105.2,1635513200,full,ni_sequenzen,NI_Sequenzen,9,2,,,,,,,,,,,,
,Move,canvas.Screen,0_3_0_2_0_9,-999,skipped,,70085,,,70044,,70085,2021-10-29T13:16:11.556Z,70105.2,1635513200,full,ni_sequenzen,NI_Sequenzen,10,2,,,,,,,,,,,,
,Move,canvas.Screen,0_3_0_2_0_10,-999,skipped,,70087,,,70044,,70087,2021-10-29T13:16:11.559Z,70105.2,1635513200,full,ni_sequenzen,NI_Sequenzen,11,2,,,,,,,,,,,,
,Move,canvas.Screen,0_3_0_2_0_11,-999,skipped,,70090,,,70044,,70091,2021-10-29T13:16:11.563Z,70105.2,1635513200,full,ni_sequenzen,NI_Sequenzen,12,2,,,,,,,,,,,,
,Move,canvas.Screen,0_3_0_2_0_12,-999,skipped,,70094,,,70044,,70094,2021-10-29T13:16:11.566Z,70105.2,1635513200,full,ni_sequenzen,NI_Sequenzen,13,2,,,,,,,,,,,,
,Move,canvas.Screen,0_3_0_2_0_13,-999,skipped,,70097,,,70044,,70098,2021-10-29T13:16:11.569Z,70105.2,1635513200,full,ni_sequenzen,NI_Sequenzen,14,2,,,,,,,,,,,,
,Move,canvas.Screen,0_3_0_2_0_14,-999,skipped,,70102,,,70044,,70102,2021-10-29T13:16:11.574Z,70105.2,1635513200,full,ni_sequenzen,NI_Sequenzen,15,2,,,,,,,,,,,,
,Loop,flow.Loop,0_3_0_2_0,-999,completion,,65495,65498.12,65512.16,70044,4531.8399999999965,70102,2021-10-29T13:16:11.574Z,70105.2,1635513200,full,ni_sequenzen,NI_Sequenzen,,2,,,,,,,,,,,,
,Feedback,canvas.Screen,0_3_0_2_1,,timeout,,70104,70104.76,70105.2,74088.58,3999.8800000000047,74090,2021-10-29T13:16:15.562Z,74105.08,1635513200,full,ni_sequenzen,NI_Sequenzen,,2,,,,,,,,,,,,
,Trial,flow.Sequence,0_3_0_2,,completion,,65483,65498.12,65512.16,74088.58,8576.419999999998,74092,2021-10-29T13:16:15.563Z,74121.74,1635513200,full,ni_sequenzen,NI_Sequenzen,,2,,,,,,,,,,,,
,Move,canvas.Screen,0_3_0_3_0_0,right,response,,74104,74105.08,74121.74,76231,2109.2599999999948,76255,2021-10-29T13:16:17.727Z,76262.26,1635513200,full,ni_sequenzen,NI_Sequenzen,1,3,,,,,,,,,,,,
,Move,canvas.Screen,0_3_0_3_0_1,down,response,,76262,76261.94,76262.26,78076,1813.7400000000052,78110,2021-10-29T13:16:19.581Z,78120.96,1635513200,full,ni_sequenzen,NI_Sequenzen,2,3,,,,,,,,,,,,
,Move,canvas.Screen,0_3_0_3_0_2,right,response,,78121,78120.64,78120.96,78419,298.0399999999936,78433,2021-10-29T13:16:19.904Z,78443.8,1635513200,full,ni_sequenzen,NI_Sequenzen,3,3,,,,,,,,,,,,
,Move,canvas.Screen,0_3_0_3_0_3,down,response,,78443,78443.5,78443.8,79091,647.1999999999971,79100,2021-10-29T13:16:20.572Z,79158.74,1635513200,full,ni_sequenzen,NI_Sequenzen,4,3,,,,,,,,,,,,
,Move,canvas.Screen,0_3_0_3_0_4,-999,skipped,,79111,,,79091,,79111,2021-10-29T13:16:20.583Z,79158.74,1635513200,full,ni_sequenzen,NI_Sequenzen,5,3,,,,,,,,,,,,
,Move,canvas.Screen,0_3_0_3_0_5,-999,skipped,,79117,,,79091,,79117,2021-10-29T13:16:20.588Z,79158.74,1635513200,full,ni_sequenzen,NI_Sequenzen,6,3,,,,,,,,,,,,
,Move,canvas.Screen,0_3_0_3_0_6,-999,skipped,,79121,,,79091,,79121,2021-10-29T13:16:20.592Z,79158.74,1635513200,full,ni_sequenzen,NI_Sequenzen,7,3,,,,,,,,,,,,
,Move,canvas.Screen,0_3_0_3_0_7,-999,skipped,,79125,,,79091,,79125,2021-10-29T13:16:20.598Z,79158.74,1635513200,full,ni_sequenzen,NI_Sequenzen,8,3,,,,,,,,,,,,
,Move,canvas.Screen,0_3_0_3_0_8,-999,skipped,,79131,,,79091,,79131,2021-10-29T13:16:20.602Z,79158.74,1635513200,full,ni_sequenzen,NI_Sequenzen,9,3,,,,,,,,,,,,
,Move,canvas.Screen,0_3_0_3_0_9,-999,skipped,,79134,,,79091,,79134,2021-10-29T13:16:20.606Z,79158.74,1635513200,full,ni_sequenzen,NI_Sequenzen,10,3,,,,,,,,,,,,
,Move,canvas.Screen,0_3_0_3_0_10,-999,skipped,,79138,,,79091,,79138,2021-10-29T13:16:20.610Z,79158.74,1635513200,full,ni_sequenzen,NI_Sequenzen,11,3,,,,,,,,,,,,
,Move,canvas.Screen,0_3_0_3_0_11,-999,skipped,,79142,,,79091,,79142,2021-10-29T13:16:20.614Z,79158.74,1635513200,full,ni_sequenzen,NI_Sequenzen,12,3,,,,,,,,,,,,
,Move,canvas.Screen,0_3_0_3_0_12,-999,skipped,,79146,,,79091,,79146,2021-10-29T13:16:20.618Z,79158.74,1635513200,full,ni_sequenzen,NI_Sequenzen,13,3,,,,,,,,,,,,
,Move,canvas.Screen,0_3_0_3_0_13,-999,skipped,,79150,,,79091,,79150,2021-10-29T13:16:20.622Z,79158.74,1635513200,full,ni_sequenzen,NI_Sequenzen,14,3,,,,,,,,,,,,
,Move,canvas.Screen,0_3_0_3_0_14,-999,skipped,,79154,,,79091,,79154,2021-10-29T13:16:20.626Z,79158.74,1635513200,full,ni_sequenzen,NI_Sequenzen,15,3,,,,,,,,,,,,
,Loop,flow.Loop,0_3_0_3_0,-999,completion,,74101,74105.08,74121.74,79091,4969.259999999995,79155,2021-10-29T13:16:20.626Z,79158.74,1635513200,full,ni_sequenzen,NI_Sequenzen,,3,,,,,,,,,,,,
,Feedback,canvas.Screen,0_3_0_3_1,,timeout,,79158,79158.34,79158.74,83147.74,4010.3199999999924,83150,2021-10-29T13:16:24.621Z,83169.06,1635513200,full,ni_sequenzen,NI_Sequenzen,,3,,,,,,,,,,,,
,Trial,flow.Sequence,0_3_0_3,,completion,,74094,74105.08,74121.74,83147.74,9026,83150,2021-10-29T13:16:24.622Z,83180.92,1635513200,full,ni_sequenzen,NI_Sequenzen,,3,,,,,,,,,,,,
,Move,canvas.Screen,0_3_0_4_0_0,down,response,,83169,83169.06,83180.92,84857,1676.0800000000017,84884,2021-10-29T13:16:26.356Z,84891.54,1635513200,full,ni_sequenzen,NI_Sequenzen,1,4,,,,,,,,,,,,
,Move,canvas.Screen,0_3_0_4_0_1,left,response,,84892,84891.18,84891.54,85326,434.4600000000064,85348,2021-10-29T13:16:26.819Z,85356.34,1635513200,full,ni_sequenzen,NI_Sequenzen,2,4,,,,,,,,,,,,
,Move,canvas.Screen,0_3_0_4_0_2,down,response,,85356,85356.04,85356.34,85810,453.6600000000035,85830,2021-10-29T13:16:27.302Z,85839.6,1635513200,full,ni_sequenzen,NI_Sequenzen,3,4,,,,,,,,,,,,
,Move,canvas.Screen,0_3_0_4_0_3,left,response,,85839,85839.28,85839.6,86294,454.3999999999942,86314,2021-10-29T13:16:27.785Z,86363.06,1635513200,full,ni_sequenzen,NI_Sequenzen,4,4,,,,,,,,,,,,
,Move,canvas.Screen,0_3_0_4_0_4,-999,skipped,,86321,,,86294,,86322,2021-10-29T13:16:27.793Z,86363.06,1635513200,full,ni_sequenzen,NI_Sequenzen,5,4,,,,,,,,,,,,
,Move,canvas.Screen,0_3_0_4_0_5,-999,skipped,,86326,,,86294,,86326,2021-10-29T13:16:27.798Z,86363.06,1635513200,full,ni_sequenzen,NI_Sequenzen,6,4,,,,,,,,,,,,
,Move,canvas.Screen,0_3_0_4_0_6,-999,skipped,,86330,,,86294,,86330,2021-10-29T13:16:27.801Z,86363.06,1635513200,full,ni_sequenzen,NI_Sequenzen,7,4,,,,,,,,,,,,
,Move,canvas.Screen,0_3_0_4_0_7,-999,skipped,,86334,,,86294,,86334,2021-10-29T13:16:27.806Z,86363.06,1635513200,full,ni_sequenzen,NI_Sequenzen,8,4,,,,,,,,,,,,
,Move,canvas.Screen,0_3_0_4_0_8,-999,skipped,,86338,,,86294,,86338,2021-10-29T13:16:27.810Z,86363.06,1635513200,full,ni_sequenzen,NI_Sequenzen,9,4,,,,,,,,,,,,
,Move,canvas.Screen,0_3_0_4_0_9,-999,skipped,,86341,,,86294,,86341,2021-10-29T13:16:27.813Z,86363.06,1635513200,full,ni_sequenzen,NI_Sequenzen,10,4,,,,,,,,,,,,
,Move,canvas.Screen,0_3_0_4_0_10,-999,skipped,,86344,,,86294,,86345,2021-10-29T13:16:27.816Z,86363.06,1635513200,full,ni_sequenzen,NI_Sequenzen,11,4,,,,,,,,,,,,
,Move,canvas.Screen,0_3_0_4_0_11,-999,skipped,,86348,,,86294,,86348,2021-10-29T13:16:27.820Z,86363.06,1635513200,full,ni_sequenzen,NI_Sequenzen,12,4,,,,,,,,,,,,
,Move,canvas.Screen,0_3_0_4_0_12,-999,skipped,,86354,,,86294,,86354,2021-10-29T13:16:27.825Z,86363.06,1635513200,full,ni_sequenzen,NI_Sequenzen,13,4,,,,,,,,,,,,
,Move,canvas.Screen,0_3_0_4_0_13,-999,skipped,,86356,,,86294,,86356,2021-10-29T13:16:27.828Z,86363.06,1635513200,full,ni_sequenzen,NI_Sequenzen,14,4,,,,,,,,,,,,
,Move,canvas.Screen,0_3_0_4_0_14,-999,skipped,,86359,,,86294,,86360,2021-10-29T13:16:27.831Z,86363.06,1635513200,full,ni_sequenzen,NI_Sequenzen,15,4,,,,,,,,,,,,
,Loop,flow.Loop,0_3_0_4_0,-999,completion,,83165,83169.06,83180.92,86294,3113.0800000000017,86360,2021-10-29T13:16:27.831Z,86363.06,1635513200,full,ni_sequenzen,NI_Sequenzen,,4,,,,,,,,,,,,
,Feedback,canvas.Screen,0_3_0_4_1,,timeout,,86362,86362.64,86363.06,90341.64,3996.4400000000023,90342,2021-10-29T13:16:31.814Z,90359.5,1635513200,full,ni_sequenzen,NI_Sequenzen,,4,,,,,,,,,,,,
,Trial,flow.Sequence,0_3_0_4,,completion,,83152,83169.06,83180.92,90341.64,7160.720000000001,90343,2021-10-29T13:16:31.814Z,90374.94,1635513200,full,ni_sequenzen,NI_Sequenzen,,4,,,,,,,,,,,,
,Move,canvas.Screen,0_3_0_5_0_0,right,response,,90360,90359.5,90374.94,93841,3466.0599999999977,93862,2021-10-29T13:16:35.334Z,93877.42,1635513200,full,ni_sequenzen,NI_Sequenzen,1,5,,,,,,,,,,,,
,Move,canvas.Screen,0_3_0_5_0_1,down,response,,93866,93866.66,93877.42,94966,1088.5800000000017,94988,2021-10-29T13:16:36.460Z,94996.82,1635513200,full,ni_sequenzen,NI_Sequenzen,2,5,,,,,,,,,,,,
,Move,canvas.Screen,0_3_0_5_0_2,left,response,,94996,94996.42,94996.82,97310,2313.179999999993,97328,2021-10-29T13:16:38.799Z,97331.92,1635513200,full,ni_sequenzen,NI_Sequenzen,3,5,,,,,,,,,,,,
,Move,canvas.Screen,0_3_0_5_0_3,left,response,,97332,97331.74,97331.92,101701,4369.080000000002,101714,2021-10-29T13:16:43.185Z,101762.92,1635513200,full,ni_sequenzen,NI_Sequenzen,4,5,,,,,,,,,,,,
,Move,canvas.Screen,0_3_0_5_0_4,-999,skipped,,101722,,,101701,,101722,2021-10-29T13:16:43.194Z,101762.92,1635513200,full,ni_sequenzen,NI_Sequenzen,5,5,,,,,,,,,,,,
,Move,canvas.Screen,0_3_0_5_0_5,-999,skipped,,101726,,,101701,,101726,2021-10-29T13:16:43.197Z,101762.92,1635513200,full,ni_sequenzen,NI_Sequenzen,6,5,,,,,,,,,,,,
,Move,canvas.Screen,0_3_0_5_0_6,-999,skipped,,101730,,,101701,,101730,2021-10-29T13:16:43.201Z,101762.92,1635513200,full,ni_sequenzen,NI_Sequenzen,7,5,,,,,,,,,,,,
,Move,canvas.Screen,0_3_0_5_0_7,-999,skipped,,101733,,,101701,,101733,2021-10-29T13:16:43.205Z,101762.92,1635513200,full,ni_sequenzen,NI_Sequenzen,8,5,,,,,,,,,,,,
,Move,canvas.Screen,0_3_0_5_0_8,-999,skipped,,101738,,,101701,,101738,2021-10-29T13:16:43.209Z,101762.92,1635513200,full,ni_sequenzen,NI_Sequenzen,9,5,,,,,,,,,,,,
,Move,canvas.Screen,0_3_0_5_0_9,-999,skipped,,101741,,,101701,,101741,2021-10-29T13:16:43.212Z,101762.92,1635513200,full,ni_sequenzen,NI_Sequenzen,10,5,,,,,,,,,,,,
,Move,canvas.Screen,0_3_0_5_0_10,-999,skipped,,101744,,,101701,,101744,2021-10-29T13:16:43.216Z,101762.92,1635513200,full,ni_sequenzen,NI_Sequenzen,11,5,,,,,,,,,,,,
,Move,canvas.Screen,0_3_0_5_0_11,-999,skipped,,101747,,,101701,,101747,2021-10-29T13:16:43.219Z,101762.92,1635513200,full,ni_sequenzen,NI_Sequenzen,12,5,,,,,,,,,,,,
,Move,canvas.Screen,0_3_0_5_0_12,-999,skipped,,101751,,,101701,,101751,2021-10-29T13:16:43.223Z,101762.92,1635513200,full,ni_sequenzen,NI_Sequenzen,13,5,,,,,,,,,,,,
,Move,canvas.Screen,0_3_0_5_0_13,-999,skipped,,101754,,,101701,,101755,2021-10-29T13:16:43.226Z,101762.92,1635513200,full,ni_sequenzen,NI_Sequenzen,14,5,,,,,,,,,,,,
,Move,canvas.Screen,0_3_0_5_0_14,-999,skipped,,101758,,,101701,,101758,2021-10-29T13:16:43.230Z,101762.92,1635513200,full,ni_sequenzen,NI_Sequenzen,15,5,,,,,,,,,,,,
,Loop,flow.Loop,0_3_0_5_0,-999,completion,,90354,90359.5,90374.94,101701,11326.059999999998,101758,2021-10-29T13:16:43.231Z,101762.92,1635513200,full,ni_sequenzen,NI_Sequenzen,,5,,,,,,,,,,,,
,Feedback,canvas.Screen,0_3_0_5_1,,timeout,,101762,101762.54,101762.92,105745.86,3999.4600000000064,105747,2021-10-29T13:16:47.220Z,105762.38,1635513200,full,ni_sequenzen,NI_Sequenzen,,5,,,,,,,,,,,,
,Trial,flow.Sequence,0_3_0_5,,completion,,90343,90359.5,90374.94,105745.86,15370.919999999998,105749,2021-10-29T13:16:47.221Z,105779.02,1635513200,full,ni_sequenzen,NI_Sequenzen,,5,,,,,,,,,,,,
,Move,canvas.Screen,0_3_0_6_0_0,down,response,,105761,105762.38,105779.02,107575,1795.979999999996,107599,2021-10-29T13:16:49.071Z,107607.66,1635513200,full,ni_sequenzen,NI_Sequenzen,1,6,,,,,,,,,,,,
,Move,canvas.Screen,0_3_0_6_0_1,left,response,,107608,107607.44,107607.66,108904,1296.3399999999965,108917,2021-10-29T13:16:50.388Z,108926.42,1635513200,full,ni_sequenzen,NI_Sequenzen,2,6,,,,,,,,,,,,
,Move,canvas.Screen,0_3_0_6_0_2,right,response,,108925,108925.14,108926.42,115669,6742.580000000002,115681,2021-10-29T13:16:57.153Z,115686.9,1635513200,full,ni_sequenzen,NI_Sequenzen,3,6,,,,,,,,,,,,
,Move,canvas.Screen,0_3_0_6_0_3,left,response,,115687,115686.68,115686.9,120435,4748.100000000006,120457,2021-10-29T13:17:01.929Z,120502.2,1635513200,full,ni_sequenzen,NI_Sequenzen,4,6,,,,,,,,,,,,
,Move,canvas.Screen,0_3_0_6_0_4,-999,skipped,,120466,,,120435,,120466,2021-10-29T13:17:01.938Z,120502.2,1635513200,full,ni_sequenzen,NI_Sequenzen,5,6,,,,,,,,,,,,
,Move,canvas.Screen,0_3_0_6_0_5,-999,skipped,,120469,,,120435,,120469,2021-10-29T13:17:01.941Z,120502.2,1635513200,full,ni_sequenzen,NI_Sequenzen,6,6,,,,,,,,,,,,
,Move,canvas.Screen,0_3_0_6_0_6,-999,skipped,,120472,,,120435,,120472,2021-10-29T13:17:01.944Z,120502.2,1635513200,full,ni_sequenzen,NI_Sequenzen,7,6,,,,,,,,,,,,
,Move,canvas.Screen,0_3_0_6_0_7,-999,skipped,,120476,,,120435,,120476,2021-10-29T13:17:01.947Z,120502.2,1635513200,full,ni_sequenzen,NI_Sequenzen,8,6,,,,,,,,,,,,
,Move,canvas.Screen,0_3_0_6_0_8,-999,skipped,,120479,,,120435,,120479,2021-10-29T13:17:01.951Z,120502.2,1635513200,full,ni_sequenzen,NI_Sequenzen,9,6,,,,,,,,,,,,
,Move,canvas.Screen,0_3_0_6_0_9,-999,skipped,,120483,,,120435,,120483,2021-10-29T13:17:01.954Z,120502.2,1635513200,full,ni_sequenzen,NI_Sequenzen,10,6,,,,,,,,,,,,
,Move,canvas.Screen,0_3_0_6_0_10,-999,skipped,,120487,,,120435,,120487,2021-10-29T13:17:01.958Z,120502.2,1635513200,full,ni_sequenzen,NI_Sequenzen,11,6,,,,,,,,,,,,
,Move,canvas.Screen,0_3_0_6_0_11,-999,skipped,,120490,,,120435,,120490,2021-10-29T13:17:01.961Z,120502.2,1635513200,full,ni_sequenzen,NI_Sequenzen,12,6,,,,,,,,,,,,
,Move,canvas.Screen,0_3_0_6_0_12,-999,skipped,,120493,,,120435,,120493,2021-10-29T13:17:01.965Z,120502.2,1635513200,full,ni_sequenzen,NI_Sequenzen,13,6,,,,,,,,,,,,
,Move,canvas.Screen,0_3_0_6_0_13,-999,skipped,,120496,,,120435,,120496,2021-10-29T13:17:01.967Z,120502.2,1635513200,full,ni_sequenzen,NI_Sequenzen,14,6,,,,,,,,,,,,
,Move,canvas.Screen,0_3_0_6_0_14,-999,skipped,,120499,,,120435,,120499,2021-10-29T13:17:01.970Z,120502.2,1635513200,full,ni_sequenzen,NI_Sequenzen,15,6,,,,,,,,,,,,
,Loop,flow.Loop,0_3_0_6_0,-999,completion,,105758,105762.38,105779.02,120435,14655.979999999996,120499,2021-10-29T13:17:01.970Z,120502.2,1635513200,full,ni_sequenzen,NI_Sequenzen,,6,,,,,,,,,,,,
,Feedback,canvas.Screen,0_3_0_6_1,,timeout,,120501,120501.76,120502.2,124480.44,3994.7600000000093,124482,2021-10-29T13:17:05.953Z,124496.96,1635513200,full,ni_sequenzen,NI_Sequenzen,,6,,,,,,,,,,,,
,Trial,flow.Sequence,0_3_0_6,,completion,,105750,105762.38,105779.02,124480.44,18701.42,124482,2021-10-29T13:17:05.954Z,124513.62,1635513200,full,ni_sequenzen,NI_Sequenzen,,6,,,,,,,,,,,,
,Move,canvas.Screen,0_3_0_7_0_0,down,response,,124495,124496.96,124513.62,132279,7765.380000000005,132307,2021-10-29T13:17:13.779Z,132315.76,1635513200,full,ni_sequenzen,NI_Sequenzen,1,7,,,,,,,,,,,,
,Move,canvas.Screen,0_3_0_7_0_1,left,response,,132315,132315.38,132315.76,132794,478.2399999999907,132828,2021-10-29T13:17:14.299Z,132835.94,1635513200,full,ni_sequenzen,NI_Sequenzen,2,7,,,,,,,,,,,,
,Move,canvas.Screen,0_3_0_7_0_2,down,response,,132836,132835.7,132835.94,134169,1333.0599999999977,134188,2021-10-29T13:17:15.660Z,134198.28,1635513200,full,ni_sequenzen,NI_Sequenzen,3,7,,,,,,,,,,,,
,Move,canvas.Screen,0_3_0_7_0_3,left,response,,134198,134198.04,134198.28,134748,549.7200000000012,134757,2021-10-29T13:17:16.229Z,134814.54,1635513200,full,ni_sequenzen,NI_Sequenzen,4,7,,,,,,,,,,,,
,Move,canvas.Screen,0_3_0_7_0_4,-999,skipped,,134765,,,134748,,134765,2021-10-29T13:17:16.236Z,134814.54,1635513200,full,ni_sequenzen,NI_Sequenzen,5,7,,,,,,,,,,,,
,Move,canvas.Screen,0_3_0_7_0_5,-999,skipped,,134771,,,134748,,134771,2021-10-29T13:17:16.242Z,134814.54,1635513200,full,ni_sequenzen,NI_Sequenzen,6,7,,,,,,,,,,,,
,Move,canvas.Screen,0_3_0_7_0_6,-999,skipped,,134777,,,134748,,134777,2021-10-29T13:17:16.248Z,134814.54,1635513200,full,ni_sequenzen,NI_Sequenzen,7,7,,,,,,,,,,,,
,Move,canvas.Screen,0_3_0_7_0_7,-999,skipped,,134781,,,134748,,134781,2021-10-29T13:17:16.253Z,134814.54,1635513200,full,ni_sequenzen,NI_Sequenzen,8,7,,,,,,,,,,,,
,Move,canvas.Screen,0_3_0_7_0_8,-999,skipped,,134786,,,134748,,134786,2021-10-29T13:17:16.257Z,134814.54,1635513200,full,ni_sequenzen,NI_Sequenzen,9,7,,,,,,,,,,,,
,Move,canvas.Screen,0_3_0_7_0_9,-999,skipped,,134790,,,134748,,134790,2021-10-29T13:17:16.262Z,134814.54,1635513200,full,ni_sequenzen,NI_Sequenzen,10,7,,,,,,,,,,,,
,Move,canvas.Screen,0_3_0_7_0_10,-999,skipped,,134793,,,134748,,134793,2021-10-29T13:17:16.266Z,134814.54,1635513200,full,ni_sequenzen,NI_Sequenzen,11,7,,,,,,,,,,,,
,Move,canvas.Screen,0_3_0_7_0_11,-999,skipped,,134798,,,134748,,134798,2021-10-29T13:17:16.270Z,134814.54,1635513200,full,ni_sequenzen,NI_Sequenzen,12,7,,,,,,,,,,,,
,Move,canvas.Screen,0_3_0_7_0_12,-999,skipped,,134801,,,134748,,134802,2021-10-29T13:17:16.274Z,134814.54,1635513200,full,ni_sequenzen,NI_Sequenzen,13,7,,,,,,,,,,,,
,Move,canvas.Screen,0_3_0_7_0_13,-999,skipped,,134806,,,134748,,134807,2021-10-29T13:17:16.279Z,134814.54,1635513200,full,ni_sequenzen,NI_Sequenzen,14,7,,,,,,,,,,,,
,Move,canvas.Screen,0_3_0_7_0_14,-999,skipped,,134810,,,134748,,134810,2021-10-29T13:17:16.281Z,134814.54,1635513200,full,ni_sequenzen,NI_Sequenzen,15,7,,,,,,,,,,,,
,Loop,flow.Loop,0_3_0_7_0,-999,completion,,124492,124496.96,124513.62,134748,10234.380000000005,134811,2021-10-29T13:17:16.282Z,134814.54,1635513200,full,ni_sequenzen,NI_Sequenzen,,7,,,,,,,,,,,,
,Feedback,canvas.Screen,0_3_0_7_1,,timeout,,134814,134814.18,134814.54,138801.86,4012.899999999994,138803,2021-10-29T13:17:20.275Z,138827.44,1635513200,full,ni_sequenzen,NI_Sequenzen,,7,,,,,,,,,,,,
,Trial,flow.Sequence,0_3_0_7,,completion,,124483,124496.96,124513.62,138801.86,14288.23999999999,138804,2021-10-29T13:17:20.275Z,138835.16,1635513200,full,ni_sequenzen,NI_Sequenzen,,7,,,,,,,,,,,,
,Move,canvas.Screen,0_3_0_8_0_0,right,response,,138827,138827.44,138835.16,140451,1615.8399999999965,140472,2021-10-29T13:17:21.943Z,140479.44,1635513200,full,ni_sequenzen,NI_Sequenzen,1,8,,,,,,,,,,,,
,Move,canvas.Screen,0_3_0_8_0_1,down,response,,140479,140479.12,140479.44,140951,471.5599999999977,140973,2021-10-29T13:17:22.445Z,140982.7,1635513200,full,ni_sequenzen,NI_Sequenzen,2,8,,,,,,,,,,,,
,Move,canvas.Screen,0_3_0_8_0_2,right,response,,140982,140982.34,140982.7,141669,686.2999999999884,141686,2021-10-29T13:17:23.158Z,141694.98,1635513200,full,ni_sequenzen,NI_Sequenzen,3,8,,,,,,,,,,,,
,Move,canvas.Screen,0_3_0_8_0_3,down,response,,141695,141694.7,141694.98,142560,865.0199999999895,142575,2021-10-29T13:17:24.047Z,142625.04,1635513200,full,ni_sequenzen,NI_Sequenzen,4,8,,,,,,,,,,,,
,Move,canvas.Screen,0_3_0_8_0_4,-999,skipped,,142584,,,142560,,142584,2021-10-29T13:17:24.056Z,142625.04,1635513200,full,ni_sequenzen,NI_Sequenzen,5,8,,,,,,,,,,,,
,Move,canvas.Screen,0_3_0_8_0_5,-999,skipped,,142588,,,142560,,142588,2021-10-29T13:17:24.060Z,142625.04,1635513200,full,ni_sequenzen,NI_Sequenzen,6,8,,,,,,,,,,,,
,Move,canvas.Screen,0_3_0_8_0_6,-999,skipped,,142593,,,142560,,142593,2021-10-29T13:17:24.065Z,142625.04,1635513200,full,ni_sequenzen,NI_Sequenzen,7,8,,,,,,,,,,,,
,Move,canvas.Screen,0_3_0_8_0_7,-999,skipped,,142597,,,142560,,142597,2021-10-29T13:17:24.069Z,142625.04,1635513200,full,ni_sequenzen,NI_Sequenzen,8,8,,,,,,,,,,,,
,Move,canvas.Screen,0_3_0_8_0_8,-999,skipped,,142601,,,142560,,142601,2021-10-29T13:17:24.073Z,142625.04,1635513200,full,ni_sequenzen,NI_Sequenzen,9,8,,,,,,,,,,,,
,Move,canvas.Screen,0_3_0_8_0_9,-999,skipped,,142605,,,142560,,142605,2021-10-29T13:17:24.076Z,142625.04,1635513200,full,ni_sequenzen,NI_Sequenzen,10,8,,,,,,,,,,,,
,Move,canvas.Screen,0_3_0_8_0_10,-999,skipped,,142608,,,142560,,142608,2021-10-29T13:17:24.079Z,142625.04,1635513200,full,ni_sequenzen,NI_Sequenzen,11,8,,,,,,,,,,,,
,Move,canvas.Screen,0_3_0_8_0_11,-999,skipped,,142611,,,142560,,142611,2021-10-29T13:17:24.082Z,142625.04,1635513200,full,ni_sequenzen,NI_Sequenzen,12,8,,,,,,,,,,,,
,Move,canvas.Screen,0_3_0_8_0_12,-999,skipped,,142615,,,142560,,142615,2021-10-29T13:17:24.086Z,142625.04,1635513200,full,ni_sequenzen,NI_Sequenzen,13,8,,,,,,,,,,,,
,Move,canvas.Screen,0_3_0_8_0_13,-999,skipped,,142618,,,142560,,142618,2021-10-29T13:17:24.090Z,142625.04,1635513200,full,ni_sequenzen,NI_Sequenzen,14,8,,,,,,,,,,,,
,Move,canvas.Screen,0_3_0_8_0_14,-999,skipped,,142622,,,142560,,142622,2021-10-29T13:17:24.093Z,142625.04,1635513200,full,ni_sequenzen,NI_Sequenzen,15,8,,,,,,,,,,,,
,Loop,flow.Loop,0_3_0_8_0,-999,completion,,138822,138827.44,138835.16,142560,3724.8399999999965,142622,2021-10-29T13:17:24.093Z,142625.04,1635513200,full,ni_sequenzen,NI_Sequenzen,,8,,,,,,,,,,,,
,Feedback,canvas.Screen,0_3_0_8_1,,timeout,,142625,142624.62,142625.04,146612.22,4008.220000000001,146614,2021-10-29T13:17:28.086Z,146633.26,1635513200,full,ni_sequenzen,NI_Sequenzen,,8,,,,,,,,,,,,
,Trial,flow.Sequence,0_3_0_8,,completion,,138804,138827.44,138835.16,146612.22,7777.059999999998,146614,2021-10-29T13:17:28.086Z,146645.42,1635513200,full,ni_sequenzen,NI_Sequenzen,,8,,,,,,,,,,,,
,Move,canvas.Screen,0_3_0_9_0_0,right,response,,146633,146633.26,146645.42,147904,1258.5799999999872,147923,2021-10-29T13:17:29.395Z,147927.76,1635513200,full,ni_sequenzen,NI_Sequenzen,1,9,,,,,,,,,,,,
,Move,canvas.Screen,0_3_0_9_0_1,down,response,,147927,147927.46,147927.76,148231,303.2399999999907,148258,2021-10-29T13:17:29.729Z,148263.54,1635513200,full,ni_sequenzen,NI_Sequenzen,2,9,,,,,,,,,,,,
,Move,canvas.Screen,0_3_0_9_0_2,right,response,,148263,148263.2,148263.54,148497,233.45999999999185,148518,2021-10-29T13:17:29.989Z,148529,1635513200,full,ni_sequenzen,NI_Sequenzen,3,9,,,,,,,,,,,,
,Move,canvas.Screen,0_3_0_9_0_3,down,response,,148529,148528.72,148529,148732,203,148757,2021-10-29T13:17:30.227Z,148803.16,1635513200,full,ni_sequenzen,NI_Sequenzen,4,9,,,,,,,,,,,,
,Move,canvas.Screen,0_3_0_9_0_4,-999,skipped,,148765,,,148732,,148765,2021-10-29T13:17:30.236Z,148803.16,1635513200,full,ni_sequenzen,NI_Sequenzen,5,9,,,,,,,,,,,,
,Move,canvas.Screen,0_3_0_9_0_5,-999,skipped,,148768,,,148732,,148768,2021-10-29T13:17:30.239Z,148803.16,1635513200,full,ni_sequenzen,NI_Sequenzen,6,9,,,,,,,,,,,,
,Move,canvas.Screen,0_3_0_9_0_6,-999,skipped,,148771,,,148732,,148771,2021-10-29T13:17:30.243Z,148803.16,1635513200,full,ni_sequenzen,NI_Sequenzen,7,9,,,,,,,,,,,,
,Move,canvas.Screen,0_3_0_9_0_7,-999,skipped,,148775,,,148732,,148775,2021-10-29T13:17:30.247Z,148803.16,1635513200,full,ni_sequenzen,NI_Sequenzen,8,9,,,,,,,,,,,,
,Move,canvas.Screen,0_3_0_9_0_8,-999,skipped,,148779,,,148732,,148779,2021-10-29T13:17:30.250Z,148803.16,1635513200,full,ni_sequenzen,NI_Sequenzen,9,9,,,,,,,,,,,,
,Move,canvas.Screen,0_3_0_9_0_9,-999,skipped,,148782,,,148732,,148782,2021-10-29T13:17:30.254Z,148803.16,1635513200,full,ni_sequenzen,NI_Sequenzen,10,9,,,,,,,,,,,,
,Move,canvas.Screen,0_3_0_9_0_10,-999,skipped,,148785,,,148732,,148785,2021-10-29T13:17:30.258Z,148803.16,1635513200,full,ni_sequenzen,NI_Sequenzen,11,9,,,,,,,,,,,,
,Move,canvas.Screen,0_3_0_9_0_11,-999,skipped,,148789,,,148732,,148789,2021-10-29T13:17:30.261Z,148803.16,1635513200,full,ni_sequenzen,NI_Sequenzen,12,9,,,,,,,,,,,,
,Move,canvas.Screen,0_3_0_9_0_12,-999,skipped,,148792,,,148732,,148792,2021-10-29T13:17:30.264Z,148803.16,1635513200,full,ni_sequenzen,NI_Sequenzen,13,9,,,,,,,,,,,,
,Move,canvas.Screen,0_3_0_9_0_13,-999,skipped,,148796,,,148732,,148796,2021-10-29T13:17:30.267Z,148803.16,1635513200,full,ni_sequenzen,NI_Sequenzen,14,9,,,,,,,,,,,,
,Move,canvas.Screen,0_3_0_9_0_14,-999,skipped,,148800,,,148732,,148800,2021-10-29T13:17:30.271Z,148803.16,1635513200,full,ni_sequenzen,NI_Sequenzen,15,9,,,,,,,,,,,,
,Loop,flow.Loop,0_3_0_9_0,-999,completion,,146629,146633.26,146645.42,148732,2086.579999999987,148800,2021-10-29T13:17:30.272Z,148803.16,1635513200,full,ni_sequenzen,NI_Sequenzen,,9,,,,,,,,,,,,
,Feedback,canvas.Screen,0_3_0_9_1,,timeout,,148803,148802.72,148803.16,152790.48,4047.1199999999953,152793,2021-10-29T13:17:34.264Z,152850.28,1635513200,full,ni_sequenzen,NI_Sequenzen,,9,,,,,,,,,,,,
,Trial,flow.Sequence,0_3_0_9,,completion,,146616,146633.26,146645.42,152790.48,6145.059999999998,152794,2021-10-29T13:17:34.265Z,152856.92,1635513200,full,ni_sequenzen,NI_Sequenzen,,9,,,,,,,,,,,,
,Block,flow.Loop,0_3_0,,completion,,37590,37601.56,37602,152790.48,115188.48000000001,152795,2021-10-29T13:17:34.267Z,152856.92,1635513200,full,ni_sequenzen,NI_Sequenzen,,,,,,,,,,,,,,
,Training_II,flow.Sequence,0_3,,completion,,37582,37601.56,37602,152790.48,115188.48000000001,152796,2021-10-29T13:17:34.268Z,152856.92,1635513200,full,ni_sequenzen,NI_Sequenzen,,,,,,,,,,,,,,
,Screen_1,canvas.Screen,0_4_0_0,cont,response,1,152850,152850.28,152856.92,158435,5578.079999999987,158460,2021-10-29T13:17:39.931Z,158469,1635513200,full,ni_sequenzen,NI_Sequenzen,,,,,,,,,,,,,,
,Screen_2,canvas.Screen,0_4_0_1,cont,response,1,158465,158465.06,158469,164404,5935,164419,2021-10-29T13:17:45.890Z,164513.64,1635513200,full,ni_sequenzen,NI_Sequenzen,,,,,,,,,,,,,,
,Screen_3,canvas.Screen,0_4_0_2,cont,response,1,164513,164513.14,164513.64,167779,3265.359999999986,167811,2021-10-29T13:17:49.282Z,167905.74,1635513200,full,ni_sequenzen,NI_Sequenzen,,,,,,,,,,,,,,
,Sequence,flow.Sequence,0_4_0,,completion,1,152813,152850.28,152856.92,167779,14922.079999999987,167812,2021-10-29T13:17:49.283Z,167905.74,1635513200,full,ni_sequenzen,NI_Sequenzen,,,,,,,,,,,,,,
,Screen_1,canvas.Screen,0_4_1_0,,skipped,2,167815,,,167815,,167815,2021-10-29T13:17:49.287Z,167905.74,1635513200,full,ni_sequenzen,NI_Sequenzen,,,,,,,,,,,,,,
,Screen_2,canvas.Screen,0_4_1_1,,skipped,2,167817,,,167815,,167817,2021-10-29T13:17:49.288Z,167905.74,1635513200,full,ni_sequenzen,NI_Sequenzen,,,,,,,,,,,,,,
,Screen_3,canvas.Screen,0_4_1_2,,skipped,2,167817,,,167815,,167818,2021-10-29T13:17:49.289Z,167905.74,1635513200,full,ni_sequenzen,NI_Sequenzen,,,,,,,,,,,,,,
,Sequence,flow.Sequence,0_4_1,,completion,2,167813,,,167815,,167818,2021-10-29T13:17:49.289Z,167905.74,1635513200,full,ni_sequenzen,NI_Sequenzen,,,,,,,,,,,,,,
,Screen_1,canvas.Screen,0_4_2_0,,skipped,3,167819,,,167819,,167819,2021-10-29T13:17:49.290Z,167905.74,1635513200,full,ni_sequenzen,NI_Sequenzen,,,,,,,,,,,,,,
,Screen_2,canvas.Screen,0_4_2_1,,skipped,3,167819,,,167819,,167820,2021-10-29T13:17:49.291Z,167905.74,1635513200,full,ni_sequenzen,NI_Sequenzen,,,,,,,,,,,,,,
,Screen_3,canvas.Screen,0_4_2_2,,skipped,3,167820,,,167819,,167820,2021-10-29T13:17:49.291Z,167905.74,1635513200,full,ni_sequenzen,NI_Sequenzen,,,,,,,,,,,,,,
,Sequence,flow.Sequence,0_4_2,,completion,3,167818,,,167819,,167820,2021-10-29T13:17:49.291Z,167905.74,1635513200,full,ni_sequenzen,NI_Sequenzen,,,,,,,,,,,,,,
,Screen_1,canvas.Screen,0_4_3_0,,skipped,4,167821,,,167821,,167821,2021-10-29T13:17:49.292Z,167905.74,1635513200,full,ni_sequenzen,NI_Sequenzen,,,,,,,,,,,,,,
,Screen_2,canvas.Screen,0_4_3_1,,skipped,4,167821,,,167821,,167821,2021-10-29T13:17:49.293Z,167905.74,1635513200,full,ni_sequenzen,NI_Sequenzen,,,,,,,,,,,,,,
,Screen_3,canvas.Screen,0_4_3_2,,skipped,4,167823,,,167821,,167823,2021-10-29T13:17:49.294Z,167905.74,1635513200,full,ni_sequenzen,NI_Sequenzen,,,,,,,,,,,,,,
,Sequence,flow.Sequence,0_4_3,,completion,4,167821,,,167821,,167823,2021-10-29T13:17:49.294Z,167905.74,1635513200,full,ni_sequenzen,NI_Sequenzen,,,,,,,,,,,,,,
,Screen_1,canvas.Screen,0_4_4_0,,skipped,5,167824,,,167824,,167824,2021-10-29T13:17:49.295Z,167905.74,1635513200,full,ni_sequenzen,NI_Sequenzen,,,,,,,,,,,,,,
,Screen_2,canvas.Screen,0_4_4_1,,skipped,5,167824,,,167824,,167824,2021-10-29T13:17:49.296Z,167905.74,1635513200,full,ni_sequenzen,NI_Sequenzen,,,,,,,,,,,,,,
,Screen_3,canvas.Screen,0_4_4_2,,skipped,5,167825,,,167824,,167825,2021-10-29T13:17:49.297Z,167905.74,1635513200,full,ni_sequenzen,NI_Sequenzen,,,,,,,,,,,,,,
,Sequence,flow.Sequence,0_4_4,,completion,5,167823,,,167824,,167825,2021-10-29T13:17:49.297Z,167905.74,1635513200,full,ni_sequenzen,NI_Sequenzen,,,,,,,,,,,,,,
,Screen_1,canvas.Screen,0_4_5_0,,skipped,6,167826,,,167826,,167826,2021-10-29T13:17:49.298Z,167905.74,1635513200,full,ni_sequenzen,NI_Sequenzen,,,,,,,,,,,,,,
,Screen_2,canvas.Screen,0_4_5_1,,skipped,6,167827,,,167826,,167827,2021-10-29T13:17:49.298Z,167905.74,1635513200,full,ni_sequenzen,NI_Sequenzen,,,,,,,,,,,,,,
,Screen_3,canvas.Screen,0_4_5_2,,skipped,6,167827,,,167826,,167827,2021-10-29T13:17:49.299Z,167905.74,1635513200,full,ni_sequenzen,NI_Sequenzen,,,,,,,,,,,,,,
,Sequence,flow.Sequence,0_4_5,,completion,6,167825,,,167826,,167827,2021-10-29T13:17:49.299Z,167905.74,1635513200,full,ni_sequenzen,NI_Sequenzen,,,,,,,,,,,,,,
,Screen_1,canvas.Screen,0_4_6_0,,skipped,7,167828,,,167828,,167828,2021-10-29T13:17:49.300Z,167905.74,1635513200,full,ni_sequenzen,NI_Sequenzen,,,,,,,,,,,,,,
,Screen_2,canvas.Screen,0_4_6_1,,skipped,7,167829,,,167828,,167829,2021-10-29T13:17:49.301Z,167905.74,1635513200,full,ni_sequenzen,NI_Sequenzen,,,,,,,,,,,,,,
,Screen_3,canvas.Screen,0_4_6_2,,skipped,7,167831,,,167828,,167831,2021-10-29T13:17:49.302Z,167905.74,1635513200,full,ni_sequenzen,NI_Sequenzen,,,,,,,,,,,,,,
,Sequence,flow.Sequence,0_4_6,,completion,7,167828,,,167828,,167831,2021-10-29T13:17:49.302Z,167905.74,1635513200,full,ni_sequenzen,NI_Sequenzen,,,,,,,,,,,,,,
,Screen_1,canvas.Screen,0_4_7_0,,skipped,8,167832,,,167832,,167832,2021-10-29T13:17:49.303Z,167905.74,1635513200,full,ni_sequenzen,NI_Sequenzen,,,,,,,,,,,,,,
,Screen_2,canvas.Screen,0_4_7_1,,skipped,8,167832,,,167832,,167832,2021-10-29T13:17:49.304Z,167905.74,1635513200,full,ni_sequenzen,NI_Sequenzen,,,,,,,,,,,,,,
,Screen_3,canvas.Screen,0_4_7_2,,skipped,8,167832,,,167832,,167832,2021-10-29T13:17:49.304Z,167905.74,1635513200,full,ni_sequenzen,NI_Sequenzen,,,,,,,,,,,,,,
,Sequence,flow.Sequence,0_4_7,,completion,8,167831,,,167832,,167832,2021-10-29T13:17:49.304Z,167905.74,1635513200,full,ni_sequenzen,NI_Sequenzen,,,,,,,,,,,,,,
,Screen_1,canvas.Screen,0_4_8_0,,skipped,9,167833,,,167833,,167833,2021-10-29T13:17:49.305Z,167905.74,1635513200,full,ni_sequenzen,NI_Sequenzen,,,,,,,,,,,,,,
,Screen_2,canvas.Screen,0_4_8_1,,skipped,9,167834,,,167833,,167834,2021-10-29T13:17:49.306Z,167905.74,1635513200,full,ni_sequenzen,NI_Sequenzen,,,,,,,,,,,,,,
,Screen_3,canvas.Screen,0_4_8_2,,skipped,9,167835,,,167833,,167835,2021-10-29T13:17:49.306Z,167905.74,1635513200,full,ni_sequenzen,NI_Sequenzen,,,,,,,,,,,,,,
,Sequence,flow.Sequence,0_4_8,,completion,9,167833,,,167833,,167835,2021-10-29T13:17:49.306Z,167905.74,1635513200,full,ni_sequenzen,NI_Sequenzen,,,,,,,,,,,,,,
,Screen_1,canvas.Screen,0_4_9_0,,skipped,10,167836,,,167836,,167836,2021-10-29T13:17:49.308Z,167905.74,1635513200,full,ni_sequenzen,NI_Sequenzen,,,,,,,,,,,,,,
,Screen_2,canvas.Screen,0_4_9_1,,skipped,10,167837,,,167836,,167837,2021-10-29T13:17:49.309Z,167905.74,1635513200,full,ni_sequenzen,NI_Sequenzen,,,,,,,,,,,,,,
,Screen_3,canvas.Screen,0_4_9_2,,skipped,10,167838,,,167836,,167838,2021-10-29T13:17:49.310Z,167905.74,1635513200,full,ni_sequenzen,NI_Sequenzen,,,,,,,,,,,,,,
,Sequence,flow.Sequence,0_4_9,,completion,10,167835,,,167836,,167838,2021-10-29T13:17:49.310Z,167905.74,1635513200,full,ni_sequenzen,NI_Sequenzen,,,,,,,,,,,,,,
,Screen_1,canvas.Screen,0_4_10_0,,skipped,11,167839,,,167839,,167839,2021-10-29T13:17:49.311Z,167905.74,1635513200,full,ni_sequenzen,NI_Sequenzen,,,,,,,,,,,,,,
,Screen_2,canvas.Screen,0_4_10_1,,skipped,11,167840,,,167839,,167840,2021-10-29T13:17:49.312Z,167905.74,1635513200,full,ni_sequenzen,NI_Sequenzen,,,,,,,,,,,,,,
,Screen_3,canvas.Screen,0_4_10_2,,skipped,11,167841,,,167839,,167841,2021-10-29T13:17:49.313Z,167905.74,1635513200,full,ni_sequenzen,NI_Sequenzen,,,,,,,,,,,,,,
,Sequence,flow.Sequence,0_4_10,,completion,11,167839,,,167839,,167841,2021-10-29T13:17:49.313Z,167905.74,1635513200,full,ni_sequenzen,NI_Sequenzen,,,,,,,,,,,,,,
,Screen_1,canvas.Screen,0_4_11_0,,skipped,12,167842,,,167842,,167842,2021-10-29T13:17:49.314Z,167905.74,1635513200,full,ni_sequenzen,NI_Sequenzen,,,,,,,,,,,,,,
,Screen_2,canvas.Screen,0_4_11_1,,skipped,12,167843,,,167842,,167843,2021-10-29T13:17:49.315Z,167905.74,1635513200,full,ni_sequenzen,NI_Sequenzen,,,,,,,,,,,,,,
,Screen_3,canvas.Screen,0_4_11_2,,skipped,12,167844,,,167842,,167844,2021-10-29T13:17:49.315Z,167905.74,1635513200,full,ni_sequenzen,NI_Sequenzen,,,,,,,,,,,,,,
,Sequence,flow.Sequence,0_4_11,,completion,12,167842,,,167842,,167844,2021-10-29T13:17:49.315Z,167905.74,1635513200,full,ni_sequenzen,NI_Sequenzen,,,,,,,,,,,,,,
,Screen_1,canvas.Screen,0_4_12_0,,skipped,13,167845,,,167845,,167845,2021-10-29T13:17:49.316Z,167905.74,1635513200,full,ni_sequenzen,NI_Sequenzen,,,,,,,,,,,,,,
,Screen_2,canvas.Screen,0_4_12_1,,skipped,13,167846,,,167845,,167846,2021-10-29T13:17:49.317Z,167905.74,1635513200,full,ni_sequenzen,NI_Sequenzen,,,,,,,,,,,,,,
,Screen_3,canvas.Screen,0_4_12_2,,skipped,13,167847,,,167845,,167847,2021-10-29T13:17:49.318Z,167905.74,1635513200,full,ni_sequenzen,NI_Sequenzen,,,,,,,,,,,,,,
,Sequence,flow.Sequence,0_4_12,,completion,13,167844,,,167845,,167847,2021-10-29T13:17:49.318Z,167905.74,1635513200,full,ni_sequenzen,NI_Sequenzen,,,,,,,,,,,,,,
,Screen_1,canvas.Screen,0_4_13_0,,skipped,14,167848,,,167848,,167848,2021-10-29T13:17:49.319Z,167905.74,1635513200,full,ni_sequenzen,NI_Sequenzen,,,,,,,,,,,,,,
,Screen_2,canvas.Screen,0_4_13_1,,skipped,14,167849,,,167848,,167849,2021-10-29T13:17:49.320Z,167905.74,1635513200,full,ni_sequenzen,NI_Sequenzen,,,,,,,,,,,,,,
,Screen_3,canvas.Screen,0_4_13_2,,skipped,14,167849,,,167848,,167849,2021-10-29T13:17:49.321Z,167905.74,1635513200,full,ni_sequenzen,NI_Sequenzen,,,,,,,,,,,,,,
,Sequence,flow.Sequence,0_4_13,,completion,14,167847,,,167848,,167849,2021-10-29T13:17:49.321Z,167905.74,1635513200,full,ni_sequenzen,NI_Sequenzen,,,,,,,,,,,,,,
,Screen_1,canvas.Screen,0_4_14_0,,skipped,15,167851,,,167851,,167851,2021-10-29T13:17:49.322Z,167905.74,1635513200,full,ni_sequenzen,NI_Sequenzen,,,,,,,,,,,,,,
,Screen_2,canvas.Screen,0_4_14_1,,skipped,15,167851,,,167851,,167851,2021-10-29T13:17:49.322Z,167905.74,1635513200,full,ni_sequenzen,NI_Sequenzen,,,,,,,,,,,,,,
,Screen_3,canvas.Screen,0_4_14_2,,skipped,15,167852,,,167851,,167852,2021-10-29T13:17:49.324Z,167905.74,1635513200,full,ni_sequenzen,NI_Sequenzen,,,,,,,,,,,,,,
,Sequence,flow.Sequence,0_4_14,,completion,15,167850,,,167851,,167852,2021-10-29T13:17:49.324Z,167905.74,1635513200,full,ni_sequenzen,NI_Sequenzen,,,,,,,,,,,,,,
,Screen_1,canvas.Screen,0_4_15_0,,skipped,16,167853,,,167853,,167853,2021-10-29T13:17:49.325Z,167905.74,1635513200,full,ni_sequenzen,NI_Sequenzen,,,,,,,,,,,,,,
,Screen_2,canvas.Screen,0_4_15_1,,skipped,16,167854,,,167853,,167854,2021-10-29T13:17:49.326Z,167905.74,1635513200,full,ni_sequenzen,NI_Sequenzen,,,,,,,,,,,,,,
,Screen_3,canvas.Screen,0_4_15_2,,skipped,16,167854,,,167853,,167854,2021-10-29T13:17:49.326Z,167905.74,1635513200,full,ni_sequenzen,NI_Sequenzen,,,,,,,,,,,,,,
,Sequence,flow.Sequence,0_4_15,,completion,16,167852,,,167853,,167854,2021-10-29T13:17:49.326Z,167905.74,1635513200,full,ni_sequenzen,NI_Sequenzen,,,,,,,,,,,,,,
,Screen_1,canvas.Screen,0_4_16_0,,skipped,17,167855,,,167855,,167855,2021-10-29T13:17:49.327Z,167905.74,1635513200,full,ni_sequenzen,NI_Sequenzen,,,,,,,,,,,,,,
,Screen_2,canvas.Screen,0_4_16_1,,skipped,17,167856,,,167855,,167856,2021-10-29T13:17:49.327Z,167905.74,1635513200,full,ni_sequenzen,NI_Sequenzen,,,,,,,,,,,,,,
,Screen_3,canvas.Screen,0_4_16_2,,skipped,17,167857,,,167855,,167857,2021-10-29T13:17:49.328Z,167905.74,1635513200,full,ni_sequenzen,NI_Sequenzen,,,,,,,,,,,,,,
,Sequence,flow.Sequence,0_4_16,,completion,17,167855,,,167855,,167857,2021-10-29T13:17:49.328Z,167905.74,1635513200,full,ni_sequenzen,NI_Sequenzen,,,,,,,,,,,,,,
,Screen_1,canvas.Screen,0_4_17_0,,skipped,18,167858,,,167858,,167858,2021-10-29T13:17:49.329Z,167905.74,1635513200,full,ni_sequenzen,NI_Sequenzen,,,,,,,,,,,,,,
,Screen_2,canvas.Screen,0_4_17_1,,skipped,18,167859,,,167858,,167859,2021-10-29T13:17:49.330Z,167905.74,1635513200,full,ni_sequenzen,NI_Sequenzen,,,,,,,,,,,,,,
,Screen_3,canvas.Screen,0_4_17_2,,skipped,18,167859,,,167858,,167859,2021-10-29T13:17:49.331Z,167905.74,1635513200,full,ni_sequenzen,NI_Sequenzen,,,,,,,,,,,,,,
,Sequence,flow.Sequence,0_4_17,,completion,18,167857,,,167858,,167859,2021-10-29T13:17:49.331Z,167905.74,1635513200,full,ni_sequenzen,NI_Sequenzen,,,,,,,,,,,,,,
,Screen_1,canvas.Screen,0_4_18_0,,skipped,19,167860,,,167860,,167860,2021-10-29T13:17:49.331Z,167905.74,1635513200,full,ni_sequenzen,NI_Sequenzen,,,,,,,,,,,,,,
,Screen_2,canvas.Screen,0_4_18_1,,skipped,19,167861,,,167860,,167861,2021-10-29T13:17:49.332Z,167905.74,1635513200,full,ni_sequenzen,NI_Sequenzen,,,,,,,,,,,,,,
,Screen_3,canvas.Screen,0_4_18_2,,skipped,19,167862,,,167860,,167862,2021-10-29T13:17:49.333Z,167905.74,1635513200,full,ni_sequenzen,NI_Sequenzen,,,,,,,,,,,,,,
,Sequence,flow.Sequence,0_4_18,,completion,19,167860,,,167860,,167862,2021-10-29T13:17:49.333Z,167905.74,1635513200,full,ni_sequenzen,NI_Sequenzen,,,,,,,,,,,,,,
,Screen_1,canvas.Screen,0_4_19_0,,skipped,20,167863,,,167863,,167863,2021-10-29T13:17:49.334Z,167905.74,1635513200,full,ni_sequenzen,NI_Sequenzen,,,,,,,,,,,,,,
,Screen_2,canvas.Screen,0_4_19_1,,skipped,20,167864,,,167863,,167864,2021-10-29T13:17:49.335Z,167905.74,1635513200,full,ni_sequenzen,NI_Sequenzen,,,,,,,,,,,,,,
,Screen_3,canvas.Screen,0_4_19_2,,skipped,20,167864,,,167863,,167864,2021-10-29T13:17:49.335Z,167905.74,1635513200,full,ni_sequenzen,NI_Sequenzen,,,,,,,,,,,,,,
,Sequence,flow.Sequence,0_4_19,,completion,20,167862,,,167863,,167864,2021-10-29T13:17:49.336Z,167905.74,1635513200,full,ni_sequenzen,NI_Sequenzen,,,,,,,,,,,,,,
,Screen_1,canvas.Screen,0_4_20_0,,skipped,21,167865,,,167865,,167866,2021-10-29T13:17:49.337Z,167905.74,1635513200,full,ni_sequenzen,NI_Sequenzen,,,,,,,,,,,,,,
,Screen_2,canvas.Screen,0_4_20_1,,skipped,21,167866,,,167865,,167866,2021-10-29T13:17:49.338Z,167905.74,1635513200,full,ni_sequenzen,NI_Sequenzen,,,,,,,,,,,,,,
,Screen_3,canvas.Screen,0_4_20_2,,skipped,21,167867,,,167865,,167867,2021-10-29T13:17:49.338Z,167905.74,1635513200,full,ni_sequenzen,NI_Sequenzen,,,,,,,,,,,,,,
,Sequence,flow.Sequence,0_4_20,,completion,21,167865,,,167865,,167867,2021-10-29T13:17:49.339Z,167905.74,1635513200,full,ni_sequenzen,NI_Sequenzen,,,,,,,,,,,,,,
