meta,sender,sender_type,sender_id,response,ended_on,instrCount,time_run,time_render,time_show,time_end,duration,time_commit,timestamp,time_switch,openLabId,type,task,project,move,trialN,blockN_Train,blockN,moveCount,currPP,points,movesTrial,visitedFields,diff,reward,Strategie,Zweck,Probleme
[object Object],Screen_1,canvas.Screen,0_0_0_0,cont,response,1,708,708.82,732.82,866623,865890.18,866626,2021-10-28T15:46:41.437Z,866817.56,1635347803,full,ni_sequenzen,NI_Sequenzen,,,,,,,,,,,,,,
,Screen_2,canvas.Screen,0_0_0_1,cont,response,1,866802,866802.5,866817.56,870670,3852.439999999944,870673,2021-10-28T15:46:45.483Z,870770.7,1635347803,full,ni_sequenzen,NI_Sequenzen,,,,,,,,,,,,,,
,Screen_3,canvas.Screen,0_0_0_2,cont,response,1,870757,870757.1,870770.7,882451,11680.300000000047,882455,2021-10-28T15:46:57.265Z,882463.28,1635347803,full,ni_sequenzen,NI_Sequenzen,,,,,,,,,,,,,,
,Screen_4,canvas.Screen,0_0_0_3,cont,response,1,882460,882459.34,882463.28,884388,1924.719999999972,884391,2021-10-28T15:46:59.202Z,884564.94,1635347803,full,ni_sequenzen,NI_Sequenzen,,,,,,,,,,,,,,
,Sequence,flow.Sequence,0_0_0,,completion,1,636,708.82,732.82,884388,883655.18,884392,2021-10-28T15:46:59.202Z,884564.94,1635347803,full,ni_sequenzen,NI_Sequenzen,,,,,,,,,,,,,,
,Screen_1,canvas.Screen,0_0_1_0,,skipped,2,884396,,,884396,,884396,2021-10-28T15:46:59.206Z,884564.94,1635347803,full,ni_sequenzen,NI_Sequenzen,,,,,,,,,,,,,,
,Screen_2,canvas.Screen,0_0_1_1,,skipped,2,884398,,,884396,,884398,2021-10-28T15:46:59.209Z,884564.94,1635347803,full,ni_sequenzen,NI_Sequenzen,,,,,,,,,,,,,,
,Screen_3,canvas.Screen,0_0_1_2,,skipped,2,884402,,,884396,,884402,2021-10-28T15:46:59.212Z,884564.94,1635347803,full,ni_sequenzen,NI_Sequenzen,,,,,,,,,,,,,,
,Screen_4,canvas.Screen,0_0_1_3,,skipped,2,884404,,,884396,,884404,2021-10-28T15:46:59.214Z,884564.94,1635347803,full,ni_sequenzen,NI_Sequenzen,,,,,,,,,,,,,,
,Sequence,flow.Sequence,0_0_1,,completion,2,884394,,,884396,,884404,2021-10-28T15:46:59.214Z,884564.94,1635347803,full,ni_sequenzen,NI_Sequenzen,,,,,,,,,,,,,,
,Screen_1,canvas.Screen,0_0_2_0,,skipped,3,884406,,,884406,,884406,2021-10-28T15:46:59.217Z,884564.94,1635347803,full,ni_sequenzen,NI_Sequenzen,,,,,,,,,,,,,,
,Screen_2,canvas.Screen,0_0_2_1,,skipped,3,884409,,,884406,,884409,2021-10-28T15:46:59.220Z,884564.94,1635347803,full,ni_sequenzen,NI_Sequenzen,,,,,,,,,,,,,,
,Screen_3,canvas.Screen,0_0_2_2,,skipped,3,884412,,,884406,,884412,2021-10-28T15:46:59.222Z,884564.94,1635347803,full,ni_sequenzen,NI_Sequenzen,,,,,,,,,,,,,,
,Screen_4,canvas.Screen,0_0_2_3,,skipped,3,884414,,,884406,,884414,2021-10-28T15:46:59.224Z,884564.94,1635347803,full,ni_sequenzen,NI_Sequenzen,,,,,,,,,,,,,,
,Sequence,flow.Sequence,0_0_2,,completion,3,884405,,,884406,,884414,2021-10-28T15:46:59.224Z,884564.94,1635347803,full,ni_sequenzen,NI_Sequenzen,,,,,,,,,,,,,,
,Screen_1,canvas.Screen,0_0_3_0,,skipped,4,884417,,,884417,,884417,2021-10-28T15:46:59.228Z,884564.94,1635347803,full,ni_sequenzen,NI_Sequenzen,,,,,,,,,,,,,,
,Screen_2,canvas.Screen,0_0_3_1,,skipped,4,884419,,,884417,,884419,2021-10-28T15:46:59.229Z,884564.94,1635347803,full,ni_sequenzen,NI_Sequenzen,,,,,,,,,,,,,,
,Screen_3,canvas.Screen,0_0_3_2,,skipped,4,884421,,,884417,,884421,2021-10-28T15:46:59.231Z,884564.94,1635347803,full,ni_sequenzen,NI_Sequenzen,,,,,,,,,,,,,,
,Screen_4,canvas.Screen,0_0_3_3,,skipped,4,884423,,,884417,,884423,2021-10-28T15:46:59.233Z,884564.94,1635347803,full,ni_sequenzen,NI_Sequenzen,,,,,,,,,,,,,,
,Sequence,flow.Sequence,0_0_3,,completion,4,884415,,,884417,,884424,2021-10-28T15:46:59.233Z,884564.94,1635347803,full,ni_sequenzen,NI_Sequenzen,,,,,,,,,,,,,,
,Screen_1,canvas.Screen,0_0_4_0,,skipped,5,884426,,,884426,,884426,2021-10-28T15:46:59.236Z,884564.94,1635347803,full,ni_sequenzen,NI_Sequenzen,,,,,,,,,,,,,,
,Screen_2,canvas.Screen,0_0_4_1,,skipped,5,884428,,,884426,,884428,2021-10-28T15:46:59.238Z,884564.94,1635347803,full,ni_sequenzen,NI_Sequenzen,,,,,,,,,,,,,,
,Screen_3,canvas.Screen,0_0_4_2,,skipped,5,884429,,,884426,,884429,2021-10-28T15:46:59.240Z,884564.94,1635347803,full,ni_sequenzen,NI_Sequenzen,,,,,,,,,,,,,,
,Screen_4,canvas.Screen,0_0_4_3,,skipped,5,884432,,,884426,,884432,2021-10-28T15:46:59.242Z,884564.94,1635347803,full,ni_sequenzen,NI_Sequenzen,,,,,,,,,,,,,,
,Sequence,flow.Sequence,0_0_4,,completion,5,884425,,,884426,,884432,2021-10-28T15:46:59.243Z,884564.94,1635347803,full,ni_sequenzen,NI_Sequenzen,,,,,,,,,,,,,,
,Screen_1,canvas.Screen,0_0_5_0,,skipped,6,884435,,,884435,,884435,2021-10-28T15:46:59.245Z,884564.94,1635347803,full,ni_sequenzen,NI_Sequenzen,,,,,,,,,,,,,,
,Screen_2,canvas.Screen,0_0_5_1,,skipped,6,884436,,,884435,,884436,2021-10-28T15:46:59.246Z,884564.94,1635347803,full,ni_sequenzen,NI_Sequenzen,,,,,,,,,,,,,,
,Screen_3,canvas.Screen,0_0_5_2,,skipped,6,884438,,,884435,,884438,2021-10-28T15:46:59.247Z,884564.94,1635347803,full,ni_sequenzen,NI_Sequenzen,,,,,,,,,,,,,,
,Screen_4,canvas.Screen,0_0_5_3,,skipped,6,884439,,,884435,,884439,2021-10-28T15:46:59.249Z,884564.94,1635347803,full,ni_sequenzen,NI_Sequenzen,,,,,,,,,,,,,,
,Sequence,flow.Sequence,0_0_5,,completion,6,884433,,,884435,,884439,2021-10-28T15:46:59.250Z,884564.94,1635347803,full,ni_sequenzen,NI_Sequenzen,,,,,,,,,,,,,,
,Screen_1,canvas.Screen,0_0_6_0,,skipped,7,884443,,,884443,,884443,2021-10-28T15:46:59.253Z,884564.94,1635347803,full,ni_sequenzen,NI_Sequenzen,,,,,,,,,,,,,,
,Screen_2,canvas.Screen,0_0_6_1,,skipped,7,884445,,,884443,,884445,2021-10-28T15:46:59.255Z,884564.94,1635347803,full,ni_sequenzen,NI_Sequenzen,,,,,,,,,,,,,,
,Screen_3,canvas.Screen,0_0_6_2,,skipped,7,884448,,,884443,,884448,2021-10-28T15:46:59.258Z,884564.94,1635347803,full,ni_sequenzen,NI_Sequenzen,,,,,,,,,,,,,,
,Screen_4,canvas.Screen,0_0_6_3,,skipped,7,884451,,,884443,,884451,2021-10-28T15:46:59.261Z,884564.94,1635347803,full,ni_sequenzen,NI_Sequenzen,,,,,,,,,,,,,,
,Sequence,flow.Sequence,0_0_6,,completion,7,884440,,,884443,,884451,2021-10-28T15:46:59.261Z,884564.94,1635347803,full,ni_sequenzen,NI_Sequenzen,,,,,,,,,,,,,,
,Screen_1,canvas.Screen,0_0_7_0,,skipped,8,884453,,,884453,,884453,2021-10-28T15:46:59.263Z,884564.94,1635347803,full,ni_sequenzen,NI_Sequenzen,,,,,,,,,,,,,,
,Screen_2,canvas.Screen,0_0_7_1,,skipped,8,884454,,,884453,,884454,2021-10-28T15:46:59.264Z,884564.94,1635347803,full,ni_sequenzen,NI_Sequenzen,,,,,,,,,,,,,,
,Screen_3,canvas.Screen,0_0_7_2,,skipped,8,884456,,,884453,,884456,2021-10-28T15:46:59.266Z,884564.94,1635347803,full,ni_sequenzen,NI_Sequenzen,,,,,,,,,,,,,,
,Screen_4,canvas.Screen,0_0_7_3,,skipped,8,884458,,,884453,,884458,2021-10-28T15:46:59.268Z,884564.94,1635347803,full,ni_sequenzen,NI_Sequenzen,,,,,,,,,,,,,,
,Sequence,flow.Sequence,0_0_7,,completion,8,884451,,,884453,,884458,2021-10-28T15:46:59.268Z,884564.94,1635347803,full,ni_sequenzen,NI_Sequenzen,,,,,,,,,,,,,,
,Screen_1,canvas.Screen,0_0_8_0,,skipped,9,884459,,,884459,,884460,2021-10-28T15:46:59.270Z,884564.94,1635347803,full,ni_sequenzen,NI_Sequenzen,,,,,,,,,,,,,,
,Screen_2,canvas.Screen,0_0_8_1,,skipped,9,884461,,,884459,,884462,2021-10-28T15:46:59.271Z,884564.94,1635347803,full,ni_sequenzen,NI_Sequenzen,,,,,,,,,,,,,,
,Screen_3,canvas.Screen,0_0_8_2,,skipped,9,884463,,,884459,,884463,2021-10-28T15:46:59.273Z,884564.94,1635347803,full,ni_sequenzen,NI_Sequenzen,,,,,,,,,,,,,,
,Screen_4,canvas.Screen,0_0_8_3,,skipped,9,884466,,,884459,,884466,2021-10-28T15:46:59.276Z,884564.94,1635347803,full,ni_sequenzen,NI_Sequenzen,,,,,,,,,,,,,,
,Sequence,flow.Sequence,0_0_8,,completion,9,884458,,,884459,,884467,2021-10-28T15:46:59.277Z,884564.94,1635347803,full,ni_sequenzen,NI_Sequenzen,,,,,,,,,,,,,,
,Screen_1,canvas.Screen,0_0_9_0,,skipped,10,884468,,,884468,,884469,2021-10-28T15:46:59.279Z,884564.94,1635347803,full,ni_sequenzen,NI_Sequenzen,,,,,,,,,,,,,,
,Screen_2,canvas.Screen,0_0_9_1,,skipped,10,884470,,,884468,,884470,2021-10-28T15:46:59.280Z,884564.94,1635347803,full,ni_sequenzen,NI_Sequenzen,,,,,,,,,,,,,,
,Screen_3,canvas.Screen,0_0_9_2,,skipped,10,884471,,,884468,,884471,2021-10-28T15:46:59.282Z,884564.94,1635347803,full,ni_sequenzen,NI_Sequenzen,,,,,,,,,,,,,,
,Screen_4,canvas.Screen,0_0_9_3,,skipped,10,884472,,,884468,,884472,2021-10-28T15:46:59.283Z,884564.94,1635347803,full,ni_sequenzen,NI_Sequenzen,,,,,,,,,,,,,,
,Sequence,flow.Sequence,0_0_9,,completion,10,884468,,,884468,,884472,2021-10-28T15:46:59.284Z,884564.94,1635347803,full,ni_sequenzen,NI_Sequenzen,,,,,,,,,,,,,,
,Screen_1,canvas.Screen,0_0_10_0,,skipped,11,884475,,,884475,,884476,2021-10-28T15:46:59.286Z,884564.94,1635347803,full,ni_sequenzen,NI_Sequenzen,,,,,,,,,,,,,,
,Screen_2,canvas.Screen,0_0_10_1,,skipped,11,884477,,,884475,,884477,2021-10-28T15:46:59.287Z,884564.94,1635347803,full,ni_sequenzen,NI_Sequenzen,,,,,,,,,,,,,,
,Screen_3,canvas.Screen,0_0_10_2,,skipped,11,884478,,,884475,,884478,2021-10-28T15:46:59.289Z,884564.94,1635347803,full,ni_sequenzen,NI_Sequenzen,,,,,,,,,,,,,,
,Screen_4,canvas.Screen,0_0_10_3,,skipped,11,884480,,,884475,,884480,2021-10-28T15:46:59.291Z,884564.94,1635347803,full,ni_sequenzen,NI_Sequenzen,,,,,,,,,,,,,,
,Sequence,flow.Sequence,0_0_10,,completion,11,884473,,,884475,,884481,2021-10-28T15:46:59.292Z,884564.94,1635347803,full,ni_sequenzen,NI_Sequenzen,,,,,,,,,,,,,,
,Screen_1,canvas.Screen,0_0_11_0,,skipped,12,884484,,,884484,,884484,2021-10-28T15:46:59.294Z,884564.94,1635347803,full,ni_sequenzen,NI_Sequenzen,,,,,,,,,,,,,,
,Screen_2,canvas.Screen,0_0_11_1,,skipped,12,884485,,,884484,,884486,2021-10-28T15:46:59.296Z,884564.94,1635347803,full,ni_sequenzen,NI_Sequenzen,,,,,,,,,,,,,,
,Screen_3,canvas.Screen,0_0_11_2,,skipped,12,884488,,,884484,,884488,2021-10-28T15:46:59.298Z,884564.94,1635347803,full,ni_sequenzen,NI_Sequenzen,,,,,,,,,,,,,,
,Screen_4,canvas.Screen,0_0_11_3,,skipped,12,884490,,,884484,,884490,2021-10-28T15:46:59.300Z,884564.94,1635347803,full,ni_sequenzen,NI_Sequenzen,,,,,,,,,,,,,,
,Sequence,flow.Sequence,0_0_11,,completion,12,884483,,,884484,,884490,2021-10-28T15:46:59.301Z,884564.94,1635347803,full,ni_sequenzen,NI_Sequenzen,,,,,,,,,,,,,,
,Screen_1,canvas.Screen,0_0_12_0,,skipped,13,884492,,,884492,,884492,2021-10-28T15:46:59.303Z,884564.94,1635347803,full,ni_sequenzen,NI_Sequenzen,,,,,,,,,,,,,,
,Screen_2,canvas.Screen,0_0_12_1,,skipped,13,884494,,,884492,,884494,2021-10-28T15:46:59.305Z,884564.94,1635347803,full,ni_sequenzen,NI_Sequenzen,,,,,,,,,,,,,,
,Screen_3,canvas.Screen,0_0_12_2,,skipped,13,884496,,,884492,,884496,2021-10-28T15:46:59.307Z,884564.94,1635347803,full,ni_sequenzen,NI_Sequenzen,,,,,,,,,,,,,,
,Screen_4,canvas.Screen,0_0_12_3,,skipped,13,884497,,,884492,,884497,2021-10-28T15:46:59.308Z,884564.94,1635347803,full,ni_sequenzen,NI_Sequenzen,,,,,,,,,,,,,,
,Sequence,flow.Sequence,0_0_12,,completion,13,884491,,,884492,,884497,2021-10-28T15:46:59.308Z,884564.94,1635347803,full,ni_sequenzen,NI_Sequenzen,,,,,,,,,,,,,,
,Screen_1,canvas.Screen,0_0_13_0,,skipped,14,884501,,,884501,,884501,2021-10-28T15:46:59.311Z,884564.94,1635347803,full,ni_sequenzen,NI_Sequenzen,,,,,,,,,,,,,,
,Screen_2,canvas.Screen,0_0_13_1,,skipped,14,884503,,,884501,,884503,2021-10-28T15:46:59.313Z,884564.94,1635347803,full,ni_sequenzen,NI_Sequenzen,,,,,,,,,,,,,,
,Screen_3,canvas.Screen,0_0_13_2,,skipped,14,884505,,,884501,,884505,2021-10-28T15:46:59.316Z,884564.94,1635347803,full,ni_sequenzen,NI_Sequenzen,,,,,,,,,,,,,,
,Screen_4,canvas.Screen,0_0_13_3,,skipped,14,884508,,,884501,,884508,2021-10-28T15:46:59.318Z,884564.94,1635347803,full,ni_sequenzen,NI_Sequenzen,,,,,,,,,,,,,,
,Sequence,flow.Sequence,0_0_13,,completion,14,884498,,,884501,,884509,2021-10-28T15:46:59.318Z,884564.94,1635347803,full,ni_sequenzen,NI_Sequenzen,,,,,,,,,,,,,,
,Screen_1,canvas.Screen,0_0_14_0,,skipped,15,884510,,,884510,,884510,2021-10-28T15:46:59.320Z,884564.94,1635347803,full,ni_sequenzen,NI_Sequenzen,,,,,,,,,,,,,,
,Screen_2,canvas.Screen,0_0_14_1,,skipped,15,884511,,,884510,,884511,2021-10-28T15:46:59.321Z,884564.94,1635347803,full,ni_sequenzen,NI_Sequenzen,,,,,,,,,,,,,,
,Screen_3,canvas.Screen,0_0_14_2,,skipped,15,884512,,,884510,,884512,2021-10-28T15:46:59.323Z,884564.94,1635347803,full,ni_sequenzen,NI_Sequenzen,,,,,,,,,,,,,,
,Screen_4,canvas.Screen,0_0_14_3,,skipped,15,884513,,,884510,,884514,2021-10-28T15:46:59.324Z,884564.94,1635347803,full,ni_sequenzen,NI_Sequenzen,,,,,,,,,,,,,,
,Sequence,flow.Sequence,0_0_14,,completion,15,884509,,,884510,,884514,2021-10-28T15:46:59.324Z,884564.94,1635347803,full,ni_sequenzen,NI_Sequenzen,,,,,,,,,,,,,,
,Screen_1,canvas.Screen,0_0_15_0,,skipped,16,884515,,,884515,,884516,2021-10-28T15:46:59.326Z,884564.94,1635347803,full,ni_sequenzen,NI_Sequenzen,,,,,,,,,,,,,,
,Screen_2,canvas.Screen,0_0_15_1,,skipped,16,884517,,,884515,,884517,2021-10-28T15:46:59.328Z,884564.94,1635347803,full,ni_sequenzen,NI_Sequenzen,,,,,,,,,,,,,,
,Screen_3,canvas.Screen,0_0_15_2,,skipped,16,884519,,,884515,,884519,2021-10-28T15:46:59.329Z,884564.94,1635347803,full,ni_sequenzen,NI_Sequenzen,,,,,,,,,,,,,,
,Screen_4,canvas.Screen,0_0_15_3,,skipped,16,884519,,,884515,,884520,2021-10-28T15:46:59.330Z,884564.94,1635347803,full,ni_sequenzen,NI_Sequenzen,,,,,,,,,,,,,,
,Sequence,flow.Sequence,0_0_15,,completion,16,884514,,,884515,,884520,2021-10-28T15:46:59.330Z,884564.94,1635347803,full,ni_sequenzen,NI_Sequenzen,,,,,,,,,,,,,,
,Screen_1,canvas.Screen,0_0_16_0,,skipped,17,884522,,,884522,,884522,2021-10-28T15:46:59.333Z,884564.94,1635347803,full,ni_sequenzen,NI_Sequenzen,,,,,,,,,,,,,,
,Screen_2,canvas.Screen,0_0_16_1,,skipped,17,884523,,,884522,,884524,2021-10-28T15:46:59.334Z,884564.94,1635347803,full,ni_sequenzen,NI_Sequenzen,,,,,,,,,,,,,,
,Screen_3,canvas.Screen,0_0_16_2,,skipped,17,884525,,,884522,,884525,2021-10-28T15:46:59.336Z,884564.94,1635347803,full,ni_sequenzen,NI_Sequenzen,,,,,,,,,,,,,,
,Screen_4,canvas.Screen,0_0_16_3,,skipped,17,884527,,,884522,,884527,2021-10-28T15:46:59.338Z,884564.94,1635347803,full,ni_sequenzen,NI_Sequenzen,,,,,,,,,,,,,,
,Sequence,flow.Sequence,0_0_16,,completion,17,884520,,,884522,,884527,2021-10-28T15:46:59.338Z,884564.94,1635347803,full,ni_sequenzen,NI_Sequenzen,,,,,,,,,,,,,,
,Screen_1,canvas.Screen,0_0_17_0,,skipped,18,884529,,,884529,,884529,2021-10-28T15:46:59.339Z,884564.94,1635347803,full,ni_sequenzen,NI_Sequenzen,,,,,,,,,,,,,,
,Screen_2,canvas.Screen,0_0_17_1,,skipped,18,884530,,,884529,,884530,2021-10-28T15:46:59.340Z,884564.94,1635347803,full,ni_sequenzen,NI_Sequenzen,,,,,,,,,,,,,,
,Screen_3,canvas.Screen,0_0_17_2,,skipped,18,884531,,,884529,,884531,2021-10-28T15:46:59.342Z,884564.94,1635347803,full,ni_sequenzen,NI_Sequenzen,,,,,,,,,,,,,,
,Screen_4,canvas.Screen,0_0_17_3,,skipped,18,884533,,,884529,,884534,2021-10-28T15:46:59.343Z,884564.94,1635347803,full,ni_sequenzen,NI_Sequenzen,,,,,,,,,,,,,,
,Sequence,flow.Sequence,0_0_17,,completion,18,884528,,,884529,,884534,2021-10-28T15:46:59.344Z,884564.94,1635347803,full,ni_sequenzen,NI_Sequenzen,,,,,,,,,,,,,,
,Screen_1,canvas.Screen,0_0_18_0,,skipped,19,884535,,,884535,,884535,2021-10-28T15:46:59.346Z,884564.94,1635347803,full,ni_sequenzen,NI_Sequenzen,,,,,,,,,,,,,,
,Screen_2,canvas.Screen,0_0_18_1,,skipped,19,884536,,,884535,,884536,2021-10-28T15:46:59.346Z,884564.94,1635347803,full,ni_sequenzen,NI_Sequenzen,,,,,,,,,,,,,,
,Screen_3,canvas.Screen,0_0_18_2,,skipped,19,884538,,,884535,,884538,2021-10-28T15:46:59.349Z,884564.94,1635347803,full,ni_sequenzen,NI_Sequenzen,,,,,,,,,,,,,,
,Screen_4,canvas.Screen,0_0_18_3,,skipped,19,884539,,,884535,,884539,2021-10-28T15:46:59.350Z,884564.94,1635347803,full,ni_sequenzen,NI_Sequenzen,,,,,,,,,,,,,,
,Sequence,flow.Sequence,0_0_18,,completion,19,884534,,,884535,,884539,2021-10-28T15:46:59.350Z,884564.94,1635347803,full,ni_sequenzen,NI_Sequenzen,,,,,,,,,,,,,,
,Screen_1,canvas.Screen,0_0_19_0,,skipped,20,884541,,,884541,,884541,2021-10-28T15:46:59.351Z,884564.94,1635347803,full,ni_sequenzen,NI_Sequenzen,,,,,,,,,,,,,,
,Screen_2,canvas.Screen,0_0_19_1,,skipped,20,884542,,,884541,,884542,2021-10-28T15:46:59.352Z,884564.94,1635347803,full,ni_sequenzen,NI_Sequenzen,,,,,,,,,,,,,,
,Screen_3,canvas.Screen,0_0_19_2,,skipped,20,884543,,,884541,,884543,2021-10-28T15:46:59.354Z,884564.94,1635347803,full,ni_sequenzen,NI_Sequenzen,,,,,,,,,,,,,,
,Screen_4,canvas.Screen,0_0_19_3,,skipped,20,884544,,,884541,,884544,2021-10-28T15:46:59.355Z,884564.94,1635347803,full,ni_sequenzen,NI_Sequenzen,,,,,,,,,,,,,,
,Sequence,flow.Sequence,0_0_19,,completion,20,884539,,,884541,,884544,2021-10-28T15:46:59.355Z,884564.94,1635347803,full,ni_sequenzen,NI_Sequenzen,,,,,,,,,,,,,,
,Instructions_I,flow.Loop,0_0,,completion,,635,708.82,732.82,884541,883808.18,884544,2021-10-28T15:46:59.355Z,884564.94,1635347803,full,ni_sequenzen,NI_Sequenzen,,,,,,,,,,,,,,
,Move,canvas.Screen,0_1_0_0,right,response,,884563,884563.6,884564.94,885763,1198.0600000000559,885768,2021-10-28T15:47:00.578Z,885782.56,1635347803,full,ni_sequenzen,NI_Sequenzen,1,,,,,,,,,,,,,
,Move,canvas.Screen,0_1_0_1,right,response,,885777,885776.24,885782.56,886279,496.4399999999441,886286,2021-10-28T15:47:01.097Z,886299.64,1635347803,full,ni_sequenzen,NI_Sequenzen,2,,,,,,,,,,,,,
,Move,canvas.Screen,0_1_0_2,left,response,,886293,886293.22,886299.64,886670,370.35999999998603,886678,2021-10-28T15:47:01.489Z,886699.96,1635347803,full,ni_sequenzen,NI_Sequenzen,3,,,,,,,,,,,,,
,Move,canvas.Screen,0_1_0_3,down,response,,886686,886685.82,886699.96,888388,1688.0400000000373,888391,2021-10-28T15:47:03.202Z,888401.32,1635347803,full,ni_sequenzen,NI_Sequenzen,4,,,,,,,,,,,,,
,Move,canvas.Screen,0_1_0_4,down,response,,888396,888396.4,888401.32,888732,330.6800000000512,888743,2021-10-28T15:47:03.552Z,888751.6,1635347803,full,ni_sequenzen,NI_Sequenzen,5,,,,,,,,,,,,,
,Move,canvas.Screen,0_1_0_5,down,response,,888749,888749.42,888751.6,889045,293.4000000000233,889046,2021-10-28T15:47:03.857Z,889068.52,1635347803,full,ni_sequenzen,NI_Sequenzen,6,,,,,,,,,,,,,
,Move,canvas.Screen,0_1_0_6,left,response,,889052,889052.58,889068.52,890170,1101.4799999999814,890183,2021-10-28T15:47:04.993Z,890202.72,1635347803,full,ni_sequenzen,NI_Sequenzen,7,,,,,,,,,,,,,
,Move,canvas.Screen,0_1_0_7,left,response,,890188,890188.8,890202.72,890451,248.28000000002794,890463,2021-10-28T15:47:05.273Z,890469.62,1635347803,full,ni_sequenzen,NI_Sequenzen,8,,,,,,,,,,,,,
,Move,canvas.Screen,0_1_0_8,left,response,,890467,890467.76,890469.62,890732,262.38000000000466,890734,2021-10-28T15:47:05.544Z,890753.16,1635347803,full,ni_sequenzen,NI_Sequenzen,9,,,,,,,,,,,,,
,Move,canvas.Screen,0_1_0_9,down,response,,890742,890741.44,890753.16,890998,244.8399999999674,891006,2021-10-28T15:47:05.817Z,891020.04,1635347803,full,ni_sequenzen,NI_Sequenzen,10,,,,,,,,,,,,,
,Move,canvas.Screen,0_1_0_10,down,response,,891012,891012.76,891020.04,891216,195.95999999996275,891231,2021-10-28T15:47:06.040Z,891236.88,1635347803,full,ni_sequenzen,NI_Sequenzen,11,,,,,,,,,,,,,
,Move,canvas.Screen,0_1_0_11,right,response,,891237,891236.74,891236.88,891513,276.11999999999534,891526,2021-10-28T15:47:06.337Z,891537.12,1635347803,full,ni_sequenzen,NI_Sequenzen,12,,,,,,,,,,,,,
,Move,canvas.Screen,0_1_0_12,down,response,,891531,891530.94,891537.12,892201,663.8800000000047,892206,2021-10-28T15:47:07.017Z,892221,1635347803,full,ni_sequenzen,NI_Sequenzen,13,,,,,,,,,,,,,
,Move,canvas.Screen,0_1_0_13,down,response,,892212,892211.9,892221,892420,199,892430,2021-10-28T15:47:07.240Z,892437.8,1635347803,full,ni_sequenzen,NI_Sequenzen,14,,,,,,,,,,,,,
,Move,canvas.Screen,0_1_0_14,down,response,,892435,892435.74,892437.8,892638,200.19999999995343,892654,2021-10-28T15:47:07.465Z,892671.34,1635347803,full,ni_sequenzen,NI_Sequenzen,15,,,,,,,,,,,,,
,Move,canvas.Screen,0_1_0_15,left,response,,892660,892659.28,892671.34,892920,248.6600000000326,892934,2021-10-28T15:47:07.744Z,892938.22,1635347803,full,ni_sequenzen,NI_Sequenzen,16,,,,,,,,,,,,,
,Move,canvas.Screen,0_1_0_16,left,response,,892938,892938,892938.22,893123,184.78000000002794,893134,2021-10-28T15:47:07.944Z,893155.06,1635347803,full,ni_sequenzen,NI_Sequenzen,17,,,,,,,,,,,,,
,Move,canvas.Screen,0_1_0_17,down,response,,893138,893138.86,893155.06,893466,310.9399999999441,893478,2021-10-28T15:47:08.288Z,893488.66,1635347803,full,ni_sequenzen,NI_Sequenzen,18,,,,,,,,,,,,,
,Move,canvas.Screen,0_1_0_18,down,response,,893483,893482.98,893488.66,893732,243.3399999999674,893734,2021-10-28T15:47:08.544Z,893738.86,1635347803,full,ni_sequenzen,NI_Sequenzen,19,,,,,,,,,,,,,
,Move,canvas.Screen,0_1_0_19,right,response,,893738,893738.18,893738.86,893998,259.14000000001397,894006,2021-10-28T15:47:08.816Z,894022.42,1635347803,full,ni_sequenzen,NI_Sequenzen,20,,,,,,,,,,,,,
,Move,canvas.Screen,0_1_0_20,right,response,,894011,894010.56,894022.42,894310,287.5799999999581,894326,2021-10-28T15:47:09.136Z,894339.32,1635347803,full,ni_sequenzen,NI_Sequenzen,21,,,,,,,,,,,,,
,Move,canvas.Screen,0_1_0_21,right,response,,894330,894330.1,894339.32,894529,189.68000000005122,894542,2021-10-28T15:47:09.352Z,894556.16,1635347803,full,ni_sequenzen,NI_Sequenzen,22,,,,,,,,,,,,,
,Move,canvas.Screen,0_1_0_22,down,response,,894546,894546.5,894556.16,894716,159.8399999999674,894718,2021-10-28T15:47:09.528Z,894722.96,1635347803,full,ni_sequenzen,NI_Sequenzen,23,,,,,,,,,,,,,
,Move,canvas.Screen,0_1_0_23,down,response,,894722,894722.06,894722.96,894935,212.04000000003725,894949,2021-10-28T15:47:09.761Z,894956.48,1635347803,full,ni_sequenzen,NI_Sequenzen,24,,,,,,,,,,,,,
,Move,canvas.Screen,0_1_0_24,down,response,,894955,894955.04,894956.48,895154,197.52000000001863,895158,2021-10-28T15:47:09.969Z,895173.34,1635347803,full,ni_sequenzen,NI_Sequenzen,25,,,,,,,,,,,,,
,Move,canvas.Screen,0_1_0_25,left,response,,895164,895163.3,895173.34,895654,480.6600000000326,895670,2021-10-28T15:47:10.480Z,895690.38,1635347803,full,ni_sequenzen,NI_Sequenzen,26,,,,,,,,,,,,,
,Move,canvas.Screen,0_1_0_26,left,response,,895675,895675.28,895690.38,895873,182.61999999999534,895877,2021-10-28T15:47:10.688Z,895890.56,1635347803,full,ni_sequenzen,NI_Sequenzen,27,,,,,,,,,,,,,
,Move,canvas.Screen,0_1_0_27,down,response,,895883,895882.5,895890.56,896216,325.4399999999441,896222,2021-10-28T15:47:11.032Z,896240.84,1635347803,full,ni_sequenzen,NI_Sequenzen,28,,,,,,,,,,,,,
,Move,canvas.Screen,0_1_0_28,right,response,,896227,896226.44,896240.84,897685,1444.1600000000326,897701,2021-10-28T15:47:12.512Z,897708.66,1635347803,full,ni_sequenzen,NI_Sequenzen,29,,,,,,,,,,,,,
,Move,canvas.Screen,0_1_0_29,right,response,,897706,897706.38,897708.66,897888,179.3399999999674,897901,2021-10-28T15:47:12.713Z,897958.86,1635347803,full,ni_sequenzen,NI_Sequenzen,30,,,,,,,,,,,,,
,Loop,flow.Loop,0_1_0,-999,completion,,884560,884563.6,884564.94,897888,13323.060000000056,897902,2021-10-28T15:47:12.713Z,897958.86,1635347803,full,ni_sequenzen,NI_Sequenzen,,,,,,,,,,,,,,
,Training_I,flow.Sequence,0_1,,completion,,884545,884563.6,884564.94,897888,13323.060000000056,897902,2021-10-28T15:47:12.713Z,897958.86,1635347803,full,ni_sequenzen,NI_Sequenzen,,,,,,,,,,,,,,
,Screen_1,canvas.Screen,0_2_0_0,cont,response,1,897955,897955.74,897958.86,898060,101.14000000001397,898070,2021-10-28T15:47:12.880Z,898192.38,1635347803,full,ni_sequenzen,NI_Sequenzen,,,,,,,,,,,,,,
,Screen_2,canvas.Screen,0_2_0_1,back,response,1,898179,898179.08,898192.38,899232,1039.6199999999953,899237,2021-10-28T15:47:14.047Z,899393.34,1635347803,full,ni_sequenzen,NI_Sequenzen,,,,,,,,,,,,,,
,Screen_3,canvas.Screen,0_2_0_2,,skipped,1,899240,,,899232,,899240,2021-10-28T15:47:14.050Z,899393.34,1635347803,full,ni_sequenzen,NI_Sequenzen,,,,,,,,,,,,,,
,Screen_4,canvas.Screen,0_2_0_3,,skipped,1,899328,,,899232,,899328,2021-10-28T15:47:14.138Z,899393.34,1635347803,full,ni_sequenzen,NI_Sequenzen,,,,,,,,,,,,,,
,Screen_5,canvas.Screen,0_2_0_4,,skipped,1,899331,,,899232,,899331,2021-10-28T15:47:14.141Z,899393.34,1635347803,full,ni_sequenzen,NI_Sequenzen,,,,,,,,,,,,,,
,Screen_6,canvas.Screen,0_2_0_5,,skipped,1,899382,,,899232,,899382,2021-10-28T15:47:14.193Z,899393.34,1635347803,full,ni_sequenzen,NI_Sequenzen,,,,,,,,,,,,,,
,Sequence,flow.Sequence,0_2_0,,completion,1,897954,897955.74,897958.86,899232,1273.140000000014,899383,2021-10-28T15:47:14.193Z,899393.34,1635347803,full,ni_sequenzen,NI_Sequenzen,,,,,,,,,,,,,,
,Screen_1,canvas.Screen,0_2_1_0,cont,response,2,899385,899385.56,899393.34,907482,8088.660000000033,907493,2021-10-28T15:47:22.305Z,907499.74,1635347803,full,ni_sequenzen,NI_Sequenzen,,,,,,,,,,,,,,
,Screen_2,canvas.Screen,0_2_1_1,cont,response,2,907499,907499.38,907499.74,910966,3466.2600000000093,910980,2021-10-28T15:47:25.791Z,910985.82,1635347803,full,ni_sequenzen,NI_Sequenzen,,,,,,,,,,,,,,
,Screen_3,canvas.Screen,0_2_1_2,cont,response,2,910985,910984.96,910985.82,917623,6637.180000000051,917628,2021-10-28T15:47:32.439Z,917641.1,1635347803,full,ni_sequenzen,NI_Sequenzen,,,,,,,,,,,,,,
,Screen_4,canvas.Screen,0_2_1_3,cont,response,2,917631,917631.74,917641.1,924576,6934.900000000023,924579,2021-10-28T15:47:39.390Z,924596.6,1635347803,full,ni_sequenzen,NI_Sequenzen,,,,,,,,,,,,,,
,Screen_5,canvas.Screen,0_2_1_4,cont,response,2,924584,924583.18,924596.6,928873,4276.400000000023,928875,2021-10-28T15:47:43.686Z,928883.32,1635347803,full,ni_sequenzen,NI_Sequenzen,,,,,,,,,,,,,,
,Screen_6,canvas.Screen,0_2_1_5,cont,response,2,928878,928878.58,928883.32,939435,10551.680000000051,939443,2021-10-28T15:47:54.253Z,939758.56,1635347803,full,ni_sequenzen,NI_Sequenzen,,,,,,,,,,,,,,
,Sequence,flow.Sequence,0_2_1,,completion,2,899384,899385.56,899393.34,939435,40041.66000000003,939443,2021-10-28T15:47:54.253Z,939758.56,1635347803,full,ni_sequenzen,NI_Sequenzen,,,,,,,,,,,,,,
,Screen_1,canvas.Screen,0_2_2_0,,skipped,3,939447,,,939447,,939447,2021-10-28T15:47:54.257Z,939758.56,1635347803,full,ni_sequenzen,NI_Sequenzen,,,,,,,,,,,,,,
,Screen_2,canvas.Screen,0_2_2_1,,skipped,3,939448,,,939447,,939448,2021-10-28T15:47:54.259Z,939758.56,1635347803,full,ni_sequenzen,NI_Sequenzen,,,,,,,,,,,,,,
,Screen_3,canvas.Screen,0_2_2_2,,skipped,3,939450,,,939447,,939450,2021-10-28T15:47:54.260Z,939758.56,1635347803,full,ni_sequenzen,NI_Sequenzen,,,,,,,,,,,,,,
,Screen_4,canvas.Screen,0_2_2_3,,skipped,3,939452,,,939447,,939452,2021-10-28T15:47:54.262Z,939758.56,1635347803,full,ni_sequenzen,NI_Sequenzen,,,,,,,,,,,,,,
,Screen_5,canvas.Screen,0_2_2_4,,skipped,3,939454,,,939447,,939454,2021-10-28T15:47:54.264Z,939758.56,1635347803,full,ni_sequenzen,NI_Sequenzen,,,,,,,,,,,,,,
,Screen_6,canvas.Screen,0_2_2_5,,skipped,3,939456,,,939447,,939456,2021-10-28T15:47:54.266Z,939758.56,1635347803,full,ni_sequenzen,NI_Sequenzen,,,,,,,,,,,,,,
,Sequence,flow.Sequence,0_2_2,,completion,3,939445,,,939447,,939457,2021-10-28T15:47:54.267Z,939758.56,1635347803,full,ni_sequenzen,NI_Sequenzen,,,,,,,,,,,,,,
,Screen_1,canvas.Screen,0_2_3_0,,skipped,4,939458,,,939458,,939458,2021-10-28T15:47:54.269Z,939758.56,1635347803,full,ni_sequenzen,NI_Sequenzen,,,,,,,,,,,,,,
,Screen_2,canvas.Screen,0_2_3_1,,skipped,4,939460,,,939458,,939461,2021-10-28T15:47:54.271Z,939758.56,1635347803,full,ni_sequenzen,NI_Sequenzen,,,,,,,,,,,,,,
,Screen_3,canvas.Screen,0_2_3_2,,skipped,4,939464,,,939458,,939464,2021-10-28T15:47:54.274Z,939758.56,1635347803,full,ni_sequenzen,NI_Sequenzen,,,,,,,,,,,,,,
,Screen_4,canvas.Screen,0_2_3_3,,skipped,4,939465,,,939458,,939466,2021-10-28T15:47:54.276Z,939758.56,1635347803,full,ni_sequenzen,NI_Sequenzen,,,,,,,,,,,,,,
,Screen_5,canvas.Screen,0_2_3_4,,skipped,4,939467,,,939458,,939467,2021-10-28T15:47:54.277Z,939758.56,1635347803,full,ni_sequenzen,NI_Sequenzen,,,,,,,,,,,,,,
,Screen_6,canvas.Screen,0_2_3_5,,skipped,4,939468,,,939458,,939468,2021-10-28T15:47:54.279Z,939758.56,1635347803,full,ni_sequenzen,NI_Sequenzen,,,,,,,,,,,,,,
,Sequence,flow.Sequence,0_2_3,,completion,4,939457,,,939458,,939468,2021-10-28T15:47:54.279Z,939758.56,1635347803,full,ni_sequenzen,NI_Sequenzen,,,,,,,,,,,,,,
,Screen_1,canvas.Screen,0_2_4_0,,skipped,5,939471,,,939471,,939471,2021-10-28T15:47:54.281Z,939758.56,1635347803,full,ni_sequenzen,NI_Sequenzen,,,,,,,,,,,,,,
,Screen_2,canvas.Screen,0_2_4_1,,skipped,5,939471,,,939471,,939472,2021-10-28T15:47:54.283Z,939758.56,1635347803,full,ni_sequenzen,NI_Sequenzen,,,,,,,,,,,,,,
,Screen_3,canvas.Screen,0_2_4_2,,skipped,5,939474,,,939471,,939474,2021-10-28T15:47:54.284Z,939758.56,1635347803,full,ni_sequenzen,NI_Sequenzen,,,,,,,,,,,,,,
,Screen_4,canvas.Screen,0_2_4_3,,skipped,5,939475,,,939471,,939476,2021-10-28T15:47:54.286Z,939758.56,1635347803,full,ni_sequenzen,NI_Sequenzen,,,,,,,,,,,,,,
,Screen_5,canvas.Screen,0_2_4_4,,skipped,5,939478,,,939471,,939478,2021-10-28T15:47:54.287Z,939758.56,1635347803,full,ni_sequenzen,NI_Sequenzen,,,,,,,,,,,,,,
,Screen_6,canvas.Screen,0_2_4_5,,skipped,5,939479,,,939471,,939479,2021-10-28T15:47:54.289Z,939758.56,1635347803,full,ni_sequenzen,NI_Sequenzen,,,,,,,,,,,,,,
,Sequence,flow.Sequence,0_2_4,,completion,5,939470,,,939471,,939479,2021-10-28T15:47:54.289Z,939758.56,1635347803,full,ni_sequenzen,NI_Sequenzen,,,,,,,,,,,,,,
,Screen_1,canvas.Screen,0_2_5_0,,skipped,6,939480,,,939480,,939480,2021-10-28T15:47:54.291Z,939758.56,1635347803,full,ni_sequenzen,NI_Sequenzen,,,,,,,,,,,,,,
,Screen_2,canvas.Screen,0_2_5_1,,skipped,6,939482,,,939480,,939482,2021-10-28T15:47:54.293Z,939758.56,1635347803,full,ni_sequenzen,NI_Sequenzen,,,,,,,,,,,,,,
,Screen_3,canvas.Screen,0_2_5_2,,skipped,6,939484,,,939480,,939484,2021-10-28T15:47:54.294Z,939758.56,1635347803,full,ni_sequenzen,NI_Sequenzen,,,,,,,,,,,,,,
,Screen_4,canvas.Screen,0_2_5_3,,skipped,6,939485,,,939480,,939485,2021-10-28T15:47:54.296Z,939758.56,1635347803,full,ni_sequenzen,NI_Sequenzen,,,,,,,,,,,,,,
,Screen_5,canvas.Screen,0_2_5_4,,skipped,6,939487,,,939480,,939487,2021-10-28T15:47:54.297Z,939758.56,1635347803,full,ni_sequenzen,NI_Sequenzen,,,,,,,,,,,,,,
,Screen_6,canvas.Screen,0_2_5_5,,skipped,6,939488,,,939480,,939488,2021-10-28T15:47:54.298Z,939758.56,1635347803,full,ni_sequenzen,NI_Sequenzen,,,,,,,,,,,,,,
,Sequence,flow.Sequence,0_2_5,,completion,6,939480,,,939480,,939488,2021-10-28T15:47:54.299Z,939758.56,1635347803,full,ni_sequenzen,NI_Sequenzen,,,,,,,,,,,,,,
,Screen_1,canvas.Screen,0_2_6_0,,skipped,7,939489,,,939489,,939489,2021-10-28T15:47:54.300Z,939758.56,1635347803,full,ni_sequenzen,NI_Sequenzen,,,,,,,,,,,,,,
,Screen_2,canvas.Screen,0_2_6_1,,skipped,7,939491,,,939489,,939491,2021-10-28T15:47:54.302Z,939758.56,1635347803,full,ni_sequenzen,NI_Sequenzen,,,,,,,,,,,,,,
,Screen_3,canvas.Screen,0_2_6_2,,skipped,7,939494,,,939489,,939494,2021-10-28T15:47:54.303Z,939758.56,1635347803,full,ni_sequenzen,NI_Sequenzen,,,,,,,,,,,,,,
,Screen_4,canvas.Screen,0_2_6_3,,skipped,7,939495,,,939489,,939495,2021-10-28T15:47:54.306Z,939758.56,1635347803,full,ni_sequenzen,NI_Sequenzen,,,,,,,,,,,,,,
,Screen_5,canvas.Screen,0_2_6_4,,skipped,7,939497,,,939489,,939497,2021-10-28T15:47:54.307Z,939758.56,1635347803,full,ni_sequenzen,NI_Sequenzen,,,,,,,,,,,,,,
,Screen_6,canvas.Screen,0_2_6_5,,skipped,7,939498,,,939489,,939498,2021-10-28T15:47:54.308Z,939758.56,1635347803,full,ni_sequenzen,NI_Sequenzen,,,,,,,,,,,,,,
,Sequence,flow.Sequence,0_2_6,,completion,7,939489,,,939489,,939499,2021-10-28T15:47:54.308Z,939758.56,1635347803,full,ni_sequenzen,NI_Sequenzen,,,,,,,,,,,,,,
,Screen_1,canvas.Screen,0_2_7_0,,skipped,8,939500,,,939500,,939500,2021-10-28T15:47:54.310Z,939758.56,1635347803,full,ni_sequenzen,NI_Sequenzen,,,,,,,,,,,,,,
,Screen_2,canvas.Screen,0_2_7_1,,skipped,8,939502,,,939500,,939502,2021-10-28T15:47:54.312Z,939758.56,1635347803,full,ni_sequenzen,NI_Sequenzen,,,,,,,,,,,,,,
,Screen_3,canvas.Screen,0_2_7_2,,skipped,8,939503,,,939500,,939503,2021-10-28T15:47:54.313Z,939758.56,1635347803,full,ni_sequenzen,NI_Sequenzen,,,,,,,,,,,,,,
,Screen_4,canvas.Screen,0_2_7_3,,skipped,8,939504,,,939500,,939504,2021-10-28T15:47:54.314Z,939758.56,1635347803,full,ni_sequenzen,NI_Sequenzen,,,,,,,,,,,,,,
,Screen_5,canvas.Screen,0_2_7_4,,skipped,8,939506,,,939500,,939506,2021-10-28T15:47:54.316Z,939758.56,1635347803,full,ni_sequenzen,NI_Sequenzen,,,,,,,,,,,,,,
,Screen_6,canvas.Screen,0_2_7_5,,skipped,8,939507,,,939500,,939507,2021-10-28T15:47:54.317Z,939758.56,1635347803,full,ni_sequenzen,NI_Sequenzen,,,,,,,,,,,,,,
,Sequence,flow.Sequence,0_2_7,,completion,8,939499,,,939500,,939507,2021-10-28T15:47:54.317Z,939758.56,1635347803,full,ni_sequenzen,NI_Sequenzen,,,,,,,,,,,,,,
,Screen_1,canvas.Screen,0_2_8_0,,skipped,9,939510,,,939510,,939510,2021-10-28T15:47:54.320Z,939758.56,1635347803,full,ni_sequenzen,NI_Sequenzen,,,,,,,,,,,,,,
,Screen_2,canvas.Screen,0_2_8_1,,skipped,9,939512,,,939510,,939512,2021-10-28T15:47:54.322Z,939758.56,1635347803,full,ni_sequenzen,NI_Sequenzen,,,,,,,,,,,,,,
,Screen_3,canvas.Screen,0_2_8_2,,skipped,9,939512,,,939510,,939513,2021-10-28T15:47:54.323Z,939758.56,1635347803,full,ni_sequenzen,NI_Sequenzen,,,,,,,,,,,,,,
,Screen_4,canvas.Screen,0_2_8_3,,skipped,9,939514,,,939510,,939514,2021-10-28T15:47:54.324Z,939758.56,1635347803,full,ni_sequenzen,NI_Sequenzen,,,,,,,,,,,,,,
,Screen_5,canvas.Screen,0_2_8_4,,skipped,9,939516,,,939510,,939516,2021-10-28T15:47:54.326Z,939758.56,1635347803,full,ni_sequenzen,NI_Sequenzen,,,,,,,,,,,,,,
,Screen_6,canvas.Screen,0_2_8_5,,skipped,9,939517,,,939510,,939517,2021-10-28T15:47:54.328Z,939758.56,1635347803,full,ni_sequenzen,NI_Sequenzen,,,,,,,,,,,,,,
,Sequence,flow.Sequence,0_2_8,,completion,9,939508,,,939510,,939517,2021-10-28T15:47:54.328Z,939758.56,1635347803,full,ni_sequenzen,NI_Sequenzen,,,,,,,,,,,,,,
,Screen_1,canvas.Screen,0_2_9_0,,skipped,10,939519,,,939519,,939519,2021-10-28T15:47:54.329Z,939758.56,1635347803,full,ni_sequenzen,NI_Sequenzen,,,,,,,,,,,,,,
,Screen_2,canvas.Screen,0_2_9_1,,skipped,10,939520,,,939519,,939521,2021-10-28T15:47:54.330Z,939758.56,1635347803,full,ni_sequenzen,NI_Sequenzen,,,,,,,,,,,,,,
,Screen_3,canvas.Screen,0_2_9_2,,skipped,10,939521,,,939519,,939521,2021-10-28T15:47:54.332Z,939758.56,1635347803,full,ni_sequenzen,NI_Sequenzen,,,,,,,,,,,,,,
,Screen_4,canvas.Screen,0_2_9_3,,skipped,10,939522,,,939519,,939522,2021-10-28T15:47:54.333Z,939758.56,1635347803,full,ni_sequenzen,NI_Sequenzen,,,,,,,,,,,,,,
,Screen_5,canvas.Screen,0_2_9_4,,skipped,10,939524,,,939519,,939524,2021-10-28T15:47:54.335Z,939758.56,1635347803,full,ni_sequenzen,NI_Sequenzen,,,,,,,,,,,,,,
,Screen_6,canvas.Screen,0_2_9_5,,skipped,10,939526,,,939519,,939526,2021-10-28T15:47:54.336Z,939758.56,1635347803,full,ni_sequenzen,NI_Sequenzen,,,,,,,,,,,,,,
,Sequence,flow.Sequence,0_2_9,,completion,10,939518,,,939519,,939526,2021-10-28T15:47:54.336Z,939758.56,1635347803,full,ni_sequenzen,NI_Sequenzen,,,,,,,,,,,,,,
,Screen_1,canvas.Screen,0_2_10_0,,skipped,11,939528,,,939528,,939529,2021-10-28T15:47:54.339Z,939758.56,1635347803,full,ni_sequenzen,NI_Sequenzen,,,,,,,,,,,,,,
,Screen_2,canvas.Screen,0_2_10_1,,skipped,11,939531,,,939528,,939531,2021-10-28T15:47:54.341Z,939758.56,1635347803,full,ni_sequenzen,NI_Sequenzen,,,,,,,,,,,,,,
,Screen_3,canvas.Screen,0_2_10_2,,skipped,11,939533,,,939528,,939533,2021-10-28T15:47:54.343Z,939758.56,1635347803,full,ni_sequenzen,NI_Sequenzen,,,,,,,,,,,,,,
,Screen_4,canvas.Screen,0_2_10_3,,skipped,11,939535,,,939528,,939535,2021-10-28T15:47:54.345Z,939758.56,1635347803,full,ni_sequenzen,NI_Sequenzen,,,,,,,,,,,,,,
,Screen_5,canvas.Screen,0_2_10_4,,skipped,11,939536,,,939528,,939536,2021-10-28T15:47:54.347Z,939758.56,1635347803,full,ni_sequenzen,NI_Sequenzen,,,,,,,,,,,,,,
,Screen_6,canvas.Screen,0_2_10_5,,skipped,11,939537,,,939528,,939537,2021-10-28T15:47:54.348Z,939758.56,1635347803,full,ni_sequenzen,NI_Sequenzen,,,,,,,,,,,,,,
,Sequence,flow.Sequence,0_2_10,,completion,11,939527,,,939528,,939537,2021-10-28T15:47:54.348Z,939758.56,1635347803,full,ni_sequenzen,NI_Sequenzen,,,,,,,,,,,,,,
,Screen_1,canvas.Screen,0_2_11_0,,skipped,12,939539,,,939539,,939539,2021-10-28T15:47:54.350Z,939758.56,1635347803,full,ni_sequenzen,NI_Sequenzen,,,,,,,,,,,,,,
,Screen_2,canvas.Screen,0_2_11_1,,skipped,12,939540,,,939539,,939540,2021-10-28T15:47:54.350Z,939758.56,1635347803,full,ni_sequenzen,NI_Sequenzen,,,,,,,,,,,,,,
,Screen_3,canvas.Screen,0_2_11_2,,skipped,12,939541,,,939539,,939541,2021-10-28T15:47:54.351Z,939758.56,1635347803,full,ni_sequenzen,NI_Sequenzen,,,,,,,,,,,,,,
,Screen_4,canvas.Screen,0_2_11_3,,skipped,12,939543,,,939539,,939543,2021-10-28T15:47:54.354Z,939758.56,1635347803,full,ni_sequenzen,NI_Sequenzen,,,,,,,,,,,,,,
,Screen_5,canvas.Screen,0_2_11_4,,skipped,12,939545,,,939539,,939545,2021-10-28T15:47:54.355Z,939758.56,1635347803,full,ni_sequenzen,NI_Sequenzen,,,,,,,,,,,,,,
,Screen_6,canvas.Screen,0_2_11_5,,skipped,12,939545,,,939539,,939545,2021-10-28T15:47:54.356Z,939758.56,1635347803,full,ni_sequenzen,NI_Sequenzen,,,,,,,,,,,,,,
,Sequence,flow.Sequence,0_2_11,,completion,12,939538,,,939539,,939547,2021-10-28T15:47:54.356Z,939758.56,1635347803,full,ni_sequenzen,NI_Sequenzen,,,,,,,,,,,,,,
,Screen_1,canvas.Screen,0_2_12_0,,skipped,13,939548,,,939548,,939548,2021-10-28T15:47:54.358Z,939758.56,1635347803,full,ni_sequenzen,NI_Sequenzen,,,,,,,,,,,,,,
,Screen_2,canvas.Screen,0_2_12_1,,skipped,13,939549,,,939548,,939549,2021-10-28T15:47:54.359Z,939758.56,1635347803,full,ni_sequenzen,NI_Sequenzen,,,,,,,,,,,,,,
,Screen_3,canvas.Screen,0_2_12_2,,skipped,13,939550,,,939548,,939550,2021-10-28T15:47:54.361Z,939758.56,1635347803,full,ni_sequenzen,NI_Sequenzen,,,,,,,,,,,,,,
,Screen_4,canvas.Screen,0_2_12_3,,skipped,13,939551,,,939548,,939551,2021-10-28T15:47:54.362Z,939758.56,1635347803,full,ni_sequenzen,NI_Sequenzen,,,,,,,,,,,,,,
,Screen_5,canvas.Screen,0_2_12_4,,skipped,13,939553,,,939548,,939553,2021-10-28T15:47:54.364Z,939758.56,1635347803,full,ni_sequenzen,NI_Sequenzen,,,,,,,,,,,,,,
,Screen_6,canvas.Screen,0_2_12_5,,skipped,13,939554,,,939548,,939555,2021-10-28T15:47:54.365Z,939758.56,1635347803,full,ni_sequenzen,NI_Sequenzen,,,,,,,,,,,,,,
,Sequence,flow.Sequence,0_2_12,,completion,13,939547,,,939548,,939555,2021-10-28T15:47:54.365Z,939758.56,1635347803,full,ni_sequenzen,NI_Sequenzen,,,,,,,,,,,,,,
,Screen_1,canvas.Screen,0_2_13_0,,skipped,14,939557,,,939557,,939557,2021-10-28T15:47:54.367Z,939758.56,1635347803,full,ni_sequenzen,NI_Sequenzen,,,,,,,,,,,,,,
,Screen_2,canvas.Screen,0_2_13_1,,skipped,14,939558,,,939557,,939558,2021-10-28T15:47:54.368Z,939758.56,1635347803,full,ni_sequenzen,NI_Sequenzen,,,,,,,,,,,,,,
,Screen_3,canvas.Screen,0_2_13_2,,skipped,14,939559,,,939557,,939559,2021-10-28T15:47:54.370Z,939758.56,1635347803,full,ni_sequenzen,NI_Sequenzen,,,,,,,,,,,,,,
,Screen_4,canvas.Screen,0_2_13_3,,skipped,14,939561,,,939557,,939561,2021-10-28T15:47:54.371Z,939758.56,1635347803,full,ni_sequenzen,NI_Sequenzen,,,,,,,,,,,,,,
,Screen_5,canvas.Screen,0_2_13_4,,skipped,14,939562,,,939557,,939562,2021-10-28T15:47:54.373Z,939758.56,1635347803,full,ni_sequenzen,NI_Sequenzen,,,,,,,,,,,,,,
,Screen_6,canvas.Screen,0_2_13_5,,skipped,14,939563,,,939557,,939563,2021-10-28T15:47:54.374Z,939758.56,1635347803,full,ni_sequenzen,NI_Sequenzen,,,,,,,,,,,,,,
,Sequence,flow.Sequence,0_2_13,,completion,14,939556,,,939557,,939563,2021-10-28T15:47:54.374Z,939758.56,1635347803,full,ni_sequenzen,NI_Sequenzen,,,,,,,,,,,,,,
,Screen_1,canvas.Screen,0_2_14_0,,skipped,15,939565,,,939565,,939565,2021-10-28T15:47:54.375Z,939758.56,1635347803,full,ni_sequenzen,NI_Sequenzen,,,,,,,,,,,,,,
,Screen_2,canvas.Screen,0_2_14_1,,skipped,15,939566,,,939565,,939566,2021-10-28T15:47:54.377Z,939758.56,1635347803,full,ni_sequenzen,NI_Sequenzen,,,,,,,,,,,,,,
,Screen_3,canvas.Screen,0_2_14_2,,skipped,15,939567,,,939565,,939567,2021-10-28T15:47:54.377Z,939758.56,1635347803,full,ni_sequenzen,NI_Sequenzen,,,,,,,,,,,,,,
,Screen_4,canvas.Screen,0_2_14_3,,skipped,15,939568,,,939565,,939568,2021-10-28T15:47:54.379Z,939758.56,1635347803,full,ni_sequenzen,NI_Sequenzen,,,,,,,,,,,,,,
,Screen_5,canvas.Screen,0_2_14_4,,skipped,15,939569,,,939565,,939569,2021-10-28T15:47:54.380Z,939758.56,1635347803,full,ni_sequenzen,NI_Sequenzen,,,,,,,,,,,,,,
,Screen_6,canvas.Screen,0_2_14_5,,skipped,15,939571,,,939565,,939571,2021-10-28T15:47:54.381Z,939758.56,1635347803,full,ni_sequenzen,NI_Sequenzen,,,,,,,,,,,,,,
,Sequence,flow.Sequence,0_2_14,,completion,15,939563,,,939565,,939571,2021-10-28T15:47:54.381Z,939758.56,1635347803,full,ni_sequenzen,NI_Sequenzen,,,,,,,,,,,,,,
,Screen_1,canvas.Screen,0_2_15_0,,skipped,16,939572,,,939572,,939572,2021-10-28T15:47:54.383Z,939758.56,1635347803,full,ni_sequenzen,NI_Sequenzen,,,,,,,,,,,,,,
,Screen_2,canvas.Screen,0_2_15_1,,skipped,16,939573,,,939572,,939574,2021-10-28T15:47:54.384Z,939758.56,1635347803,full,ni_sequenzen,NI_Sequenzen,,,,,,,,,,,,,,
,Screen_3,canvas.Screen,0_2_15_2,,skipped,16,939575,,,939572,,939575,2021-10-28T15:47:54.385Z,939758.56,1635347803,full,ni_sequenzen,NI_Sequenzen,,,,,,,,,,,,,,
,Screen_4,canvas.Screen,0_2_15_3,,skipped,16,939577,,,939572,,939577,2021-10-28T15:47:54.387Z,939758.56,1635347803,full,ni_sequenzen,NI_Sequenzen,,,,,,,,,,,,,,
,Screen_5,canvas.Screen,0_2_15_4,,skipped,16,939579,,,939572,,939579,2021-10-28T15:47:54.389Z,939758.56,1635347803,full,ni_sequenzen,NI_Sequenzen,,,,,,,,,,,,,,
,Screen_6,canvas.Screen,0_2_15_5,,skipped,16,939580,,,939572,,939580,2021-10-28T15:47:54.390Z,939758.56,1635347803,full,ni_sequenzen,NI_Sequenzen,,,,,,,,,,,,,,
,Sequence,flow.Sequence,0_2_15,,completion,16,939572,,,939572,,939580,2021-10-28T15:47:54.390Z,939758.56,1635347803,full,ni_sequenzen,NI_Sequenzen,,,,,,,,,,,,,,
,Screen_1,canvas.Screen,0_2_16_0,,skipped,17,939581,,,939581,,939581,2021-10-28T15:47:54.391Z,939758.56,1635347803,full,ni_sequenzen,NI_Sequenzen,,,,,,,,,,,,,,
,Screen_2,canvas.Screen,0_2_16_1,,skipped,17,939582,,,939581,,939582,2021-10-28T15:47:54.393Z,939758.56,1635347803,full,ni_sequenzen,NI_Sequenzen,,,,,,,,,,,,,,
,Screen_3,canvas.Screen,0_2_16_2,,skipped,17,939583,,,939581,,939583,2021-10-28T15:47:54.393Z,939758.56,1635347803,full,ni_sequenzen,NI_Sequenzen,,,,,,,,,,,,,,
,Screen_4,canvas.Screen,0_2_16_3,,skipped,17,939584,,,939581,,939584,2021-10-28T15:47:54.395Z,939758.56,1635347803,full,ni_sequenzen,NI_Sequenzen,,,,,,,,,,,,,,
,Screen_5,canvas.Screen,0_2_16_4,,skipped,17,939586,,,939581,,939586,2021-10-28T15:47:54.396Z,939758.56,1635347803,full,ni_sequenzen,NI_Sequenzen,,,,,,,,,,,,,,
,Screen_6,canvas.Screen,0_2_16_5,,skipped,17,939587,,,939581,,939587,2021-10-28T15:47:54.397Z,939758.56,1635347803,full,ni_sequenzen,NI_Sequenzen,,,,,,,,,,,,,,
,Sequence,flow.Sequence,0_2_16,,completion,17,939580,,,939581,,939587,2021-10-28T15:47:54.397Z,939758.56,1635347803,full,ni_sequenzen,NI_Sequenzen,,,,,,,,,,,,,,
,Screen_1,canvas.Screen,0_2_17_0,,skipped,18,939589,,,939589,,939589,2021-10-28T15:47:54.399Z,939758.56,1635347803,full,ni_sequenzen,NI_Sequenzen,,,,,,,,,,,,,,
,Screen_2,canvas.Screen,0_2_17_1,,skipped,18,939590,,,939589,,939590,2021-10-28T15:47:54.400Z,939758.56,1635347803,full,ni_sequenzen,NI_Sequenzen,,,,,,,,,,,,,,
,Screen_3,canvas.Screen,0_2_17_2,,skipped,18,939591,,,939589,,939591,2021-10-28T15:47:54.401Z,939758.56,1635347803,full,ni_sequenzen,NI_Sequenzen,,,,,,,,,,,,,,
,Screen_4,canvas.Screen,0_2_17_3,,skipped,18,939592,,,939589,,939593,2021-10-28T15:47:54.403Z,939758.56,1635347803,full,ni_sequenzen,NI_Sequenzen,,,,,,,,,,,,,,
,Screen_5,canvas.Screen,0_2_17_4,,skipped,18,939595,,,939589,,939595,2021-10-28T15:47:54.405Z,939758.56,1635347803,full,ni_sequenzen,NI_Sequenzen,,,,,,,,,,,,,,
,Screen_6,canvas.Screen,0_2_17_5,,skipped,18,939596,,,939589,,939596,2021-10-28T15:47:54.406Z,939758.56,1635347803,full,ni_sequenzen,NI_Sequenzen,,,,,,,,,,,,,,
,Sequence,flow.Sequence,0_2_17,,completion,18,939587,,,939589,,939596,2021-10-28T15:47:54.407Z,939758.56,1635347803,full,ni_sequenzen,NI_Sequenzen,,,,,,,,,,,,,,
,Screen_1,canvas.Screen,0_2_18_0,,skipped,19,939598,,,939598,,939598,2021-10-28T15:47:54.408Z,939758.56,1635347803,full,ni_sequenzen,NI_Sequenzen,,,,,,,,,,,,,,
,Screen_2,canvas.Screen,0_2_18_1,,skipped,19,939599,,,939598,,939599,2021-10-28T15:47:54.409Z,939758.56,1635347803,full,ni_sequenzen,NI_Sequenzen,,,,,,,,,,,,,,
,Screen_3,canvas.Screen,0_2_18_2,,skipped,19,939600,,,939598,,939600,2021-10-28T15:47:54.411Z,939758.56,1635347803,full,ni_sequenzen,NI_Sequenzen,,,,,,,,,,,,,,
,Screen_4,canvas.Screen,0_2_18_3,,skipped,19,939601,,,939598,,939601,2021-10-28T15:47:54.412Z,939758.56,1635347803,full,ni_sequenzen,NI_Sequenzen,,,,,,,,,,,,,,
,Screen_5,canvas.Screen,0_2_18_4,,skipped,19,939602,,,939598,,939602,2021-10-28T15:47:54.413Z,939758.56,1635347803,full,ni_sequenzen,NI_Sequenzen,,,,,,,,,,,,,,
,Screen_6,canvas.Screen,0_2_18_5,,skipped,19,939604,,,939598,,939604,2021-10-28T15:47:54.414Z,939758.56,1635347803,full,ni_sequenzen,NI_Sequenzen,,,,,,,,,,,,,,
,Sequence,flow.Sequence,0_2_18,,completion,19,939597,,,939598,,939604,2021-10-28T15:47:54.414Z,939758.56,1635347803,full,ni_sequenzen,NI_Sequenzen,,,,,,,,,,,,,,
,Screen_1,canvas.Screen,0_2_19_0,,skipped,20,939606,,,939606,,939606,2021-10-28T15:47:54.416Z,939758.56,1635347803,full,ni_sequenzen,NI_Sequenzen,,,,,,,,,,,,,,
,Screen_2,canvas.Screen,0_2_19_1,,skipped,20,939607,,,939606,,939607,2021-10-28T15:47:54.418Z,939758.56,1635347803,full,ni_sequenzen,NI_Sequenzen,,,,,,,,,,,,,,
,Screen_3,canvas.Screen,0_2_19_2,,skipped,20,939608,,,939606,,939608,2021-10-28T15:47:54.419Z,939758.56,1635347803,full,ni_sequenzen,NI_Sequenzen,,,,,,,,,,,,,,
,Screen_4,canvas.Screen,0_2_19_3,,skipped,20,939610,,,939606,,939610,2021-10-28T15:47:54.421Z,939758.56,1635347803,full,ni_sequenzen,NI_Sequenzen,,,,,,,,,,,,,,
,Screen_5,canvas.Screen,0_2_19_4,,skipped,20,939611,,,939606,,939611,2021-10-28T15:47:54.422Z,939758.56,1635347803,full,ni_sequenzen,NI_Sequenzen,,,,,,,,,,,,,,
,Screen_6,canvas.Screen,0_2_19_5,,skipped,20,939612,,,939606,,939613,2021-10-28T15:47:54.423Z,939758.56,1635347803,full,ni_sequenzen,NI_Sequenzen,,,,,,,,,,,,,,
,Sequence,flow.Sequence,0_2_19,,completion,20,939604,,,939606,,939613,2021-10-28T15:47:54.423Z,939758.56,1635347803,full,ni_sequenzen,NI_Sequenzen,,,,,,,,,,,,,,
,Screen_1,canvas.Screen,0_2_20_0,,skipped,21,939614,,,939614,,939614,2021-10-28T15:47:54.424Z,939758.56,1635347803,full,ni_sequenzen,NI_Sequenzen,,,,,,,,,,,,,,
,Screen_2,canvas.Screen,0_2_20_1,,skipped,21,939615,,,939614,,939615,2021-10-28T15:47:54.426Z,939758.56,1635347803,full,ni_sequenzen,NI_Sequenzen,,,,,,,,,,,,,,
,Screen_3,canvas.Screen,0_2_20_2,,skipped,21,939616,,,939614,,939616,2021-10-28T15:47:54.427Z,939758.56,1635347803,full,ni_sequenzen,NI_Sequenzen,,,,,,,,,,,,,,
,Screen_4,canvas.Screen,0_2_20_3,,skipped,21,939618,,,939614,,939618,2021-10-28T15:47:54.428Z,939758.56,1635347803,full,ni_sequenzen,NI_Sequenzen,,,,,,,,,,,,,,
,Screen_5,canvas.Screen,0_2_20_4,,skipped,21,939620,,,939614,,939620,2021-10-28T15:47:54.430Z,939758.56,1635347803,full,ni_sequenzen,NI_Sequenzen,,,,,,,,,,,,,,
,Screen_6,canvas.Screen,0_2_20_5,,skipped,21,939621,,,939614,,939621,2021-10-28T15:47:54.431Z,939758.56,1635347803,full,ni_sequenzen,NI_Sequenzen,,,,,,,,,,,,,,
,Sequence,flow.Sequence,0_2_20,,completion,21,939613,,,939614,,939621,2021-10-28T15:47:54.431Z,939758.56,1635347803,full,ni_sequenzen,NI_Sequenzen,,,,,,,,,,,,,,
,Screen_1,canvas.Screen,0_2_21_0,,skipped,22,939622,,,939622,,939622,2021-10-28T15:47:54.432Z,939758.56,1635347803,full,ni_sequenzen,NI_Sequenzen,,,,,,,,,,,,,,
,Screen_2,canvas.Screen,0_2_21_1,,skipped,22,939623,,,939622,,939623,2021-10-28T15:47:54.434Z,939758.56,1635347803,full,ni_sequenzen,NI_Sequenzen,,,,,,,,,,,,,,
,Screen_3,canvas.Screen,0_2_21_2,,skipped,22,939624,,,939622,,939624,2021-10-28T15:47:54.435Z,939758.56,1635347803,full,ni_sequenzen,NI_Sequenzen,,,,,,,,,,,,,,
,Screen_4,canvas.Screen,0_2_21_3,,skipped,22,939626,,,939622,,939626,2021-10-28T15:47:54.437Z,939758.56,1635347803,full,ni_sequenzen,NI_Sequenzen,,,,,,,,,,,,,,
,Screen_5,canvas.Screen,0_2_21_4,,skipped,22,939628,,,939622,,939628,2021-10-28T15:47:54.439Z,939758.56,1635347803,full,ni_sequenzen,NI_Sequenzen,,,,,,,,,,,,,,
,Screen_6,canvas.Screen,0_2_21_5,,skipped,22,939629,,,939622,,939629,2021-10-28T15:47:54.439Z,939758.56,1635347803,full,ni_sequenzen,NI_Sequenzen,,,,,,,,,,,,,,
,Sequence,flow.Sequence,0_2_21,,completion,22,939621,,,939622,,939629,2021-10-28T15:47:54.439Z,939758.56,1635347803,full,ni_sequenzen,NI_Sequenzen,,,,,,,,,,,,,,
,Screen_1,canvas.Screen,0_2_22_0,,skipped,23,939631,,,939631,,939631,2021-10-28T15:47:54.441Z,939758.56,1635347803,full,ni_sequenzen,NI_Sequenzen,,,,,,,,,,,,,,
,Screen_2,canvas.Screen,0_2_22_1,,skipped,23,939632,,,939631,,939632,2021-10-28T15:47:54.442Z,939758.56,1635347803,full,ni_sequenzen,NI_Sequenzen,,,,,,,,,,,,,,
,Screen_3,canvas.Screen,0_2_22_2,,skipped,23,939633,,,939631,,939633,2021-10-28T15:47:54.443Z,939758.56,1635347803,full,ni_sequenzen,NI_Sequenzen,,,,,,,,,,,,,,
,Screen_4,canvas.Screen,0_2_22_3,,skipped,23,939634,,,939631,,939634,2021-10-28T15:47:54.445Z,939758.56,1635347803,full,ni_sequenzen,NI_Sequenzen,,,,,,,,,,,,,,
,Screen_5,canvas.Screen,0_2_22_4,,skipped,23,939636,,,939631,,939636,2021-10-28T15:47:54.446Z,939758.56,1635347803,full,ni_sequenzen,NI_Sequenzen,,,,,,,,,,,,,,
,Screen_6,canvas.Screen,0_2_22_5,,skipped,23,939637,,,939631,,939637,2021-10-28T15:47:54.447Z,939758.56,1635347803,full,ni_sequenzen,NI_Sequenzen,,,,,,,,,,,,,,
,Sequence,flow.Sequence,0_2_22,,completion,23,939630,,,939631,,939637,2021-10-28T15:47:54.447Z,939758.56,1635347803,full,ni_sequenzen,NI_Sequenzen,,,,,,,,,,,,,,
,Screen_1,canvas.Screen,0_2_23_0,,skipped,24,939639,,,939639,,939639,2021-10-28T15:47:54.449Z,939758.56,1635347803,full,ni_sequenzen,NI_Sequenzen,,,,,,,,,,,,,,
,Screen_2,canvas.Screen,0_2_23_1,,skipped,24,939640,,,939639,,939640,2021-10-28T15:47:54.450Z,939758.56,1635347803,full,ni_sequenzen,NI_Sequenzen,,,,,,,,,,,,,,
,Screen_3,canvas.Screen,0_2_23_2,,skipped,24,939641,,,939639,,939641,2021-10-28T15:47:54.451Z,939758.56,1635347803,full,ni_sequenzen,NI_Sequenzen,,,,,,,,,,,,,,
,Screen_4,canvas.Screen,0_2_23_3,,skipped,24,939642,,,939639,,939642,2021-10-28T15:47:54.452Z,939758.56,1635347803,full,ni_sequenzen,NI_Sequenzen,,,,,,,,,,,,,,
,Screen_5,canvas.Screen,0_2_23_4,,skipped,24,939644,,,939639,,939644,2021-10-28T15:47:54.454Z,939758.56,1635347803,full,ni_sequenzen,NI_Sequenzen,,,,,,,,,,,,,,
,Screen_6,canvas.Screen,0_2_23_5,,skipped,24,939645,,,939639,,939645,2021-10-28T15:47:54.456Z,939758.56,1635347803,full,ni_sequenzen,NI_Sequenzen,,,,,,,,,,,,,,
,Sequence,flow.Sequence,0_2_23,,completion,24,939637,,,939639,,939645,2021-10-28T15:47:54.456Z,939758.56,1635347803,full,ni_sequenzen,NI_Sequenzen,,,,,,,,,,,,,,
,Screen_1,canvas.Screen,0_2_24_0,,skipped,25,939647,,,939647,,939647,2021-10-28T15:47:54.457Z,939758.56,1635347803,full,ni_sequenzen,NI_Sequenzen,,,,,,,,,,,,,,
,Screen_2,canvas.Screen,0_2_24_1,,skipped,25,939648,,,939647,,939648,2021-10-28T15:47:54.458Z,939758.56,1635347803,full,ni_sequenzen,NI_Sequenzen,,,,,,,,,,,,,,
,Screen_3,canvas.Screen,0_2_24_2,,skipped,25,939649,,,939647,,939649,2021-10-28T15:47:54.459Z,939758.56,1635347803,full,ni_sequenzen,NI_Sequenzen,,,,,,,,,,,,,,
,Screen_4,canvas.Screen,0_2_24_3,,skipped,25,939651,,,939647,,939651,2021-10-28T15:47:54.461Z,939758.56,1635347803,full,ni_sequenzen,NI_Sequenzen,,,,,,,,,,,,,,
,Screen_5,canvas.Screen,0_2_24_4,,skipped,25,939652,,,939647,,939652,2021-10-28T15:47:54.462Z,939758.56,1635347803,full,ni_sequenzen,NI_Sequenzen,,,,,,,,,,,,,,
,Screen_6,canvas.Screen,0_2_24_5,,skipped,25,939653,,,939647,,939653,2021-10-28T15:47:54.463Z,939758.56,1635347803,full,ni_sequenzen,NI_Sequenzen,,,,,,,,,,,,,,
,Sequence,flow.Sequence,0_2_24,,completion,25,939646,,,939647,,939654,2021-10-28T15:47:54.464Z,939758.56,1635347803,full,ni_sequenzen,NI_Sequenzen,,,,,,,,,,,,,,
,Screen_1,canvas.Screen,0_2_25_0,,skipped,26,939656,,,939657,,939657,2021-10-28T15:47:54.467Z,939758.56,1635347803,full,ni_sequenzen,NI_Sequenzen,,,,,,,,,,,,,,
,Screen_2,canvas.Screen,0_2_25_1,,skipped,26,939658,,,939657,,939658,2021-10-28T15:47:54.468Z,939758.56,1635347803,full,ni_sequenzen,NI_Sequenzen,,,,,,,,,,,,,,
,Screen_3,canvas.Screen,0_2_25_2,,skipped,26,939659,,,939657,,939660,2021-10-28T15:47:54.470Z,939758.56,1635347803,full,ni_sequenzen,NI_Sequenzen,,,,,,,,,,,,,,
,Screen_4,canvas.Screen,0_2_25_3,,skipped,26,939661,,,939657,,939661,2021-10-28T15:47:54.471Z,939758.56,1635347803,full,ni_sequenzen,NI_Sequenzen,,,,,,,,,,,,,,
,Screen_5,canvas.Screen,0_2_25_4,,skipped,26,939662,,,939657,,939662,2021-10-28T15:47:54.472Z,939758.56,1635347803,full,ni_sequenzen,NI_Sequenzen,,,,,,,,,,,,,,
,Screen_6,canvas.Screen,0_2_25_5,,skipped,26,939663,,,939657,,939663,2021-10-28T15:47:54.473Z,939758.56,1635347803,full,ni_sequenzen,NI_Sequenzen,,,,,,,,,,,,,,
,Sequence,flow.Sequence,0_2_25,,completion,26,939654,,,939657,,939663,2021-10-28T15:47:54.474Z,939758.56,1635347803,full,ni_sequenzen,NI_Sequenzen,,,,,,,,,,,,,,
,Screen_1,canvas.Screen,0_2_26_0,,skipped,27,939664,,,939664,,939665,2021-10-28T15:47:54.475Z,939758.56,1635347803,full,ni_sequenzen,NI_Sequenzen,,,,,,,,,,,,,,
,Screen_2,canvas.Screen,0_2_26_1,,skipped,27,939666,,,939664,,939666,2021-10-28T15:47:54.476Z,939758.56,1635347803,full,ni_sequenzen,NI_Sequenzen,,,,,,,,,,,,,,
,Screen_3,canvas.Screen,0_2_26_2,,skipped,27,939666,,,939664,,939667,2021-10-28T15:47:54.477Z,939758.56,1635347803,full,ni_sequenzen,NI_Sequenzen,,,,,,,,,,,,,,
,Screen_4,canvas.Screen,0_2_26_3,,skipped,27,939668,,,939664,,939668,2021-10-28T15:47:54.479Z,939758.56,1635347803,full,ni_sequenzen,NI_Sequenzen,,,,,,,,,,,,,,
,Screen_5,canvas.Screen,0_2_26_4,,skipped,27,939669,,,939664,,939669,2021-10-28T15:47:54.480Z,939758.56,1635347803,full,ni_sequenzen,NI_Sequenzen,,,,,,,,,,,,,,
,Screen_6,canvas.Screen,0_2_26_5,,skipped,27,939670,,,939664,,939670,2021-10-28T15:47:54.480Z,939758.56,1635347803,full,ni_sequenzen,NI_Sequenzen,,,,,,,,,,,,,,
,Sequence,flow.Sequence,0_2_26,,completion,27,939664,,,939664,,939670,2021-10-28T15:47:54.480Z,939758.56,1635347803,full,ni_sequenzen,NI_Sequenzen,,,,,,,,,,,,,,
,Screen_1,canvas.Screen,0_2_27_0,,skipped,28,939672,,,939672,,939672,2021-10-28T15:47:54.482Z,939758.56,1635347803,full,ni_sequenzen,NI_Sequenzen,,,,,,,,,,,,,,
,Screen_2,canvas.Screen,0_2_27_1,,skipped,28,939673,,,939672,,939673,2021-10-28T15:47:54.483Z,939758.56,1635347803,full,ni_sequenzen,NI_Sequenzen,,,,,,,,,,,,,,
,Screen_3,canvas.Screen,0_2_27_2,,skipped,28,939674,,,939672,,939674,2021-10-28T15:47:54.484Z,939758.56,1635347803,full,ni_sequenzen,NI_Sequenzen,,,,,,,,,,,,,,
,Screen_4,canvas.Screen,0_2_27_3,,skipped,28,939675,,,939672,,939675,2021-10-28T15:47:54.485Z,939758.56,1635347803,full,ni_sequenzen,NI_Sequenzen,,,,,,,,,,,,,,
,Screen_5,canvas.Screen,0_2_27_4,,skipped,28,939677,,,939672,,939677,2021-10-28T15:47:54.487Z,939758.56,1635347803,full,ni_sequenzen,NI_Sequenzen,,,,,,,,,,,,,,
,Screen_6,canvas.Screen,0_2_27_5,,skipped,28,939678,,,939672,,939678,2021-10-28T15:47:54.488Z,939758.56,1635347803,full,ni_sequenzen,NI_Sequenzen,,,,,,,,,,,,,,
,Sequence,flow.Sequence,0_2_27,,completion,28,939671,,,939672,,939678,2021-10-28T15:47:54.488Z,939758.56,1635347803,full,ni_sequenzen,NI_Sequenzen,,,,,,,,,,,,,,
,Screen_1,canvas.Screen,0_2_28_0,,skipped,29,939679,,,939679,,939680,2021-10-28T15:47:54.490Z,939758.56,1635347803,full,ni_sequenzen,NI_Sequenzen,,,,,,,,,,,,,,
,Screen_2,canvas.Screen,0_2_28_1,,skipped,29,939681,,,939679,,939681,2021-10-28T15:47:54.491Z,939758.56,1635347803,full,ni_sequenzen,NI_Sequenzen,,,,,,,,,,,,,,
,Screen_3,canvas.Screen,0_2_28_2,,skipped,29,939683,,,939679,,939683,2021-10-28T15:47:54.494Z,939758.56,1635347803,full,ni_sequenzen,NI_Sequenzen,,,,,,,,,,,,,,
,Screen_4,canvas.Screen,0_2_28_3,,skipped,29,939685,,,939679,,939686,2021-10-28T15:47:54.496Z,939758.56,1635347803,full,ni_sequenzen,NI_Sequenzen,,,,,,,,,,,,,,
,Screen_5,canvas.Screen,0_2_28_4,,skipped,29,939686,,,939679,,939686,2021-10-28T15:47:54.496Z,939758.56,1635347803,full,ni_sequenzen,NI_Sequenzen,,,,,,,,,,,,,,
,Screen_6,canvas.Screen,0_2_28_5,,skipped,29,939688,,,939679,,939688,2021-10-28T15:47:54.498Z,939758.56,1635347803,full,ni_sequenzen,NI_Sequenzen,,,,,,,,,,,,,,
,Sequence,flow.Sequence,0_2_28,,completion,29,939679,,,939679,,939688,2021-10-28T15:47:54.498Z,939758.56,1635347803,full,ni_sequenzen,NI_Sequenzen,,,,,,,,,,,,,,
,Screen_1,canvas.Screen,0_2_29_0,,skipped,30,939689,,,939689,,939689,2021-10-28T15:47:54.499Z,939758.56,1635347803,full,ni_sequenzen,NI_Sequenzen,,,,,,,,,,,,,,
,Screen_2,canvas.Screen,0_2_29_1,,skipped,30,939690,,,939689,,939690,2021-10-28T15:47:54.500Z,939758.56,1635347803,full,ni_sequenzen,NI_Sequenzen,,,,,,,,,,,,,,
,Screen_3,canvas.Screen,0_2_29_2,,skipped,30,939691,,,939689,,939691,2021-10-28T15:47:54.502Z,939758.56,1635347803,full,ni_sequenzen,NI_Sequenzen,,,,,,,,,,,,,,
,Screen_4,canvas.Screen,0_2_29_3,,skipped,30,939693,,,939689,,939693,2021-10-28T15:47:54.504Z,939758.56,1635347803,full,ni_sequenzen,NI_Sequenzen,,,,,,,,,,,,,,
,Screen_5,canvas.Screen,0_2_29_4,,skipped,30,939694,,,939689,,939694,2021-10-28T15:47:54.505Z,939758.56,1635347803,full,ni_sequenzen,NI_Sequenzen,,,,,,,,,,,,,,
,Screen_6,canvas.Screen,0_2_29_5,,skipped,30,939695,,,939689,,939695,2021-10-28T15:47:54.505Z,939758.56,1635347803,full,ni_sequenzen,NI_Sequenzen,,,,,,,,,,,,,,
,Sequence,flow.Sequence,0_2_29,,completion,30,939688,,,939689,,939695,2021-10-28T15:47:54.505Z,939758.56,1635347803,full,ni_sequenzen,NI_Sequenzen,,,,,,,,,,,,,,
,Instructions_II,flow.Loop,0_2,,completion,,897953,897955.74,897958.86,939689,41730.140000000014,939696,2021-10-28T15:47:54.506Z,939758.56,1635347803,full,ni_sequenzen,NI_Sequenzen,,,,,,,,,,,,,,
,Move,canvas.Screen,0_3_0_0_0_0,left,response,,939749,939749.32,939758.56,942857,3098.439999999944,942874,2021-10-28T15:47:57.684Z,942894.46,1635347803,full,ni_sequenzen,NI_Sequenzen,1,0,,,,,,,,,,,,
,Move,canvas.Screen,0_3_0_0_0_1,down,response,,942885,942884.96,942894.46,943279,384.54000000003725,943289,2021-10-28T15:47:58.100Z,943311.36,1635347803,full,ni_sequenzen,NI_Sequenzen,2,0,,,,,,,,,,,,
,Move,canvas.Screen,0_3_0_0_0_2,left,response,,943303,943302.84,943311.36,945529,2217.640000000014,945547,2021-10-28T15:48:00.358Z,945579.82,1635347803,full,ni_sequenzen,NI_Sequenzen,3,0,,,,,,,,,,,,
,Move,canvas.Screen,0_3_0_0_0_3,down,response,,945565,945564.5,945579.82,945826,246.18000000005122,945833,2021-10-28T15:48:00.644Z,945913.44,1635347803,full,ni_sequenzen,NI_Sequenzen,4,0,,,,,,,,,,,,
,Move,canvas.Screen,0_3_0_0_0_4,-999,skipped,,945843,,,945826,,945843,2021-10-28T15:48:00.653Z,945913.44,1635347803,full,ni_sequenzen,NI_Sequenzen,5,0,,,,,,,,,,,,
,Move,canvas.Screen,0_3_0_0_0_5,-999,skipped,,945851,,,945826,,945851,2021-10-28T15:48:00.662Z,945913.44,1635347803,full,ni_sequenzen,NI_Sequenzen,6,0,,,,,,,,,,,,
,Move,canvas.Screen,0_3_0_0_0_6,-999,skipped,,945859,,,945826,,945859,2021-10-28T15:48:00.669Z,945913.44,1635347803,full,ni_sequenzen,NI_Sequenzen,7,0,,,,,,,,,,,,
,Move,canvas.Screen,0_3_0_0_0_7,-999,skipped,,945865,,,945826,,945865,2021-10-28T15:48:00.676Z,945913.44,1635347803,full,ni_sequenzen,NI_Sequenzen,8,0,,,,,,,,,,,,
,Move,canvas.Screen,0_3_0_0_0_8,-999,skipped,,945870,,,945826,,945870,2021-10-28T15:48:00.681Z,945913.44,1635347803,full,ni_sequenzen,NI_Sequenzen,9,0,,,,,,,,,,,,
,Move,canvas.Screen,0_3_0_0_0_9,-999,skipped,,945876,,,945826,,945877,2021-10-28T15:48:00.687Z,945913.44,1635347803,full,ni_sequenzen,NI_Sequenzen,10,0,,,,,,,,,,,,
,Move,canvas.Screen,0_3_0_0_0_10,-999,skipped,,945882,,,945826,,945883,2021-10-28T15:48:00.693Z,945913.44,1635347803,full,ni_sequenzen,NI_Sequenzen,11,0,,,,,,,,,,,,
,Move,canvas.Screen,0_3_0_0_0_11,-999,skipped,,945888,,,945826,,945888,2021-10-28T15:48:00.698Z,945913.44,1635347803,full,ni_sequenzen,NI_Sequenzen,12,0,,,,,,,,,,,,
,Move,canvas.Screen,0_3_0_0_0_12,-999,skipped,,945893,,,945826,,945894,2021-10-28T15:48:00.704Z,945913.44,1635347803,full,ni_sequenzen,NI_Sequenzen,13,0,,,,,,,,,,,,
,Move,canvas.Screen,0_3_0_0_0_13,-999,skipped,,945900,,,945826,,945900,2021-10-28T15:48:00.711Z,945913.44,1635347803,full,ni_sequenzen,NI_Sequenzen,14,0,,,,,,,,,,,,
,Move,canvas.Screen,0_3_0_0_0_14,-999,skipped,,945905,,,945826,,945905,2021-10-28T15:48:00.715Z,945913.44,1635347803,full,ni_sequenzen,NI_Sequenzen,15,0,,,,,,,,,,,,
,Loop,flow.Loop,0_3_0_0_0,-999,completion,,939733,939749.32,939758.56,945826,6067.439999999944,945905,2021-10-28T15:48:00.715Z,945913.44,1635347803,full,ni_sequenzen,NI_Sequenzen,,0,,,,,,,,,,,,
,Feedback,canvas.Screen,0_3_0_0_1,,timeout,,945910,945909.96,945913.44,949899.92,4024.740000000107,949902,2021-10-28T15:48:04.712Z,949938.18,1635347803,full,ni_sequenzen,NI_Sequenzen,,0,,,,,,,,,,,,
,Trial,flow.Sequence,0_3_0_0,,completion,,939722,939749.32,939758.56,949899.92,10141.359999999986,949903,2021-10-28T15:48:04.714Z,949949.96,1635347803,full,ni_sequenzen,NI_Sequenzen,,0,,,,,,,,,,,,
,Move,canvas.Screen,0_3_0_1_0_0,right,response,,949938,949938.18,949949.96,951826,1876.0400000000373,951842,2021-10-28T15:48:06.651Z,951868.16,1635347803,full,ni_sequenzen,NI_Sequenzen,1,1,,,,,,,,,,,,
,Move,canvas.Screen,0_3_0_1_0_1,down,response,,951854,951853.16,951868.16,952216,347.8399999999674,952233,2021-10-28T15:48:07.043Z,952251.8,1635347803,full,ni_sequenzen,NI_Sequenzen,2,1,,,,,,,,,,,,
,Move,canvas.Screen,0_3_0_1_0_2,left,response,,952241,952241.44,952251.8,954310,2058.1999999999534,954321,2021-10-28T15:48:09.131Z,954336.78,1635347803,full,ni_sequenzen,NI_Sequenzen,3,1,,,,,,,,,,,,
,Move,canvas.Screen,0_3_0_1_0_3,down,response,,954331,954330.98,954336.78,955670,1333.219999999972,955681,2021-10-28T15:48:10.491Z,955704.52,1635347803,full,ni_sequenzen,NI_Sequenzen,4,1,,,,,,,,,,,,
,Move,canvas.Screen,0_3_0_1_0_4,left,response,,955692,955691.32,955704.52,958966,3261.4799999999814,958977,2021-10-28T15:48:13.787Z,959057.18,1635347803,full,ni_sequenzen,NI_Sequenzen,5,1,,,,,,,,,,,,
,Move,canvas.Screen,0_3_0_1_0_5,-999,skipped,,958984,,,958966,,958984,2021-10-28T15:48:13.795Z,959057.18,1635347803,full,ni_sequenzen,NI_Sequenzen,6,1,,,,,,,,,,,,
,Move,canvas.Screen,0_3_0_1_0_6,-999,skipped,,958990,,,958966,,958991,2021-10-28T15:48:13.801Z,959057.18,1635347803,full,ni_sequenzen,NI_Sequenzen,7,1,,,,,,,,,,,,
,Move,canvas.Screen,0_3_0_1_0_7,-999,skipped,,958996,,,958966,,958996,2021-10-28T15:48:13.806Z,959057.18,1635347803,full,ni_sequenzen,NI_Sequenzen,8,1,,,,,,,,,,,,
,Move,canvas.Screen,0_3_0_1_0_8,-999,skipped,,959002,,,958966,,959002,2021-10-28T15:48:13.812Z,959057.18,1635347803,full,ni_sequenzen,NI_Sequenzen,9,1,,,,,,,,,,,,
,Move,canvas.Screen,0_3_0_1_0_9,-999,skipped,,959008,,,958966,,959008,2021-10-28T15:48:13.819Z,959057.18,1635347803,full,ni_sequenzen,NI_Sequenzen,10,1,,,,,,,,,,,,
,Move,canvas.Screen,0_3_0_1_0_10,-999,skipped,,959013,,,958966,,959013,2021-10-28T15:48:13.824Z,959057.18,1635347803,full,ni_sequenzen,NI_Sequenzen,11,1,,,,,,,,,,,,
,Move,canvas.Screen,0_3_0_1_0_11,-999,skipped,,959020,,,958966,,959020,2021-10-28T15:48:13.830Z,959057.18,1635347803,full,ni_sequenzen,NI_Sequenzen,12,1,,,,,,,,,,,,
,Move,canvas.Screen,0_3_0_1_0_12,-999,skipped,,959026,,,958966,,959026,2021-10-28T15:48:13.836Z,959057.18,1635347803,full,ni_sequenzen,NI_Sequenzen,13,1,,,,,,,,,,,,
,Move,canvas.Screen,0_3_0_1_0_13,-999,skipped,,959032,,,958966,,959032,2021-10-28T15:48:13.842Z,959057.18,1635347803,full,ni_sequenzen,NI_Sequenzen,14,1,,,,,,,,,,,,
,Move,canvas.Screen,0_3_0_1_0_14,-999,skipped,,959038,,,958966,,959038,2021-10-28T15:48:13.848Z,959057.18,1635347803,full,ni_sequenzen,NI_Sequenzen,15,1,,,,,,,,,,,,
,Loop,flow.Loop,0_3_0_1_0,-999,completion,,949927,949938.18,949949.96,958966,9016.040000000037,959038,2021-10-28T15:48:13.849Z,959057.18,1635347803,full,ni_sequenzen,NI_Sequenzen,,1,,,,,,,,,,,,
,Feedback,canvas.Screen,0_3_0_1_1,,timeout,,959044,959043.22,959057.18,963043.66,4006.179999999935,963044,2021-10-28T15:48:17.854Z,963063.36,1635347803,full,ni_sequenzen,NI_Sequenzen,,1,,,,,,,,,,,,
,Trial,flow.Sequence,0_3_0_1,,completion,,949905,949938.18,949949.96,963043.66,13093.70000000007,963045,2021-10-28T15:48:17.855Z,963077.02,1635347803,full,ni_sequenzen,NI_Sequenzen,,1,,,,,,,,,,,,
,Move,canvas.Screen,0_3_0_2_0_0,right,response,,963063,963063.36,963077.02,964998,1920.9799999999814,965000,2021-10-28T15:48:19.810Z,965011.88,1635347803,full,ni_sequenzen,NI_Sequenzen,1,2,,,,,,,,,,,,
,Move,canvas.Screen,0_3_0_2_0_1,down,response,,965006,965006.38,965011.88,965310,298.11999999999534,965312,2021-10-28T15:48:20.122Z,965328.8,1635347803,full,ni_sequenzen,NI_Sequenzen,2,2,,,,,,,,,,,,
,Move,canvas.Screen,0_3_0_2_0_2,right,response,,965319,965318.94,965328.8,965623,294.19999999995343,965639,2021-10-28T15:48:20.450Z,965662.4,1635347803,full,ni_sequenzen,NI_Sequenzen,3,2,,,,,,,,,,,,
,Move,canvas.Screen,0_3_0_2_0_3,down,response,,965647,965646.48,965662.4,965904,241.59999999997672,965919,2021-10-28T15:48:20.730Z,965996,1635347803,full,ni_sequenzen,NI_Sequenzen,4,2,,,,,,,,,,,,
,Move,canvas.Screen,0_3_0_2_0_4,-999,skipped,,965929,,,965904,,965929,2021-10-28T15:48:20.740Z,965996,1635347803,full,ni_sequenzen,NI_Sequenzen,5,2,,,,,,,,,,,,
,Move,canvas.Screen,0_3_0_2_0_5,-999,skipped,,965941,,,965904,,965941,2021-10-28T15:48:20.751Z,965996,1635347803,full,ni_sequenzen,NI_Sequenzen,6,2,,,,,,,,,,,,
,Move,canvas.Screen,0_3_0_2_0_6,-999,skipped,,965947,,,965904,,965947,2021-10-28T15:48:20.758Z,965996,1635347803,full,ni_sequenzen,NI_Sequenzen,7,2,,,,,,,,,,,,
,Move,canvas.Screen,0_3_0_2_0_7,-999,skipped,,965952,,,965904,,965952,2021-10-28T15:48:20.763Z,965996,1635347803,full,ni_sequenzen,NI_Sequenzen,8,2,,,,,,,,,,,,
,Move,canvas.Screen,0_3_0_2_0_8,-999,skipped,,965958,,,965904,,965958,2021-10-28T15:48:20.767Z,965996,1635347803,full,ni_sequenzen,NI_Sequenzen,9,2,,,,,,,,,,,,
,Move,canvas.Screen,0_3_0_2_0_9,-999,skipped,,965962,,,965904,,965962,2021-10-28T15:48:20.773Z,965996,1635347803,full,ni_sequenzen,NI_Sequenzen,10,2,,,,,,,,,,,,
,Move,canvas.Screen,0_3_0_2_0_10,-999,skipped,,965967,,,965904,,965967,2021-10-28T15:48:20.778Z,965996,1635347803,full,ni_sequenzen,NI_Sequenzen,11,2,,,,,,,,,,,,
,Move,canvas.Screen,0_3_0_2_0_11,-999,skipped,,965972,,,965904,,965972,2021-10-28T15:48:20.783Z,965996,1635347803,full,ni_sequenzen,NI_Sequenzen,12,2,,,,,,,,,,,,
,Move,canvas.Screen,0_3_0_2_0_12,-999,skipped,,965977,,,965904,,965977,2021-10-28T15:48:20.787Z,965996,1635347803,full,ni_sequenzen,NI_Sequenzen,13,2,,,,,,,,,,,,
,Move,canvas.Screen,0_3_0_2_0_13,-999,skipped,,965982,,,965904,,965982,2021-10-28T15:48:20.793Z,965996,1635347803,full,ni_sequenzen,NI_Sequenzen,14,2,,,,,,,,,,,,
,Move,canvas.Screen,0_3_0_2_0_14,-999,skipped,,965987,,,965904,,965987,2021-10-28T15:48:20.797Z,965996,1635347803,full,ni_sequenzen,NI_Sequenzen,15,2,,,,,,,,,,,,
,Loop,flow.Loop,0_3_0_2_0,-999,completion,,963057,963063.36,963077.02,965904,2826.9799999999814,965987,2021-10-28T15:48:20.798Z,965996,1635347803,full,ni_sequenzen,NI_Sequenzen,,2,,,,,,,,,,,,
,Feedback,canvas.Screen,0_3_0_2_1,,timeout,,965991,965991.32,965996,969982.48,4003.1600000000326,969983,2021-10-28T15:48:24.793Z,969999.16,1635347803,full,ni_sequenzen,NI_Sequenzen,,2,,,,,,,,,,,,
,Trial,flow.Sequence,0_3_0_2,,completion,,963046,963063.36,963077.02,969982.48,6905.459999999963,969983,2021-10-28T15:48:24.793Z,970015.84,1635347803,full,ni_sequenzen,NI_Sequenzen,,2,,,,,,,,,,,,
,Move,canvas.Screen,0_3_0_3_0_0,right,response,,969999,969999.16,970015.84,971373,1357.1600000000326,971375,2021-10-28T15:48:26.186Z,971383.58,1635347803,full,ni_sequenzen,NI_Sequenzen,1,3,,,,,,,,,,,,
,Move,canvas.Screen,0_3_0_3_0_1,down,response,,971382,971381.6,971383.58,971685,301.4200000000419,971695,2021-10-28T15:48:26.505Z,971717.18,1635347803,full,ni_sequenzen,NI_Sequenzen,2,3,,,,,,,,,,,,
,Move,canvas.Screen,0_3_0_3_0_2,right,response,,971703,971702.4,971717.18,971982,264.8199999999488,971991,2021-10-28T15:48:26.802Z,972000.72,1635347803,full,ni_sequenzen,NI_Sequenzen,3,3,,,,,,,,,,,,
,Move,canvas.Screen,0_3_0_3_0_3,down,response,,971998,971997.84,972000.72,972248,247.28000000002794,972263,2021-10-28T15:48:27.073Z,972334.34,1635347803,full,ni_sequenzen,NI_Sequenzen,4,3,,,,,,,,,,,,
,Move,canvas.Screen,0_3_0_3_0_4,-999,skipped,,972270,,,972248,,972270,2021-10-28T15:48:27.081Z,972334.34,1635347803,full,ni_sequenzen,NI_Sequenzen,5,3,,,,,,,,,,,,
,Move,canvas.Screen,0_3_0_3_0_5,-999,skipped,,972275,,,972248,,972275,2021-10-28T15:48:27.085Z,972334.34,1635347803,full,ni_sequenzen,NI_Sequenzen,6,3,,,,,,,,,,,,
,Move,canvas.Screen,0_3_0_3_0_6,-999,skipped,,972280,,,972248,,972280,2021-10-28T15:48:27.090Z,972334.34,1635347803,full,ni_sequenzen,NI_Sequenzen,7,3,,,,,,,,,,,,
,Move,canvas.Screen,0_3_0_3_0_7,-999,skipped,,972284,,,972248,,972284,2021-10-28T15:48:27.094Z,972334.34,1635347803,full,ni_sequenzen,NI_Sequenzen,8,3,,,,,,,,,,,,
,Move,canvas.Screen,0_3_0_3_0_8,-999,skipped,,972290,,,972248,,972290,2021-10-28T15:48:27.100Z,972334.34,1635347803,full,ni_sequenzen,NI_Sequenzen,9,3,,,,,,,,,,,,
,Move,canvas.Screen,0_3_0_3_0_9,-999,skipped,,972295,,,972248,,972295,2021-10-28T15:48:27.105Z,972334.34,1635347803,full,ni_sequenzen,NI_Sequenzen,10,3,,,,,,,,,,,,
,Move,canvas.Screen,0_3_0_3_0_10,-999,skipped,,972303,,,972248,,972303,2021-10-28T15:48:27.113Z,972334.34,1635347803,full,ni_sequenzen,NI_Sequenzen,11,3,,,,,,,,,,,,
,Move,canvas.Screen,0_3_0_3_0_11,-999,skipped,,972309,,,972248,,972309,2021-10-28T15:48:27.119Z,972334.34,1635347803,full,ni_sequenzen,NI_Sequenzen,12,3,,,,,,,,,,,,
,Move,canvas.Screen,0_3_0_3_0_12,-999,skipped,,972313,,,972248,,972313,2021-10-28T15:48:27.124Z,972334.34,1635347803,full,ni_sequenzen,NI_Sequenzen,13,3,,,,,,,,,,,,
,Move,canvas.Screen,0_3_0_3_0_13,-999,skipped,,972318,,,972248,,972318,2021-10-28T15:48:27.128Z,972334.34,1635347803,full,ni_sequenzen,NI_Sequenzen,14,3,,,,,,,,,,,,
,Move,canvas.Screen,0_3_0_3_0_14,-999,skipped,,972323,,,972248,,972323,2021-10-28T15:48:27.133Z,972334.34,1635347803,full,ni_sequenzen,NI_Sequenzen,15,3,,,,,,,,,,,,
,Loop,flow.Loop,0_3_0_3_0,-999,completion,,969993,969999.16,970015.84,972248,2232.1600000000326,972323,2021-10-28T15:48:27.133Z,972334.34,1635347803,full,ni_sequenzen,NI_Sequenzen,,3,,,,,,,,,,,,
,Feedback,canvas.Screen,0_3_0_3_1,,timeout,,972327,972326.78,972334.34,976320.82,4005.5,976322,2021-10-28T15:48:31.132Z,976339.84,1635347803,full,ni_sequenzen,NI_Sequenzen,,3,,,,,,,,,,,,
,Trial,flow.Sequence,0_3_0_3,,completion,,969984,969999.16,970015.84,976320.82,6304.979999999981,976323,2021-10-28T15:48:31.133Z,976354.18,1635347803,full,ni_sequenzen,NI_Sequenzen,,3,,,,,,,,,,,,
,Move,canvas.Screen,0_3_0_4_0_0,right,response,,976340,976339.84,976354.18,977795,1440.8199999999488,977799,2021-10-28T15:48:32.609Z,977805.36,1635347803,full,ni_sequenzen,NI_Sequenzen,1,4,,,,,,,,,,,,
,Move,canvas.Screen,0_3_0_4_0_1,down,response,,977805,977805.08,977805.36,978045,239.64000000001397,978054,2021-10-28T15:48:32.865Z,978072.2,1635347803,full,ni_sequenzen,NI_Sequenzen,2,4,,,,,,,,,,,,
,Move,canvas.Screen,0_3_0_4_0_2,right,response,,978062,978061.84,978072.2,978263,190.80000000004657,978270,2021-10-28T15:48:33.081Z,978289.04,1635347803,full,ni_sequenzen,NI_Sequenzen,3,4,,,,,,,,,,,,
,Move,canvas.Screen,0_3_0_4_0_3,down,response,,978277,978277.12,978289.04,978498,208.95999999996275,978502,2021-10-28T15:48:33.312Z,978572.62,1635347803,full,ni_sequenzen,NI_Sequenzen,4,4,,,,,,,,,,,,
,Move,canvas.Screen,0_3_0_4_0_4,-999,skipped,,978510,,,978498,,978510,2021-10-28T15:48:33.320Z,978572.62,1635347803,full,ni_sequenzen,NI_Sequenzen,5,4,,,,,,,,,,,,
,Move,canvas.Screen,0_3_0_4_0_5,-999,skipped,,978514,,,978498,,978514,2021-10-28T15:48:33.325Z,978572.62,1635347803,full,ni_sequenzen,NI_Sequenzen,6,4,,,,,,,,,,,,
,Move,canvas.Screen,0_3_0_4_0_6,-999,skipped,,978519,,,978498,,978519,2021-10-28T15:48:33.328Z,978572.62,1635347803,full,ni_sequenzen,NI_Sequenzen,7,4,,,,,,,,,,,,
,Move,canvas.Screen,0_3_0_4_0_7,-999,skipped,,978524,,,978498,,978524,2021-10-28T15:48:33.334Z,978572.62,1635347803,full,ni_sequenzen,NI_Sequenzen,8,4,,,,,,,,,,,,
,Move,canvas.Screen,0_3_0_4_0_8,-999,skipped,,978528,,,978498,,978528,2021-10-28T15:48:33.339Z,978572.62,1635347803,full,ni_sequenzen,NI_Sequenzen,9,4,,,,,,,,,,,,
,Move,canvas.Screen,0_3_0_4_0_9,-999,skipped,,978533,,,978498,,978534,2021-10-28T15:48:33.344Z,978572.62,1635347803,full,ni_sequenzen,NI_Sequenzen,10,4,,,,,,,,,,,,
,Move,canvas.Screen,0_3_0_4_0_10,-999,skipped,,978538,,,978498,,978538,2021-10-28T15:48:33.349Z,978572.62,1635347803,full,ni_sequenzen,NI_Sequenzen,11,4,,,,,,,,,,,,
,Move,canvas.Screen,0_3_0_4_0_11,-999,skipped,,978544,,,978498,,978544,2021-10-28T15:48:33.354Z,978572.62,1635347803,full,ni_sequenzen,NI_Sequenzen,12,4,,,,,,,,,,,,
,Move,canvas.Screen,0_3_0_4_0_12,-999,skipped,,978548,,,978498,,978548,2021-10-28T15:48:33.359Z,978572.62,1635347803,full,ni_sequenzen,NI_Sequenzen,13,4,,,,,,,,,,,,
,Move,canvas.Screen,0_3_0_4_0_13,-999,skipped,,978554,,,978498,,978554,2021-10-28T15:48:33.364Z,978572.62,1635347803,full,ni_sequenzen,NI_Sequenzen,14,4,,,,,,,,,,,,
,Move,canvas.Screen,0_3_0_4_0_14,-999,skipped,,978559,,,978498,,978559,2021-10-28T15:48:33.369Z,978572.62,1635347803,full,ni_sequenzen,NI_Sequenzen,15,4,,,,,,,,,,,,
,Loop,flow.Loop,0_3_0_4_0,-999,completion,,976331,976339.84,976354.18,978498,2143.819999999949,978559,2021-10-28T15:48:33.370Z,978572.62,1635347803,full,ni_sequenzen,NI_Sequenzen,,4,,,,,,,,,,,,
,Feedback,canvas.Screen,0_3_0_4_1,,timeout,,978563,978562.62,978572.62,982559.08,4003.140000000014,982560,2021-10-28T15:48:37.370Z,982575.76,1635347803,full,ni_sequenzen,NI_Sequenzen,,4,,,,,,,,,,,,
,Trial,flow.Sequence,0_3_0_4,,completion,,976323,976339.84,976354.18,982559.08,6204.899999999907,982560,2021-10-28T15:48:37.370Z,982592.44,1635347803,full,ni_sequenzen,NI_Sequenzen,,4,,,,,,,,,,,,
,Move,canvas.Screen,0_3_0_5_0_0,right,response,,982572,982575.76,982592.44,983482,889.5600000000559,983494,2021-10-28T15:48:38.305Z,983509.84,1635347803,full,ni_sequenzen,NI_Sequenzen,1,5,,,,,,,,,,,,
,Move,canvas.Screen,0_3_0_5_0_1,down,response,,983500,983499.52,983509.84,983716,206.1600000000326,983726,2021-10-28T15:48:38.536Z,983743.34,1635347803,full,ni_sequenzen,NI_Sequenzen,2,5,,,,,,,,,,,,
,Move,canvas.Screen,0_3_0_5_0_2,right,response,,983731,983731.42,983743.34,983920,176.6600000000326,983935,2021-10-28T15:48:38.745Z,983960.2,1635347803,full,ni_sequenzen,NI_Sequenzen,3,5,,,,,,,,,,,,
,Move,canvas.Screen,0_3_0_5_0_3,down,response,,983947,983946.78,983960.2,984138,177.80000000004657,984142,2021-10-28T15:48:38.952Z,984227.08,1635347803,full,ni_sequenzen,NI_Sequenzen,4,5,,,,,,,,,,,,
,Move,canvas.Screen,0_3_0_5_0_4,-999,skipped,,984152,,,984138,,984153,2021-10-28T15:48:38.963Z,984227.08,1635347803,full,ni_sequenzen,NI_Sequenzen,5,5,,,,,,,,,,,,
,Move,canvas.Screen,0_3_0_5_0_5,-999,skipped,,984160,,,984138,,984160,2021-10-28T15:48:38.970Z,984227.08,1635347803,full,ni_sequenzen,NI_Sequenzen,6,5,,,,,,,,,,,,
,Move,canvas.Screen,0_3_0_5_0_6,-999,skipped,,984167,,,984138,,984168,2021-10-28T15:48:38.978Z,984227.08,1635347803,full,ni_sequenzen,NI_Sequenzen,7,5,,,,,,,,,,,,
,Move,canvas.Screen,0_3_0_5_0_7,-999,skipped,,984174,,,984138,,984174,2021-10-28T15:48:38.985Z,984227.08,1635347803,full,ni_sequenzen,NI_Sequenzen,8,5,,,,,,,,,,,,
,Move,canvas.Screen,0_3_0_5_0_8,-999,skipped,,984179,,,984138,,984180,2021-10-28T15:48:38.989Z,984227.08,1635347803,full,ni_sequenzen,NI_Sequenzen,9,5,,,,,,,,,,,,
,Move,canvas.Screen,0_3_0_5_0_9,-999,skipped,,984185,,,984138,,984185,2021-10-28T15:48:38.996Z,984227.08,1635347803,full,ni_sequenzen,NI_Sequenzen,10,5,,,,,,,,,,,,
,Move,canvas.Screen,0_3_0_5_0_10,-999,skipped,,984190,,,984138,,984190,2021-10-28T15:48:39.001Z,984227.08,1635347803,full,ni_sequenzen,NI_Sequenzen,11,5,,,,,,,,,,,,
,Move,canvas.Screen,0_3_0_5_0_11,-999,skipped,,984196,,,984138,,984196,2021-10-28T15:48:39.006Z,984227.08,1635347803,full,ni_sequenzen,NI_Sequenzen,12,5,,,,,,,,,,,,
,Move,canvas.Screen,0_3_0_5_0_12,-999,skipped,,984201,,,984138,,984201,2021-10-28T15:48:39.012Z,984227.08,1635347803,full,ni_sequenzen,NI_Sequenzen,13,5,,,,,,,,,,,,
,Move,canvas.Screen,0_3_0_5_0_13,-999,skipped,,984207,,,984138,,984207,2021-10-28T15:48:39.018Z,984227.08,1635347803,full,ni_sequenzen,NI_Sequenzen,14,5,,,,,,,,,,,,
,Move,canvas.Screen,0_3_0_5_0_14,-999,skipped,,984213,,,984138,,984213,2021-10-28T15:48:39.023Z,984227.08,1635347803,full,ni_sequenzen,NI_Sequenzen,15,5,,,,,,,,,,,,
,Loop,flow.Loop,0_3_0_5_0,-999,completion,,982567,982575.76,982592.44,984138,1545.5600000000559,984213,2021-10-28T15:48:39.024Z,984227.08,1635347803,full,ni_sequenzen,NI_Sequenzen,,5,,,,,,,,,,,,
,Feedback,canvas.Screen,0_3_0_5_1,,timeout,,984218,984217.36,984227.08,988213.56,4012.2600000000093,988215,2021-10-28T15:48:43.025Z,988239.34,1635347803,full,ni_sequenzen,NI_Sequenzen,,5,,,,,,,,,,,,
,Trial,flow.Sequence,0_3_0_5,,completion,,982560,982575.76,982592.44,988213.56,5621.120000000112,988215,2021-10-28T15:48:43.026Z,988246.92,1635347803,full,ni_sequenzen,NI_Sequenzen,,5,,,,,,,,,,,,
,Move,canvas.Screen,0_3_0_6_0_0,right,response,,988240,988239.34,988246.92,989170,923.0799999999581,989174,2021-10-28T15:48:43.984Z,989197.66,1635347803,full,ni_sequenzen,NI_Sequenzen,1,6,,,,,,,,,,,,
,Move,canvas.Screen,0_3_0_6_0_1,down,response,,989182,989181.32,989197.66,989435,237.3399999999674,989446,2021-10-28T15:48:44.256Z,989464.54,1635347803,full,ni_sequenzen,NI_Sequenzen,2,6,,,,,,,,,,,,
,Move,canvas.Screen,0_3_0_6_0_2,right,response,,989454,989453.16,989464.54,989638,173.45999999996275,989654,2021-10-28T15:48:44.464Z,989664.7,1635347803,full,ni_sequenzen,NI_Sequenzen,3,6,,,,,,,,,,,,
,Move,canvas.Screen,0_3_0_6_0_3,down,response,,989660,989659.96,989664.7,989810,145.30000000004657,989822,2021-10-28T15:48:44.632Z,989898.24,1635347803,full,ni_sequenzen,NI_Sequenzen,4,6,,,,,,,,,,,,
,Move,canvas.Screen,0_3_0_6_0_4,-999,skipped,,989829,,,989810,,989829,2021-10-28T15:48:44.639Z,989898.24,1635347803,full,ni_sequenzen,NI_Sequenzen,5,6,,,,,,,,,,,,
,Move,canvas.Screen,0_3_0_6_0_5,-999,skipped,,989835,,,989810,,989835,2021-10-28T15:48:44.646Z,989898.24,1635347803,full,ni_sequenzen,NI_Sequenzen,6,6,,,,,,,,,,,,
,Move,canvas.Screen,0_3_0_6_0_6,-999,skipped,,989841,,,989810,,989841,2021-10-28T15:48:44.652Z,989898.24,1635347803,full,ni_sequenzen,NI_Sequenzen,7,6,,,,,,,,,,,,
,Move,canvas.Screen,0_3_0_6_0_7,-999,skipped,,989847,,,989810,,989847,2021-10-28T15:48:44.657Z,989898.24,1635347803,full,ni_sequenzen,NI_Sequenzen,8,6,,,,,,,,,,,,
,Move,canvas.Screen,0_3_0_6_0_8,-999,skipped,,989854,,,989810,,989854,2021-10-28T15:48:44.664Z,989898.24,1635347803,full,ni_sequenzen,NI_Sequenzen,9,6,,,,,,,,,,,,
,Move,canvas.Screen,0_3_0_6_0_9,-999,skipped,,989859,,,989810,,989859,2021-10-28T15:48:44.669Z,989898.24,1635347803,full,ni_sequenzen,NI_Sequenzen,10,6,,,,,,,,,,,,
,Move,canvas.Screen,0_3_0_6_0_10,-999,skipped,,989864,,,989810,,989864,2021-10-28T15:48:44.673Z,989898.24,1635347803,full,ni_sequenzen,NI_Sequenzen,11,6,,,,,,,,,,,,
,Move,canvas.Screen,0_3_0_6_0_11,-999,skipped,,989870,,,989810,,989870,2021-10-28T15:48:44.681Z,989898.24,1635347803,full,ni_sequenzen,NI_Sequenzen,12,6,,,,,,,,,,,,
,Move,canvas.Screen,0_3_0_6_0_12,-999,skipped,,989876,,,989810,,989876,2021-10-28T15:48:44.686Z,989898.24,1635347803,full,ni_sequenzen,NI_Sequenzen,13,6,,,,,,,,,,,,
,Move,canvas.Screen,0_3_0_6_0_13,-999,skipped,,989881,,,989810,,989881,2021-10-28T15:48:44.691Z,989898.24,1635347803,full,ni_sequenzen,NI_Sequenzen,14,6,,,,,,,,,,,,
,Move,canvas.Screen,0_3_0_6_0_14,-999,skipped,,989887,,,989810,,989887,2021-10-28T15:48:44.696Z,989898.24,1635347803,full,ni_sequenzen,NI_Sequenzen,15,6,,,,,,,,,,,,
,Loop,flow.Loop,0_3_0_6_0,-999,completion,,988233,988239.34,988246.92,989810,1563.079999999958,989887,2021-10-28T15:48:44.697Z,989898.24,1635347803,full,ni_sequenzen,NI_Sequenzen,,6,,,,,,,,,,,,
,Feedback,canvas.Screen,0_3_0_6_1,,timeout,,989891,989890.62,989898.24,993884.72,4006.180000000051,993885,2021-10-28T15:48:48.695Z,993904.42,1635347803,full,ni_sequenzen,NI_Sequenzen,,6,,,,,,,,,,,,
,Trial,flow.Sequence,0_3_0_6,,completion,,988216,988239.34,988246.92,993884.72,5637.79999999993,993886,2021-10-28T15:48:48.695Z,993918.08,1635347803,full,ni_sequenzen,NI_Sequenzen,,6,,,,,,,,,,,,
,Move,canvas.Screen,0_3_0_7_0_0,right,response,,993905,993904.42,993918.08,995170,1251.920000000042,995182,2021-10-28T15:48:49.991Z,995202.42,1635347803,full,ni_sequenzen,NI_Sequenzen,1,7,,,,,,,,,,,,
,Move,canvas.Screen,0_3_0_7_0_1,down,response,,995189,995188.52,995202.42,995451,248.5799999999581,995461,2021-10-28T15:48:50.271Z,995469.3,1635347803,full,ni_sequenzen,NI_Sequenzen,2,7,,,,,,,,,,,,
,Move,canvas.Screen,0_3_0_7_0_2,right,response,,995468,995467.12,995469.3,995685,215.69999999995343,995701,2021-10-28T15:48:50.511Z,995719.5,1635347803,full,ni_sequenzen,NI_Sequenzen,3,7,,,,,,,,,,,,
,Move,canvas.Screen,0_3_0_7_0_3,down,response,,995708,995708,995719.5,996013,293.5,996030,2021-10-28T15:48:50.840Z,996103.14,1635347803,full,ni_sequenzen,NI_Sequenzen,4,7,,,,,,,,,,,,
,Move,canvas.Screen,0_3_0_7_0_4,-999,skipped,,996039,,,996013,,996039,2021-10-28T15:48:50.849Z,996103.14,1635347803,full,ni_sequenzen,NI_Sequenzen,5,7,,,,,,,,,,,,
,Move,canvas.Screen,0_3_0_7_0_5,-999,skipped,,996046,,,996013,,996046,2021-10-28T15:48:50.855Z,996103.14,1635347803,full,ni_sequenzen,NI_Sequenzen,6,7,,,,,,,,,,,,
,Move,canvas.Screen,0_3_0_7_0_6,-999,skipped,,996051,,,996013,,996051,2021-10-28T15:48:50.861Z,996103.14,1635347803,full,ni_sequenzen,NI_Sequenzen,7,7,,,,,,,,,,,,
,Move,canvas.Screen,0_3_0_7_0_7,-999,skipped,,996057,,,996013,,996057,2021-10-28T15:48:50.867Z,996103.14,1635347803,full,ni_sequenzen,NI_Sequenzen,8,7,,,,,,,,,,,,
,Move,canvas.Screen,0_3_0_7_0_8,-999,skipped,,996061,,,996013,,996061,2021-10-28T15:48:50.871Z,996103.14,1635347803,full,ni_sequenzen,NI_Sequenzen,9,7,,,,,,,,,,,,
,Move,canvas.Screen,0_3_0_7_0_9,-999,skipped,,996067,,,996013,,996067,2021-10-28T15:48:50.876Z,996103.14,1635347803,full,ni_sequenzen,NI_Sequenzen,10,7,,,,,,,,,,,,
,Move,canvas.Screen,0_3_0_7_0_10,-999,skipped,,996072,,,996013,,996072,2021-10-28T15:48:50.882Z,996103.14,1635347803,full,ni_sequenzen,NI_Sequenzen,11,7,,,,,,,,,,,,
,Move,canvas.Screen,0_3_0_7_0_11,-999,skipped,,996077,,,996013,,996077,2021-10-28T15:48:50.886Z,996103.14,1635347803,full,ni_sequenzen,NI_Sequenzen,12,7,,,,,,,,,,,,
,Move,canvas.Screen,0_3_0_7_0_12,-999,skipped,,996081,,,996013,,996082,2021-10-28T15:48:50.892Z,996103.14,1635347803,full,ni_sequenzen,NI_Sequenzen,13,7,,,,,,,,,,,,
,Move,canvas.Screen,0_3_0_7_0_13,-999,skipped,,996086,,,996013,,996086,2021-10-28T15:48:50.896Z,996103.14,1635347803,full,ni_sequenzen,NI_Sequenzen,14,7,,,,,,,,,,,,
,Move,canvas.Screen,0_3_0_7_0_14,-999,skipped,,996091,,,996013,,996091,2021-10-28T15:48:50.901Z,996103.14,1635347803,full,ni_sequenzen,NI_Sequenzen,15,7,,,,,,,,,,,,
,Loop,flow.Loop,0_3_0_7_0,-999,completion,,993898,993904.42,993918.08,996013,2094.920000000042,996091,2021-10-28T15:48:50.902Z,996103.14,1635347803,full,ni_sequenzen,NI_Sequenzen,,7,,,,,,,,,,,,
,Feedback,canvas.Screen,0_3_0_7_1,,timeout,,996095,996095.04,996103.14,1000089.62,4003.1600000000326,1000091,2021-10-28T15:48:54.901Z,1000106.3,1635347803,full,ni_sequenzen,NI_Sequenzen,,7,,,,,,,,,,,,
,Trial,flow.Sequence,0_3_0_7,,completion,,993887,993904.42,993918.08,1000089.62,6171.540000000037,1000091,2021-10-28T15:48:54.901Z,1000122.98,1635347803,full,ni_sequenzen,NI_Sequenzen,,7,,,,,,,,,,,,
,Move,canvas.Screen,0_3_0_8_0_0,right,response,,1000106,1000106.3,1000122.98,1000513,390.0200000000186,1000525,2021-10-28T15:48:55.335Z,1000539.96,1635347803,full,ni_sequenzen,NI_Sequenzen,1,8,,,,,,,,,,,,
,Move,canvas.Screen,0_3_0_8_0_1,down,response,,1000531,1000530.82,1000539.96,1000732,192.04000000003725,1000749,2021-10-28T15:48:55.559Z,1000756.82,1635347803,full,ni_sequenzen,NI_Sequenzen,2,8,,,,,,,,,,,,
,Move,canvas.Screen,0_3_0_8_0_2,right,response,,1000755,1000755.48,1000756.82,1000920,163.18000000005122,1000933,2021-10-28T15:48:55.743Z,1000940.28,1635347803,full,ni_sequenzen,NI_Sequenzen,3,8,,,,,,,,,,,,
,Move,canvas.Screen,0_3_0_8_0_3,down,response,,1000939,1000938.58,1000940.28,1001420,479.71999999997206,1001437,2021-10-28T15:48:56.247Z,1001507.4,1635347803,full,ni_sequenzen,NI_Sequenzen,4,8,,,,,,,,,,,,
,Move,canvas.Screen,0_3_0_8_0_4,-999,skipped,,1001443,,,1001420,,1001444,2021-10-28T15:48:56.253Z,1001507.4,1635347803,full,ni_sequenzen,NI_Sequenzen,5,8,,,,,,,,,,,,
,Move,canvas.Screen,0_3_0_8_0_5,-999,skipped,,1001448,,,1001420,,1001448,2021-10-28T15:48:56.258Z,1001507.4,1635347803,full,ni_sequenzen,NI_Sequenzen,6,8,,,,,,,,,,,,
,Move,canvas.Screen,0_3_0_8_0_6,-999,skipped,,1001453,,,1001420,,1001453,2021-10-28T15:48:56.263Z,1001507.4,1635347803,full,ni_sequenzen,NI_Sequenzen,7,8,,,,,,,,,,,,
,Move,canvas.Screen,0_3_0_8_0_7,-999,skipped,,1001457,,,1001420,,1001458,2021-10-28T15:48:56.268Z,1001507.4,1635347803,full,ni_sequenzen,NI_Sequenzen,8,8,,,,,,,,,,,,
,Move,canvas.Screen,0_3_0_8_0_8,-999,skipped,,1001463,,,1001420,,1001463,2021-10-28T15:48:56.274Z,1001507.4,1635347803,full,ni_sequenzen,NI_Sequenzen,9,8,,,,,,,,,,,,
,Move,canvas.Screen,0_3_0_8_0_9,-999,skipped,,1001469,,,1001420,,1001469,2021-10-28T15:48:56.280Z,1001507.4,1635347803,full,ni_sequenzen,NI_Sequenzen,10,8,,,,,,,,,,,,
,Move,canvas.Screen,0_3_0_8_0_10,-999,skipped,,1001474,,,1001420,,1001474,2021-10-28T15:48:56.284Z,1001507.4,1635347803,full,ni_sequenzen,NI_Sequenzen,11,8,,,,,,,,,,,,
,Move,canvas.Screen,0_3_0_8_0_11,-999,skipped,,1001479,,,1001420,,1001479,2021-10-28T15:48:56.290Z,1001507.4,1635347803,full,ni_sequenzen,NI_Sequenzen,12,8,,,,,,,,,,,,
,Move,canvas.Screen,0_3_0_8_0_12,-999,skipped,,1001484,,,1001420,,1001484,2021-10-28T15:48:56.294Z,1001507.4,1635347803,full,ni_sequenzen,NI_Sequenzen,13,8,,,,,,,,,,,,
,Move,canvas.Screen,0_3_0_8_0_13,-999,skipped,,1001489,,,1001420,,1001489,2021-10-28T15:48:56.299Z,1001507.4,1635347803,full,ni_sequenzen,NI_Sequenzen,14,8,,,,,,,,,,,,
,Move,canvas.Screen,0_3_0_8_0_14,-999,skipped,,1001494,,,1001420,,1001494,2021-10-28T15:48:56.304Z,1001507.4,1635347803,full,ni_sequenzen,NI_Sequenzen,15,8,,,,,,,,,,,,
,Loop,flow.Loop,0_3_0_8_0,-999,completion,,1000100,1000106.3,1000122.98,1001420,1297.0200000000186,1001494,2021-10-28T15:48:56.304Z,1001507.4,1635347803,full,ni_sequenzen,NI_Sequenzen,,8,,,,,,,,,,,,
,Feedback,canvas.Screen,0_3_0_8_1,,timeout,,1001498,1001497.6,1001507.4,1005493.88,4004.79999999993,1005495,2021-10-28T15:49:00.305Z,1005512.2,1635347803,full,ni_sequenzen,NI_Sequenzen,,8,,,,,,,,,,,,
,Trial,flow.Sequence,0_3_0_8,,completion,,1000091,1000106.3,1000122.98,1005493.88,5370.900000000023,1005495,2021-10-28T15:49:00.305Z,1005527.24,1635347803,full,ni_sequenzen,NI_Sequenzen,,8,,,,,,,,,,,,
,Move,canvas.Screen,0_3_0_9_0_0,left,response,,1005512,1005512.2,1005527.24,1006170,642.7600000000093,1006173,2021-10-28T15:49:00.983Z,1006194.44,1635347803,full,ni_sequenzen,NI_Sequenzen,1,9,,,,,,,,,,,,
,Move,canvas.Screen,0_3_0_9_0_1,down,response,,1006179,1006179.48,1006194.44,1006513,318.5600000000559,1006516,2021-10-28T15:49:01.327Z,1006528.04,1635347803,full,ni_sequenzen,NI_Sequenzen,2,9,,,,,,,,,,,,
,Move,canvas.Screen,0_3_0_9_0_2,down,response,,1006522,1006521.64,1006528.04,1006966,437.95999999996275,1006972,2021-10-28T15:49:01.783Z,1006995.08,1635347803,full,ni_sequenzen,NI_Sequenzen,3,9,,,,,,,,,,,,
,Move,canvas.Screen,0_3_0_9_0_3,left,response,,1006979,1006979.42,1006995.08,1007326,330.9200000000419,1007333,2021-10-28T15:49:02.142Z,1007395.38,1635347803,full,ni_sequenzen,NI_Sequenzen,4,9,,,,,,,,,,,,
,Move,canvas.Screen,0_3_0_9_0_4,-999,skipped,,1007339,,,1007326,,1007339,2021-10-28T15:49:02.149Z,1007395.38,1635347803,full,ni_sequenzen,NI_Sequenzen,5,9,,,,,,,,,,,,
,Move,canvas.Screen,0_3_0_9_0_5,-999,skipped,,1007343,,,1007326,,1007344,2021-10-28T15:49:02.154Z,1007395.38,1635347803,full,ni_sequenzen,NI_Sequenzen,6,9,,,,,,,,,,,,
,Move,canvas.Screen,0_3_0_9_0_6,-999,skipped,,1007349,,,1007326,,1007350,2021-10-28T15:49:02.160Z,1007395.38,1635347803,full,ni_sequenzen,NI_Sequenzen,7,9,,,,,,,,,,,,
,Move,canvas.Screen,0_3_0_9_0_7,-999,skipped,,1007355,,,1007326,,1007355,2021-10-28T15:49:02.165Z,1007395.38,1635347803,full,ni_sequenzen,NI_Sequenzen,8,9,,,,,,,,,,,,
,Move,canvas.Screen,0_3_0_9_0_8,-999,skipped,,1007359,,,1007326,,1007359,2021-10-28T15:49:02.169Z,1007395.38,1635347803,full,ni_sequenzen,NI_Sequenzen,9,9,,,,,,,,,,,,
,Move,canvas.Screen,0_3_0_9_0_9,-999,skipped,,1007365,,,1007326,,1007365,2021-10-28T15:49:02.176Z,1007395.38,1635347803,full,ni_sequenzen,NI_Sequenzen,10,9,,,,,,,,,,,,
,Move,canvas.Screen,0_3_0_9_0_10,-999,skipped,,1007370,,,1007326,,1007370,2021-10-28T15:49:02.180Z,1007395.38,1635347803,full,ni_sequenzen,NI_Sequenzen,11,9,,,,,,,,,,,,
,Move,canvas.Screen,0_3_0_9_0_11,-999,skipped,,1007375,,,1007326,,1007375,2021-10-28T15:49:02.185Z,1007395.38,1635347803,full,ni_sequenzen,NI_Sequenzen,12,9,,,,,,,,,,,,
,Move,canvas.Screen,0_3_0_9_0_12,-999,skipped,,1007380,,,1007326,,1007381,2021-10-28T15:49:02.191Z,1007395.38,1635347803,full,ni_sequenzen,NI_Sequenzen,13,9,,,,,,,,,,,,
,Move,canvas.Screen,0_3_0_9_0_13,-999,skipped,,1007386,,,1007326,,1007386,2021-10-28T15:49:02.195Z,1007395.38,1635347803,full,ni_sequenzen,NI_Sequenzen,14,9,,,,,,,,,,,,
,Move,canvas.Screen,0_3_0_9_0_14,-999,skipped,,1007390,,,1007326,,1007390,2021-10-28T15:49:02.201Z,1007395.38,1635347803,full,ni_sequenzen,NI_Sequenzen,15,9,,,,,,,,,,,,
,Loop,flow.Loop,0_3_0_9_0,-999,completion,,1005504,1005512.2,1005527.24,1007326,1798.7600000000093,1007390,2021-10-28T15:49:02.201Z,1007395.38,1635347803,full,ni_sequenzen,NI_Sequenzen,,9,,,,,,,,,,,,
,Feedback,canvas.Screen,0_3_0_9_1,,timeout,,1007394,1007394.08,1007395.38,1011381.88,4085.7399999999907,1011384,2021-10-28T15:49:06.195Z,1011481.12,1635347803,full,ni_sequenzen,NI_Sequenzen,,9,,,,,,,,,,,,
,Trial,flow.Sequence,0_3_0_9,,completion,,1005495,1005512.2,1005527.24,1011381.88,5854.640000000014,1011385,2021-10-28T15:49:06.196Z,1011481.96,1635347803,full,ni_sequenzen,NI_Sequenzen,,9,,,,,,,,,,,,
,Block,flow.Loop,0_3_0,,completion,,939721,939749.32,939758.56,1011381.88,71623.31999999995,1011385,2021-10-28T15:49:06.196Z,1011481.96,1635347803,full,ni_sequenzen,NI_Sequenzen,,,,,,,,,,,,,,
,Training_II,flow.Sequence,0_3,,completion,,939696,939749.32,939758.56,1011381.88,71623.31999999995,1011386,2021-10-28T15:49:06.197Z,1011481.96,1635347803,full,ni_sequenzen,NI_Sequenzen,,,,,,,,,,,,,,
,Screen_1,canvas.Screen,0_4_0_0,cont,response,1,1011481,1011481.12,1011481.96,1020795,9313.040000000037,1020810,2021-10-28T15:49:15.622Z,1020822.68,1635347803,full,ni_sequenzen,NI_Sequenzen,,,,,,,,,,,,,,
,Screen_2,canvas.Screen,0_4_0_1,cont,response,1,1020815,1020814.84,1020822.68,1025013,4190.319999999949,1025018,2021-10-28T15:49:19.829Z,1025109.38,1635347803,full,ni_sequenzen,NI_Sequenzen,,,,,,,,,,,,,,
,Screen_3,canvas.Screen,0_4_0_2,cont,response,1,1025094,1025094.08,1025109.38,1126357,101247.62,1126361,2021-10-28T15:51:01.173Z,1126556.28,1635347803,full,ni_sequenzen,NI_Sequenzen,,,,,,,,,,,,,,
,Sequence,flow.Sequence,0_4_0,,completion,1,1011431,1011481.12,1011481.96,1126357,114875.04000000004,1126363,2021-10-28T15:51:01.173Z,1126556.28,1635347803,full,ni_sequenzen,NI_Sequenzen,,,,,,,,,,,,,,
,Screen_1,canvas.Screen,0_4_1_0,,skipped,2,1126367,,,1126367,,1126367,2021-10-28T15:51:01.177Z,1126556.28,1635347803,full,ni_sequenzen,NI_Sequenzen,,,,,,,,,,,,,,
,Screen_2,canvas.Screen,0_4_1_1,,skipped,2,1126369,,,1126367,,1126370,2021-10-28T15:51:01.179Z,1126556.28,1635347803,full,ni_sequenzen,NI_Sequenzen,,,,,,,,,,,,,,
,Screen_3,canvas.Screen,0_4_1_2,,skipped,2,1126371,,,1126367,,1126372,2021-10-28T15:51:01.182Z,1126556.28,1635347803,full,ni_sequenzen,NI_Sequenzen,,,,,,,,,,,,,,
,Sequence,flow.Sequence,0_4_1,,completion,2,1126364,,,1126367,,1126372,2021-10-28T15:51:01.182Z,1126556.28,1635347803,full,ni_sequenzen,NI_Sequenzen,,,,,,,,,,,,,,
,Screen_1,canvas.Screen,0_4_2_0,,skipped,3,1126375,,,1126375,,1126375,2021-10-28T15:51:01.185Z,1126556.28,1635347803,full,ni_sequenzen,NI_Sequenzen,,,,,,,,,,,,,,
,Screen_2,canvas.Screen,0_4_2_1,,skipped,3,1126376,,,1126375,,1126376,2021-10-28T15:51:01.186Z,1126556.28,1635347803,full,ni_sequenzen,NI_Sequenzen,,,,,,,,,,,,,,
,Screen_3,canvas.Screen,0_4_2_2,,skipped,3,1126378,,,1126375,,1126378,2021-10-28T15:51:01.188Z,1126556.28,1635347803,full,ni_sequenzen,NI_Sequenzen,,,,,,,,,,,,,,
,Sequence,flow.Sequence,0_4_2,,completion,3,1126372,,,1126375,,1126378,2021-10-28T15:51:01.188Z,1126556.28,1635347803,full,ni_sequenzen,NI_Sequenzen,,,,,,,,,,,,,,
,Screen_1,canvas.Screen,0_4_3_0,,skipped,4,1126380,,,1126380,,1126380,2021-10-28T15:51:01.191Z,1126556.28,1635347803,full,ni_sequenzen,NI_Sequenzen,,,,,,,,,,,,,,
,Screen_2,canvas.Screen,0_4_3_1,,skipped,4,1126382,,,1126380,,1126382,2021-10-28T15:51:01.193Z,1126556.28,1635347803,full,ni_sequenzen,NI_Sequenzen,,,,,,,,,,,,,,
,Screen_3,canvas.Screen,0_4_3_2,,skipped,4,1126385,,,1126380,,1126385,2021-10-28T15:51:01.195Z,1126556.28,1635347803,full,ni_sequenzen,NI_Sequenzen,,,,,,,,,,,,,,
,Sequence,flow.Sequence,0_4_3,,completion,4,1126379,,,1126380,,1126385,2021-10-28T15:51:01.195Z,1126556.28,1635347803,full,ni_sequenzen,NI_Sequenzen,,,,,,,,,,,,,,
,Screen_1,canvas.Screen,0_4_4_0,,skipped,5,1126387,,,1126387,,1126387,2021-10-28T15:51:01.198Z,1126556.28,1635347803,full,ni_sequenzen,NI_Sequenzen,,,,,,,,,,,,,,
,Screen_2,canvas.Screen,0_4_4_1,,skipped,5,1126389,,,1126387,,1126389,2021-10-28T15:51:01.199Z,1126556.28,1635347803,full,ni_sequenzen,NI_Sequenzen,,,,,,,,,,,,,,
,Screen_3,canvas.Screen,0_4_4_2,,skipped,5,1126391,,,1126387,,1126391,2021-10-28T15:51:01.201Z,1126556.28,1635347803,full,ni_sequenzen,NI_Sequenzen,,,,,,,,,,,,,,
,Sequence,flow.Sequence,0_4_4,,completion,5,1126386,,,1126387,,1126391,2021-10-28T15:51:01.201Z,1126556.28,1635347803,full,ni_sequenzen,NI_Sequenzen,,,,,,,,,,,,,,
,Screen_1,canvas.Screen,0_4_5_0,,skipped,6,1126394,,,1126394,,1126394,2021-10-28T15:51:01.204Z,1126556.28,1635347803,full,ni_sequenzen,NI_Sequenzen,,,,,,,,,,,,,,
,Screen_2,canvas.Screen,0_4_5_1,,skipped,6,1126395,,,1126394,,1126395,2021-10-28T15:51:01.205Z,1126556.28,1635347803,full,ni_sequenzen,NI_Sequenzen,,,,,,,,,,,,,,
,Screen_3,canvas.Screen,0_4_5_2,,skipped,6,1126397,,,1126394,,1126397,2021-10-28T15:51:01.207Z,1126556.28,1635347803,full,ni_sequenzen,NI_Sequenzen,,,,,,,,,,,,,,
,Sequence,flow.Sequence,0_4_5,,completion,6,1126391,,,1126394,,1126397,2021-10-28T15:51:01.207Z,1126556.28,1635347803,full,ni_sequenzen,NI_Sequenzen,,,,,,,,,,,,,,
,Screen_1,canvas.Screen,0_4_6_0,,skipped,7,1126398,,,1126398,,1126398,2021-10-28T15:51:01.208Z,1126556.28,1635347803,full,ni_sequenzen,NI_Sequenzen,,,,,,,,,,,,,,
,Screen_2,canvas.Screen,0_4_6_1,,skipped,7,1126400,,,1126398,,1126400,2021-10-28T15:51:01.210Z,1126556.28,1635347803,full,ni_sequenzen,NI_Sequenzen,,,,,,,,,,,,,,
,Screen_3,canvas.Screen,0_4_6_2,,skipped,7,1126402,,,1126398,,1126402,2021-10-28T15:51:01.212Z,1126556.28,1635347803,full,ni_sequenzen,NI_Sequenzen,,,,,,,,,,,,,,
,Sequence,flow.Sequence,0_4_6,,completion,7,1126397,,,1126398,,1126402,2021-10-28T15:51:01.212Z,1126556.28,1635347803,full,ni_sequenzen,NI_Sequenzen,,,,,,,,,,,,,,
,Screen_1,canvas.Screen,0_4_7_0,,skipped,8,1126404,,,1126404,,1126404,2021-10-28T15:51:01.214Z,1126556.28,1635347803,full,ni_sequenzen,NI_Sequenzen,,,,,,,,,,,,,,
,Screen_2,canvas.Screen,0_4_7_1,,skipped,8,1126405,,,1126404,,1126405,2021-10-28T15:51:01.215Z,1126556.28,1635347803,full,ni_sequenzen,NI_Sequenzen,,,,,,,,,,,,,,
,Screen_3,canvas.Screen,0_4_7_2,,skipped,8,1126407,,,1126404,,1126407,2021-10-28T15:51:01.217Z,1126556.28,1635347803,full,ni_sequenzen,NI_Sequenzen,,,,,,,,,,,,,,
,Sequence,flow.Sequence,0_4_7,,completion,8,1126403,,,1126404,,1126407,2021-10-28T15:51:01.218Z,1126556.28,1635347803,full,ni_sequenzen,NI_Sequenzen,,,,,,,,,,,,,,
,Screen_1,canvas.Screen,0_4_8_0,,skipped,9,1126410,,,1126410,,1126410,2021-10-28T15:51:01.220Z,1126556.28,1635347803,full,ni_sequenzen,NI_Sequenzen,,,,,,,,,,,,,,
,Screen_2,canvas.Screen,0_4_8_1,,skipped,9,1126411,,,1126410,,1126411,2021-10-28T15:51:01.222Z,1126556.28,1635347803,full,ni_sequenzen,NI_Sequenzen,,,,,,,,,,,,,,
,Screen_3,canvas.Screen,0_4_8_2,,skipped,9,1126412,,,1126410,,1126413,2021-10-28T15:51:01.223Z,1126556.28,1635347803,full,ni_sequenzen,NI_Sequenzen,,,,,,,,,,,,,,
,Sequence,flow.Sequence,0_4_8,,completion,9,1126408,,,1126410,,1126413,2021-10-28T15:51:01.223Z,1126556.28,1635347803,full,ni_sequenzen,NI_Sequenzen,,,,,,,,,,,,,,
,Screen_1,canvas.Screen,0_4_9_0,,skipped,10,1126414,,,1126414,,1126414,2021-10-28T15:51:01.225Z,1126556.28,1635347803,full,ni_sequenzen,NI_Sequenzen,,,,,,,,,,,,,,
,Screen_2,canvas.Screen,0_4_9_1,,skipped,10,1126415,,,1126414,,1126415,2021-10-28T15:51:01.226Z,1126556.28,1635347803,full,ni_sequenzen,NI_Sequenzen,,,,,,,,,,,,,,
,Screen_3,canvas.Screen,0_4_9_2,,skipped,10,1126418,,,1126414,,1126418,2021-10-28T15:51:01.228Z,1126556.28,1635347803,full,ni_sequenzen,NI_Sequenzen,,,,,,,,,,,,,,
,Sequence,flow.Sequence,0_4_9,,completion,10,1126413,,,1126414,,1126418,2021-10-28T15:51:01.228Z,1126556.28,1635347803,full,ni_sequenzen,NI_Sequenzen,,,,,,,,,,,,,,
,Screen_1,canvas.Screen,0_4_10_0,,skipped,11,1126420,,,1126420,,1126420,2021-10-28T15:51:01.230Z,1126556.28,1635347803,full,ni_sequenzen,NI_Sequenzen,,,,,,,,,,,,,,
,Screen_2,canvas.Screen,0_4_10_1,,skipped,11,1126422,,,1126420,,1126422,2021-10-28T15:51:01.232Z,1126556.28,1635347803,full,ni_sequenzen,NI_Sequenzen,,,,,,,,,,,,,,
,Screen_3,canvas.Screen,0_4_10_2,,skipped,11,1126423,,,1126420,,1126423,2021-10-28T15:51:01.234Z,1126556.28,1635347803,full,ni_sequenzen,NI_Sequenzen,,,,,,,,,,,,,,
,Sequence,flow.Sequence,0_4_10,,completion,11,1126419,,,1126420,,1126425,2021-10-28T15:51:01.235Z,1126556.28,1635347803,full,ni_sequenzen,NI_Sequenzen,,,,,,,,,,,,,,
,Screen_1,canvas.Screen,0_4_11_0,,skipped,12,1126427,,,1126427,,1126427,2021-10-28T15:51:01.237Z,1126556.28,1635347803,full,ni_sequenzen,NI_Sequenzen,,,,,,,,,,,,,,
,Screen_2,canvas.Screen,0_4_11_1,,skipped,12,1126428,,,1126427,,1126428,2021-10-28T15:51:01.239Z,1126556.28,1635347803,full,ni_sequenzen,NI_Sequenzen,,,,,,,,,,,,,,
,Screen_3,canvas.Screen,0_4_11_2,,skipped,12,1126429,,,1126427,,1126429,2021-10-28T15:51:01.240Z,1126556.28,1635347803,full,ni_sequenzen,NI_Sequenzen,,,,,,,,,,,,,,
,Sequence,flow.Sequence,0_4_11,,completion,12,1126425,,,1126427,,1126429,2021-10-28T15:51:01.240Z,1126556.28,1635347803,full,ni_sequenzen,NI_Sequenzen,,,,,,,,,,,,,,
,Screen_1,canvas.Screen,0_4_12_0,,skipped,13,1126431,,,1126431,,1126431,2021-10-28T15:51:01.241Z,1126556.28,1635347803,full,ni_sequenzen,NI_Sequenzen,,,,,,,,,,,,,,
,Screen_2,canvas.Screen,0_4_12_1,,skipped,13,1126432,,,1126431,,1126432,2021-10-28T15:51:01.242Z,1126556.28,1635347803,full,ni_sequenzen,NI_Sequenzen,,,,,,,,,,,,,,
,Screen_3,canvas.Screen,0_4_12_2,,skipped,13,1126434,,,1126431,,1126434,2021-10-28T15:51:01.244Z,1126556.28,1635347803,full,ni_sequenzen,NI_Sequenzen,,,,,,,,,,,,,,
,Sequence,flow.Sequence,0_4_12,,completion,13,1126430,,,1126431,,1126434,2021-10-28T15:51:01.244Z,1126556.28,1635347803,full,ni_sequenzen,NI_Sequenzen,,,,,,,,,,,,,,
,Screen_1,canvas.Screen,0_4_13_0,,skipped,14,1126436,,,1126436,,1126436,2021-10-28T15:51:01.247Z,1126556.28,1635347803,full,ni_sequenzen,NI_Sequenzen,,,,,,,,,,,,,,
,Screen_2,canvas.Screen,0_4_13_1,,skipped,14,1126438,,,1126436,,1126438,2021-10-28T15:51:01.248Z,1126556.28,1635347803,full,ni_sequenzen,NI_Sequenzen,,,,,,,,,,,,,,
,Screen_3,canvas.Screen,0_4_13_2,,skipped,14,1126439,,,1126436,,1126439,2021-10-28T15:51:01.250Z,1126556.28,1635347803,full,ni_sequenzen,NI_Sequenzen,,,,,,,,,,,,,,
,Sequence,flow.Sequence,0_4_13,,completion,14,1126435,,,1126436,,1126439,2021-10-28T15:51:01.250Z,1126556.28,1635347803,full,ni_sequenzen,NI_Sequenzen,,,,,,,,,,,,,,
,Screen_1,canvas.Screen,0_4_14_0,,skipped,15,1126442,,,1126442,,1126442,2021-10-28T15:51:01.252Z,1126556.28,1635347803,full,ni_sequenzen,NI_Sequenzen,,,,,,,,,,,,,,
,Screen_2,canvas.Screen,0_4_14_1,,skipped,15,1126443,,,1126442,,1126443,2021-10-28T15:51:01.252Z,1126556.28,1635347803,full,ni_sequenzen,NI_Sequenzen,,,,,,,,,,,,,,
,Screen_3,canvas.Screen,0_4_14_2,,skipped,15,1126443,,,1126442,,1126443,2021-10-28T15:51:01.254Z,1126556.28,1635347803,full,ni_sequenzen,NI_Sequenzen,,,,,,,,,,,,,,
,Sequence,flow.Sequence,0_4_14,,completion,15,1126441,,,1126442,,1126444,2021-10-28T15:51:01.254Z,1126556.28,1635347803,full,ni_sequenzen,NI_Sequenzen,,,,,,,,,,,,,,
,Screen_1,canvas.Screen,0_4_15_0,,skipped,16,1126446,,,1126446,,1126446,2021-10-28T15:51:01.257Z,1126556.28,1635347803,full,ni_sequenzen,NI_Sequenzen,,,,,,,,,,,,,,
