meta,sender,sender_type,sender_id,response,ended_on,instrCount,time_run,time_render,time_show,time_end,duration,time_commit,timestamp,time_switch,openLabId,type,task,project,move,trialN,blockN_Train,blockN,moveCount,currPP,points,movesTrial,visitedFields,diff,reward,Strategie,Zweck,Probleme
[object Object],Screen_1,canvas.Screen,0_0_0_0,cont,response,1,338.89999997615814,338.229,354.942,7156.299999952316,6801.357999952316,7162,2021-10-26T06:04:44.813Z,7188.374,1635189974,full,ni_sequenzen,NI_Sequenzen,,,,,,,,,,,,,,
,Screen_2,canvas.Screen,0_0_0_1,cont,response,1,7174.199999928474,7171.659,7188.374,9811.5,2623.126,9812.199999928474,2021-10-26T06:04:47.463Z,9838.416,1635189974,full,ni_sequenzen,NI_Sequenzen,,,,,,,,,,,,,,
,Screen_3,canvas.Screen,0_0_0_2,cont,response,1,9827.5,9821.714,9838.416,10644.699999928474,806.2839999284752,10645.699999928474,2021-10-26T06:04:48.296Z,10655.081,1635189974,full,ni_sequenzen,NI_Sequenzen,,,,,,,,,,,,,,
,Screen_4,canvas.Screen,0_0_0_3,cont,response,1,10650,10638.532,10655.081,11207.199999928474,552.1189999284743,11208.399999976158,2021-10-26T06:04:48.859Z,11288.621,1635189974,full,ni_sequenzen,NI_Sequenzen,,,,,,,,,,,,,,
,Sequence,flow.Sequence,0_0_0,,completion,1,324.1999999284744,338.229,354.942,11207.199999928474,10852.257999928475,11209.399999976158,2021-10-26T06:04:48.860Z,11288.621,1635189974,full,ni_sequenzen,NI_Sequenzen,,,,,,,,,,,,,,
,Screen_1,canvas.Screen,0_0_1_0,,skipped,2,11213.100000023842,,,11213.100000023842,,11213.199999928474,2021-10-26T06:04:48.864Z,11288.621,1635189974,full,ni_sequenzen,NI_Sequenzen,,,,,,,,,,,,,,
,Screen_2,canvas.Screen,0_0_1_1,,skipped,2,11213.799999952316,,,11213.100000023842,,11213.899999976158,2021-10-26T06:04:48.864Z,11288.621,1635189974,full,ni_sequenzen,NI_Sequenzen,,,,,,,,,,,,,,
,Screen_3,canvas.Screen,0_0_1_2,,skipped,2,11214.600000023842,,,11213.100000023842,,11214.699999928474,2021-10-26T06:04:48.865Z,11288.621,1635189974,full,ni_sequenzen,NI_Sequenzen,,,,,,,,,,,,,,
,Screen_4,canvas.Screen,0_0_1_3,,skipped,2,11215.399999976158,,,11213.100000023842,,11215.399999976158,2021-10-26T06:04:48.866Z,11288.621,1635189974,full,ni_sequenzen,NI_Sequenzen,,,,,,,,,,,,,,
,Sequence,flow.Sequence,0_0_1,,completion,2,11210.899999976158,,,11213.100000023842,,11215.600000023842,2021-10-26T06:04:48.866Z,11288.621,1635189974,full,ni_sequenzen,NI_Sequenzen,,,,,,,,,,,,,,
,Screen_1,canvas.Screen,0_0_2_0,,skipped,3,11216.199999928474,,,11216.199999928474,,11216.299999952316,2021-10-26T06:04:48.867Z,11288.621,1635189974,full,ni_sequenzen,NI_Sequenzen,,,,,,,,,,,,,,
,Screen_2,canvas.Screen,0_0_2_1,,skipped,3,11216.799999952316,,,11216.199999928474,,11216.799999952316,2021-10-26T06:04:48.867Z,11288.621,1635189974,full,ni_sequenzen,NI_Sequenzen,,,,,,,,,,,,,,
,Screen_3,canvas.Screen,0_0_2_2,,skipped,3,11217.5,,,11216.199999928474,,11217.5,2021-10-26T06:04:48.868Z,11288.621,1635189974,full,ni_sequenzen,NI_Sequenzen,,,,,,,,,,,,,,
,Screen_4,canvas.Screen,0_0_2_3,,skipped,3,11218,,,11216.199999928474,,11218,2021-10-26T06:04:48.869Z,11288.621,1635189974,full,ni_sequenzen,NI_Sequenzen,,,,,,,,,,,,,,
,Sequence,flow.Sequence,0_0_2,,completion,3,11215.899999976158,,,11216.199999928474,,11218.100000023842,2021-10-26T06:04:48.869Z,11288.621,1635189974,full,ni_sequenzen,NI_Sequenzen,,,,,,,,,,,,,,
,Screen_1,canvas.Screen,0_0_3_0,,skipped,4,11218.799999952316,,,11218.799999952316,,11218.899999976158,2021-10-26T06:04:48.869Z,11288.621,1635189974,full,ni_sequenzen,NI_Sequenzen,,,,,,,,,,,,,,
,Screen_2,canvas.Screen,0_0_3_1,,skipped,4,11219.299999952316,,,11218.799999952316,,11219.399999976158,2021-10-26T06:04:48.870Z,11288.621,1635189974,full,ni_sequenzen,NI_Sequenzen,,,,,,,,,,,,,,
,Screen_3,canvas.Screen,0_0_3_2,,skipped,4,11219.799999952316,,,11218.799999952316,,11219.899999976158,2021-10-26T06:04:48.870Z,11288.621,1635189974,full,ni_sequenzen,NI_Sequenzen,,,,,,,,,,,,,,
,Screen_4,canvas.Screen,0_0_3_3,,skipped,4,11220.5,,,11218.799999952316,,11220.5,2021-10-26T06:04:48.871Z,11288.621,1635189974,full,ni_sequenzen,NI_Sequenzen,,,,,,,,,,,,,,
,Sequence,flow.Sequence,0_0_3,,completion,4,11218.399999976158,,,11218.799999952316,,11220.5,2021-10-26T06:04:48.871Z,11288.621,1635189974,full,ni_sequenzen,NI_Sequenzen,,,,,,,,,,,,,,
,Screen_1,canvas.Screen,0_0_4_0,,skipped,5,11221.199999928474,,,11221.199999928474,,11221.199999928474,2021-10-26T06:04:48.872Z,11288.621,1635189974,full,ni_sequenzen,NI_Sequenzen,,,,,,,,,,,,,,
,Screen_2,canvas.Screen,0_0_4_1,,skipped,5,11221.699999928474,,,11221.199999928474,,11222.199999928474,2021-10-26T06:04:48.873Z,11288.621,1635189974,full,ni_sequenzen,NI_Sequenzen,,,,,,,,,,,,,,
,Screen_3,canvas.Screen,0_0_4_2,,skipped,5,11222.799999952316,,,11221.199999928474,,11222.799999952316,2021-10-26T06:04:48.873Z,11288.621,1635189974,full,ni_sequenzen,NI_Sequenzen,,,,,,,,,,,,,,
,Screen_4,canvas.Screen,0_0_4_3,,skipped,5,11223.299999952316,,,11221.199999928474,,11223.299999952316,2021-10-26T06:04:48.874Z,11288.621,1635189974,full,ni_sequenzen,NI_Sequenzen,,,,,,,,,,,,,,
,Sequence,flow.Sequence,0_0_4,,completion,5,11220.799999952316,,,11221.199999928474,,11223.399999976158,2021-10-26T06:04:48.874Z,11288.621,1635189974,full,ni_sequenzen,NI_Sequenzen,,,,,,,,,,,,,,
,Screen_1,canvas.Screen,0_0_5_0,,skipped,6,11224.100000023842,,,11224.100000023842,,11224.199999928474,2021-10-26T06:04:48.875Z,11288.621,1635189974,full,ni_sequenzen,NI_Sequenzen,,,,,,,,,,,,,,
,Screen_2,canvas.Screen,0_0_5_1,,skipped,6,11224.5,,,11224.100000023842,,11224.600000023842,2021-10-26T06:04:48.875Z,11288.621,1635189974,full,ni_sequenzen,NI_Sequenzen,,,,,,,,,,,,,,
,Screen_3,canvas.Screen,0_0_5_2,,skipped,6,11225.100000023842,,,11224.100000023842,,11225.199999928474,2021-10-26T06:04:48.876Z,11288.621,1635189974,full,ni_sequenzen,NI_Sequenzen,,,,,,,,,,,,,,
,Screen_4,canvas.Screen,0_0_5_3,,skipped,6,11225.699999928474,,,11224.100000023842,,11225.699999928474,2021-10-26T06:04:48.876Z,11288.621,1635189974,full,ni_sequenzen,NI_Sequenzen,,,,,,,,,,,,,,
,Sequence,flow.Sequence,0_0_5,,completion,6,11223.5,,,11224.100000023842,,11225.799999952316,2021-10-26T06:04:48.876Z,11288.621,1635189974,full,ni_sequenzen,NI_Sequenzen,,,,,,,,,,,,,,
,Screen_1,canvas.Screen,0_0_6_0,,skipped,7,11226.399999976158,,,11226.399999976158,,11226.399999976158,2021-10-26T06:04:48.877Z,11288.621,1635189974,full,ni_sequenzen,NI_Sequenzen,,,,,,,,,,,,,,
,Screen_2,canvas.Screen,0_0_6_1,,skipped,7,11226.899999976158,,,11226.399999976158,,11227,2021-10-26T06:04:48.877Z,11288.621,1635189974,full,ni_sequenzen,NI_Sequenzen,,,,,,,,,,,,,,
,Screen_3,canvas.Screen,0_0_6_2,,skipped,7,11227.399999976158,,,11226.399999976158,,11227.399999976158,2021-10-26T06:04:48.878Z,11288.621,1635189974,full,ni_sequenzen,NI_Sequenzen,,,,,,,,,,,,,,
,Screen_4,canvas.Screen,0_0_6_3,,skipped,7,11227.899999976158,,,11226.399999976158,,11227.899999976158,2021-10-26T06:04:48.878Z,11288.621,1635189974,full,ni_sequenzen,NI_Sequenzen,,,,,,,,,,,,,,
,Sequence,flow.Sequence,0_0_6,,completion,7,11225.899999976158,,,11226.399999976158,,11228,2021-10-26T06:04:48.878Z,11288.621,1635189974,full,ni_sequenzen,NI_Sequenzen,,,,,,,,,,,,,,
,Screen_1,canvas.Screen,0_0_7_0,,skipped,8,11228.699999928474,,,11228.699999928474,,11228.699999928474,2021-10-26T06:04:48.879Z,11288.621,1635189974,full,ni_sequenzen,NI_Sequenzen,,,,,,,,,,,,,,
,Screen_2,canvas.Screen,0_0_7_1,,skipped,8,11229.199999928474,,,11228.699999928474,,11229.299999952316,2021-10-26T06:04:48.880Z,11288.621,1635189974,full,ni_sequenzen,NI_Sequenzen,,,,,,,,,,,,,,
,Screen_3,canvas.Screen,0_0_7_2,,skipped,8,11230.299999952316,,,11228.699999928474,,11230.399999976158,2021-10-26T06:04:48.881Z,11288.621,1635189974,full,ni_sequenzen,NI_Sequenzen,,,,,,,,,,,,,,
,Screen_4,canvas.Screen,0_0_7_3,,skipped,8,11231,,,11228.699999928474,,11231,2021-10-26T06:04:48.881Z,11288.621,1635189974,full,ni_sequenzen,NI_Sequenzen,,,,,,,,,,,,,,
,Sequence,flow.Sequence,0_0_7,,completion,8,11228.199999928474,,,11228.699999928474,,11231,2021-10-26T06:04:48.881Z,11288.621,1635189974,full,ni_sequenzen,NI_Sequenzen,,,,,,,,,,,,,,
,Screen_1,canvas.Screen,0_0_8_0,,skipped,9,11231.699999928474,,,11231.699999928474,,11231.799999952316,2021-10-26T06:04:48.882Z,11288.621,1635189974,full,ni_sequenzen,NI_Sequenzen,,,,,,,,,,,,,,
,Screen_2,canvas.Screen,0_0_8_1,,skipped,9,11232.199999928474,,,11231.699999928474,,11232.199999928474,2021-10-26T06:04:48.883Z,11288.621,1635189974,full,ni_sequenzen,NI_Sequenzen,,,,,,,,,,,,,,
,Screen_3,canvas.Screen,0_0_8_2,,skipped,9,11232.799999952316,,,11231.699999928474,,11232.799999952316,2021-10-26T06:04:48.883Z,11288.621,1635189974,full,ni_sequenzen,NI_Sequenzen,,,,,,,,,,,,,,
,Screen_4,canvas.Screen,0_0_8_3,,skipped,9,11233.199999928474,,,11231.699999928474,,11233.199999928474,2021-10-26T06:04:48.884Z,11288.621,1635189974,full,ni_sequenzen,NI_Sequenzen,,,,,,,,,,,,,,
,Sequence,flow.Sequence,0_0_8,,completion,9,11231.299999952316,,,11231.699999928474,,11233.299999952316,2021-10-26T06:04:48.884Z,11288.621,1635189974,full,ni_sequenzen,NI_Sequenzen,,,,,,,,,,,,,,
,Screen_1,canvas.Screen,0_0_9_0,,skipped,10,11234.100000023842,,,11234.100000023842,,11234.100000023842,2021-10-26T06:04:48.885Z,11288.621,1635189974,full,ni_sequenzen,NI_Sequenzen,,,,,,,,,,,,,,
,Screen_2,canvas.Screen,0_0_9_1,,skipped,10,11234.600000023842,,,11234.100000023842,,11234.600000023842,2021-10-26T06:04:48.885Z,11288.621,1635189974,full,ni_sequenzen,NI_Sequenzen,,,,,,,,,,,,,,
,Screen_3,canvas.Screen,0_0_9_2,,skipped,10,11235.199999928474,,,11234.100000023842,,11235.199999928474,2021-10-26T06:04:48.886Z,11288.621,1635189974,full,ni_sequenzen,NI_Sequenzen,,,,,,,,,,,,,,
,Screen_4,canvas.Screen,0_0_9_3,,skipped,10,11235.699999928474,,,11234.100000023842,,11235.699999928474,2021-10-26T06:04:48.886Z,11288.621,1635189974,full,ni_sequenzen,NI_Sequenzen,,,,,,,,,,,,,,
,Sequence,flow.Sequence,0_0_9,,completion,10,11233.600000023842,,,11234.100000023842,,11235.799999952316,2021-10-26T06:04:48.886Z,11288.621,1635189974,full,ni_sequenzen,NI_Sequenzen,,,,,,,,,,,,,,
,Screen_1,canvas.Screen,0_0_10_0,,skipped,11,11236.5,,,11236.5,,11236.5,2021-10-26T06:04:48.887Z,11288.621,1635189974,full,ni_sequenzen,NI_Sequenzen,,,,,,,,,,,,,,
,Screen_2,canvas.Screen,0_0_10_1,,skipped,11,11237,,,11236.5,,11237,2021-10-26T06:04:48.887Z,11288.621,1635189974,full,ni_sequenzen,NI_Sequenzen,,,,,,,,,,,,,,
,Screen_3,canvas.Screen,0_0_10_2,,skipped,11,11237.5,,,11236.5,,11237.5,2021-10-26T06:04:48.888Z,11288.621,1635189974,full,ni_sequenzen,NI_Sequenzen,,,,,,,,,,,,,,
,Screen_4,canvas.Screen,0_0_10_3,,skipped,11,11237.899999976158,,,11236.5,,11238,2021-10-26T06:04:48.888Z,11288.621,1635189974,full,ni_sequenzen,NI_Sequenzen,,,,,,,,,,,,,,
,Sequence,flow.Sequence,0_0_10,,completion,11,11236,,,11236.5,,11238,2021-10-26T06:04:48.889Z,11288.621,1635189974,full,ni_sequenzen,NI_Sequenzen,,,,,,,,,,,,,,
,Screen_1,canvas.Screen,0_0_11_0,,skipped,12,11239.699999928474,,,11239.699999928474,,11240.199999928474,2021-10-26T06:04:48.891Z,11288.621,1635189974,full,ni_sequenzen,NI_Sequenzen,,,,,,,,,,,,,,
,Screen_2,canvas.Screen,0_0_11_1,,skipped,12,11240.899999976158,,,11239.699999928474,,11240.899999976158,2021-10-26T06:04:48.891Z,11288.621,1635189974,full,ni_sequenzen,NI_Sequenzen,,,,,,,,,,,,,,
,Screen_3,canvas.Screen,0_0_11_2,,skipped,12,11241.399999976158,,,11239.699999928474,,11241.399999976158,2021-10-26T06:04:48.892Z,11288.621,1635189974,full,ni_sequenzen,NI_Sequenzen,,,,,,,,,,,,,,
,Screen_4,canvas.Screen,0_0_11_3,,skipped,12,11241.899999976158,,,11239.699999928474,,11241.899999976158,2021-10-26T06:04:48.892Z,11288.621,1635189974,full,ni_sequenzen,NI_Sequenzen,,,,,,,,,,,,,,
,Sequence,flow.Sequence,0_0_11,,completion,12,11239.199999928474,,,11239.699999928474,,11242.100000023842,2021-10-26T06:04:48.892Z,11288.621,1635189974,full,ni_sequenzen,NI_Sequenzen,,,,,,,,,,,,,,
,Screen_1,canvas.Screen,0_0_12_0,,skipped,13,11242.600000023842,,,11242.600000023842,,11242.699999928474,2021-10-26T06:04:48.893Z,11288.621,1635189974,full,ni_sequenzen,NI_Sequenzen,,,,,,,,,,,,,,
,Screen_2,canvas.Screen,0_0_12_1,,skipped,13,11243.100000023842,,,11242.600000023842,,11243.199999928474,2021-10-26T06:04:48.894Z,11288.621,1635189974,full,ni_sequenzen,NI_Sequenzen,,,,,,,,,,,,,,
,Screen_3,canvas.Screen,0_0_12_2,,skipped,13,11243.600000023842,,,11242.600000023842,,11243.699999928474,2021-10-26T06:04:48.894Z,11288.621,1635189974,full,ni_sequenzen,NI_Sequenzen,,,,,,,,,,,,,,
,Screen_4,canvas.Screen,0_0_12_3,,skipped,13,11244.299999952316,,,11242.600000023842,,11244.299999952316,2021-10-26T06:04:48.895Z,11288.621,1635189974,full,ni_sequenzen,NI_Sequenzen,,,,,,,,,,,,,,
,Sequence,flow.Sequence,0_0_12,,completion,13,11242.299999952316,,,11242.600000023842,,11244.399999976158,2021-10-26T06:04:48.895Z,11288.621,1635189974,full,ni_sequenzen,NI_Sequenzen,,,,,,,,,,,,,,
,Screen_1,canvas.Screen,0_0_13_0,,skipped,14,11245.199999928474,,,11245.199999928474,,11245.199999928474,2021-10-26T06:04:48.896Z,11288.621,1635189974,full,ni_sequenzen,NI_Sequenzen,,,,,,,,,,,,,,
,Screen_2,canvas.Screen,0_0_13_1,,skipped,14,11245.600000023842,,,11245.199999928474,,11245.600000023842,2021-10-26T06:04:48.896Z,11288.621,1635189974,full,ni_sequenzen,NI_Sequenzen,,,,,,,,,,,,,,
,Screen_3,canvas.Screen,0_0_13_2,,skipped,14,11246.100000023842,,,11245.199999928474,,11246.199999928474,2021-10-26T06:04:48.897Z,11288.621,1635189974,full,ni_sequenzen,NI_Sequenzen,,,,,,,,,,,,,,
,Screen_4,canvas.Screen,0_0_13_3,,skipped,14,11246.600000023842,,,11245.199999928474,,11246.600000023842,2021-10-26T06:04:48.897Z,11288.621,1635189974,full,ni_sequenzen,NI_Sequenzen,,,,,,,,,,,,,,
,Sequence,flow.Sequence,0_0_13,,completion,14,11244.699999928474,,,11245.199999928474,,11246.799999952316,2021-10-26T06:04:48.897Z,11288.621,1635189974,full,ni_sequenzen,NI_Sequenzen,,,,,,,,,,,,,,
,Screen_1,canvas.Screen,0_0_14_0,,skipped,15,11247.899999976158,,,11247.899999976158,,11248,2021-10-26T06:04:48.898Z,11288.621,1635189974,full,ni_sequenzen,NI_Sequenzen,,,,,,,,,,,,,,
,Screen_2,canvas.Screen,0_0_14_1,,skipped,15,11248.399999976158,,,11247.899999976158,,11248.5,2021-10-26T06:04:48.899Z,11288.621,1635189974,full,ni_sequenzen,NI_Sequenzen,,,,,,,,,,,,,,
,Screen_3,canvas.Screen,0_0_14_2,,skipped,15,11248.899999976158,,,11247.899999976158,,11249,2021-10-26T06:04:48.899Z,11288.621,1635189974,full,ni_sequenzen,NI_Sequenzen,,,,,,,,,,,,,,
,Screen_4,canvas.Screen,0_0_14_3,,skipped,15,11249.5,,,11247.899999976158,,11249.5,2021-10-26T06:04:48.900Z,11288.621,1635189974,full,ni_sequenzen,NI_Sequenzen,,,,,,,,,,,,,,
,Sequence,flow.Sequence,0_0_14,,completion,15,11246.899999976158,,,11247.899999976158,,11249.600000023842,2021-10-26T06:04:48.900Z,11288.621,1635189974,full,ni_sequenzen,NI_Sequenzen,,,,,,,,,,,,,,
,Screen_1,canvas.Screen,0_0_15_0,,skipped,16,11250.199999928474,,,11250.199999928474,,11250.299999952316,2021-10-26T06:04:48.901Z,11288.621,1635189974,full,ni_sequenzen,NI_Sequenzen,,,,,,,,,,,,,,
,Screen_2,canvas.Screen,0_0_15_1,,skipped,16,11251.100000023842,,,11250.199999928474,,11251.100000023842,2021-10-26T06:04:48.902Z,11288.621,1635189974,full,ni_sequenzen,NI_Sequenzen,,,,,,,,,,,,,,
,Screen_3,canvas.Screen,0_0_15_2,,skipped,16,11252.199999928474,,,11250.199999928474,,11252.199999928474,2021-10-26T06:04:48.903Z,11288.621,1635189974,full,ni_sequenzen,NI_Sequenzen,,,,,,,,,,,,,,
,Screen_4,canvas.Screen,0_0_15_3,,skipped,16,11252.899999976158,,,11250.199999928474,,11253,2021-10-26T06:04:48.903Z,11288.621,1635189974,full,ni_sequenzen,NI_Sequenzen,,,,,,,,,,,,,,
,Sequence,flow.Sequence,0_0_15,,completion,16,11249.799999952316,,,11250.199999928474,,11253.100000023842,2021-10-26T06:04:48.903Z,11288.621,1635189974,full,ni_sequenzen,NI_Sequenzen,,,,,,,,,,,,,,
,Screen_1,canvas.Screen,0_0_16_0,,skipped,17,11253.699999928474,,,11253.699999928474,,11253.799999952316,2021-10-26T06:04:48.904Z,11288.621,1635189974,full,ni_sequenzen,NI_Sequenzen,,,,,,,,,,,,,,
,Screen_2,canvas.Screen,0_0_16_1,,skipped,17,11254.199999928474,,,11253.699999928474,,11254.199999928474,2021-10-26T06:04:48.905Z,11288.621,1635189974,full,ni_sequenzen,NI_Sequenzen,,,,,,,,,,,,,,
,Screen_3,canvas.Screen,0_0_16_2,,skipped,17,11254.699999928474,,,11253.699999928474,,11254.699999928474,2021-10-26T06:04:48.905Z,11288.621,1635189974,full,ni_sequenzen,NI_Sequenzen,,,,,,,,,,,,,,
,Screen_4,canvas.Screen,0_0_16_3,,skipped,17,11255.199999928474,,,11253.699999928474,,11255.199999928474,2021-10-26T06:04:48.906Z,11288.621,1635189974,full,ni_sequenzen,NI_Sequenzen,,,,,,,,,,,,,,
,Sequence,flow.Sequence,0_0_16,,completion,17,11253.299999952316,,,11253.699999928474,,11255.299999952316,2021-10-26T06:04:48.906Z,11288.621,1635189974,full,ni_sequenzen,NI_Sequenzen,,,,,,,,,,,,,,
,Screen_1,canvas.Screen,0_0_17_0,,skipped,18,11255.899999976158,,,11255.899999976158,,11255.899999976158,2021-10-26T06:04:48.906Z,11288.621,1635189974,full,ni_sequenzen,NI_Sequenzen,,,,,,,,,,,,,,
,Screen_2,canvas.Screen,0_0_17_1,,skipped,18,11256.299999952316,,,11255.899999976158,,11256.399999976158,2021-10-26T06:04:48.907Z,11288.621,1635189974,full,ni_sequenzen,NI_Sequenzen,,,,,,,,,,,,,,
,Screen_3,canvas.Screen,0_0_17_2,,skipped,18,11256.899999976158,,,11255.899999976158,,11257.5,2021-10-26T06:04:48.908Z,11288.621,1635189974,full,ni_sequenzen,NI_Sequenzen,,,,,,,,,,,,,,
,Screen_4,canvas.Screen,0_0_17_3,,skipped,18,11258.100000023842,,,11255.899999976158,,11258.199999928474,2021-10-26T06:04:48.909Z,11288.621,1635189974,full,ni_sequenzen,NI_Sequenzen,,,,,,,,,,,,,,
,Sequence,flow.Sequence,0_0_17,,completion,18,11255.5,,,11255.899999976158,,11258.299999952316,2021-10-26T06:04:48.909Z,11288.621,1635189974,full,ni_sequenzen,NI_Sequenzen,,,,,,,,,,,,,,
,Screen_1,canvas.Screen,0_0_18_0,,skipped,19,11259,,,11259,,11259,2021-10-26T06:04:48.909Z,11288.621,1635189974,full,ni_sequenzen,NI_Sequenzen,,,,,,,,,,,,,,
,Screen_2,canvas.Screen,0_0_18_1,,skipped,19,11259.399999976158,,,11259,,11259.399999976158,2021-10-26T06:04:48.910Z,11288.621,1635189974,full,ni_sequenzen,NI_Sequenzen,,,,,,,,,,,,,,
,Screen_3,canvas.Screen,0_0_18_2,,skipped,19,11259.899999976158,,,11259,,11260,2021-10-26T06:04:48.910Z,11288.621,1635189974,full,ni_sequenzen,NI_Sequenzen,,,,,,,,,,,,,,
,Screen_4,canvas.Screen,0_0_18_3,,skipped,19,11260.5,,,11259,,11260.600000023842,2021-10-26T06:04:48.911Z,11288.621,1635189974,full,ni_sequenzen,NI_Sequenzen,,,,,,,,,,,,,,
,Sequence,flow.Sequence,0_0_18,,completion,19,11258.5,,,11259,,11260.600000023842,2021-10-26T06:04:48.911Z,11288.621,1635189974,full,ni_sequenzen,NI_Sequenzen,,,,,,,,,,,,,,
,Screen_1,canvas.Screen,0_0_19_0,,skipped,20,11261.399999976158,,,11261.399999976158,,11261.399999976158,2021-10-26T06:04:48.912Z,11288.621,1635189974,full,ni_sequenzen,NI_Sequenzen,,,,,,,,,,,,,,
,Screen_2,canvas.Screen,0_0_19_1,,skipped,20,11261.699999928474,,,11261.399999976158,,11261.799999952316,2021-10-26T06:04:48.912Z,11288.621,1635189974,full,ni_sequenzen,NI_Sequenzen,,,,,,,,,,,,,,
,Screen_3,canvas.Screen,0_0_19_2,,skipped,20,11262.199999928474,,,11261.399999976158,,11262.199999928474,2021-10-26T06:04:48.913Z,11288.621,1635189974,full,ni_sequenzen,NI_Sequenzen,,,,,,,,,,,,,,
,Screen_4,canvas.Screen,0_0_19_3,,skipped,20,11262.600000023842,,,11261.399999976158,,11262.799999952316,2021-10-26T06:04:48.913Z,11288.621,1635189974,full,ni_sequenzen,NI_Sequenzen,,,,,,,,,,,,,,
,Sequence,flow.Sequence,0_0_19,,completion,20,11260.899999976158,,,11261.399999976158,,11262.799999952316,2021-10-26T06:04:48.913Z,11288.621,1635189974,full,ni_sequenzen,NI_Sequenzen,,,,,,,,,,,,,,
,Instructions_I,flow.Loop,0_0,,completion,,323.60000002384186,338.229,354.942,11261.399999976158,10906.457999976159,11262.899999976158,2021-10-26T06:04:48.913Z,11288.621,1635189974,full,ni_sequenzen,NI_Sequenzen,,,,,,,,,,,,,,
,Move,canvas.Screen,0_1_0_0,right,response,,11271.799999952316,11271.922,11288.621,13124.799999952316,1836.178999952317,13126,2021-10-26T06:04:50.777Z,13138.531,1635189974,full,ni_sequenzen,NI_Sequenzen,1,,,,,,,,,,,,,
,Move,canvas.Screen,0_1_0_1,right,response,,13130.899999976158,13121.663,13138.531,13290.100000023842,151.569000023841,13291.100000023842,2021-10-26T06:04:50.942Z,13305.09,1635189974,full,ni_sequenzen,NI_Sequenzen,2,,,,,,,,,,,,,
,Move,canvas.Screen,0_1_0_2,down,response,,13297.399999976158,13288.66,13305.09,13460.699999928474,155.60999992847428,13461.600000023842,2021-10-26T06:04:51.112Z,13471.898,1635189974,full,ni_sequenzen,NI_Sequenzen,3,,,,,,,,,,,,,
,Move,canvas.Screen,0_1_0_3,left,response,,13465.5,13455.289,13471.898,13722,250.10200000000077,13723,2021-10-26T06:04:51.373Z,13738.631,1635189974,full,ni_sequenzen,NI_Sequenzen,4,,,,,,,,,,,,,
,Move,canvas.Screen,0_1_0_4,down,response,,13726.199999928474,13721.969,13738.631,13932.600000023842,193.96900002384245,13933.600000023842,2021-10-26T06:04:51.584Z,13971.992,1635189974,full,ni_sequenzen,NI_Sequenzen,5,,,,,,,,,,,,,
,Move,canvas.Screen,0_1_0_5,left,response,,13938.299999952316,13955.428,13971.992,14082.699999928474,110.70799992847424,14083.5,2021-10-26T06:04:51.734Z,14120.948,1635189974,full,ni_sequenzen,NI_Sequenzen,6,,,,,,,,,,,,,
,Move,canvas.Screen,0_1_0_6,down,response,,14087.199999928474,14072.052,14120.948,14218.199999928474,97.2519999284741,14218.699999928474,2021-10-26T06:04:51.869Z,14221.79,1635189974,full,ni_sequenzen,NI_Sequenzen,7,,,,,,,,,,,,,
,Move,canvas.Screen,0_1_0_7,left,response,,14220.199999928474,14205.311,14221.79,14429.399999976158,207.60999997615727,14430,2021-10-26T06:04:52.080Z,14438.46,1635189974,full,ni_sequenzen,NI_Sequenzen,8,,,,,,,,,,,,,
,Move,canvas.Screen,0_1_0_8,down,response,,14431.399999976158,14421.893,14438.46,14559.899999976158,121.43999997615902,14560.699999928474,2021-10-26T06:04:52.211Z,14571.871,1635189974,full,ni_sequenzen,NI_Sequenzen,9,,,,,,,,,,,,,
,Move,canvas.Screen,0_1_0_9,left,response,,14563.699999928474,14555.286,14571.871,14710.899999976158,139.02899997615896,14711.699999928474,2021-10-26T06:04:52.362Z,14721.816,1635189974,full,ni_sequenzen,NI_Sequenzen,10,,,,,,,,,,,,,
,Move,canvas.Screen,0_1_0_10,down,response,,14715.699999928474,14705.136,14721.816,14828.199999928474,106.38399992847371,14829.100000023842,2021-10-26T06:04:52.480Z,14838.544,1635189974,full,ni_sequenzen,NI_Sequenzen,11,,,,,,,,,,,,,
,Move,canvas.Screen,0_1_0_11,right,response,,14832.5,14821.993,14838.544,14997.299999952316,158.75599995231642,14998.199999928474,2021-10-26T06:04:52.649Z,15005.147,1635189974,full,ni_sequenzen,NI_Sequenzen,12,,,,,,,,,,,,,
,Move,canvas.Screen,0_1_0_12,down,response,,15001.899999976158,14988.564,15005.147,15254.100000023842,248.953000023841,15255,2021-10-26T06:04:52.905Z,15271.997,1635189974,full,ni_sequenzen,NI_Sequenzen,13,,,,,,,,,,,,,
,Move,canvas.Screen,0_1_0_13,left,response,,15259.100000023842,15255.33,15271.997,15367.799999952316,95.8029999523169,15368.699999928474,2021-10-26T06:04:53.019Z,15388.645,1635189974,full,ni_sequenzen,NI_Sequenzen,14,,,,,,,,,,,,,
,Move,canvas.Screen,0_1_0_14,left,response,,15371.799999952316,15372,15388.645,15553.600000023842,164.95500002384142,15554.100000023842,2021-10-26T06:04:53.205Z,15572.018,1635189974,full,ni_sequenzen,NI_Sequenzen,15,,,,,,,,,,,,,
,Move,canvas.Screen,0_1_0_15,down,response,,15555.799999952316,15555.309,15572.018,15664.100000023842,92.08200002384183,15664.899999976158,2021-10-26T06:04:53.315Z,15671.823,1635189974,full,ni_sequenzen,NI_Sequenzen,16,,,,,,,,,,,,,
,Move,canvas.Screen,0_1_0_16,left,response,,15667.799999952316,15655.342,15671.823,15827.699999928474,155.8769999284741,15828.299999952316,2021-10-26T06:04:53.479Z,15838.481,1635189974,full,ni_sequenzen,NI_Sequenzen,17,,,,,,,,,,,,,
,Move,canvas.Screen,0_1_0_17,down,response,,15829.399999976158,15821.828,15838.481,16522.600000023842,684.1190000238421,16523.5,2021-10-26T06:04:54.174Z,16538.547,1635189974,full,ni_sequenzen,NI_Sequenzen,18,,,,,,,,,,,,,
,Move,canvas.Screen,0_1_0_18,down,response,,16527.699999928474,16521.782,16538.547,16880,341.45300000000134,16880.799999952316,2021-10-26T06:04:54.531Z,16888.519,1635189974,full,ni_sequenzen,NI_Sequenzen,19,,,,,,,,,,,,,
,Move,canvas.Screen,0_1_0_19,down,response,,16884.399999976158,16871.959,16888.519,17094.899999976158,206.3809999761579,17095.699999928474,2021-10-26T06:04:54.746Z,17105.206,1635189974,full,ni_sequenzen,NI_Sequenzen,20,,,,,,,,,,,,,
,Move,canvas.Screen,0_1_0_20,right,response,,17099.299999952316,17088.697,17105.206,17688.100000023842,582.8940000238435,17689.100000023842,2021-10-26T06:04:55.340Z,17705.378,1635189974,full,ni_sequenzen,NI_Sequenzen,21,,,,,,,,,,,,,
,Move,canvas.Screen,0_1_0_21,right,response,,17693.199999928474,17688.691,17705.378,17858.299999952316,152.92199995231567,17858.899999976158,2021-10-26T06:04:55.509Z,17871.972,1635189974,full,ni_sequenzen,NI_Sequenzen,22,,,,,,,,,,,,,
,Move,canvas.Screen,0_1_0_22,right,response,,17860.699999928474,17855.404,17871.972,18018.600000023842,146.6280000238403,18019.5,2021-10-26T06:04:55.670Z,18038.878,1635189974,full,ni_sequenzen,NI_Sequenzen,23,,,,,,,,,,,,,
,Move,canvas.Screen,0_1_0_23,right,response,,18023.100000023842,18022.018,18038.878,18174.299999952316,135.42199995231567,18175.199999928474,2021-10-26T06:04:55.826Z,18188.72,1635189974,full,ni_sequenzen,NI_Sequenzen,24,,,,,,,,,,,,,
,Move,canvas.Screen,0_1_0_24,down,response,,18178.5,18171.9,18188.72,18490.100000023842,301.3800000238407,18491,2021-10-26T06:04:56.141Z,18505.368,1635189974,full,ni_sequenzen,NI_Sequenzen,25,,,,,,,,,,,,,
,Move,canvas.Screen,0_1_0_25,down,response,,18494.399999976158,18488.704,18505.368,18636,130.63200000000143,18636.899999976158,2021-10-26T06:04:56.287Z,18655.349,1635189974,full,ni_sequenzen,NI_Sequenzen,26,,,,,,,,,,,,,
,Move,canvas.Screen,0_1_0_26,down,response,,18641.199999928474,18638.699,18655.349,18772,116.65100000000166,18772.899999976158,2021-10-26T06:04:56.423Z,18788.648,1635189974,full,ni_sequenzen,NI_Sequenzen,27,,,,,,,,,,,,,
,Move,canvas.Screen,0_1_0_27,down,response,,18776.600000023842,18772.066,18788.648,18938.399999976158,149.7519999761571,18939.199999928474,2021-10-26T06:04:56.590Z,18955.206,1635189974,full,ni_sequenzen,NI_Sequenzen,28,,,,,,,,,,,,,
,Move,canvas.Screen,0_1_0_28,left,response,,18943.100000023842,18938.703,18955.206,19208.399999976158,253.19399997615983,19209.399999976158,2021-10-26T06:04:56.860Z,19222.044,1635189974,full,ni_sequenzen,NI_Sequenzen,29,,,,,,,,,,,,,
,Move,canvas.Screen,0_1_0_29,left,response,,19213.899999976158,19205.406,19222.044,19364.199999928474,142.15599992847274,19365.100000023842,2021-10-26T06:04:57.016Z,19405.381,1635189974,full,ni_sequenzen,NI_Sequenzen,30,,,,,,,,,,,,,
,Loop,flow.Loop,0_1_0,-999,completion,,11269.899999976158,11271.922,11288.621,19364.199999928474,8075.578999928475,19365.5,2021-10-26T06:04:57.016Z,19405.381,1635189974,full,ni_sequenzen,NI_Sequenzen,,,,,,,,,,,,,,
,Training_I,flow.Sequence,0_1,,completion,,11263.100000023842,11271.922,11288.621,19364.199999928474,8075.578999928475,19365.699999928474,2021-10-26T06:04:57.016Z,19405.381,1635189974,full,ni_sequenzen,NI_Sequenzen,,,,,,,,,,,,,,
,Screen_1,canvas.Screen,0_2_0_0,cont,response,1,19395.100000023842,19388.677,19405.381,20574.199999928474,1168.8189999284732,20575.199999928474,2021-10-26T06:04:58.226Z,20622.039,1635189974,full,ni_sequenzen,NI_Sequenzen,,,,,,,,,,,,,,
,Screen_2,canvas.Screen,0_2_0_1,cont,response,1,20608.600000023842,20605.336,20622.039,21296.399999976158,674.3609999761575,21296.899999976158,2021-10-26T06:04:58.947Z,21305.272,1635189974,full,ni_sequenzen,NI_Sequenzen,,,,,,,,,,,,,,
,Screen_3,canvas.Screen,0_2_0_2,cont,response,1,21298.600000023842,21288.673,21305.272,21779.100000023842,473.828000023841,21780.299999952316,2021-10-26T06:04:59.431Z,21805.267,1635189974,full,ni_sequenzen,NI_Sequenzen,,,,,,,,,,,,,,
,Screen_4,canvas.Screen,0_2_0_3,cont,response,1,21795.699999928474,21788.728,21805.267,22455.699999928474,650.4329999284746,22456.100000023842,2021-10-26T06:05:00.107Z,22471.965,1635189974,full,ni_sequenzen,NI_Sequenzen,,,,,,,,,,,,,,
,Screen_5,canvas.Screen,0_2_0_4,cont,response,1,22457.199999928474,22455.465,22471.965,22883.899999976158,411.934999976158,22884.899999976158,2021-10-26T06:05:00.535Z,22905.245,1635189974,full,ni_sequenzen,NI_Sequenzen,,,,,,,,,,,,,,
,Screen_6,canvas.Screen,0_2_0_5,cont,response,1,22899.100000023842,22888.792,22905.245,23323.699999928474,418.45499992847544,23324.199999928474,2021-10-26T06:05:00.975Z,23455.303,1635189974,full,ni_sequenzen,NI_Sequenzen,,,,,,,,,,,,,,
,Sequence,flow.Sequence,0_2_0,,completion,1,19394.299999952316,19388.677,19405.381,23323.699999928474,3918.318999928473,23324.399999976158,2021-10-26T06:05:00.975Z,23455.303,1635189974,full,ni_sequenzen,NI_Sequenzen,,,,,,,,,,,,,,
,Screen_1,canvas.Screen,0_2_1_0,,skipped,2,23327.399999976158,,,23327.399999976158,,23327.5,2021-10-26T06:05:00.978Z,23455.303,1635189974,full,ni_sequenzen,NI_Sequenzen,,,,,,,,,,,,,,
,Screen_2,canvas.Screen,0_2_1_1,,skipped,2,23328.100000023842,,,23327.399999976158,,23328.100000023842,2021-10-26T06:05:00.979Z,23455.303,1635189974,full,ni_sequenzen,NI_Sequenzen,,,,,,,,,,,,,,
,Screen_3,canvas.Screen,0_2_1_2,,skipped,2,23328.699999928474,,,23327.399999976158,,23328.799999952316,2021-10-26T06:05:00.979Z,23455.303,1635189974,full,ni_sequenzen,NI_Sequenzen,,,,,,,,,,,,,,
,Screen_4,canvas.Screen,0_2_1_3,,skipped,2,23329.399999976158,,,23327.399999976158,,23329.399999976158,2021-10-26T06:05:00.980Z,23455.303,1635189974,full,ni_sequenzen,NI_Sequenzen,,,,,,,,,,,,,,
,Screen_5,canvas.Screen,0_2_1_4,,skipped,2,23330,,,23327.399999976158,,23330,2021-10-26T06:05:00.981Z,23455.303,1635189974,full,ni_sequenzen,NI_Sequenzen,,,,,,,,,,,,,,
,Screen_6,canvas.Screen,0_2_1_5,,skipped,2,23330.699999928474,,,23327.399999976158,,23330.699999928474,2021-10-26T06:05:00.981Z,23455.303,1635189974,full,ni_sequenzen,NI_Sequenzen,,,,,,,,,,,,,,
,Sequence,flow.Sequence,0_2_1,,completion,2,23326.600000023842,,,23327.399999976158,,23330.799999952316,2021-10-26T06:05:00.981Z,23455.303,1635189974,full,ni_sequenzen,NI_Sequenzen,,,,,,,,,,,,,,
,Screen_1,canvas.Screen,0_2_2_0,,skipped,3,23331.399999976158,,,23331.399999976158,,23331.5,2021-10-26T06:05:00.982Z,23455.303,1635189974,full,ni_sequenzen,NI_Sequenzen,,,,,,,,,,,,,,
,Screen_2,canvas.Screen,0_2_2_1,,skipped,3,23332,,,23331.399999976158,,23332,2021-10-26T06:05:00.982Z,23455.303,1635189974,full,ni_sequenzen,NI_Sequenzen,,,,,,,,,,,,,,
,Screen_3,canvas.Screen,0_2_2_2,,skipped,3,23332.399999976158,,,23331.399999976158,,23332.5,2021-10-26T06:05:00.983Z,23455.303,1635189974,full,ni_sequenzen,NI_Sequenzen,,,,,,,,,,,,,,
,Screen_4,canvas.Screen,0_2_2_3,,skipped,3,23333,,,23331.399999976158,,23333.100000023842,2021-10-26T06:05:00.984Z,23455.303,1635189974,full,ni_sequenzen,NI_Sequenzen,,,,,,,,,,,,,,
,Screen_5,canvas.Screen,0_2_2_4,,skipped,3,23333.600000023842,,,23331.399999976158,,23333.600000023842,2021-10-26T06:05:00.984Z,23455.303,1635189974,full,ni_sequenzen,NI_Sequenzen,,,,,,,,,,,,,,
,Screen_6,canvas.Screen,0_2_2_5,,skipped,3,23334.100000023842,,,23331.399999976158,,23334.199999928474,2021-10-26T06:05:00.985Z,23455.303,1635189974,full,ni_sequenzen,NI_Sequenzen,,,,,,,,,,,,,,
,Sequence,flow.Sequence,0_2_2,,completion,3,23331,,,23331.399999976158,,23334.199999928474,2021-10-26T06:05:00.985Z,23455.303,1635189974,full,ni_sequenzen,NI_Sequenzen,,,,,,,,,,,,,,
,Screen_1,canvas.Screen,0_2_3_0,,skipped,4,23334.899999976158,,,23334.899999976158,,23334.899999976158,2021-10-26T06:05:00.985Z,23455.303,1635189974,full,ni_sequenzen,NI_Sequenzen,,,,,,,,,,,,,,
,Screen_2,canvas.Screen,0_2_3_1,,skipped,4,23335.699999928474,,,23334.899999976158,,23335.699999928474,2021-10-26T06:05:00.986Z,23455.303,1635189974,full,ni_sequenzen,NI_Sequenzen,,,,,,,,,,,,,,
,Screen_3,canvas.Screen,0_2_3_2,,skipped,4,23336.299999952316,,,23334.899999976158,,23336.299999952316,2021-10-26T06:05:00.987Z,23455.303,1635189974,full,ni_sequenzen,NI_Sequenzen,,,,,,,,,,,,,,
,Screen_4,canvas.Screen,0_2_3_3,,skipped,4,23337,,,23334.899999976158,,23337,2021-10-26T06:05:00.987Z,23455.303,1635189974,full,ni_sequenzen,NI_Sequenzen,,,,,,,,,,,,,,
,Screen_5,canvas.Screen,0_2_3_4,,skipped,4,23341.799999952316,,,23334.899999976158,,23341.899999976158,2021-10-26T06:05:00.992Z,23455.303,1635189974,full,ni_sequenzen,NI_Sequenzen,,,,,,,,,,,,,,
,Screen_6,canvas.Screen,0_2_3_5,,skipped,4,23342.699999928474,,,23334.899999976158,,23342.699999928474,2021-10-26T06:05:00.993Z,23455.303,1635189974,full,ni_sequenzen,NI_Sequenzen,,,,,,,,,,,,,,
,Sequence,flow.Sequence,0_2_3,,completion,4,23334.399999976158,,,23334.899999976158,,23342.799999952316,2021-10-26T06:05:00.993Z,23455.303,1635189974,full,ni_sequenzen,NI_Sequenzen,,,,,,,,,,,,,,
,Screen_1,canvas.Screen,0_2_4_0,,skipped,5,23343.399999976158,,,23343.399999976158,,23343.399999976158,2021-10-26T06:05:00.994Z,23455.303,1635189974,full,ni_sequenzen,NI_Sequenzen,,,,,,,,,,,,,,
,Screen_2,canvas.Screen,0_2_4_1,,skipped,5,23344,,,23343.399999976158,,23344,2021-10-26T06:05:00.994Z,23455.303,1635189974,full,ni_sequenzen,NI_Sequenzen,,,,,,,,,,,,,,
,Screen_3,canvas.Screen,0_2_4_2,,skipped,5,23344.399999976158,,,23343.399999976158,,23344.399999976158,2021-10-26T06:05:00.995Z,23455.303,1635189974,full,ni_sequenzen,NI_Sequenzen,,,,,,,,,,,,,,
,Screen_4,canvas.Screen,0_2_4_3,,skipped,5,23344.799999952316,,,23343.399999976158,,23344.899999976158,2021-10-26T06:05:00.995Z,23455.303,1635189974,full,ni_sequenzen,NI_Sequenzen,,,,,,,,,,,,,,
,Screen_5,canvas.Screen,0_2_4_4,,skipped,5,23345.299999952316,,,23343.399999976158,,23345.399999976158,2021-10-26T06:05:00.996Z,23455.303,1635189974,full,ni_sequenzen,NI_Sequenzen,,,,,,,,,,,,,,
,Screen_6,canvas.Screen,0_2_4_5,,skipped,5,23345.799999952316,,,23343.399999976158,,23345.799999952316,2021-10-26T06:05:00.996Z,23455.303,1635189974,full,ni_sequenzen,NI_Sequenzen,,,,,,,,,,,,,,
,Sequence,flow.Sequence,0_2_4,,completion,5,23343,,,23343.399999976158,,23345.899999976158,2021-10-26T06:05:00.996Z,23455.303,1635189974,full,ni_sequenzen,NI_Sequenzen,,,,,,,,,,,,,,
,Screen_1,canvas.Screen,0_2_5_0,,skipped,6,23346.5,,,23346.5,,23346.5,2021-10-26T06:05:00.997Z,23455.303,1635189974,full,ni_sequenzen,NI_Sequenzen,,,,,,,,,,,,,,
,Screen_2,canvas.Screen,0_2_5_1,,skipped,6,23347.100000023842,,,23346.5,,23347.100000023842,2021-10-26T06:05:00.998Z,23455.303,1635189974,full,ni_sequenzen,NI_Sequenzen,,,,,,,,,,,,,,
,Screen_3,canvas.Screen,0_2_5_2,,skipped,6,23347.5,,,23346.5,,23347.5,2021-10-26T06:05:00.998Z,23455.303,1635189974,full,ni_sequenzen,NI_Sequenzen,,,,,,,,,,,,,,
,Screen_4,canvas.Screen,0_2_5_3,,skipped,6,23347.899999976158,,,23346.5,,23348,2021-10-26T06:05:00.998Z,23455.303,1635189974,full,ni_sequenzen,NI_Sequenzen,,,,,,,,,,,,,,
,Screen_5,canvas.Screen,0_2_5_4,,skipped,6,23348.399999976158,,,23346.5,,23348.5,2021-10-26T06:05:00.999Z,23455.303,1635189974,full,ni_sequenzen,NI_Sequenzen,,,,,,,,,,,,,,
,Screen_6,canvas.Screen,0_2_5_5,,skipped,6,23349,,,23346.5,,23349.100000023842,2021-10-26T06:05:01.000Z,23455.303,1635189974,full,ni_sequenzen,NI_Sequenzen,,,,,,,,,,,,,,
,Sequence,flow.Sequence,0_2_5,,completion,6,23346.100000023842,,,23346.5,,23349.199999928474,2021-10-26T06:05:01.000Z,23455.303,1635189974,full,ni_sequenzen,NI_Sequenzen,,,,,,,,,,,,,,
,Screen_1,canvas.Screen,0_2_6_0,,skipped,7,23350,,,23350,,23350,2021-10-26T06:05:01.000Z,23455.303,1635189974,full,ni_sequenzen,NI_Sequenzen,,,,,,,,,,,,,,
,Screen_2,canvas.Screen,0_2_6_1,,skipped,7,23350.5,,,23350,,23350.5,2021-10-26T06:05:01.001Z,23455.303,1635189974,full,ni_sequenzen,NI_Sequenzen,,,,,,,,,,,,,,
,Screen_3,canvas.Screen,0_2_6_2,,skipped,7,23351.199999928474,,,23350,,23351.199999928474,2021-10-26T06:05:01.002Z,23455.303,1635189974,full,ni_sequenzen,NI_Sequenzen,,,,,,,,,,,,,,
,Screen_4,canvas.Screen,0_2_6_3,,skipped,7,23351.699999928474,,,23350,,23351.799999952316,2021-10-26T06:05:01.002Z,23455.303,1635189974,full,ni_sequenzen,NI_Sequenzen,,,,,,,,,,,,,,
,Screen_5,canvas.Screen,0_2_6_4,,skipped,7,23352.600000023842,,,23350,,23352.600000023842,2021-10-26T06:05:01.003Z,23455.303,1635189974,full,ni_sequenzen,NI_Sequenzen,,,,,,,,,,,,,,
,Screen_6,canvas.Screen,0_2_6_5,,skipped,7,23353.299999952316,,,23350,,23353.299999952316,2021-10-26T06:05:01.004Z,23455.303,1635189974,full,ni_sequenzen,NI_Sequenzen,,,,,,,,,,,,,,
,Sequence,flow.Sequence,0_2_6,,completion,7,23349.399999976158,,,23350,,23353.399999976158,2021-10-26T06:05:01.004Z,23455.303,1635189974,full,ni_sequenzen,NI_Sequenzen,,,,,,,,,,,,,,
,Screen_1,canvas.Screen,0_2_7_0,,skipped,8,23354.100000023842,,,23354.100000023842,,23354.199999928474,2021-10-26T06:05:01.005Z,23455.303,1635189974,full,ni_sequenzen,NI_Sequenzen,,,,,,,,,,,,,,
,Screen_2,canvas.Screen,0_2_7_1,,skipped,8,23354.600000023842,,,23354.100000023842,,23354.600000023842,2021-10-26T06:05:01.005Z,23455.303,1635189974,full,ni_sequenzen,NI_Sequenzen,,,,,,,,,,,,,,
,Screen_3,canvas.Screen,0_2_7_2,,skipped,8,23355,,,23354.100000023842,,23355.100000023842,2021-10-26T06:05:01.006Z,23455.303,1635189974,full,ni_sequenzen,NI_Sequenzen,,,,,,,,,,,,,,
,Screen_4,canvas.Screen,0_2_7_3,,skipped,8,23355.699999928474,,,23354.100000023842,,23355.699999928474,2021-10-26T06:05:01.006Z,23455.303,1635189974,full,ni_sequenzen,NI_Sequenzen,,,,,,,,,,,,,,
,Screen_5,canvas.Screen,0_2_7_4,,skipped,8,23356.199999928474,,,23354.100000023842,,23356.299999952316,2021-10-26T06:05:01.007Z,23455.303,1635189974,full,ni_sequenzen,NI_Sequenzen,,,,,,,,,,,,,,
,Screen_6,canvas.Screen,0_2_7_5,,skipped,8,23356.699999928474,,,23354.100000023842,,23356.799999952316,2021-10-26T06:05:01.007Z,23455.303,1635189974,full,ni_sequenzen,NI_Sequenzen,,,,,,,,,,,,,,
,Sequence,flow.Sequence,0_2_7,,completion,8,23353.600000023842,,,23354.100000023842,,23356.899999976158,2021-10-26T06:05:01.007Z,23455.303,1635189974,full,ni_sequenzen,NI_Sequenzen,,,,,,,,,,,,,,
,Screen_1,canvas.Screen,0_2_8_0,,skipped,9,23357.600000023842,,,23357.600000023842,,23357.699999928474,2021-10-26T06:05:01.008Z,23455.303,1635189974,full,ni_sequenzen,NI_Sequenzen,,,,,,,,,,,,,,
,Screen_2,canvas.Screen,0_2_8_1,,skipped,9,23358.100000023842,,,23357.600000023842,,23358.299999952316,2021-10-26T06:05:01.009Z,23455.303,1635189974,full,ni_sequenzen,NI_Sequenzen,,,,,,,,,,,,,,
,Screen_3,canvas.Screen,0_2_8_2,,skipped,9,23358.799999952316,,,23357.600000023842,,23358.799999952316,2021-10-26T06:05:01.009Z,23455.303,1635189974,full,ni_sequenzen,NI_Sequenzen,,,,,,,,,,,,,,
,Screen_4,canvas.Screen,0_2_8_3,,skipped,9,23359.299999952316,,,23357.600000023842,,23359.399999976158,2021-10-26T06:05:01.010Z,23455.303,1635189974,full,ni_sequenzen,NI_Sequenzen,,,,,,,,,,,,,,
,Screen_5,canvas.Screen,0_2_8_4,,skipped,9,23359.899999976158,,,23357.600000023842,,23359.899999976158,2021-10-26T06:05:01.010Z,23455.303,1635189974,full,ni_sequenzen,NI_Sequenzen,,,,,,,,,,,,,,
,Screen_6,canvas.Screen,0_2_8_5,,skipped,9,23360.399999976158,,,23357.600000023842,,23360.5,2021-10-26T06:05:01.011Z,23455.303,1635189974,full,ni_sequenzen,NI_Sequenzen,,,,,,,,,,,,,,
,Sequence,flow.Sequence,0_2_8,,completion,9,23357.199999928474,,,23357.600000023842,,23360.600000023842,2021-10-26T06:05:01.011Z,23455.303,1635189974,full,ni_sequenzen,NI_Sequenzen,,,,,,,,,,,,,,
,Screen_1,canvas.Screen,0_2_9_0,,skipped,10,23361.299999952316,,,23361.299999952316,,23361.299999952316,2021-10-26T06:05:01.012Z,23455.303,1635189974,full,ni_sequenzen,NI_Sequenzen,,,,,,,,,,,,,,
,Screen_2,canvas.Screen,0_2_9_1,,skipped,10,23362.399999976158,,,23361.299999952316,,23362.399999976158,2021-10-26T06:05:01.013Z,23455.303,1635189974,full,ni_sequenzen,NI_Sequenzen,,,,,,,,,,,,,,
,Screen_3,canvas.Screen,0_2_9_2,,skipped,10,23362.899999976158,,,23361.299999952316,,23362.899999976158,2021-10-26T06:05:01.013Z,23455.303,1635189974,full,ni_sequenzen,NI_Sequenzen,,,,,,,,,,,,,,
,Screen_4,canvas.Screen,0_2_9_3,,skipped,10,23363.299999952316,,,23361.299999952316,,23363.299999952316,2021-10-26T06:05:01.014Z,23455.303,1635189974,full,ni_sequenzen,NI_Sequenzen,,,,,,,,,,,,,,
,Screen_5,canvas.Screen,0_2_9_4,,skipped,10,23364.199999928474,,,23361.299999952316,,23364.199999928474,2021-10-26T06:05:01.015Z,23455.303,1635189974,full,ni_sequenzen,NI_Sequenzen,,,,,,,,,,,,,,
,Screen_6,canvas.Screen,0_2_9_5,,skipped,10,23364.799999952316,,,23361.299999952316,,23364.899999976158,2021-10-26T06:05:01.015Z,23455.303,1635189974,full,ni_sequenzen,NI_Sequenzen,,,,,,,,,,,,,,
,Sequence,flow.Sequence,0_2_9,,completion,10,23360.899999976158,,,23361.299999952316,,23364.899999976158,2021-10-26T06:05:01.015Z,23455.303,1635189974,full,ni_sequenzen,NI_Sequenzen,,,,,,,,,,,,,,
,Screen_1,canvas.Screen,0_2_10_0,,skipped,11,23365.699999928474,,,23365.699999928474,,23365.699999928474,2021-10-26T06:05:01.016Z,23455.303,1635189974,full,ni_sequenzen,NI_Sequenzen,,,,,,,,,,,,,,
,Screen_2,canvas.Screen,0_2_10_1,,skipped,11,23366.100000023842,,,23365.699999928474,,23366.100000023842,2021-10-26T06:05:01.017Z,23455.303,1635189974,full,ni_sequenzen,NI_Sequenzen,,,,,,,,,,,,,,
,Screen_3,canvas.Screen,0_2_10_2,,skipped,11,23366.600000023842,,,23365.699999928474,,23366.600000023842,2021-10-26T06:05:01.017Z,23455.303,1635189974,full,ni_sequenzen,NI_Sequenzen,,,,,,,,,,,,,,
,Screen_4,canvas.Screen,0_2_10_3,,skipped,11,23367,,,23365.699999928474,,23367.100000023842,2021-10-26T06:05:01.018Z,23455.303,1635189974,full,ni_sequenzen,NI_Sequenzen,,,,,,,,,,,,,,
,Screen_5,canvas.Screen,0_2_10_4,,skipped,11,23367.5,,,23365.699999928474,,23367.5,2021-10-26T06:05:01.018Z,23455.303,1635189974,full,ni_sequenzen,NI_Sequenzen,,,,,,,,,,,,,,
,Screen_6,canvas.Screen,0_2_10_5,,skipped,11,23368,,,23365.699999928474,,23368,2021-10-26T06:05:01.018Z,23455.303,1635189974,full,ni_sequenzen,NI_Sequenzen,,,,,,,,,,,,,,
,Sequence,flow.Sequence,0_2_10,,completion,11,23365.299999952316,,,23365.699999928474,,23368.100000023842,2021-10-26T06:05:01.019Z,23455.303,1635189974,full,ni_sequenzen,NI_Sequenzen,,,,,,,,,,,,,,
,Screen_1,canvas.Screen,0_2_11_0,,skipped,12,23368.600000023842,,,23368.600000023842,,23368.699999928474,2021-10-26T06:05:01.019Z,23455.303,1635189974,full,ni_sequenzen,NI_Sequenzen,,,,,,,,,,,,,,
,Screen_2,canvas.Screen,0_2_11_1,,skipped,12,23369.100000023842,,,23368.600000023842,,23369.199999928474,2021-10-26T06:05:01.020Z,23455.303,1635189974,full,ni_sequenzen,NI_Sequenzen,,,,,,,,,,,,,,
,Screen_3,canvas.Screen,0_2_11_2,,skipped,12,23369.5,,,23368.600000023842,,23369.5,2021-10-26T06:05:01.020Z,23455.303,1635189974,full,ni_sequenzen,NI_Sequenzen,,,,,,,,,,,,,,
,Screen_4,canvas.Screen,0_2_11_3,,skipped,12,23370,,,23368.600000023842,,23370,2021-10-26T06:05:01.021Z,23455.303,1635189974,full,ni_sequenzen,NI_Sequenzen,,,,,,,,,,,,,,
,Screen_5,canvas.Screen,0_2_11_4,,skipped,12,23370.5,,,23368.600000023842,,23370.5,2021-10-26T06:05:01.021Z,23455.303,1635189974,full,ni_sequenzen,NI_Sequenzen,,,,,,,,,,,,,,
,Screen_6,canvas.Screen,0_2_11_5,,skipped,12,23370.899999976158,,,23368.600000023842,,23371,2021-10-26T06:05:01.021Z,23455.303,1635189974,full,ni_sequenzen,NI_Sequenzen,,,,,,,,,,,,,,
,Sequence,flow.Sequence,0_2_11,,completion,12,23368.299999952316,,,23368.600000023842,,23371.100000023842,2021-10-26T06:05:01.022Z,23455.303,1635189974,full,ni_sequenzen,NI_Sequenzen,,,,,,,,,,,,,,
,Screen_1,canvas.Screen,0_2_12_0,,skipped,13,23371.699999928474,,,23371.699999928474,,23371.699999928474,2021-10-26T06:05:01.022Z,23455.303,1635189974,full,ni_sequenzen,NI_Sequenzen,,,,,,,,,,,,,,
,Screen_2,canvas.Screen,0_2_12_1,,skipped,13,23372.299999952316,,,23371.699999928474,,23372.299999952316,2021-10-26T06:05:01.023Z,23455.303,1635189974,full,ni_sequenzen,NI_Sequenzen,,,,,,,,,,,,,,
,Screen_3,canvas.Screen,0_2_12_2,,skipped,13,23372.799999952316,,,23371.699999928474,,23372.899999976158,2021-10-26T06:05:01.023Z,23455.303,1635189974,full,ni_sequenzen,NI_Sequenzen,,,,,,,,,,,,,,
,Screen_4,canvas.Screen,0_2_12_3,,skipped,13,23373.299999952316,,,23371.699999928474,,23373.399999976158,2021-10-26T06:05:01.024Z,23455.303,1635189974,full,ni_sequenzen,NI_Sequenzen,,,,,,,,,,,,,,
,Screen_5,canvas.Screen,0_2_12_4,,skipped,13,23373.899999976158,,,23371.699999928474,,23373.899999976158,2021-10-26T06:05:01.024Z,23455.303,1635189974,full,ni_sequenzen,NI_Sequenzen,,,,,,,,,,,,,,
,Screen_6,canvas.Screen,0_2_12_5,,skipped,13,23374.299999952316,,,23371.699999928474,,23374.399999976158,2021-10-26T06:05:01.025Z,23455.303,1635189974,full,ni_sequenzen,NI_Sequenzen,,,,,,,,,,,,,,
,Sequence,flow.Sequence,0_2_12,,completion,13,23371.299999952316,,,23371.699999928474,,23374.5,2021-10-26T06:05:01.025Z,23455.303,1635189974,full,ni_sequenzen,NI_Sequenzen,,,,,,,,,,,,,,
,Screen_1,canvas.Screen,0_2_13_0,,skipped,14,23375.199999928474,,,23375.199999928474,,23375.199999928474,2021-10-26T06:05:01.026Z,23455.303,1635189974,full,ni_sequenzen,NI_Sequenzen,,,,,,,,,,,,,,
,Screen_2,canvas.Screen,0_2_13_1,,skipped,14,23375.600000023842,,,23375.199999928474,,23375.600000023842,2021-10-26T06:05:01.026Z,23455.303,1635189974,full,ni_sequenzen,NI_Sequenzen,,,,,,,,,,,,,,
,Screen_3,canvas.Screen,0_2_13_2,,skipped,14,23376,,,23375.199999928474,,23376.100000023842,2021-10-26T06:05:01.027Z,23455.303,1635189974,full,ni_sequenzen,NI_Sequenzen,,,,,,,,,,,,,,
,Screen_4,canvas.Screen,0_2_13_3,,skipped,14,23376.600000023842,,,23375.199999928474,,23376.600000023842,2021-10-26T06:05:01.027Z,23455.303,1635189974,full,ni_sequenzen,NI_Sequenzen,,,,,,,,,,,,,,
,Screen_5,canvas.Screen,0_2_13_4,,skipped,14,23377,,,23375.199999928474,,23377.100000023842,2021-10-26T06:05:01.028Z,23455.303,1635189974,full,ni_sequenzen,NI_Sequenzen,,,,,,,,,,,,,,
,Screen_6,canvas.Screen,0_2_13_5,,skipped,14,23377.5,,,23375.199999928474,,23377.600000023842,2021-10-26T06:05:01.028Z,23455.303,1635189974,full,ni_sequenzen,NI_Sequenzen,,,,,,,,,,,,,,
,Sequence,flow.Sequence,0_2_13,,completion,14,23374.699999928474,,,23375.199999928474,,23377.600000023842,2021-10-26T06:05:01.028Z,23455.303,1635189974,full,ni_sequenzen,NI_Sequenzen,,,,,,,,,,,,,,
,Screen_1,canvas.Screen,0_2_14_0,,skipped,15,23378.199999928474,,,23378.199999928474,,23378.199999928474,2021-10-26T06:05:01.029Z,23455.303,1635189974,full,ni_sequenzen,NI_Sequenzen,,,,,,,,,,,,,,
,Screen_2,canvas.Screen,0_2_14_1,,skipped,15,23378.600000023842,,,23378.199999928474,,23378.699999928474,2021-10-26T06:05:01.029Z,23455.303,1635189974,full,ni_sequenzen,NI_Sequenzen,,,,,,,,,,,,,,
,Screen_3,canvas.Screen,0_2_14_2,,skipped,15,23379.799999952316,,,23378.199999928474,,23379.799999952316,2021-10-26T06:05:01.030Z,23455.303,1635189974,full,ni_sequenzen,NI_Sequenzen,,,,,,,,,,,,,,
,Screen_4,canvas.Screen,0_2_14_3,,skipped,15,23380.199999928474,,,23378.199999928474,,23380.199999928474,2021-10-26T06:05:01.031Z,23455.303,1635189974,full,ni_sequenzen,NI_Sequenzen,,,,,,,,,,,,,,
,Screen_5,canvas.Screen,0_2_14_4,,skipped,15,23380.699999928474,,,23378.199999928474,,23380.699999928474,2021-10-26T06:05:01.031Z,23455.303,1635189974,full,ni_sequenzen,NI_Sequenzen,,,,,,,,,,,,,,
,Screen_6,canvas.Screen,0_2_14_5,,skipped,15,23381.100000023842,,,23378.199999928474,,23381.100000023842,2021-10-26T06:05:01.032Z,23455.303,1635189974,full,ni_sequenzen,NI_Sequenzen,,,,,,,,,,,,,,
,Sequence,flow.Sequence,0_2_14,,completion,15,23377.799999952316,,,23378.199999928474,,23381.299999952316,2021-10-26T06:05:01.032Z,23455.303,1635189974,full,ni_sequenzen,NI_Sequenzen,,,,,,,,,,,,,,
,Screen_1,canvas.Screen,0_2_15_0,,skipped,16,23381.899999976158,,,23381.899999976158,,23381.899999976158,2021-10-26T06:05:01.032Z,23455.303,1635189974,full,ni_sequenzen,NI_Sequenzen,,,,,,,,,,,,,,
,Screen_2,canvas.Screen,0_2_15_1,,skipped,16,23382.199999928474,,,23381.899999976158,,23382.299999952316,2021-10-26T06:05:01.033Z,23455.303,1635189974,full,ni_sequenzen,NI_Sequenzen,,,,,,,,,,,,,,
,Screen_3,canvas.Screen,0_2_15_2,,skipped,16,23382.699999928474,,,23381.899999976158,,23382.699999928474,2021-10-26T06:05:01.033Z,23455.303,1635189974,full,ni_sequenzen,NI_Sequenzen,,,,,,,,,,,,,,
,Screen_4,canvas.Screen,0_2_15_3,,skipped,16,23383.100000023842,,,23381.899999976158,,23383.199999928474,2021-10-26T06:05:01.034Z,23455.303,1635189974,full,ni_sequenzen,NI_Sequenzen,,,,,,,,,,,,,,
,Screen_5,canvas.Screen,0_2_15_4,,skipped,16,23383.699999928474,,,23381.899999976158,,23383.699999928474,2021-10-26T06:05:01.034Z,23455.303,1635189974,full,ni_sequenzen,NI_Sequenzen,,,,,,,,,,,,,,
,Screen_6,canvas.Screen,0_2_15_5,,skipped,16,23384,,,23381.899999976158,,23384.100000023842,2021-10-26T06:05:01.035Z,23455.303,1635189974,full,ni_sequenzen,NI_Sequenzen,,,,,,,,,,,,,,
,Sequence,flow.Sequence,0_2_15,,completion,16,23381.5,,,23381.899999976158,,23384.100000023842,2021-10-26T06:05:01.035Z,23455.303,1635189974,full,ni_sequenzen,NI_Sequenzen,,,,,,,,,,,,,,
,Screen_1,canvas.Screen,0_2_16_0,,skipped,17,23384.799999952316,,,23384.799999952316,,23384.899999976158,2021-10-26T06:05:01.035Z,23455.303,1635189974,full,ni_sequenzen,NI_Sequenzen,,,,,,,,,,,,,,
,Screen_2,canvas.Screen,0_2_16_1,,skipped,17,23385.199999928474,,,23384.799999952316,,23385.199999928474,2021-10-26T06:05:01.036Z,23455.303,1635189974,full,ni_sequenzen,NI_Sequenzen,,,,,,,,,,,,,,
,Screen_3,canvas.Screen,0_2_16_2,,skipped,17,23385.600000023842,,,23384.799999952316,,23385.600000023842,2021-10-26T06:05:01.036Z,23455.303,1635189974,full,ni_sequenzen,NI_Sequenzen,,,,,,,,,,,,,,
,Screen_4,canvas.Screen,0_2_16_3,,skipped,17,23386,,,23384.799999952316,,23386,2021-10-26T06:05:01.037Z,23455.303,1635189974,full,ni_sequenzen,NI_Sequenzen,,,,,,,,,,,,,,
,Screen_5,canvas.Screen,0_2_16_4,,skipped,17,23386.399999976158,,,23384.799999952316,,23386.399999976158,2021-10-26T06:05:01.037Z,23455.303,1635189974,full,ni_sequenzen,NI_Sequenzen,,,,,,,,,,,,,,
,Screen_6,canvas.Screen,0_2_16_5,,skipped,17,23386.899999976158,,,23384.799999952316,,23386.899999976158,2021-10-26T06:05:01.037Z,23455.303,1635189974,full,ni_sequenzen,NI_Sequenzen,,,,,,,,,,,,,,
,Sequence,flow.Sequence,0_2_16,,completion,17,23384.399999976158,,,23384.799999952316,,23386.899999976158,2021-10-26T06:05:01.037Z,23455.303,1635189974,full,ni_sequenzen,NI_Sequenzen,,,,,,,,,,,,,,
,Screen_1,canvas.Screen,0_2_17_0,,skipped,18,23387.5,,,23387.5,,23387.5,2021-10-26T06:05:01.038Z,23455.303,1635189974,full,ni_sequenzen,NI_Sequenzen,,,,,,,,,,,,,,
,Screen_2,canvas.Screen,0_2_17_1,,skipped,18,23388,,,23387.5,,23388,2021-10-26T06:05:01.038Z,23455.303,1635189974,full,ni_sequenzen,NI_Sequenzen,,,,,,,,,,,,,,
,Screen_3,canvas.Screen,0_2_17_2,,skipped,18,23388.399999976158,,,23387.5,,23388.399999976158,2021-10-26T06:05:01.039Z,23455.303,1635189974,full,ni_sequenzen,NI_Sequenzen,,,,,,,,,,,,,,
,Screen_4,canvas.Screen,0_2_17_3,,skipped,18,23388.799999952316,,,23387.5,,23388.799999952316,2021-10-26T06:05:01.039Z,23455.303,1635189974,full,ni_sequenzen,NI_Sequenzen,,,,,,,,,,,,,,
,Screen_5,canvas.Screen,0_2_17_4,,skipped,18,23389.199999928474,,,23387.5,,23389.299999952316,2021-10-26T06:05:01.040Z,23455.303,1635189974,full,ni_sequenzen,NI_Sequenzen,,,,,,,,,,,,,,
,Screen_6,canvas.Screen,0_2_17_5,,skipped,18,23389.600000023842,,,23387.5,,23389.699999928474,2021-10-26T06:05:01.040Z,23455.303,1635189974,full,ni_sequenzen,NI_Sequenzen,,,,,,,,,,,,,,
,Sequence,flow.Sequence,0_2_17,,completion,18,23387.100000023842,,,23387.5,,23389.699999928474,2021-10-26T06:05:01.040Z,23455.303,1635189974,full,ni_sequenzen,NI_Sequenzen,,,,,,,,,,,,,,
,Screen_1,canvas.Screen,0_2_18_0,,skipped,19,23390.299999952316,,,23390.299999952316,,23390.399999976158,2021-10-26T06:05:01.041Z,23455.303,1635189974,full,ni_sequenzen,NI_Sequenzen,,,,,,,,,,,,,,
,Screen_2,canvas.Screen,0_2_18_1,,skipped,19,23390.799999952316,,,23390.299999952316,,23390.799999952316,2021-10-26T06:05:01.041Z,23455.303,1635189974,full,ni_sequenzen,NI_Sequenzen,,,,,,,,,,,,,,
,Screen_3,canvas.Screen,0_2_18_2,,skipped,19,23391.199999928474,,,23390.299999952316,,23391.199999928474,2021-10-26T06:05:01.042Z,23455.303,1635189974,full,ni_sequenzen,NI_Sequenzen,,,,,,,,,,,,,,
,Screen_4,canvas.Screen,0_2_18_3,,skipped,19,23391.600000023842,,,23390.299999952316,,23391.600000023842,2021-10-26T06:05:01.042Z,23455.303,1635189974,full,ni_sequenzen,NI_Sequenzen,,,,,,,,,,,,,,
,Screen_5,canvas.Screen,0_2_18_4,,skipped,19,23392,,,23390.299999952316,,23392,2021-10-26T06:05:01.043Z,23455.303,1635189974,full,ni_sequenzen,NI_Sequenzen,,,,,,,,,,,,,,
,Screen_6,canvas.Screen,0_2_18_5,,skipped,19,23392.399999976158,,,23390.299999952316,,23392.399999976158,2021-10-26T06:05:01.043Z,23455.303,1635189974,full,ni_sequenzen,NI_Sequenzen,,,,,,,,,,,,,,
,Sequence,flow.Sequence,0_2_18,,completion,19,23390,,,23390.299999952316,,23392.5,2021-10-26T06:05:01.043Z,23455.303,1635189974,full,ni_sequenzen,NI_Sequenzen,,,,,,,,,,,,,,
,Screen_1,canvas.Screen,0_2_19_0,,skipped,20,23393.100000023842,,,23393.100000023842,,23393.100000023842,2021-10-26T06:05:01.044Z,23455.303,1635189974,full,ni_sequenzen,NI_Sequenzen,,,,,,,,,,,,,,
,Screen_2,canvas.Screen,0_2_19_1,,skipped,20,23393.600000023842,,,23393.100000023842,,23393.600000023842,2021-10-26T06:05:01.044Z,23455.303,1635189974,full,ni_sequenzen,NI_Sequenzen,,,,,,,,,,,,,,
,Screen_3,canvas.Screen,0_2_19_2,,skipped,20,23394.600000023842,,,23393.100000023842,,23394.699999928474,2021-10-26T06:05:01.045Z,23455.303,1635189974,full,ni_sequenzen,NI_Sequenzen,,,,,,,,,,,,,,
,Screen_4,canvas.Screen,0_2_19_3,,skipped,20,23395,,,23393.100000023842,,23395.100000023842,2021-10-26T06:05:01.046Z,23455.303,1635189974,full,ni_sequenzen,NI_Sequenzen,,,,,,,,,,,,,,
,Screen_5,canvas.Screen,0_2_19_4,,skipped,20,23395.699999928474,,,23393.100000023842,,23395.799999952316,2021-10-26T06:05:01.046Z,23455.303,1635189974,full,ni_sequenzen,NI_Sequenzen,,,,,,,,,,,,,,
,Screen_6,canvas.Screen,0_2_19_5,,skipped,20,23396.199999928474,,,23393.100000023842,,23396.199999928474,2021-10-26T06:05:01.047Z,23455.303,1635189974,full,ni_sequenzen,NI_Sequenzen,,,,,,,,,,,,,,
,Sequence,flow.Sequence,0_2_19,,completion,20,23392.699999928474,,,23393.100000023842,,23396.299999952316,2021-10-26T06:05:01.047Z,23455.303,1635189974,full,ni_sequenzen,NI_Sequenzen,,,,,,,,,,,,,,
,Screen_1,canvas.Screen,0_2_20_0,,skipped,21,23396.899999976158,,,23396.899999976158,,23396.899999976158,2021-10-26T06:05:01.047Z,23455.303,1635189974,full,ni_sequenzen,NI_Sequenzen,,,,,,,,,,,,,,
,Screen_2,canvas.Screen,0_2_20_1,,skipped,21,23397.299999952316,,,23396.899999976158,,23397.399999976158,2021-10-26T06:05:01.048Z,23455.303,1635189974,full,ni_sequenzen,NI_Sequenzen,,,,,,,,,,,,,,
,Screen_3,canvas.Screen,0_2_20_2,,skipped,21,23397.799999952316,,,23396.899999976158,,23397.899999976158,2021-10-26T06:05:01.048Z,23455.303,1635189974,full,ni_sequenzen,NI_Sequenzen,,,,,,,,,,,,,,
,Screen_4,canvas.Screen,0_2_20_3,,skipped,21,23398.199999928474,,,23396.899999976158,,23398.199999928474,2021-10-26T06:05:01.049Z,23455.303,1635189974,full,ni_sequenzen,NI_Sequenzen,,,,,,,,,,,,,,
,Screen_5,canvas.Screen,0_2_20_4,,skipped,21,23398.699999928474,,,23396.899999976158,,23398.699999928474,2021-10-26T06:05:01.049Z,23455.303,1635189974,full,ni_sequenzen,NI_Sequenzen,,,,,,,,,,,,,,
,Screen_6,canvas.Screen,0_2_20_5,,skipped,21,23399.100000023842,,,23396.899999976158,,23399.100000023842,2021-10-26T06:05:01.050Z,23455.303,1635189974,full,ni_sequenzen,NI_Sequenzen,,,,,,,,,,,,,,
,Sequence,flow.Sequence,0_2_20,,completion,21,23396.5,,,23396.899999976158,,23399.199999928474,2021-10-26T06:05:01.050Z,23455.303,1635189974,full,ni_sequenzen,NI_Sequenzen,,,,,,,,,,,,,,
,Screen_1,canvas.Screen,0_2_21_0,,skipped,22,23399.699999928474,,,23399.699999928474,,23399.799999952316,2021-10-26T06:05:01.050Z,23455.303,1635189974,full,ni_sequenzen,NI_Sequenzen,,,,,,,,,,,,,,
,Screen_2,canvas.Screen,0_2_21_1,,skipped,22,23400.199999928474,,,23399.699999928474,,23400.299999952316,2021-10-26T06:05:01.051Z,23455.303,1635189974,full,ni_sequenzen,NI_Sequenzen,,,,,,,,,,,,,,
,Screen_3,canvas.Screen,0_2_21_2,,skipped,22,23400.600000023842,,,23399.699999928474,,23400.600000023842,2021-10-26T06:05:01.051Z,23455.303,1635189974,full,ni_sequenzen,NI_Sequenzen,,,,,,,,,,,,,,
,Screen_4,canvas.Screen,0_2_21_3,,skipped,22,23401,,,23399.699999928474,,23401.100000023842,2021-10-26T06:05:01.052Z,23455.303,1635189974,full,ni_sequenzen,NI_Sequenzen,,,,,,,,,,,,,,
,Screen_5,canvas.Screen,0_2_21_4,,skipped,22,23401.899999976158,,,23399.699999928474,,23402.100000023842,2021-10-26T06:05:01.053Z,23455.303,1635189974,full,ni_sequenzen,NI_Sequenzen,,,,,,,,,,,,,,
,Screen_6,canvas.Screen,0_2_21_5,,skipped,22,23402.600000023842,,,23399.699999928474,,23402.699999928474,2021-10-26T06:05:01.053Z,23455.303,1635189974,full,ni_sequenzen,NI_Sequenzen,,,,,,,,,,,,,,
,Sequence,flow.Sequence,0_2_21,,completion,22,23399.299999952316,,,23399.699999928474,,23402.799999952316,2021-10-26T06:05:01.053Z,23455.303,1635189974,full,ni_sequenzen,NI_Sequenzen,,,,,,,,,,,,,,
,Screen_1,canvas.Screen,0_2_22_0,,skipped,23,23403.399999976158,,,23403.399999976158,,23403.399999976158,2021-10-26T06:05:01.054Z,23455.303,1635189974,full,ni_sequenzen,NI_Sequenzen,,,,,,,,,,,,,,
,Screen_2,canvas.Screen,0_2_22_1,,skipped,23,23403.899999976158,,,23403.399999976158,,23404,2021-10-26T06:05:01.054Z,23455.303,1635189974,full,ni_sequenzen,NI_Sequenzen,,,,,,,,,,,,,,
,Screen_3,canvas.Screen,0_2_22_2,,skipped,23,23404.5,,,23403.399999976158,,23404.5,2021-10-26T06:05:01.055Z,23455.303,1635189974,full,ni_sequenzen,NI_Sequenzen,,,,,,,,,,,,,,
,Screen_4,canvas.Screen,0_2_22_3,,skipped,23,23405.100000023842,,,23403.399999976158,,23405.199999928474,2021-10-26T06:05:01.056Z,23455.303,1635189974,full,ni_sequenzen,NI_Sequenzen,,,,,,,,,,,,,,
,Screen_5,canvas.Screen,0_2_22_4,,skipped,23,23405.600000023842,,,23403.399999976158,,23405.699999928474,2021-10-26T06:05:01.056Z,23455.303,1635189974,full,ni_sequenzen,NI_Sequenzen,,,,,,,,,,,,,,
,Screen_6,canvas.Screen,0_2_22_5,,skipped,23,23406.299999952316,,,23403.399999976158,,23406.299999952316,2021-10-26T06:05:01.057Z,23455.303,1635189974,full,ni_sequenzen,NI_Sequenzen,,,,,,,,,,,,,,
,Sequence,flow.Sequence,0_2_22,,completion,23,23403,,,23403.399999976158,,23406.399999976158,2021-10-26T06:05:01.057Z,23455.303,1635189974,full,ni_sequenzen,NI_Sequenzen,,,,,,,,,,,,,,
,Screen_1,canvas.Screen,0_2_23_0,,skipped,24,23407,,,23407,,23407,2021-10-26T06:05:01.057Z,23455.303,1635189974,full,ni_sequenzen,NI_Sequenzen,,,,,,,,,,,,,,
,Screen_2,canvas.Screen,0_2_23_1,,skipped,24,23407.399999976158,,,23407,,23407.399999976158,2021-10-26T06:05:01.058Z,23455.303,1635189974,full,ni_sequenzen,NI_Sequenzen,,,,,,,,,,,,,,
,Screen_3,canvas.Screen,0_2_23_2,,skipped,24,23407.799999952316,,,23407,,23407.799999952316,2021-10-26T06:05:01.058Z,23455.303,1635189974,full,ni_sequenzen,NI_Sequenzen,,,,,,,,,,,,,,
,Screen_4,canvas.Screen,0_2_23_3,,skipped,24,23408.199999928474,,,23407,,23408.299999952316,2021-10-26T06:05:01.059Z,23455.303,1635189974,full,ni_sequenzen,NI_Sequenzen,,,,,,,,,,,,,,
,Screen_5,canvas.Screen,0_2_23_4,,skipped,24,23408.699999928474,,,23407,,23408.799999952316,2021-10-26T06:05:01.059Z,23455.303,1635189974,full,ni_sequenzen,NI_Sequenzen,,,,,,,,,,,,,,
,Screen_6,canvas.Screen,0_2_23_5,,skipped,24,23410.100000023842,,,23407,,23410.100000023842,2021-10-26T06:05:01.061Z,23455.303,1635189974,full,ni_sequenzen,NI_Sequenzen,,,,,,,,,,,,,,
,Sequence,flow.Sequence,0_2_23,,completion,24,23406.600000023842,,,23407,,23410.199999928474,2021-10-26T06:05:01.061Z,23455.303,1635189974,full,ni_sequenzen,NI_Sequenzen,,,,,,,,,,,,,,
,Screen_1,canvas.Screen,0_2_24_0,,skipped,25,23410.899999976158,,,23410.899999976158,,23411,2021-10-26T06:05:01.061Z,23455.303,1635189974,full,ni_sequenzen,NI_Sequenzen,,,,,,,,,,,,,,
,Screen_2,canvas.Screen,0_2_24_1,,skipped,25,23411.399999976158,,,23410.899999976158,,23411.399999976158,2021-10-26T06:05:01.062Z,23455.303,1635189974,full,ni_sequenzen,NI_Sequenzen,,,,,,,,,,,,,,
,Screen_3,canvas.Screen,0_2_24_2,,skipped,25,23411.799999952316,,,23410.899999976158,,23411.799999952316,2021-10-26T06:05:01.062Z,23455.303,1635189974,full,ni_sequenzen,NI_Sequenzen,,,,,,,,,,,,,,
,Screen_4,canvas.Screen,0_2_24_3,,skipped,25,23412.199999928474,,,23410.899999976158,,23412.199999928474,2021-10-26T06:05:01.063Z,23455.303,1635189974,full,ni_sequenzen,NI_Sequenzen,,,,,,,,,,,,,,
,Screen_5,canvas.Screen,0_2_24_4,,skipped,25,23412.699999928474,,,23410.899999976158,,23412.699999928474,2021-10-26T06:05:01.063Z,23455.303,1635189974,full,ni_sequenzen,NI_Sequenzen,,,,,,,,,,,,,,
,Screen_6,canvas.Screen,0_2_24_5,,skipped,25,23413.100000023842,,,23410.899999976158,,23413.100000023842,2021-10-26T06:05:01.064Z,23455.303,1635189974,full,ni_sequenzen,NI_Sequenzen,,,,,,,,,,,,,,
,Sequence,flow.Sequence,0_2_24,,completion,25,23410.399999976158,,,23410.899999976158,,23413.199999928474,2021-10-26T06:05:01.064Z,23455.303,1635189974,full,ni_sequenzen,NI_Sequenzen,,,,,,,,,,,,,,
,Screen_1,canvas.Screen,0_2_25_0,,skipped,26,23413.799999952316,,,23413.799999952316,,23413.799999952316,2021-10-26T06:05:01.064Z,23455.303,1635189974,full,ni_sequenzen,NI_Sequenzen,,,,,,,,,,,,,,
,Screen_2,canvas.Screen,0_2_25_1,,skipped,26,23414.199999928474,,,23413.799999952316,,23414.199999928474,2021-10-26T06:05:01.065Z,23455.303,1635189974,full,ni_sequenzen,NI_Sequenzen,,,,,,,,,,,,,,
,Screen_3,canvas.Screen,0_2_25_2,,skipped,26,23414.600000023842,,,23413.799999952316,,23414.600000023842,2021-10-26T06:05:01.065Z,23455.303,1635189974,full,ni_sequenzen,NI_Sequenzen,,,,,,,,,,,,,,
,Screen_4,canvas.Screen,0_2_25_3,,skipped,26,23415,,,23413.799999952316,,23415,2021-10-26T06:05:01.066Z,23455.303,1635189974,full,ni_sequenzen,NI_Sequenzen,,,,,,,,,,,,,,
,Screen_5,canvas.Screen,0_2_25_4,,skipped,26,23415.5,,,23413.799999952316,,23415.5,2021-10-26T06:05:01.066Z,23455.303,1635189974,full,ni_sequenzen,NI_Sequenzen,,,,,,,,,,,,,,
,Screen_6,canvas.Screen,0_2_25_5,,skipped,26,23415.899999976158,,,23413.799999952316,,23415.899999976158,2021-10-26T06:05:01.066Z,23455.303,1635189974,full,ni_sequenzen,NI_Sequenzen,,,,,,,,,,,,,,
,Sequence,flow.Sequence,0_2_25,,completion,26,23413.299999952316,,,23413.799999952316,,23415.899999976158,2021-10-26T06:05:01.066Z,23455.303,1635189974,full,ni_sequenzen,NI_Sequenzen,,,,,,,,,,,,,,
,Screen_1,canvas.Screen,0_2_26_0,,skipped,27,23416.699999928474,,,23416.699999928474,,23416.699999928474,2021-10-26T06:05:01.067Z,23455.303,1635189974,full,ni_sequenzen,NI_Sequenzen,,,,,,,,,,,,,,
,Screen_2,canvas.Screen,0_2_26_1,,skipped,27,23417.199999928474,,,23416.699999928474,,23417.399999976158,2021-10-26T06:05:01.068Z,23455.303,1635189974,full,ni_sequenzen,NI_Sequenzen,,,,,,,,,,,,,,
,Screen_3,canvas.Screen,0_2_26_2,,skipped,27,23417.899999976158,,,23416.699999928474,,23417.899999976158,2021-10-26T06:05:01.068Z,23455.303,1635189974,full,ni_sequenzen,NI_Sequenzen,,,,,,,,,,,,,,
,Screen_4,canvas.Screen,0_2_26_3,,skipped,27,23418.299999952316,,,23416.699999928474,,23418.299999952316,2021-10-26T06:05:01.069Z,23455.303,1635189974,full,ni_sequenzen,NI_Sequenzen,,,,,,,,,,,,,,
,Screen_5,canvas.Screen,0_2_26_4,,skipped,27,23418.699999928474,,,23416.699999928474,,23418.699999928474,2021-10-26T06:05:01.069Z,23455.303,1635189974,full,ni_sequenzen,NI_Sequenzen,,,,,,,,,,,,,,
,Screen_6,canvas.Screen,0_2_26_5,,skipped,27,23419.100000023842,,,23416.699999928474,,23419.199999928474,2021-10-26T06:05:01.070Z,23455.303,1635189974,full,ni_sequenzen,NI_Sequenzen,,,,,,,,,,,,,,
,Sequence,flow.Sequence,0_2_26,,completion,27,23416.199999928474,,,23416.699999928474,,23419.199999928474,2021-10-26T06:05:01.070Z,23455.303,1635189974,full,ni_sequenzen,NI_Sequenzen,,,,,,,,,,,,,,
,Screen_1,canvas.Screen,0_2_27_0,,skipped,28,23419.899999976158,,,23419.899999976158,,23419.899999976158,2021-10-26T06:05:01.070Z,23455.303,1635189974,full,ni_sequenzen,NI_Sequenzen,,,,,,,,,,,,,,
,Screen_2,canvas.Screen,0_2_27_1,,skipped,28,23420.299999952316,,,23419.899999976158,,23420.299999952316,2021-10-26T06:05:01.071Z,23455.303,1635189974,full,ni_sequenzen,NI_Sequenzen,,,,,,,,,,,,,,
,Screen_3,canvas.Screen,0_2_27_2,,skipped,28,23420.699999928474,,,23419.899999976158,,23420.699999928474,2021-10-26T06:05:01.071Z,23455.303,1635189974,full,ni_sequenzen,NI_Sequenzen,,,,,,,,,,,,,,
,Screen_4,canvas.Screen,0_2_27_3,,skipped,28,23421.100000023842,,,23419.899999976158,,23421.199999928474,2021-10-26T06:05:01.072Z,23455.303,1635189974,full,ni_sequenzen,NI_Sequenzen,,,,,,,,,,,,,,
,Screen_5,canvas.Screen,0_2_27_4,,skipped,28,23421.5,,,23419.899999976158,,23421.5,2021-10-26T06:05:01.072Z,23455.303,1635189974,full,ni_sequenzen,NI_Sequenzen,,,,,,,,,,,,,,
,Screen_6,canvas.Screen,0_2_27_5,,skipped,28,23422,,,23419.899999976158,,23422,2021-10-26T06:05:01.072Z,23455.303,1635189974,full,ni_sequenzen,NI_Sequenzen,,,,,,,,,,,,,,
,Sequence,flow.Sequence,0_2_27,,completion,28,23419.399999976158,,,23419.899999976158,,23422,2021-10-26T06:05:01.072Z,23455.303,1635189974,full,ni_sequenzen,NI_Sequenzen,,,,,,,,,,,,,,
,Screen_1,canvas.Screen,0_2_28_0,,skipped,29,23422.600000023842,,,23422.600000023842,,23422.699999928474,2021-10-26T06:05:01.073Z,23455.303,1635189974,full,ni_sequenzen,NI_Sequenzen,,,,,,,,,,,,,,
,Screen_2,canvas.Screen,0_2_28_1,,skipped,29,23423.100000023842,,,23422.600000023842,,23423.100000023842,2021-10-26T06:05:01.074Z,23455.303,1635189974,full,ni_sequenzen,NI_Sequenzen,,,,,,,,,,,,,,
,Screen_3,canvas.Screen,0_2_28_2,,skipped,29,23423.399999976158,,,23422.600000023842,,23423.5,2021-10-26T06:05:01.074Z,23455.303,1635189974,full,ni_sequenzen,NI_Sequenzen,,,,,,,,,,,,,,
,Screen_4,canvas.Screen,0_2_28_3,,skipped,29,23424.600000023842,,,23422.600000023842,,23424.600000023842,2021-10-26T06:05:01.075Z,23455.303,1635189974,full,ni_sequenzen,NI_Sequenzen,,,,,,,,,,,,,,
,Screen_5,canvas.Screen,0_2_28_4,,skipped,29,23425.100000023842,,,23422.600000023842,,23425.100000023842,2021-10-26T06:05:01.076Z,23455.303,1635189974,full,ni_sequenzen,NI_Sequenzen,,,,,,,,,,,,,,
,Screen_6,canvas.Screen,0_2_28_5,,skipped,29,23425.5,,,23422.600000023842,,23425.5,2021-10-26T06:05:01.076Z,23455.303,1635189974,full,ni_sequenzen,NI_Sequenzen,,,,,,,,,,,,,,
,Sequence,flow.Sequence,0_2_28,,completion,29,23422.199999928474,,,23422.600000023842,,23425.600000023842,2021-10-26T06:05:01.076Z,23455.303,1635189974,full,ni_sequenzen,NI_Sequenzen,,,,,,,,,,,,,,
,Screen_1,canvas.Screen,0_2_29_0,,skipped,30,23426.199999928474,,,23426.299999952316,,23426.299999952316,2021-10-26T06:05:01.077Z,23455.303,1635189974,full,ni_sequenzen,NI_Sequenzen,,,,,,,,,,,,,,
,Screen_2,canvas.Screen,0_2_29_1,,skipped,30,23426.699999928474,,,23426.299999952316,,23426.699999928474,2021-10-26T06:05:01.077Z,23455.303,1635189974,full,ni_sequenzen,NI_Sequenzen,,,,,,,,,,,,,,
,Screen_3,canvas.Screen,0_2_29_2,,skipped,30,23427,,,23426.299999952316,,23427.100000023842,2021-10-26T06:05:01.078Z,23455.303,1635189974,full,ni_sequenzen,NI_Sequenzen,,,,,,,,,,,,,,
,Screen_4,canvas.Screen,0_2_29_3,,skipped,30,23427.399999976158,,,23426.299999952316,,23427.5,2021-10-26T06:05:01.078Z,23455.303,1635189974,full,ni_sequenzen,NI_Sequenzen,,,,,,,,,,,,,,
,Screen_5,canvas.Screen,0_2_29_4,,skipped,30,23427.899999976158,,,23426.299999952316,,23427.899999976158,2021-10-26T06:05:01.078Z,23455.303,1635189974,full,ni_sequenzen,NI_Sequenzen,,,,,,,,,,,,,,
,Screen_6,canvas.Screen,0_2_29_5,,skipped,30,23428.199999928474,,,23426.299999952316,,23428.299999952316,2021-10-26T06:05:01.079Z,23455.303,1635189974,full,ni_sequenzen,NI_Sequenzen,,,,,,,,,,,,,,
,Sequence,flow.Sequence,0_2_29,,completion,30,23425.799999952316,,,23426.299999952316,,23428.299999952316,2021-10-26T06:05:01.079Z,23455.303,1635189974,full,ni_sequenzen,NI_Sequenzen,,,,,,,,,,,,,,
,Instructions_II,flow.Loop,0_2,,completion,,19393.899999976158,19388.677,19405.381,23426.299999952316,4020.918999952315,23428.399999976158,2021-10-26T06:05:01.079Z,23455.303,1635189974,full,ni_sequenzen,NI_Sequenzen,,,,,,,,,,,,,,
,Move,canvas.Screen,0_3_0_0_0_0,right,response,,23447.5,23438.823,23455.303,25774.100000023842,2318.797000023842,25774.5,2021-10-26T06:05:03.425Z,25788.718,1635189974,full,ni_sequenzen,NI_Sequenzen,1,0,,,,,,,,,,,,
,Move,canvas.Screen,0_3_0_0_0_1,down,response,,25778,25771.966,25788.718,26000.299999952316,211.58199995231553,26001.199999928474,2021-10-26T06:05:03.652Z,26022.176,1635189974,full,ni_sequenzen,NI_Sequenzen,2,0,,,,,,,,,,,,
,Move,canvas.Screen,0_3_0_0_0_2,right,response,,26005,25988.856,26022.176,26210.199999928474,188.02399992847495,26210.600000023842,2021-10-26T06:05:03.861Z,26221.985,1635189974,full,ni_sequenzen,NI_Sequenzen,3,0,,,,,,,,,,,,
,Move,canvas.Screen,0_3_0_0_0_3,down,response,,26212.799999952316,26205.322,26221.985,26341.600000023842,119.61500002384128,26342.199999928474,2021-10-26T06:05:03.993Z,26371.958,1635189974,full,ni_sequenzen,NI_Sequenzen,4,0,,,,,,,,,,,,
,Move,canvas.Screen,0_3_0_0_0_4,-999,skipped,,26345.299999952316,,,26341.600000023842,,26345.399999976158,2021-10-26T06:05:03.996Z,26371.958,1635189974,full,ni_sequenzen,NI_Sequenzen,5,0,,,,,,,,,,,,
,Move,canvas.Screen,0_3_0_0_0_5,-999,skipped,,26347.699999928474,,,26341.600000023842,,26347.699999928474,2021-10-26T06:05:03.998Z,26371.958,1635189974,full,ni_sequenzen,NI_Sequenzen,6,0,,,,,,,,,,,,
,Move,canvas.Screen,0_3_0_0_0_6,-999,skipped,,26349.199999928474,,,26341.600000023842,,26349.199999928474,2021-10-26T06:05:04.000Z,26371.958,1635189974,full,ni_sequenzen,NI_Sequenzen,7,0,,,,,,,,,,,,
,Move,canvas.Screen,0_3_0_0_0_7,-999,skipped,,26350.399999976158,,,26341.600000023842,,26350.399999976158,2021-10-26T06:05:04.001Z,26371.958,1635189974,full,ni_sequenzen,NI_Sequenzen,8,0,,,,,,,,,,,,
,Move,canvas.Screen,0_3_0_0_0_8,-999,skipped,,26351.5,,,26341.600000023842,,26351.5,2021-10-26T06:05:04.002Z,26371.958,1635189974,full,ni_sequenzen,NI_Sequenzen,9,0,,,,,,,,,,,,
,Move,canvas.Screen,0_3_0_0_0_9,-999,skipped,,26352.5,,,26341.600000023842,,26352.600000023842,2021-10-26T06:05:04.003Z,26371.958,1635189974,full,ni_sequenzen,NI_Sequenzen,10,0,,,,,,,,,,,,
,Move,canvas.Screen,0_3_0_0_0_10,-999,skipped,,26353.899999976158,,,26341.600000023842,,26354,2021-10-26T06:05:04.004Z,26371.958,1635189974,full,ni_sequenzen,NI_Sequenzen,11,0,,,,,,,,,,,,
,Move,canvas.Screen,0_3_0_0_0_11,-999,skipped,,26355.199999928474,,,26341.600000023842,,26355.299999952316,2021-10-26T06:05:04.006Z,26371.958,1635189974,full,ni_sequenzen,NI_Sequenzen,12,0,,,,,,,,,,,,
,Move,canvas.Screen,0_3_0_0_0_12,-999,skipped,,26357.5,,,26341.600000023842,,26357.5,2021-10-26T06:05:04.008Z,26371.958,1635189974,full,ni_sequenzen,NI_Sequenzen,13,0,,,,,,,,,,,,
,Move,canvas.Screen,0_3_0_0_0_13,-999,skipped,,26359.399999976158,,,26341.600000023842,,26359.5,2021-10-26T06:05:04.010Z,26371.958,1635189974,full,ni_sequenzen,NI_Sequenzen,14,0,,,,,,,,,,,,
,Move,canvas.Screen,0_3_0_0_0_14,-999,skipped,,26361.5,,,26341.600000023842,,26361.600000023842,2021-10-26T06:05:04.012Z,26371.958,1635189974,full,ni_sequenzen,NI_Sequenzen,15,0,,,,,,,,,,,,
,Loop,flow.Loop,0_3_0_0_0,-999,completion,,23444.699999928474,23438.823,23455.303,26341.600000023842,2886.297000023842,26361.799999952316,2021-10-26T06:05:04.012Z,26371.958,1635189974,full,ni_sequenzen,NI_Sequenzen,,0,,,,,,,,,,,,
,Feedback,canvas.Screen,0_3_0_0_1,,timeout,,26363.299999952316,26355.499,26371.958,30355.772,4000.094000000001,30357.199999928474,2021-10-26T06:05:08.008Z,30372.052,1635189974,full,ni_sequenzen,NI_Sequenzen,,0,,,,,,,,,,,,
,Trial,flow.Sequence,0_3_0_0,,completion,,23438.299999952316,23438.823,23455.303,30355.772,6900.469000000001,30357.399999976158,2021-10-26T06:05:08.008Z,30388.865,1635189974,full,ni_sequenzen,NI_Sequenzen,,0,,,,,,,,,,,,
,Move,canvas.Screen,0_3_0_1_0_0,right,response,,30367.399999976158,30372.052,30388.865,30900.600000023842,511.73500002384026,30901.5,2021-10-26T06:05:08.552Z,30922.061,1635189974,full,ni_sequenzen,NI_Sequenzen,1,1,,,,,,,,,,,,
,Move,canvas.Screen,0_3_0_1_0_1,down,response,,30906.899999976158,30905.536,30922.061,31039.199999928474,117.13899992847291,31039.699999928474,2021-10-26T06:05:08.690Z,31055.363,1635189974,full,ni_sequenzen,NI_Sequenzen,2,1,,,,,,,,,,,,
,Move,canvas.Screen,0_3_0_1_0_2,right,response,,31042.600000023842,31038.909,31055.363,31230.899999976158,175.53699997615695,31231.899999976158,2021-10-26T06:05:08.882Z,31238.776,1635189974,full,ni_sequenzen,NI_Sequenzen,3,1,,,,,,,,,,,,
,Move,canvas.Screen,0_3_0_1_0_3,down,response,,31237.299999952316,31222.214,31238.776,31352,113.22399999999834,31352.600000023842,2021-10-26T06:05:09.003Z,31388.713,1635189974,full,ni_sequenzen,NI_Sequenzen,4,1,,,,,,,,,,,,
,Move,canvas.Screen,0_3_0_1_0_4,-999,skipped,,31356.399999976158,,,31352,,31356.600000023842,2021-10-26T06:05:09.007Z,31388.713,1635189974,full,ni_sequenzen,NI_Sequenzen,5,1,,,,,,,,,,,,
,Move,canvas.Screen,0_3_0_1_0_5,-999,skipped,,31360.100000023842,,,31352,,31360.199999928474,2021-10-26T06:05:09.011Z,31388.713,1635189974,full,ni_sequenzen,NI_Sequenzen,6,1,,,,,,,,,,,,
,Move,canvas.Screen,0_3_0_1_0_6,-999,skipped,,31363.600000023842,,,31352,,31363.699999928474,2021-10-26T06:05:09.014Z,31388.713,1635189974,full,ni_sequenzen,NI_Sequenzen,7,1,,,,,,,,,,,,
,Move,canvas.Screen,0_3_0_1_0_7,-999,skipped,,31367.100000023842,,,31352,,31367.199999928474,2021-10-26T06:05:09.018Z,31388.713,1635189974,full,ni_sequenzen,NI_Sequenzen,8,1,,,,,,,,,,,,
,Move,canvas.Screen,0_3_0_1_0_8,-999,skipped,,31370.600000023842,,,31352,,31370.799999952316,2021-10-26T06:05:09.021Z,31388.713,1635189974,full,ni_sequenzen,NI_Sequenzen,9,1,,,,,,,,,,,,
,Move,canvas.Screen,0_3_0_1_0_9,-999,skipped,,31374.199999928474,,,31352,,31374.299999952316,2021-10-26T06:05:09.025Z,31388.713,1635189974,full,ni_sequenzen,NI_Sequenzen,10,1,,,,,,,,,,,,
,Move,canvas.Screen,0_3_0_1_0_10,-999,skipped,,31376.799999952316,,,31352,,31376.799999952316,2021-10-26T06:05:09.027Z,31388.713,1635189974,full,ni_sequenzen,NI_Sequenzen,11,1,,,,,,,,,,,,
,Move,canvas.Screen,0_3_0_1_0_11,-999,skipped,,31378.799999952316,,,31352,,31378.899999976158,2021-10-26T06:05:09.029Z,31388.713,1635189974,full,ni_sequenzen,NI_Sequenzen,12,1,,,,,,,,,,,,
,Move,canvas.Screen,0_3_0_1_0_12,-999,skipped,,31380.799999952316,,,31352,,31380.899999976158,2021-10-26T06:05:09.031Z,31388.713,1635189974,full,ni_sequenzen,NI_Sequenzen,13,1,,,,,,,,,,,,
,Move,canvas.Screen,0_3_0_1_0_13,-999,skipped,,31382.5,,,31352,,31382.600000023842,2021-10-26T06:05:09.033Z,31388.713,1635189974,full,ni_sequenzen,NI_Sequenzen,14,1,,,,,,,,,,,,
,Move,canvas.Screen,0_3_0_1_0_14,-999,skipped,,31384.600000023842,,,31352,,31384.699999928474,2021-10-26T06:05:09.035Z,31388.713,1635189974,full,ni_sequenzen,NI_Sequenzen,15,1,,,,,,,,,,,,
,Loop,flow.Loop,0_3_0_1_0,-999,completion,,30365.899999976158,30372.052,30388.865,31352,963.1349999999984,31384.799999952316,2021-10-26T06:05:09.035Z,31388.713,1635189974,full,ni_sequenzen,NI_Sequenzen,,1,,,,,,,,,,,,
,Feedback,canvas.Screen,0_3_0_1_1,,timeout,,31387.100000023842,31372.255,31388.713,35372.495,4000.0759999999973,35373.60000002384,2021-10-26T06:05:13.024Z,35388.789,1635189974,full,ni_sequenzen,NI_Sequenzen,,1,,,,,,,,,,,,
,Trial,flow.Sequence,0_3_0_1,,completion,,30358.100000023842,30372.052,30388.865,35372.495,4983.630000000001,35373.799999952316,2021-10-26T06:05:13.024Z,35405.648,1635189974,full,ni_sequenzen,NI_Sequenzen,,1,,,,,,,,,,,,
,Move,canvas.Screen,0_3_0_2_0_0,right,response,,35385.5,35388.789,35405.648,35830,424.35199999999895,35830.89999997616,2021-10-26T06:05:13.481Z,35838.862,1635189974,full,ni_sequenzen,NI_Sequenzen,1,2,,,,,,,,,,,,
,Move,canvas.Screen,0_3_0_2_0_1,down,response,,35836.199999928474,35822.276,35838.862,35976.5,137.637999999999,35977.39999997616,2021-10-26T06:05:13.628Z,35988.805,1635189974,full,ni_sequenzen,NI_Sequenzen,2,2,,,,,,,,,,,,
,Move,canvas.Screen,0_3_0_2_0_2,right,response,,35982.10000002384,35972.302,35988.805,36145.60000002384,156.79500002384157,36146.60000002384,2021-10-26T06:05:13.797Z,36155.438,1635189974,full,ni_sequenzen,NI_Sequenzen,3,2,,,,,,,,,,,,
,Move,canvas.Screen,0_3_0_2_0_3,down,response,,36151.10000002384,36138.987,36155.438,36380.89999997616,225.46199997615622,36381.299999952316,2021-10-26T06:05:14.032Z,36405.44,1635189974,full,ni_sequenzen,NI_Sequenzen,4,2,,,,,,,,,,,,
,Move,canvas.Screen,0_3_0_2_0_4,-999,skipped,,36383.10000002384,,,36380.89999997616,,36383.199999928474,2021-10-26T06:05:14.034Z,36405.44,1635189974,full,ni_sequenzen,NI_Sequenzen,5,2,,,,,,,,,,,,
,Move,canvas.Screen,0_3_0_2_0_5,-999,skipped,,36384.60000002384,,,36380.89999997616,,36384.60000002384,2021-10-26T06:05:14.035Z,36405.44,1635189974,full,ni_sequenzen,NI_Sequenzen,6,2,,,,,,,,,,,,
,Move,canvas.Screen,0_3_0_2_0_6,-999,skipped,,36386,,,36380.89999997616,,36386.10000002384,2021-10-26T06:05:14.037Z,36405.44,1635189974,full,ni_sequenzen,NI_Sequenzen,7,2,,,,,,,,,,,,
,Move,canvas.Screen,0_3_0_2_0_7,-999,skipped,,36387.199999928474,,,36380.89999997616,,36387.299999952316,2021-10-26T06:05:14.038Z,36405.44,1635189974,full,ni_sequenzen,NI_Sequenzen,8,2,,,,,,,,,,,,
,Move,canvas.Screen,0_3_0_2_0_8,-999,skipped,,36388.60000002384,,,36380.89999997616,,36388.60000002384,2021-10-26T06:05:14.039Z,36405.44,1635189974,full,ni_sequenzen,NI_Sequenzen,9,2,,,,,,,,,,,,
,Move,canvas.Screen,0_3_0_2_0_9,-999,skipped,,36389.60000002384,,,36380.89999997616,,36389.60000002384,2021-10-26T06:05:14.040Z,36405.44,1635189974,full,ni_sequenzen,NI_Sequenzen,10,2,,,,,,,,,,,,
,Move,canvas.Screen,0_3_0_2_0_10,-999,skipped,,36390.699999928474,,,36380.89999997616,,36390.699999928474,2021-10-26T06:05:14.041Z,36405.44,1635189974,full,ni_sequenzen,NI_Sequenzen,11,2,,,,,,,,,,,,
,Move,canvas.Screen,0_3_0_2_0_11,-999,skipped,,36391.699999928474,,,36380.89999997616,,36391.799999952316,2021-10-26T06:05:14.042Z,36405.44,1635189974,full,ni_sequenzen,NI_Sequenzen,12,2,,,,,,,,,,,,
,Move,canvas.Screen,0_3_0_2_0_12,-999,skipped,,36392.89999997616,,,36380.89999997616,,36392.89999997616,2021-10-26T06:05:14.043Z,36405.44,1635189974,full,ni_sequenzen,NI_Sequenzen,13,2,,,,,,,,,,,,
,Move,canvas.Screen,0_3_0_2_0_13,-999,skipped,,36394.10000002384,,,36380.89999997616,,36394.10000002384,2021-10-26T06:05:14.045Z,36405.44,1635189974,full,ni_sequenzen,NI_Sequenzen,14,2,,,,,,,,,,,,
,Move,canvas.Screen,0_3_0_2_0_14,-999,skipped,,36395.199999928474,,,36380.89999997616,,36395.199999928474,2021-10-26T06:05:14.046Z,36405.44,1635189974,full,ni_sequenzen,NI_Sequenzen,15,2,,,,,,,,,,,,
,Loop,flow.Loop,0_3_0_2_0,-999,completion,,35383.89999997616,35388.789,35405.648,36380.89999997616,975.2519999761571,36395.299999952316,2021-10-26T06:05:14.046Z,36405.44,1635189974,full,ni_sequenzen,NI_Sequenzen,,2,,,,,,,,,,,,
,Feedback,canvas.Screen,0_3_0_2_1,,timeout,,36396.699999928474,36388.813,36405.44,40389.268,4000.095000000001,40390.39999997616,2021-10-26T06:05:18.041Z,40405.535,1635189974,full,ni_sequenzen,NI_Sequenzen,,2,,,,,,,,,,,,
,Trial,flow.Sequence,0_3_0_2,,completion,,35374.39999997616,35388.789,35405.648,40389.268,4983.619999999995,40390.60000002384,2021-10-26T06:05:18.041Z,40422.369,1635189974,full,ni_sequenzen,NI_Sequenzen,,2,,,,,,,,,,,,
,Move,canvas.Screen,0_3_0_3_0_0,right,response,,40402.799999952316,40405.535,40422.369,40900,477.6310000000012,40901,2021-10-26T06:05:18.551Z,40922.394,1635189974,full,ni_sequenzen,NI_Sequenzen,1,3,,,,,,,,,,,,
,Move,canvas.Screen,0_3_0_3_0_1,down,response,,40905.799999952316,40905.689,40922.394,41016.39999997616,94.00599997615791,41017.299999952316,2021-10-26T06:05:18.668Z,41039.099,1635189974,full,ni_sequenzen,NI_Sequenzen,2,3,,,,,,,,,,,,
,Move,canvas.Screen,0_3_0_3_0_2,right,response,,41022.10000002384,41022.416,41039.099,41265.5,226.40099999999802,41266,2021-10-26T06:05:18.916Z,41272.184,1635189974,full,ni_sequenzen,NI_Sequenzen,3,3,,,,,,,,,,,,
,Move,canvas.Screen,0_3_0_3_0_3,down,response,,41267.699999928474,41255.584,41272.184,41381.10000002384,108.91600002384075,41381.699999928474,2021-10-26T06:05:19.032Z,41422.219,1635189974,full,ni_sequenzen,NI_Sequenzen,4,3,,,,,,,,,,,,
,Move,canvas.Screen,0_3_0_3_0_4,-999,skipped,,41385.60000002384,,,41381.10000002384,,41385.799999952316,2021-10-26T06:05:19.036Z,41422.219,1635189974,full,ni_sequenzen,NI_Sequenzen,5,3,,,,,,,,,,,,
,Move,canvas.Screen,0_3_0_3_0_5,-999,skipped,,41389.699999928474,,,41381.10000002384,,41389.89999997616,2021-10-26T06:05:19.040Z,41422.219,1635189974,full,ni_sequenzen,NI_Sequenzen,6,3,,,,,,,,,,,,
,Move,canvas.Screen,0_3_0_3_0_6,-999,skipped,,41393.5,,,41381.10000002384,,41393.60000002384,2021-10-26T06:05:19.044Z,41422.219,1635189974,full,ni_sequenzen,NI_Sequenzen,7,3,,,,,,,,,,,,
,Move,canvas.Screen,0_3_0_3_0_7,-999,skipped,,41397.299999952316,,,41381.10000002384,,41397.299999952316,2021-10-26T06:05:19.048Z,41422.219,1635189974,full,ni_sequenzen,NI_Sequenzen,8,3,,,,,,,,,,,,
,Move,canvas.Screen,0_3_0_3_0_8,-999,skipped,,41400.799999952316,,,41381.10000002384,,41400.799999952316,2021-10-26T06:05:19.051Z,41422.219,1635189974,full,ni_sequenzen,NI_Sequenzen,9,3,,,,,,,,,,,,
,Move,canvas.Screen,0_3_0_3_0_9,-999,skipped,,41403.60000002384,,,41381.10000002384,,41403.699999928474,2021-10-26T06:05:19.054Z,41422.219,1635189974,full,ni_sequenzen,NI_Sequenzen,10,3,,,,,,,,,,,,
,Move,canvas.Screen,0_3_0_3_0_10,-999,skipped,,41406.699999928474,,,41381.10000002384,,41406.89999997616,2021-10-26T06:05:19.057Z,41422.219,1635189974,full,ni_sequenzen,NI_Sequenzen,11,3,,,,,,,,,,,,
,Move,canvas.Screen,0_3_0_3_0_11,-999,skipped,,41408.799999952316,,,41381.10000002384,,41408.89999997616,2021-10-26T06:05:19.059Z,41422.219,1635189974,full,ni_sequenzen,NI_Sequenzen,12,3,,,,,,,,,,,,
,Move,canvas.Screen,0_3_0_3_0_12,-999,skipped,,41410.699999928474,,,41381.10000002384,,41410.799999952316,2021-10-26T06:05:19.061Z,41422.219,1635189974,full,ni_sequenzen,NI_Sequenzen,13,3,,,,,,,,,,,,
,Move,canvas.Screen,0_3_0_3_0_13,-999,skipped,,41412.39999997616,,,41381.10000002384,,41412.5,2021-10-26T06:05:19.063Z,41422.219,1635189974,full,ni_sequenzen,NI_Sequenzen,14,3,,,,,,,,,,,,
,Move,canvas.Screen,0_3_0_3_0_14,-999,skipped,,41414.10000002384,,,41381.10000002384,,41414.199999928474,2021-10-26T06:05:19.065Z,41422.219,1635189974,full,ni_sequenzen,NI_Sequenzen,15,3,,,,,,,,,,,,
,Loop,flow.Loop,0_3_0_3_0,-999,completion,,40401.299999952316,40405.535,40422.369,41381.10000002384,958.7310000238431,41414.39999997616,2021-10-26T06:05:19.065Z,41422.219,1635189974,full,ni_sequenzen,NI_Sequenzen,,3,,,,,,,,,,,,
,Feedback,canvas.Screen,0_3_0_3_1,,timeout,,41415.799999952316,41405.702,41422.219,45405.997,4000.0480000000025,45407,2021-10-26T06:05:23.058Z,45422.267,1635189974,full,ni_sequenzen,NI_Sequenzen,,3,,,,,,,,,,,,
,Trial,flow.Sequence,0_3_0_3,,completion,,40391.299999952316,40405.535,40422.369,45405.997,4983.628000000004,45407.299999952316,2021-10-26T06:05:23.058Z,45438.933,1635189974,full,ni_sequenzen,NI_Sequenzen,,3,,,,,,,,,,,,
,Move,canvas.Screen,0_3_0_4_0_0,right,response,,45422.799999952316,45422.267,45438.933,45940.10000002384,501.1670000238446,45951.199999928474,2021-10-26T06:05:23.602Z,45955.624,1635189974,full,ni_sequenzen,NI_Sequenzen,1,4,,,,,,,,,,,,
,Move,canvas.Screen,0_3_0_4_0_1,down,response,,45953,45939.071,45955.624,46080.10000002384,124.47600002383842,46081,2021-10-26T06:05:23.731Z,46088.995,1635189974,full,ni_sequenzen,NI_Sequenzen,2,4,,,,,,,,,,,,
,Move,canvas.Screen,0_3_0_4_0_2,right,response,,46086.699999928474,46072.445,46088.995,46265.39999997616,176.40499997615552,46266,2021-10-26T06:05:23.916Z,46272.289,1635189974,full,ni_sequenzen,NI_Sequenzen,3,4,,,,,,,,,,,,
,Move,canvas.Screen,0_3_0_4_0_3,down,response,,46267.5,46255.686,46272.289,46422.10000002384,149.81100002384483,46423,2021-10-26T06:05:24.073Z,46455.79,1635189974,full,ni_sequenzen,NI_Sequenzen,4,4,,,,,,,,,,,,
,Move,canvas.Screen,0_3_0_4_0_4,-999,skipped,,46428.199999928474,,,46422.10000002384,,46428.199999928474,2021-10-26T06:05:24.079Z,46455.79,1635189974,full,ni_sequenzen,NI_Sequenzen,5,4,,,,,,,,,,,,
,Move,canvas.Screen,0_3_0_4_0_5,-999,skipped,,46429.299999952316,,,46422.10000002384,,46429.299999952316,2021-10-26T06:05:24.080Z,46455.79,1635189974,full,ni_sequenzen,NI_Sequenzen,6,4,,,,,,,,,,,,
,Move,canvas.Screen,0_3_0_4_0_6,-999,skipped,,46430.299999952316,,,46422.10000002384,,46430.299999952316,2021-10-26T06:05:24.081Z,46455.79,1635189974,full,ni_sequenzen,NI_Sequenzen,7,4,,,,,,,,,,,,
,Move,canvas.Screen,0_3_0_4_0_7,-999,skipped,,46431.60000002384,,,46422.10000002384,,46431.60000002384,2021-10-26T06:05:24.082Z,46455.79,1635189974,full,ni_sequenzen,NI_Sequenzen,8,4,,,,,,,,,,,,
,Move,canvas.Screen,0_3_0_4_0_8,-999,skipped,,46432.60000002384,,,46422.10000002384,,46432.60000002384,2021-10-26T06:05:24.083Z,46455.79,1635189974,full,ni_sequenzen,NI_Sequenzen,9,4,,,,,,,,,,,,
,Move,canvas.Screen,0_3_0_4_0_9,-999,skipped,,46433.799999952316,,,46422.10000002384,,46433.89999997616,2021-10-26T06:05:24.084Z,46455.79,1635189974,full,ni_sequenzen,NI_Sequenzen,10,4,,,,,,,,,,,,
,Move,canvas.Screen,0_3_0_4_0_10,-999,skipped,,46435.199999928474,,,46422.10000002384,,46435.299999952316,2021-10-26T06:05:24.086Z,46455.79,1635189974,full,ni_sequenzen,NI_Sequenzen,11,4,,,,,,,,,,,,
,Move,canvas.Screen,0_3_0_4_0_11,-999,skipped,,46436.299999952316,,,46422.10000002384,,46436.39999997616,2021-10-26T06:05:24.087Z,46455.79,1635189974,full,ni_sequenzen,NI_Sequenzen,12,4,,,,,,,,,,,,
,Move,canvas.Screen,0_3_0_4_0_12,-999,skipped,,46437.299999952316,,,46422.10000002384,,46437.39999997616,2021-10-26T06:05:24.088Z,46455.79,1635189974,full,ni_sequenzen,NI_Sequenzen,13,4,,,,,,,,,,,,
,Move,canvas.Screen,0_3_0_4_0_13,-999,skipped,,46438.299999952316,,,46422.10000002384,,46438.39999997616,2021-10-26T06:05:24.089Z,46455.79,1635189974,full,ni_sequenzen,NI_Sequenzen,14,4,,,,,,,,,,,,
,Move,canvas.Screen,0_3_0_4_0_14,-999,skipped,,46439.60000002384,,,46422.10000002384,,46439.60000002384,2021-10-26T06:05:24.090Z,46455.79,1635189974,full,ni_sequenzen,NI_Sequenzen,15,4,,,,,,,,,,,,
,Loop,flow.Loop,0_3_0_4_0,-999,completion,,45421.39999997616,45422.267,45438.933,46422.10000002384,983.1670000238446,46439.699999928474,2021-10-26T06:05:24.090Z,46455.79,1635189974,full,ni_sequenzen,NI_Sequenzen,,4,,,,,,,,,,,,
,Feedback,canvas.Screen,0_3_0_4_1,,timeout,,46440.39999997616,46439.147,46455.79,50439.406,4000.1789999999964,50440.5,2021-10-26T06:05:28.091Z,50455.969,1635189974,full,ni_sequenzen,NI_Sequenzen,,4,,,,,,,,,,,,
,Trial,flow.Sequence,0_3_0_4,,completion,,45408,45422.267,45438.933,50439.406,5000.473000000005,50440.799999952316,2021-10-26T06:05:28.091Z,50472.491,1635189974,full,ni_sequenzen,NI_Sequenzen,,4,,,,,,,,,,,,
,Move,canvas.Screen,0_3_0_5_0_0,right,response,,50452.799999952316,50455.969,50472.491,51334.89999997616,862.4089999761563,51335.5,2021-10-26T06:05:28.986Z,51371.092,1635189974,full,ni_sequenzen,NI_Sequenzen,1,5,,,,,,,,,,,,
,Move,canvas.Screen,0_3_0_5_0_1,down,response,,51338.10000002384,51322.483,51371.092,51506.60000002384,135.50800002384494,51507.60000002384,2021-10-26T06:05:29.158Z,51522.366,1635189974,full,ni_sequenzen,NI_Sequenzen,2,5,,,,,,,,,,,,
,Move,canvas.Screen,0_3_0_5_0_2,right,response,,51510.799999952316,51505.876,51522.366,51692,169.6339999999982,51693,2021-10-26T06:05:29.343Z,51705.729,1635189974,full,ni_sequenzen,NI_Sequenzen,3,5,,,,,,,,,,,,
,Move,canvas.Screen,0_3_0_5_0_3,down,response,,51696.89999997616,51689.216,51705.729,51902.199999928474,196.47099992847507,51902.699999928474,2021-10-26T06:05:29.553Z,51939.134,1635189974,full,ni_sequenzen,NI_Sequenzen,4,5,,,,,,,,,,,,
,Move,canvas.Screen,0_3_0_5_0_4,-999,skipped,,51906.5,,,51902.199999928474,,51906.5,2021-10-26T06:05:29.557Z,51939.134,1635189974,full,ni_sequenzen,NI_Sequenzen,5,5,,,,,,,,,,,,
,Move,canvas.Screen,0_3_0_5_0_5,-999,skipped,,51909.199999928474,,,51902.199999928474,,51909.299999952316,2021-10-26T06:05:29.560Z,51939.134,1635189974,full,ni_sequenzen,NI_Sequenzen,6,5,,,,,,,,,,,,
,Move,canvas.Screen,0_3_0_5_0_6,-999,skipped,,51911.60000002384,,,51902.199999928474,,51911.60000002384,2021-10-26T06:05:29.562Z,51939.134,1635189974,full,ni_sequenzen,NI_Sequenzen,7,5,,,,,,,,,,,,
,Move,canvas.Screen,0_3_0_5_0_7,-999,skipped,,51912.699999928474,,,51902.199999928474,,51912.799999952316,2021-10-26T06:05:29.563Z,51939.134,1635189974,full,ni_sequenzen,NI_Sequenzen,8,5,,,,,,,,,,,,
,Move,canvas.Screen,0_3_0_5_0_8,-999,skipped,,51914.199999928474,,,51902.199999928474,,51914.299999952316,2021-10-26T06:05:29.565Z,51939.134,1635189974,full,ni_sequenzen,NI_Sequenzen,9,5,,,,,,,,,,,,
,Move,canvas.Screen,0_3_0_5_0_9,-999,skipped,,51915.699999928474,,,51902.199999928474,,51915.699999928474,2021-10-26T06:05:29.566Z,51939.134,1635189974,full,ni_sequenzen,NI_Sequenzen,10,5,,,,,,,,,,,,
,Move,canvas.Screen,0_3_0_5_0_10,-999,skipped,,51916.799999952316,,,51902.199999928474,,51916.799999952316,2021-10-26T06:05:29.567Z,51939.134,1635189974,full,ni_sequenzen,NI_Sequenzen,11,5,,,,,,,,,,,,
,Move,canvas.Screen,0_3_0_5_0_11,-999,skipped,,51917.89999997616,,,51902.199999928474,,51917.89999997616,2021-10-26T06:05:29.568Z,51939.134,1635189974,full,ni_sequenzen,NI_Sequenzen,12,5,,,,,,,,,,,,
,Move,canvas.Screen,0_3_0_5_0_12,-999,skipped,,51919,,,51902.199999928474,,51919.10000002384,2021-10-26T06:05:29.570Z,51939.134,1635189974,full,ni_sequenzen,NI_Sequenzen,13,5,,,,,,,,,,,,
,Move,canvas.Screen,0_3_0_5_0_13,-999,skipped,,51920.10000002384,,,51902.199999928474,,51920.10000002384,2021-10-26T06:05:29.571Z,51939.134,1635189974,full,ni_sequenzen,NI_Sequenzen,14,5,,,,,,,,,,,,
,Move,canvas.Screen,0_3_0_5_0_14,-999,skipped,,51921,,,51902.199999928474,,51921.10000002384,2021-10-26T06:05:29.571Z,51939.134,1635189974,full,ni_sequenzen,NI_Sequenzen,15,5,,,,,,,,,,,,
,Loop,flow.Loop,0_3_0_5_0,-999,completion,,50451.199999928474,50455.969,50472.491,51902.199999928474,1429.7089999284726,51921.10000002384,2021-10-26T06:05:29.572Z,51939.134,1635189974,full,ni_sequenzen,NI_Sequenzen,,5,,,,,,,,,,,,
,Feedback,canvas.Screen,0_3_0_5_1,,timeout,,51922,51905.867,51939.134,55922.819,4000.25,55923.799999952316,2021-10-26T06:05:33.574Z,55939.384,1635189974,full,ni_sequenzen,NI_Sequenzen,,5,,,,,,,,,,,,
,Trial,flow.Sequence,0_3_0_5,,completion,,50441.5,50455.969,50472.491,55922.819,5450.328000000001,55924.10000002384,2021-10-26T06:05:33.575Z,55955.959,1635189974,full,ni_sequenzen,NI_Sequenzen,,5,,,,,,,,,,,,
,Move,canvas.Screen,0_3_0_6_0_0,right,response,,55936.10000002384,55939.384,55955.959,56379.699999928474,423.74099992847187,56380.10000002384,2021-10-26T06:05:34.031Z,56389.122,1635189974,full,ni_sequenzen,NI_Sequenzen,1,6,,,,,,,,,,,,
,Move,canvas.Screen,0_3_0_6_0_1,down,response,,56381.89999997616,56372.585,56389.122,56545.299999952316,156.17799995231326,56545.699999928474,2021-10-26T06:05:34.196Z,56555.761,1635189974,full,ni_sequenzen,NI_Sequenzen,2,6,,,,,,,,,,,,
,Move,canvas.Screen,0_3_0_6_0_2,right,response,,56546.89999997616,56539.104,56555.761,56731,175.2390000000014,56731.39999997616,2021-10-26T06:05:34.382Z,56739.112,1635189974,full,ni_sequenzen,NI_Sequenzen,3,6,,,,,,,,,,,,
,Move,canvas.Screen,0_3_0_6_0_3,down,response,,56732.5,56722.402,56739.112,56872,132.887999999999,56872.60000002384,2021-10-26T06:05:34.523Z,56905.784,1635189974,full,ni_sequenzen,NI_Sequenzen,4,6,,,,,,,,,,,,
,Move,canvas.Screen,0_3_0_6_0_4,-999,skipped,,56874.799999952316,,,56872,,56874.89999997616,2021-10-26T06:05:34.525Z,56905.784,1635189974,full,ni_sequenzen,NI_Sequenzen,5,6,,,,,,,,,,,,
,Move,canvas.Screen,0_3_0_6_0_5,-999,skipped,,56877.699999928474,,,56872,,56877.699999928474,2021-10-26T06:05:34.528Z,56905.784,1635189974,full,ni_sequenzen,NI_Sequenzen,6,6,,,,,,,,,,,,
,Move,canvas.Screen,0_3_0_6_0_6,-999,skipped,,56879.699999928474,,,56872,,56879.799999952316,2021-10-26T06:05:34.530Z,56905.784,1635189974,full,ni_sequenzen,NI_Sequenzen,7,6,,,,,,,,,,,,
,Move,canvas.Screen,0_3_0_6_0_7,-999,skipped,,56881.60000002384,,,56872,,56881.699999928474,2021-10-26T06:05:34.532Z,56905.784,1635189974,full,ni_sequenzen,NI_Sequenzen,8,6,,,,,,,,,,,,
,Move,canvas.Screen,0_3_0_6_0_8,-999,skipped,,56884,,,56872,,56884.10000002384,2021-10-26T06:05:34.535Z,56905.784,1635189974,full,ni_sequenzen,NI_Sequenzen,9,6,,,,,,,,,,,,
,Move,canvas.Screen,0_3_0_6_0_9,-999,skipped,,56885.89999997616,,,56872,,56886,2021-10-26T06:05:34.536Z,56905.784,1635189974,full,ni_sequenzen,NI_Sequenzen,10,6,,,,,,,,,,,,
,Move,canvas.Screen,0_3_0_6_0_10,-999,skipped,,56887.799999952316,,,56872,,56887.89999997616,2021-10-26T06:05:34.538Z,56905.784,1635189974,full,ni_sequenzen,NI_Sequenzen,11,6,,,,,,,,,,,,
,Move,canvas.Screen,0_3_0_6_0_11,-999,skipped,,56889.799999952316,,,56872,,56889.89999997616,2021-10-26T06:05:34.540Z,56905.784,1635189974,full,ni_sequenzen,NI_Sequenzen,12,6,,,,,,,,,,,,
,Move,canvas.Screen,0_3_0_6_0_12,-999,skipped,,56892.10000002384,,,56872,,56892.10000002384,2021-10-26T06:05:34.543Z,56905.784,1635189974,full,ni_sequenzen,NI_Sequenzen,13,6,,,,,,,,,,,,
,Move,canvas.Screen,0_3_0_6_0_13,-999,skipped,,56893.799999952316,,,56872,,56893.89999997616,2021-10-26T06:05:34.544Z,56905.784,1635189974,full,ni_sequenzen,NI_Sequenzen,14,6,,,,,,,,,,,,
,Move,canvas.Screen,0_3_0_6_0_14,-999,skipped,,56895.39999997616,,,56872,,56895.39999997616,2021-10-26T06:05:34.546Z,56905.784,1635189974,full,ni_sequenzen,NI_Sequenzen,15,6,,,,,,,,,,,,
,Loop,flow.Loop,0_3_0_6_0,-999,completion,,55934.5,55939.384,55955.959,56872,916.0409999999974,56895.5,2021-10-26T06:05:34.546Z,56905.784,1635189974,full,ni_sequenzen,NI_Sequenzen,,6,,,,,,,,,,,,
,Feedback,canvas.Screen,0_3_0_6_1,,timeout,,56897.10000002384,56889.148,56905.784,60889.246,4000.3329999999987,60890.299999952316,2021-10-26T06:05:38.541Z,60906.117,1635189974,full,ni_sequenzen,NI_Sequenzen,,6,,,,,,,,,,,,
,Trial,flow.Sequence,0_3_0_6,,completion,,55924.699999928474,55939.384,55955.959,60889.246,4933.286999999997,60890.60000002384,2021-10-26T06:05:38.541Z,60922.67,1635189974,full,ni_sequenzen,NI_Sequenzen,,6,,,,,,,,,,,,
,Move,canvas.Screen,0_3_0_7_0_0,right,response,,60901.799999952316,60906.117,60922.67,61335.5,412.83000000000175,61336,2021-10-26T06:05:38.986Z,61370.924,1635189974,full,ni_sequenzen,NI_Sequenzen,1,7,,,,,,,,,,,,
,Move,canvas.Screen,0_3_0_7_0_1,down,response,,61338.10000002384,61322.642,61370.924,61617,246.07600000000093,61618,2021-10-26T06:05:39.268Z,61622.494,1635189974,full,ni_sequenzen,NI_Sequenzen,2,7,,,,,,,,,,,,
,Move,canvas.Screen,0_3_0_7_0_2,right,response,,61621.199999928474,61606.017,61622.494,61772,149.50600000000122,61773.10000002384,2021-10-26T06:05:39.424Z,61789.241,1635189974,full,ni_sequenzen,NI_Sequenzen,3,7,,,,,,,,,,,,
,Move,canvas.Screen,0_3_0_7_0_3,down,response,,61779.60000002384,61772.659,61789.241,61962.89999997616,173.65899997615634,61963.799999952316,2021-10-26T06:05:39.614Z,61989.153,1635189974,full,ni_sequenzen,NI_Sequenzen,4,7,,,,,,,,,,,,
,Move,canvas.Screen,0_3_0_7_0_4,-999,skipped,,61968.60000002384,,,61962.89999997616,,61968.60000002384,2021-10-26T06:05:39.619Z,61989.153,1635189974,full,ni_sequenzen,NI_Sequenzen,5,7,,,,,,,,,,,,
,Move,canvas.Screen,0_3_0_7_0_5,-999,skipped,,61969.89999997616,,,61962.89999997616,,61969.89999997616,2021-10-26T06:05:39.620Z,61989.153,1635189974,full,ni_sequenzen,NI_Sequenzen,6,7,,,,,,,,,,,,
,Move,canvas.Screen,0_3_0_7_0_6,-999,skipped,,61971.39999997616,,,61962.89999997616,,61971.39999997616,2021-10-26T06:05:39.622Z,61989.153,1635189974,full,ni_sequenzen,NI_Sequenzen,7,7,,,,,,,,,,,,
,Move,canvas.Screen,0_3_0_7_0_7,-999,skipped,,61972.39999997616,,,61962.89999997616,,61972.5,2021-10-26T06:05:39.623Z,61989.153,1635189974,full,ni_sequenzen,NI_Sequenzen,8,7,,,,,,,,,,,,
,Move,canvas.Screen,0_3_0_7_0_8,-999,skipped,,61973.5,,,61962.89999997616,,61973.60000002384,2021-10-26T06:05:39.624Z,61989.153,1635189974,full,ni_sequenzen,NI_Sequenzen,9,7,,,,,,,,,,,,
,Move,canvas.Screen,0_3_0_7_0_9,-999,skipped,,61975.199999928474,,,61962.89999997616,,61975.199999928474,2021-10-26T06:05:39.626Z,61989.153,1635189974,full,ni_sequenzen,NI_Sequenzen,10,7,,,,,,,,,,,,
,Move,canvas.Screen,0_3_0_7_0_10,-999,skipped,,61976.39999997616,,,61962.89999997616,,61976.5,2021-10-26T06:05:39.627Z,61989.153,1635189974,full,ni_sequenzen,NI_Sequenzen,11,7,,,,,,,,,,,,
,Move,canvas.Screen,0_3_0_7_0_11,-999,skipped,,61977.5,,,61962.89999997616,,61977.60000002384,2021-10-26T06:05:39.628Z,61989.153,1635189974,full,ni_sequenzen,NI_Sequenzen,12,7,,,,,,,,,,,,
,Move,canvas.Screen,0_3_0_7_0_12,-999,skipped,,61978.699999928474,,,61962.89999997616,,61978.799999952316,2021-10-26T06:05:39.629Z,61989.153,1635189974,full,ni_sequenzen,NI_Sequenzen,13,7,,,,,,,,,,,,
,Move,canvas.Screen,0_3_0_7_0_13,-999,skipped,,61980.199999928474,,,61962.89999997616,,61980.199999928474,2021-10-26T06:05:39.631Z,61989.153,1635189974,full,ni_sequenzen,NI_Sequenzen,14,7,,,,,,,,,,,,
,Move,canvas.Screen,0_3_0_7_0_14,-999,skipped,,61981.10000002384,,,61962.89999997616,,61981.199999928474,2021-10-26T06:05:39.632Z,61989.153,1635189974,full,ni_sequenzen,NI_Sequenzen,15,7,,,,,,,,,,,,
,Loop,flow.Loop,0_3_0_7_0,-999,completion,,60900.299999952316,60906.117,60922.67,61962.89999997616,1040.22999997616,61981.299999952316,2021-10-26T06:05:39.632Z,61989.153,1635189974,full,ni_sequenzen,NI_Sequenzen,,7,,,,,,,,,,,,
,Feedback,canvas.Screen,0_3_0_7_1,,timeout,,61982.10000002384,61972.757,61989.153,65972.931,4000.367999999995,65974,2021-10-26T06:05:43.624Z,65989.521,1635189974,full,ni_sequenzen,NI_Sequenzen,,7,,,,,,,,,,,,
,Trial,flow.Sequence,0_3_0_7,,completion,,60891.199999928474,60906.117,60922.67,65972.931,5050.260999999999,65974.19999992847,2021-10-26T06:05:43.625Z,66006.113,1635189974,full,ni_sequenzen,NI_Sequenzen,,7,,,,,,,,,,,,
,Move,canvas.Screen,0_3_0_8_0_0,right,response,,65985.79999995232,65989.521,66006.113,66400,393.88700000000244,66400.60000002384,2021-10-26T06:05:44.051Z,66405.993,1635189974,full,ni_sequenzen,NI_Sequenzen,1,8,,,,,,,,,,,,
,Move,canvas.Screen,0_3_0_8_0_1,down,response,,66402.89999997616,66389.419,66405.993,66596.5,190.5069999999978,66597.39999997616,2021-10-26T06:05:44.248Z,66605.927,1635189974,full,ni_sequenzen,NI_Sequenzen,2,8,,,,,,,,,,,,
,Move,canvas.Screen,0_3_0_8_0_2,right,response,,66601.29999995232,66589.457,66605.927,66766.29999995232,160.37299995232024,66767.10000002384,2021-10-26T06:05:44.417Z,66772.593,1635189974,full,ni_sequenzen,NI_Sequenzen,3,8,,,,,,,,,,,,
,Move,canvas.Screen,0_3_0_8_0_3,down,response,,66770.39999997616,66756.107,66772.593,66922.5,149.90700000000652,66923.5,2021-10-26T06:05:44.574Z,66972.749,1635189974,full,ni_sequenzen,NI_Sequenzen,4,8,,,,,,,,,,,,
,Move,canvas.Screen,0_3_0_8_0_4,-999,skipped,,66928.79999995232,,,66922.5,,66929,2021-10-26T06:05:44.579Z,66972.749,1635189974,full,ni_sequenzen,NI_Sequenzen,5,8,,,,,,,,,,,,
,Move,canvas.Screen,0_3_0_8_0_5,-999,skipped,,66933.5,,,66922.5,,66933.60000002384,2021-10-26T06:05:44.584Z,66972.749,1635189974,full,ni_sequenzen,NI_Sequenzen,6,8,,,,,,,,,,,,
,Move,canvas.Screen,0_3_0_8_0_6,-999,skipped,,66938.10000002384,,,66922.5,,66938.39999997616,2021-10-26T06:05:44.589Z,66972.749,1635189974,full,ni_sequenzen,NI_Sequenzen,7,8,,,,,,,,,,,,
,Move,canvas.Screen,0_3_0_8_0_7,-999,skipped,,66943,,,66922.5,,66943.19999992847,2021-10-26T06:05:44.594Z,66972.749,1635189974,full,ni_sequenzen,NI_Sequenzen,8,8,,,,,,,,,,,,
,Move,canvas.Screen,0_3_0_8_0_8,-999,skipped,,66946.39999997616,,,66922.5,,66946.60000002384,2021-10-26T06:05:44.597Z,66972.749,1635189974,full,ni_sequenzen,NI_Sequenzen,9,8,,,,,,,,,,,,
,Move,canvas.Screen,0_3_0_8_0_9,-999,skipped,,66949.69999992847,,,66922.5,,66949.79999995232,2021-10-26T06:05:44.600Z,66972.749,1635189974,full,ni_sequenzen,NI_Sequenzen,10,8,,,,,,,,,,,,
,Move,canvas.Screen,0_3_0_8_0_10,-999,skipped,,66952.69999992847,,,66922.5,,66952.69999992847,2021-10-26T06:05:44.603Z,66972.749,1635189974,full,ni_sequenzen,NI_Sequenzen,11,8,,,,,,,,,,,,
,Move,canvas.Screen,0_3_0_8_0_11,-999,skipped,,66954.60000002384,,,66922.5,,66954.69999992847,2021-10-26T06:05:44.605Z,66972.749,1635189974,full,ni_sequenzen,NI_Sequenzen,12,8,,,,,,,,,,,,
,Move,canvas.Screen,0_3_0_8_0_12,-999,skipped,,66956.5,,,66922.5,,66956.60000002384,2021-10-26T06:05:44.607Z,66972.749,1635189974,full,ni_sequenzen,NI_Sequenzen,13,8,,,,,,,,,,,,
,Move,canvas.Screen,0_3_0_8_0_13,-999,skipped,,66958.19999992847,,,66922.5,,66958.19999992847,2021-10-26T06:05:44.609Z,66972.749,1635189974,full,ni_sequenzen,NI_Sequenzen,14,8,,,,,,,,,,,,
,Move,canvas.Screen,0_3_0_8_0_14,-999,skipped,,66959.89999997616,,,66922.5,,66959.89999997616,2021-10-26T06:05:44.610Z,66972.749,1635189974,full,ni_sequenzen,NI_Sequenzen,15,8,,,,,,,,,,,,
