meta,sender,sender_type,sender_id,response,ended_on,instrCount,time_run,time_render,time_show,time_end,duration,time_commit,timestamp,time_switch,openLabId,type,task,project,move,trialN,blockN_Train,blockN,moveCount,currPP,points,movesTrial,visitedFields,diff,reward,Strategie,Zweck,Probleme
[object Object],Screen_1,canvas.Screen,0_0_0_0,cont,response,1,1243.7000007629395,3785.565,3835.473,25091.5,21256.027000000002,25095,2021-11-08T10:04:01.106Z,25200.511,1636365696,full,ni_sequenzen,NI_Sequenzen,,,,,,,,,,,,,,
,Screen_2,canvas.Screen,0_0_0_1,cont,response,1,25184.30000114441,25184.142,25200.511,45790.20000076294,20589.68900076294,45791.90000152588,2021-11-08T10:04:21.803Z,45882.361,1636365696,full,ni_sequenzen,NI_Sequenzen,,,,,,,,,,,,,,
,Screen_3,canvas.Screen,0_0_0_2,cont,response,1,45877.10000038147,45865.653,45882.361,65534.80000114441,19652.439001144412,65535.40000152588,2021-11-08T10:04:41.547Z,65547.556,1636365696,full,ni_sequenzen,NI_Sequenzen,,,,,,,,,,,,,,
,Screen_4,canvas.Screen,0_0_0_3,cont,response,1,65538.10000038147,65530.414,65547.556,73992,8444.444000000003,73993.90000152588,2021-11-08T10:04:49.994Z,74196.981,1636365696,full,ni_sequenzen,NI_Sequenzen,,,,,,,,,,,,,,
,Sequence,flow.Sequence,0_0_0,,completion,1,696.8000011444092,3785.565,3835.473,73992,70156.527,74005.40000152588,2021-11-08T10:04:50.006Z,74196.981,1636365696,full,ni_sequenzen,NI_Sequenzen,,,,,,,,,,,,,,
,Screen_1,canvas.Screen,0_0_1_0,,skipped,2,74013.80000114441,,,74013.80000114441,,74014.10000038147,2021-11-08T10:04:50.014Z,74196.981,1636365696,full,ni_sequenzen,NI_Sequenzen,,,,,,,,,,,,,,
,Screen_2,canvas.Screen,0_0_1_1,,skipped,2,74017.30000114441,,,74013.80000114441,,74017.70000076294,2021-11-08T10:04:50.018Z,74196.981,1636365696,full,ni_sequenzen,NI_Sequenzen,,,,,,,,,,,,,,
,Screen_3,canvas.Screen,0_0_1_2,,skipped,2,74020,,,74013.80000114441,,74020.10000038147,2021-11-08T10:04:50.020Z,74196.981,1636365696,full,ni_sequenzen,NI_Sequenzen,,,,,,,,,,,,,,
,Screen_4,canvas.Screen,0_0_1_3,,skipped,2,74021.90000152588,,,74013.80000114441,,74022.30000114441,2021-11-08T10:04:50.023Z,74196.981,1636365696,full,ni_sequenzen,NI_Sequenzen,,,,,,,,,,,,,,
,Sequence,flow.Sequence,0_0_1,,completion,2,74008.40000152588,,,74013.80000114441,,74022.70000076294,2021-11-08T10:04:50.023Z,74196.981,1636365696,full,ni_sequenzen,NI_Sequenzen,,,,,,,,,,,,,,
,Screen_1,canvas.Screen,0_0_2_0,,skipped,3,74024.5,,,74024.5,,74024.70000076294,2021-11-08T10:04:50.025Z,74196.981,1636365696,full,ni_sequenzen,NI_Sequenzen,,,,,,,,,,,,,,
,Screen_2,canvas.Screen,0_0_2_1,,skipped,3,74025.80000114441,,,74024.5,,74025.80000114441,2021-11-08T10:04:50.026Z,74196.981,1636365696,full,ni_sequenzen,NI_Sequenzen,,,,,,,,,,,,,,
,Screen_3,canvas.Screen,0_0_2_2,,skipped,3,74034.90000152588,,,74024.5,,74035,2021-11-08T10:04:50.035Z,74196.981,1636365696,full,ni_sequenzen,NI_Sequenzen,,,,,,,,,,,,,,
,Screen_4,canvas.Screen,0_0_2_3,,skipped,3,74036.20000076294,,,74024.5,,74036.30000114441,2021-11-08T10:04:50.037Z,74196.981,1636365696,full,ni_sequenzen,NI_Sequenzen,,,,,,,,,,,,,,
,Sequence,flow.Sequence,0_0_2,,completion,3,74023.30000114441,,,74024.5,,74036.5,2021-11-08T10:04:50.037Z,74196.981,1636365696,full,ni_sequenzen,NI_Sequenzen,,,,,,,,,,,,,,
,Screen_1,canvas.Screen,0_0_3_0,,skipped,4,74037.60000038147,,,74037.60000038147,,74037.90000152588,2021-11-08T10:04:50.038Z,74196.981,1636365696,full,ni_sequenzen,NI_Sequenzen,,,,,,,,,,,,,,
,Screen_2,canvas.Screen,0_0_3_1,,skipped,4,74038.80000114441,,,74037.60000038147,,74038.80000114441,2021-11-08T10:04:50.039Z,74196.981,1636365696,full,ni_sequenzen,NI_Sequenzen,,,,,,,,,,,,,,
,Screen_3,canvas.Screen,0_0_3_2,,skipped,4,74039.60000038147,,,74037.60000038147,,74039.60000038147,2021-11-08T10:04:50.040Z,74196.981,1636365696,full,ni_sequenzen,NI_Sequenzen,,,,,,,,,,,,,,
,Screen_4,canvas.Screen,0_0_3_3,,skipped,4,74040.40000152588,,,74037.60000038147,,74040.5,2021-11-08T10:04:50.041Z,74196.981,1636365696,full,ni_sequenzen,NI_Sequenzen,,,,,,,,,,,,,,
,Sequence,flow.Sequence,0_0_3,,completion,4,74036.80000114441,,,74037.60000038147,,74040.5,2021-11-08T10:04:50.041Z,74196.981,1636365696,full,ni_sequenzen,NI_Sequenzen,,,,,,,,,,,,,,
,Screen_1,canvas.Screen,0_0_4_0,,skipped,5,74041.40000152588,,,74041.40000152588,,74041.40000152588,2021-11-08T10:04:50.042Z,74196.981,1636365696,full,ni_sequenzen,NI_Sequenzen,,,,,,,,,,,,,,
,Screen_2,canvas.Screen,0_0_4_1,,skipped,5,74042.10000038147,,,74041.40000152588,,74042.10000038147,2021-11-08T10:04:50.042Z,74196.981,1636365696,full,ni_sequenzen,NI_Sequenzen,,,,,,,,,,,,,,
,Screen_3,canvas.Screen,0_0_4_2,,skipped,5,74042.80000114441,,,74041.40000152588,,74042.90000152588,2021-11-08T10:04:50.043Z,74196.981,1636365696,full,ni_sequenzen,NI_Sequenzen,,,,,,,,,,,,,,
,Screen_4,canvas.Screen,0_0_4_3,,skipped,5,74043.5,,,74041.40000152588,,74043.5,2021-11-08T10:04:50.044Z,74196.981,1636365696,full,ni_sequenzen,NI_Sequenzen,,,,,,,,,,,,,,
,Sequence,flow.Sequence,0_0_4,,completion,5,74040.80000114441,,,74041.40000152588,,74043.70000076294,2021-11-08T10:04:50.044Z,74196.981,1636365696,full,ni_sequenzen,NI_Sequenzen,,,,,,,,,,,,,,
,Screen_1,canvas.Screen,0_0_5_0,,skipped,6,74044.60000038147,,,74044.60000038147,,74044.60000038147,2021-11-08T10:04:50.045Z,74196.981,1636365696,full,ni_sequenzen,NI_Sequenzen,,,,,,,,,,,,,,
,Screen_2,canvas.Screen,0_0_5_1,,skipped,6,74045.40000152588,,,74044.60000038147,,74045.5,2021-11-08T10:04:50.046Z,74196.981,1636365696,full,ni_sequenzen,NI_Sequenzen,,,,,,,,,,,,,,
,Screen_3,canvas.Screen,0_0_5_2,,skipped,6,74046.10000038147,,,74044.60000038147,,74046.10000038147,2021-11-08T10:04:50.046Z,74196.981,1636365696,full,ni_sequenzen,NI_Sequenzen,,,,,,,,,,,,,,
,Screen_4,canvas.Screen,0_0_5_3,,skipped,6,74046.80000114441,,,74044.60000038147,,74046.90000152588,2021-11-08T10:04:50.047Z,74196.981,1636365696,full,ni_sequenzen,NI_Sequenzen,,,,,,,,,,,,,,
,Sequence,flow.Sequence,0_0_5,,completion,6,74043.90000152588,,,74044.60000038147,,74046.90000152588,2021-11-08T10:04:50.047Z,74196.981,1636365696,full,ni_sequenzen,NI_Sequenzen,,,,,,,,,,,,,,
,Screen_1,canvas.Screen,0_0_6_0,,skipped,7,74048.70000076294,,,74048.70000076294,,74048.70000076294,2021-11-08T10:04:50.049Z,74196.981,1636365696,full,ni_sequenzen,NI_Sequenzen,,,,,,,,,,,,,,
,Screen_2,canvas.Screen,0_0_6_1,,skipped,7,74049.40000152588,,,74048.70000076294,,74049.40000152588,2021-11-08T10:04:50.050Z,74196.981,1636365696,full,ni_sequenzen,NI_Sequenzen,,,,,,,,,,,,,,
,Screen_3,canvas.Screen,0_0_6_2,,skipped,7,74050.10000038147,,,74048.70000076294,,74050.20000076294,2021-11-08T10:04:50.051Z,74196.981,1636365696,full,ni_sequenzen,NI_Sequenzen,,,,,,,,,,,,,,
,Screen_4,canvas.Screen,0_0_6_3,,skipped,7,74050.80000114441,,,74048.70000076294,,74050.90000152588,2021-11-08T10:04:50.051Z,74196.981,1636365696,full,ni_sequenzen,NI_Sequenzen,,,,,,,,,,,,,,
,Sequence,flow.Sequence,0_0_6,,completion,7,74047.20000076294,,,74048.70000076294,,74051,2021-11-08T10:04:50.051Z,74196.981,1636365696,full,ni_sequenzen,NI_Sequenzen,,,,,,,,,,,,,,
,Screen_1,canvas.Screen,0_0_7_0,,skipped,8,74052,,,74052,,74052,2021-11-08T10:04:50.052Z,74196.981,1636365696,full,ni_sequenzen,NI_Sequenzen,,,,,,,,,,,,,,
,Screen_2,canvas.Screen,0_0_7_1,,skipped,8,74052.60000038147,,,74052,,74052.70000076294,2021-11-08T10:04:50.053Z,74196.981,1636365696,full,ni_sequenzen,NI_Sequenzen,,,,,,,,,,,,,,
,Screen_3,canvas.Screen,0_0_7_2,,skipped,8,74053.70000076294,,,74052,,74053.90000152588,2021-11-08T10:04:50.054Z,74196.981,1636365696,full,ni_sequenzen,NI_Sequenzen,,,,,,,,,,,,,,
,Screen_4,canvas.Screen,0_0_7_3,,skipped,8,74054.5,,,74052,,74054.60000038147,2021-11-08T10:04:50.055Z,74196.981,1636365696,full,ni_sequenzen,NI_Sequenzen,,,,,,,,,,,,,,
,Sequence,flow.Sequence,0_0_7,,completion,8,74051.20000076294,,,74052,,74054.70000076294,2021-11-08T10:04:50.055Z,74196.981,1636365696,full,ni_sequenzen,NI_Sequenzen,,,,,,,,,,,,,,
,Screen_1,canvas.Screen,0_0_8_0,,skipped,9,74055.90000152588,,,74055.90000152588,,74056,2021-11-08T10:04:50.056Z,74196.981,1636365696,full,ni_sequenzen,NI_Sequenzen,,,,,,,,,,,,,,
,Screen_2,canvas.Screen,0_0_8_1,,skipped,9,74056.70000076294,,,74055.90000152588,,74056.80000114441,2021-11-08T10:04:50.057Z,74196.981,1636365696,full,ni_sequenzen,NI_Sequenzen,,,,,,,,,,,,,,
,Screen_3,canvas.Screen,0_0_8_2,,skipped,9,74057.40000152588,,,74055.90000152588,,74057.40000152588,2021-11-08T10:04:50.058Z,74196.981,1636365696,full,ni_sequenzen,NI_Sequenzen,,,,,,,,,,,,,,
,Screen_4,canvas.Screen,0_0_8_3,,skipped,9,74058,,,74055.90000152588,,74058.10000038147,2021-11-08T10:04:50.058Z,74196.981,1636365696,full,ni_sequenzen,NI_Sequenzen,,,,,,,,,,,,,,
,Sequence,flow.Sequence,0_0_8,,completion,9,74055.10000038147,,,74055.90000152588,,74058.20000076294,2021-11-08T10:04:50.059Z,74196.981,1636365696,full,ni_sequenzen,NI_Sequenzen,,,,,,,,,,,,,,
,Screen_1,canvas.Screen,0_0_9_0,,skipped,10,74059.10000038147,,,74059.10000038147,,74059.20000076294,2021-11-08T10:04:50.059Z,74196.981,1636365696,full,ni_sequenzen,NI_Sequenzen,,,,,,,,,,,,,,
,Screen_2,canvas.Screen,0_0_9_1,,skipped,10,74060.5,,,74059.10000038147,,74060.70000076294,2021-11-08T10:04:50.061Z,74196.981,1636365696,full,ni_sequenzen,NI_Sequenzen,,,,,,,,,,,,,,
,Screen_3,canvas.Screen,0_0_9_2,,skipped,10,74061.40000152588,,,74059.10000038147,,74061.5,2021-11-08T10:04:50.062Z,74196.981,1636365696,full,ni_sequenzen,NI_Sequenzen,,,,,,,,,,,,,,
,Screen_4,canvas.Screen,0_0_9_3,,skipped,10,74062.10000038147,,,74059.10000038147,,74062.20000076294,2021-11-08T10:04:50.063Z,74196.981,1636365696,full,ni_sequenzen,NI_Sequenzen,,,,,,,,,,,,,,
,Sequence,flow.Sequence,0_0_9,,completion,10,74058.5,,,74059.10000038147,,74062.30000114441,2021-11-08T10:04:50.063Z,74196.981,1636365696,full,ni_sequenzen,NI_Sequenzen,,,,,,,,,,,,,,
,Screen_1,canvas.Screen,0_0_10_0,,skipped,11,74063.30000114441,,,74063.30000114441,,74063.30000114441,2021-11-08T10:04:50.064Z,74196.981,1636365696,full,ni_sequenzen,NI_Sequenzen,,,,,,,,,,,,,,
,Screen_2,canvas.Screen,0_0_10_1,,skipped,11,74064,,,74063.30000114441,,74064,2021-11-08T10:04:50.064Z,74196.981,1636365696,full,ni_sequenzen,NI_Sequenzen,,,,,,,,,,,,,,
,Screen_3,canvas.Screen,0_0_10_2,,skipped,11,74064.60000038147,,,74063.30000114441,,74064.70000076294,2021-11-08T10:04:50.065Z,74196.981,1636365696,full,ni_sequenzen,NI_Sequenzen,,,,,,,,,,,,,,
,Screen_4,canvas.Screen,0_0_10_3,,skipped,11,74065.40000152588,,,74063.30000114441,,74065.5,2021-11-08T10:04:50.066Z,74196.981,1636365696,full,ni_sequenzen,NI_Sequenzen,,,,,,,,,,,,,,
,Sequence,flow.Sequence,0_0_10,,completion,11,74062.60000038147,,,74063.30000114441,,74065.5,2021-11-08T10:04:50.066Z,74196.981,1636365696,full,ni_sequenzen,NI_Sequenzen,,,,,,,,,,,,,,
,Screen_1,canvas.Screen,0_0_11_0,,skipped,12,74066.60000038147,,,74066.60000038147,,74066.70000076294,2021-11-08T10:04:50.067Z,74196.981,1636365696,full,ni_sequenzen,NI_Sequenzen,,,,,,,,,,,,,,
,Screen_2,canvas.Screen,0_0_11_1,,skipped,12,74068.70000076294,,,74066.60000038147,,74068.90000152588,2021-11-08T10:04:50.069Z,74196.981,1636365696,full,ni_sequenzen,NI_Sequenzen,,,,,,,,,,,,,,
,Screen_3,canvas.Screen,0_0_11_2,,skipped,12,74069.60000038147,,,74066.60000038147,,74069.70000076294,2021-11-08T10:04:50.070Z,74196.981,1636365696,full,ni_sequenzen,NI_Sequenzen,,,,,,,,,,,,,,
,Screen_4,canvas.Screen,0_0_11_3,,skipped,12,74070.60000038147,,,74066.60000038147,,74070.60000038147,2021-11-08T10:04:50.071Z,74196.981,1636365696,full,ni_sequenzen,NI_Sequenzen,,,,,,,,,,,,,,
,Sequence,flow.Sequence,0_0_11,,completion,12,74065.90000152588,,,74066.60000038147,,74070.70000076294,2021-11-08T10:04:50.071Z,74196.981,1636365696,full,ni_sequenzen,NI_Sequenzen,,,,,,,,,,,,,,
,Screen_1,canvas.Screen,0_0_12_0,,skipped,13,74071.70000076294,,,74071.70000076294,,74071.80000114441,2021-11-08T10:04:50.072Z,74196.981,1636365696,full,ni_sequenzen,NI_Sequenzen,,,,,,,,,,,,,,
,Screen_2,canvas.Screen,0_0_12_1,,skipped,13,74072.40000152588,,,74071.70000076294,,74072.5,2021-11-08T10:04:50.073Z,74196.981,1636365696,full,ni_sequenzen,NI_Sequenzen,,,,,,,,,,,,,,
,Screen_3,canvas.Screen,0_0_12_2,,skipped,13,74073.10000038147,,,74071.70000076294,,74073.30000114441,2021-11-08T10:04:50.074Z,74196.981,1636365696,full,ni_sequenzen,NI_Sequenzen,,,,,,,,,,,,,,
,Screen_4,canvas.Screen,0_0_12_3,,skipped,13,74074.90000152588,,,74071.70000076294,,74075.10000038147,2021-11-08T10:04:50.075Z,74196.981,1636365696,full,ni_sequenzen,NI_Sequenzen,,,,,,,,,,,,,,
,Sequence,flow.Sequence,0_0_12,,completion,13,74071.10000038147,,,74071.70000076294,,74075.30000114441,2021-11-08T10:04:50.076Z,74196.981,1636365696,full,ni_sequenzen,NI_Sequenzen,,,,,,,,,,,,,,
,Screen_1,canvas.Screen,0_0_13_0,,skipped,14,74076.70000076294,,,74076.70000076294,,74076.80000114441,2021-11-08T10:04:50.077Z,74196.981,1636365696,full,ni_sequenzen,NI_Sequenzen,,,,,,,,,,,,,,
,Screen_2,canvas.Screen,0_0_13_1,,skipped,14,74077.70000076294,,,74076.70000076294,,74077.90000152588,2021-11-08T10:04:50.078Z,74196.981,1636365696,full,ni_sequenzen,NI_Sequenzen,,,,,,,,,,,,,,
,Screen_3,canvas.Screen,0_0_13_2,,skipped,14,74079,,,74076.70000076294,,74079.10000038147,2021-11-08T10:04:50.079Z,74196.981,1636365696,full,ni_sequenzen,NI_Sequenzen,,,,,,,,,,,,,,
,Screen_4,canvas.Screen,0_0_13_3,,skipped,14,74079.70000076294,,,74076.70000076294,,74079.80000114441,2021-11-08T10:04:50.080Z,74196.981,1636365696,full,ni_sequenzen,NI_Sequenzen,,,,,,,,,,,,,,
,Sequence,flow.Sequence,0_0_13,,completion,14,74075.90000152588,,,74076.70000076294,,74079.90000152588,2021-11-08T10:04:50.080Z,74196.981,1636365696,full,ni_sequenzen,NI_Sequenzen,,,,,,,,,,,,,,
,Screen_1,canvas.Screen,0_0_14_0,,skipped,15,74080.80000114441,,,74080.80000114441,,74080.90000152588,2021-11-08T10:04:50.081Z,74196.981,1636365696,full,ni_sequenzen,NI_Sequenzen,,,,,,,,,,,,,,
,Screen_2,canvas.Screen,0_0_14_1,,skipped,15,74081.5,,,74080.80000114441,,74081.60000038147,2021-11-08T10:04:50.082Z,74196.981,1636365696,full,ni_sequenzen,NI_Sequenzen,,,,,,,,,,,,,,
,Screen_3,canvas.Screen,0_0_14_2,,skipped,15,74082.20000076294,,,74080.80000114441,,74082.30000114441,2021-11-08T10:04:50.083Z,74196.981,1636365696,full,ni_sequenzen,NI_Sequenzen,,,,,,,,,,,,,,
,Screen_4,canvas.Screen,0_0_14_3,,skipped,15,74082.80000114441,,,74080.80000114441,,74083,2021-11-08T10:04:50.083Z,74196.981,1636365696,full,ni_sequenzen,NI_Sequenzen,,,,,,,,,,,,,,
,Sequence,flow.Sequence,0_0_14,,completion,15,74080.20000076294,,,74080.80000114441,,74083,2021-11-08T10:04:50.083Z,74196.981,1636365696,full,ni_sequenzen,NI_Sequenzen,,,,,,,,,,,,,,
,Screen_1,canvas.Screen,0_0_15_0,,skipped,16,74084,,,74084,,74084,2021-11-08T10:04:50.084Z,74196.981,1636365696,full,ni_sequenzen,NI_Sequenzen,,,,,,,,,,,,,,
,Screen_2,canvas.Screen,0_0_15_1,,skipped,16,74084.60000038147,,,74084,,74084.60000038147,2021-11-08T10:04:50.085Z,74196.981,1636365696,full,ni_sequenzen,NI_Sequenzen,,,,,,,,,,,,,,
,Screen_3,canvas.Screen,0_0_15_2,,skipped,16,74085.20000076294,,,74084,,74085.30000114441,2021-11-08T10:04:50.086Z,74196.981,1636365696,full,ni_sequenzen,NI_Sequenzen,,,,,,,,,,,,,,
,Screen_4,canvas.Screen,0_0_15_3,,skipped,16,74087.40000152588,,,74084,,74087.5,2021-11-08T10:04:50.088Z,74196.981,1636365696,full,ni_sequenzen,NI_Sequenzen,,,,,,,,,,,,,,
,Sequence,flow.Sequence,0_0_15,,completion,16,74083.30000114441,,,74084,,74087.70000076294,2021-11-08T10:04:50.088Z,74196.981,1636365696,full,ni_sequenzen,NI_Sequenzen,,,,,,,,,,,,,,
,Screen_1,canvas.Screen,0_0_16_0,,skipped,17,74090.30000114441,,,74090.30000114441,,74090.40000152588,2021-11-08T10:04:50.091Z,74196.981,1636365696,full,ni_sequenzen,NI_Sequenzen,,,,,,,,,,,,,,
,Screen_2,canvas.Screen,0_0_16_1,,skipped,17,74091.80000114441,,,74090.30000114441,,74091.80000114441,2021-11-08T10:04:50.092Z,74196.981,1636365696,full,ni_sequenzen,NI_Sequenzen,,,,,,,,,,,,,,
,Screen_3,canvas.Screen,0_0_16_2,,skipped,17,74093.10000038147,,,74090.30000114441,,74093.20000076294,2021-11-08T10:04:50.094Z,74196.981,1636365696,full,ni_sequenzen,NI_Sequenzen,,,,,,,,,,,,,,
,Screen_4,canvas.Screen,0_0_16_3,,skipped,17,74094.60000038147,,,74090.30000114441,,74094.90000152588,2021-11-08T10:04:50.095Z,74196.981,1636365696,full,ni_sequenzen,NI_Sequenzen,,,,,,,,,,,,,,
,Sequence,flow.Sequence,0_0_16,,completion,17,74088.30000114441,,,74090.30000114441,,74095.20000076294,2021-11-08T10:04:50.095Z,74196.981,1636365696,full,ni_sequenzen,NI_Sequenzen,,,,,,,,,,,,,,
,Screen_1,canvas.Screen,0_0_17_0,,skipped,18,74097.40000152588,,,74097.40000152588,,74097.5,2021-11-08T10:04:50.098Z,74196.981,1636365696,full,ni_sequenzen,NI_Sequenzen,,,,,,,,,,,,,,
,Screen_2,canvas.Screen,0_0_17_1,,skipped,18,74098.80000114441,,,74097.40000152588,,74098.80000114441,2021-11-08T10:04:50.099Z,74196.981,1636365696,full,ni_sequenzen,NI_Sequenzen,,,,,,,,,,,,,,
,Screen_3,canvas.Screen,0_0_17_2,,skipped,18,74099.60000038147,,,74097.40000152588,,74099.60000038147,2021-11-08T10:04:50.100Z,74196.981,1636365696,full,ni_sequenzen,NI_Sequenzen,,,,,,,,,,,,,,
,Screen_4,canvas.Screen,0_0_17_3,,skipped,18,74100.40000152588,,,74097.40000152588,,74100.40000152588,2021-11-08T10:04:50.101Z,74196.981,1636365696,full,ni_sequenzen,NI_Sequenzen,,,,,,,,,,,,,,
,Sequence,flow.Sequence,0_0_17,,completion,18,74096.20000076294,,,74097.40000152588,,74100.5,2021-11-08T10:04:50.101Z,74196.981,1636365696,full,ni_sequenzen,NI_Sequenzen,,,,,,,,,,,,,,
,Screen_1,canvas.Screen,0_0_18_0,,skipped,19,74101.5,,,74101.5,,74101.5,2021-11-08T10:04:50.102Z,74196.981,1636365696,full,ni_sequenzen,NI_Sequenzen,,,,,,,,,,,,,,
,Screen_2,canvas.Screen,0_0_18_1,,skipped,19,74102.10000038147,,,74101.5,,74102.10000038147,2021-11-08T10:04:50.102Z,74196.981,1636365696,full,ni_sequenzen,NI_Sequenzen,,,,,,,,,,,,,,
,Screen_3,canvas.Screen,0_0_18_2,,skipped,19,74102.80000114441,,,74101.5,,74102.80000114441,2021-11-08T10:04:50.103Z,74196.981,1636365696,full,ni_sequenzen,NI_Sequenzen,,,,,,,,,,,,,,
,Screen_4,canvas.Screen,0_0_18_3,,skipped,19,74103.40000152588,,,74101.5,,74103.5,2021-11-08T10:04:50.104Z,74196.981,1636365696,full,ni_sequenzen,NI_Sequenzen,,,,,,,,,,,,,,
,Sequence,flow.Sequence,0_0_18,,completion,19,74100.80000114441,,,74101.5,,74103.60000038147,2021-11-08T10:04:50.104Z,74196.981,1636365696,full,ni_sequenzen,NI_Sequenzen,,,,,,,,,,,,,,
,Screen_1,canvas.Screen,0_0_19_0,,skipped,20,74104.40000152588,,,74104.40000152588,,74104.5,2021-11-08T10:04:50.105Z,74196.981,1636365696,full,ni_sequenzen,NI_Sequenzen,,,,,,,,,,,,,,
,Screen_2,canvas.Screen,0_0_19_1,,skipped,20,74105.80000114441,,,74104.40000152588,,74106,2021-11-08T10:04:50.106Z,74196.981,1636365696,full,ni_sequenzen,NI_Sequenzen,,,,,,,,,,,,,,
,Screen_3,canvas.Screen,0_0_19_2,,skipped,20,74106.70000076294,,,74104.40000152588,,74106.80000114441,2021-11-08T10:04:50.107Z,74196.981,1636365696,full,ni_sequenzen,NI_Sequenzen,,,,,,,,,,,,,,
,Screen_4,canvas.Screen,0_0_19_3,,skipped,20,74107.5,,,74104.40000152588,,74107.60000038147,2021-11-08T10:04:50.108Z,74196.981,1636365696,full,ni_sequenzen,NI_Sequenzen,,,,,,,,,,,,,,
,Sequence,flow.Sequence,0_0_19,,completion,20,74103.80000114441,,,74104.40000152588,,74107.60000038147,2021-11-08T10:04:50.108Z,74196.981,1636365696,full,ni_sequenzen,NI_Sequenzen,,,,,,,,,,,,,,
,Instructions_I,flow.Loop,0_0,,completion,,695.6000003814697,3785.565,3835.473,74104.40000152588,70268.92700152588,74107.70000076294,2021-11-08T10:04:50.108Z,74196.981,1636365696,full,ni_sequenzen,NI_Sequenzen,,,,,,,,,,,,,,
,Move,canvas.Screen,0_1_0_0,right,response,,74182.80000114441,74180.22,74196.981,75201.60000038147,1004.61900038147,75202.20000076294,2021-11-08T10:04:51.203Z,75213.547,1636365696,full,ni_sequenzen,NI_Sequenzen,1,,,,,,,,,,,,,
,Move,canvas.Screen,0_1_0_1,right,response,,75204.90000152588,75196.775,75213.547,75524.90000152588,311.35300152587297,75526.60000038147,2021-11-08T10:04:51.527Z,75546.806,1636365696,full,ni_sequenzen,NI_Sequenzen,2,,,,,,,,,,,,,
,Move,canvas.Screen,0_1_0_2,left,response,,75530.70000076294,75530.321,75546.806,76207.20000076294,660.3940007629426,76207.70000076294,2021-11-08T10:04:52.208Z,76213.398,1636365696,full,ni_sequenzen,NI_Sequenzen,3,,,,,,,,,,,,,
,Move,canvas.Screen,0_1_0_3,right,response,,76209.90000152588,76196.752,76213.398,79105.20000076294,2891.8020007629384,79106.70000076294,2021-11-08T10:04:55.107Z,79139.045,1636365696,full,ni_sequenzen,NI_Sequenzen,4,,,,,,,,,,,,,
,Move,canvas.Screen,0_1_0_4,down,response,,79112.30000114441,79096.442,79139.045,80192.5,1053.4550000000017,80193,2021-11-08T10:04:56.193Z,80196.438,1636365696,full,ni_sequenzen,NI_Sequenzen,5,,,,,,,,,,,,,
,Move,canvas.Screen,0_1_0_5,down,response,,80194.70000076294,80179.919,80196.438,80564.60000038147,368.1620003814751,80565,2021-11-08T10:04:56.565Z,80596.439,1636365696,full,ni_sequenzen,NI_Sequenzen,6,,,,,,,,,,,,,
,Move,canvas.Screen,0_1_0_6,left,response,,80567.40000152588,80579.782,80596.439,81600.40000152588,1003.9610015258804,81601,2021-11-08T10:04:57.601Z,81613.036,1636365696,full,ni_sequenzen,NI_Sequenzen,7,,,,,,,,,,,,,
,Move,canvas.Screen,0_1_0_7,down,response,,81602.90000152588,81596.371,81613.036,82190.30000114441,577.2640011444164,82190.80000114441,2021-11-08T10:04:58.191Z,82196.293,1636365696,full,ni_sequenzen,NI_Sequenzen,8,,,,,,,,,,,,,
,Move,canvas.Screen,0_1_0_8,left,response,,82192.20000076294,82179.871,82196.293,82609.10000038147,412.8070003814646,82609.80000114441,2021-11-08T10:04:58.610Z,82612.975,1636365696,full,ni_sequenzen,NI_Sequenzen,9,,,,,,,,,,,,,
,Move,canvas.Screen,0_1_0_9,down,response,,82611.70000076294,82596.252,82612.975,83013,400.0249999999942,83013.70000076294,2021-11-08T10:04:59.014Z,83029.903,1636365696,full,ni_sequenzen,NI_Sequenzen,10,,,,,,,,,,,,,
,Move,canvas.Screen,0_1_0_10,left,response,,83015.30000114441,83012.967,83029.903,83445.60000038147,415.697000381464,83446.60000038147,2021-11-08T10:04:59.447Z,83462.874,1636365696,full,ni_sequenzen,NI_Sequenzen,11,,,,,,,,,,,,,
,Move,canvas.Screen,0_1_0_11,left,response,,83450.40000152588,83446.282,83462.874,84302.40000152588,839.5260015258827,84304.30000114441,2021-11-08T10:05:00.305Z,84346.278,1636365696,full,ni_sequenzen,NI_Sequenzen,12,,,,,,,,,,,,,
,Move,canvas.Screen,0_1_0_12,down,response,,84312.60000038147,84329.47,84346.278,85056.90000152588,710.6220015258732,85057.5,2021-11-08T10:05:01.058Z,85062.767,1636365696,full,ni_sequenzen,NI_Sequenzen,13,,,,,,,,,,,,,
,Move,canvas.Screen,0_1_0_13,down,response,,85058.70000076294,85046.306,85062.767,85341.40000152588,278.6330015258718,85342.80000114441,2021-11-08T10:05:01.343Z,85362.81,1636365696,full,ni_sequenzen,NI_Sequenzen,14,,,,,,,,,,,,,
,Move,canvas.Screen,0_1_0_14,down,response,,85348.70000076294,85346.148,85362.81,85614.60000038147,251.79000038147205,85615.30000114441,2021-11-08T10:05:01.616Z,85629.404,1636365696,full,ni_sequenzen,NI_Sequenzen,15,,,,,,,,,,,,,
,Move,canvas.Screen,0_1_0_15,right,response,,85617.20000076294,85612.894,85629.404,86196.70000076294,567.2960007629445,86197.10000038147,2021-11-08T10:05:02.197Z,86212.679,1636365696,full,ni_sequenzen,NI_Sequenzen,16,,,,,,,,,,,,,
,Move,canvas.Screen,0_1_0_16,right,response,,86199.10000038147,86196.061,86212.679,86497.20000076294,284.5210007629357,86498.70000076294,2021-11-08T10:05:02.499Z,86512.755,1636365696,full,ni_sequenzen,NI_Sequenzen,17,,,,,,,,,,,,,
,Move,canvas.Screen,0_1_0_17,right,response,,86504.30000114441,86495.966,86512.755,87820,1307.2449999999953,87820.70000076294,2021-11-08T10:05:03.821Z,87829.221,1636365696,full,ni_sequenzen,NI_Sequenzen,18,,,,,,,,,,,,,
,Move,canvas.Screen,0_1_0_18,right,response,,87822.70000076294,87812.723,87829.221,88185,355.778999999995,88186.60000038147,2021-11-08T10:05:04.187Z,88195.965,1636365696,full,ni_sequenzen,NI_Sequenzen,19,,,,,,,,,,,,,
,Move,canvas.Screen,0_1_0_19,left,response,,88192.90000152588,88179.179,88195.965,89237,1041.0350000000035,89238.40000152588,2021-11-08T10:05:05.239Z,89245.863,1636365696,full,ni_sequenzen,NI_Sequenzen,20,,,,,,,,,,,,,
,Move,canvas.Screen,0_1_0_20,down,response,,89242.80000114441,89229.131,89245.863,89723.90000152588,478.03700152588135,89725.20000076294,2021-11-08T10:05:05.725Z,89745.751,1636365696,full,ni_sequenzen,NI_Sequenzen,21,,,,,,,,,,,,,
,Move,canvas.Screen,0_1_0_21,down,response,,89731.10000038147,89729.29,89745.751,90080.10000038147,334.3490003814659,90081.10000038147,2021-11-08T10:05:06.081Z,90095.793,1636365696,full,ni_sequenzen,NI_Sequenzen,22,,,,,,,,,,,,,
,Move,canvas.Screen,0_1_0_22,down,response,,90085.30000114441,90079.341,90095.793,90367.80000114441,272.00700114440406,90369.30000114441,2021-11-08T10:05:06.370Z,90395.713,1636365696,full,ni_sequenzen,NI_Sequenzen,23,,,,,,,,,,,,,
,Move,canvas.Screen,0_1_0_23,down,response,,90374.90000152588,90362.563,90395.713,90580,184.28699999999662,90580.5,2021-11-08T10:05:06.581Z,90595.687,1636365696,full,ni_sequenzen,NI_Sequenzen,24,,,,,,,,,,,,,
,Move,canvas.Screen,0_1_0_24,left,response,,90582.70000076294,90579.058,90595.687,91072.60000038147,476.91300038146437,91074.10000038147,2021-11-08T10:05:07.074Z,91095.769,1636365696,full,ni_sequenzen,NI_Sequenzen,25,,,,,,,,,,,,,
,Move,canvas.Screen,0_1_0_25,left,response,,91079.70000076294,91078.995,91095.769,91466,370.23099999999977,91467.5,2021-11-08T10:05:07.468Z,91479.063,1636365696,full,ni_sequenzen,NI_Sequenzen,26,,,,,,,,,,,,,
,Move,canvas.Screen,0_1_0_26,left,response,,91473.10000038147,91462.364,91479.063,91726.70000076294,247.6370007629448,91727.30000114441,2021-11-08T10:05:07.728Z,91761.641,1636365696,full,ni_sequenzen,NI_Sequenzen,27,,,,,,,,,,,,,
,Move,canvas.Screen,0_1_0_27,right,response,,91728.60000038147,91712.252,91761.641,92202,440.35899999999674,92202.70000076294,2021-11-08T10:05:08.203Z,92212.247,1636365696,full,ni_sequenzen,NI_Sequenzen,28,,,,,,,,,,,,,
,Move,canvas.Screen,0_1_0_28,right,response,,92204.40000152588,92195.557,92212.247,92560.10000038147,347.8530003814667,92560.40000152588,2021-11-08T10:05:08.561Z,92594.755,1636365696,full,ni_sequenzen,NI_Sequenzen,29,,,,,,,,,,,,,
,Move,canvas.Screen,0_1_0_29,down,response,,92561.60000038147,92545.842,92594.755,93140.60000038147,545.8450003814651,93141.40000152588,2021-11-08T10:05:09.142Z,93212.137,1636365696,full,ni_sequenzen,NI_Sequenzen,30,,,,,,,,,,,,,
,Loop,flow.Loop,0_1_0,-999,completion,,74119,74180.22,74196.981,93140.60000038147,18943.61900038147,93141.70000076294,2021-11-08T10:05:09.142Z,93212.137,1636365696,full,ni_sequenzen,NI_Sequenzen,,,,,,,,,,,,,,
,Training_I,flow.Sequence,0_1,,completion,,74108.10000038147,74180.22,74196.981,93140.60000038147,18943.61900038147,93141.90000152588,2021-11-08T10:05:09.142Z,93212.137,1636365696,full,ni_sequenzen,NI_Sequenzen,,,,,,,,,,,,,,
,Screen_1,canvas.Screen,0_2_0_0,cont,response,1,93204.40000152588,93195.751,93212.137,103786.80000114441,10574.663001144407,103788.30000114441,2021-11-08T10:05:19.789Z,103911.335,1636365696,full,ni_sequenzen,NI_Sequenzen,,,,,,,,,,,,,,
,Screen_2,canvas.Screen,0_2_0_1,cont,response,1,103903.70000076294,103894.529,103911.335,122051.30000114441,18139.965001144403,122052.70000076294,2021-11-08T10:05:38.053Z,122076.797,1636365696,full,ni_sequenzen,NI_Sequenzen,,,,,,,,,,,,,,
,Screen_3,canvas.Screen,0_2_0_2,cont,response,1,122059.70000076294,122059.574,122076.797,139810,17733.202999999994,139811.5,2021-11-08T10:05:55.820Z,139908.712,1636365696,full,ni_sequenzen,NI_Sequenzen,,,,,,,,,,,,,,
,Screen_4,canvas.Screen,0_2_0_3,cont,response,1,139898.60000038147,139891.875,139908.712,147880.20000076294,7971.48800076294,147881,2021-11-08T10:06:03.889Z,147891.435,1636365696,full,ni_sequenzen,NI_Sequenzen,,,,,,,,,,,,,,
,Screen_5,canvas.Screen,0_2_0_4,cont,response,1,147885,147874.85,147891.435,156573.20000076294,8681.765000762942,156574.3000011444,2021-11-08T10:06:12.582Z,156674.136,1636365696,full,ni_sequenzen,NI_Sequenzen,,,,,,,,,,,,,,
,Screen_6,canvas.Screen,0_2_0_5,cont,response,1,156662.3000011444,156657.459,156674.136,166678,10003.864000000001,166678.60000038147,2021-11-08T10:06:22.687Z,166890.007,1636365696,full,ni_sequenzen,NI_Sequenzen,,,,,,,,,,,,,,
,Sequence,flow.Sequence,0_2_0,,completion,1,93203,93195.751,93212.137,166678,73465.863,166679.70000076294,2021-11-08T10:06:22.688Z,166890.007,1636365696,full,ni_sequenzen,NI_Sequenzen,,,,,,,,,,,,,,
,Screen_1,canvas.Screen,0_2_1_0,,skipped,2,166682.60000038147,,,166682.60000038147,,166682.8000011444,2021-11-08T10:06:22.691Z,166890.007,1636365696,full,ni_sequenzen,NI_Sequenzen,,,,,,,,,,,,,,
,Screen_2,canvas.Screen,0_2_1_1,,skipped,2,166684,,,166682.60000038147,,166684.10000038147,2021-11-08T10:06:22.692Z,166890.007,1636365696,full,ni_sequenzen,NI_Sequenzen,,,,,,,,,,,,,,
,Screen_3,canvas.Screen,0_2_1_2,,skipped,2,166685.20000076294,,,166682.60000038147,,166685.3000011444,2021-11-08T10:06:22.693Z,166890.007,1636365696,full,ni_sequenzen,NI_Sequenzen,,,,,,,,,,,,,,
,Screen_4,canvas.Screen,0_2_1_3,,skipped,2,166686.3000011444,,,166682.60000038147,,166686.3000011444,2021-11-08T10:06:22.694Z,166890.007,1636365696,full,ni_sequenzen,NI_Sequenzen,,,,,,,,,,,,,,
,Screen_5,canvas.Screen,0_2_1_4,,skipped,2,166687.5,,,166682.60000038147,,166687.5,2021-11-08T10:06:22.695Z,166890.007,1636365696,full,ni_sequenzen,NI_Sequenzen,,,,,,,,,,,,,,
,Screen_6,canvas.Screen,0_2_1_5,,skipped,2,166688.60000038147,,,166682.60000038147,,166688.70000076294,2021-11-08T10:06:22.697Z,166890.007,1636365696,full,ni_sequenzen,NI_Sequenzen,,,,,,,,,,,,,,
,Sequence,flow.Sequence,0_2_1,,completion,2,166681.5,,,166682.60000038147,,166688.8000011444,2021-11-08T10:06:22.697Z,166890.007,1636365696,full,ni_sequenzen,NI_Sequenzen,,,,,,,,,,,,,,
,Screen_1,canvas.Screen,0_2_2_0,,skipped,3,166690.10000038147,,,166690.10000038147,,166690.10000038147,2021-11-08T10:06:22.698Z,166890.007,1636365696,full,ni_sequenzen,NI_Sequenzen,,,,,,,,,,,,,,
,Screen_2,canvas.Screen,0_2_2_1,,skipped,3,166691.20000076294,,,166690.10000038147,,166691.20000076294,2021-11-08T10:06:22.699Z,166890.007,1636365696,full,ni_sequenzen,NI_Sequenzen,,,,,,,,,,,,,,
,Screen_3,canvas.Screen,0_2_2_2,,skipped,3,166692.10000038147,,,166690.10000038147,,166692.20000076294,2021-11-08T10:06:22.700Z,166890.007,1636365696,full,ni_sequenzen,NI_Sequenzen,,,,,,,,,,,,,,
,Screen_4,canvas.Screen,0_2_2_3,,skipped,3,166693.10000038147,,,166690.10000038147,,166693.20000076294,2021-11-08T10:06:22.701Z,166890.007,1636365696,full,ni_sequenzen,NI_Sequenzen,,,,,,,,,,,,,,
,Screen_5,canvas.Screen,0_2_2_4,,skipped,3,166694.10000038147,,,166690.10000038147,,166694.20000076294,2021-11-08T10:06:22.702Z,166890.007,1636365696,full,ni_sequenzen,NI_Sequenzen,,,,,,,,,,,,,,
,Screen_6,canvas.Screen,0_2_2_5,,skipped,3,166695.10000038147,,,166690.10000038147,,166695.20000076294,2021-11-08T10:06:22.703Z,166890.007,1636365696,full,ni_sequenzen,NI_Sequenzen,,,,,,,,,,,,,,
,Sequence,flow.Sequence,0_2_2,,completion,3,166689.20000076294,,,166690.10000038147,,166695.40000152588,2021-11-08T10:06:22.703Z,166890.007,1636365696,full,ni_sequenzen,NI_Sequenzen,,,,,,,,,,,,,,
,Screen_1,canvas.Screen,0_2_3_0,,skipped,4,166696.60000038147,,,166696.60000038147,,166697.3000011444,2021-11-08T10:06:22.705Z,166890.007,1636365696,full,ni_sequenzen,NI_Sequenzen,,,,,,,,,,,,,,
,Screen_2,canvas.Screen,0_2_3_1,,skipped,4,166698.3000011444,,,166696.60000038147,,166698.5,2021-11-08T10:06:22.706Z,166890.007,1636365696,full,ni_sequenzen,NI_Sequenzen,,,,,,,,,,,,,,
,Screen_3,canvas.Screen,0_2_3_2,,skipped,4,166699.40000152588,,,166696.60000038147,,166699.40000152588,2021-11-08T10:06:22.707Z,166890.007,1636365696,full,ni_sequenzen,NI_Sequenzen,,,,,,,,,,,,,,
,Screen_4,canvas.Screen,0_2_3_3,,skipped,4,166700.40000152588,,,166696.60000038147,,166700.5,2021-11-08T10:06:22.708Z,166890.007,1636365696,full,ni_sequenzen,NI_Sequenzen,,,,,,,,,,,,,,
,Screen_5,canvas.Screen,0_2_3_4,,skipped,4,166701.3000011444,,,166696.60000038147,,166701.3000011444,2021-11-08T10:06:22.709Z,166890.007,1636365696,full,ni_sequenzen,NI_Sequenzen,,,,,,,,,,,,,,
,Screen_6,canvas.Screen,0_2_3_5,,skipped,4,166702.20000076294,,,166696.60000038147,,166702.3000011444,2021-11-08T10:06:22.710Z,166890.007,1636365696,full,ni_sequenzen,NI_Sequenzen,,,,,,,,,,,,,,
,Sequence,flow.Sequence,0_2_3,,completion,4,166695.90000152588,,,166696.60000038147,,166702.40000152588,2021-11-08T10:06:22.710Z,166890.007,1636365696,full,ni_sequenzen,NI_Sequenzen,,,,,,,,,,,,,,
,Screen_1,canvas.Screen,0_2_4_0,,skipped,5,166703.60000038147,,,166703.60000038147,,166703.70000076294,2021-11-08T10:06:22.712Z,166890.007,1636365696,full,ni_sequenzen,NI_Sequenzen,,,,,,,,,,,,,,
,Screen_2,canvas.Screen,0_2_4_1,,skipped,5,166704.5,,,166703.60000038147,,166704.5,2021-11-08T10:06:22.713Z,166890.007,1636365696,full,ni_sequenzen,NI_Sequenzen,,,,,,,,,,,,,,
,Screen_3,canvas.Screen,0_2_4_2,,skipped,5,166705.40000152588,,,166703.60000038147,,166705.60000038147,2021-11-08T10:06:22.714Z,166890.007,1636365696,full,ni_sequenzen,NI_Sequenzen,,,,,,,,,,,,,,
,Screen_4,canvas.Screen,0_2_4_3,,skipped,5,166706.40000152588,,,166703.60000038147,,166706.5,2021-11-08T10:06:22.714Z,166890.007,1636365696,full,ni_sequenzen,NI_Sequenzen,,,,,,,,,,,,,,
,Screen_5,canvas.Screen,0_2_4_4,,skipped,5,166707.3000011444,,,166703.60000038147,,166707.40000152588,2021-11-08T10:06:22.715Z,166890.007,1636365696,full,ni_sequenzen,NI_Sequenzen,,,,,,,,,,,,,,
,Screen_6,canvas.Screen,0_2_4_5,,skipped,5,166708.20000076294,,,166703.60000038147,,166708.3000011444,2021-11-08T10:06:22.716Z,166890.007,1636365696,full,ni_sequenzen,NI_Sequenzen,,,,,,,,,,,,,,
,Sequence,flow.Sequence,0_2_4,,completion,5,166702.8000011444,,,166703.60000038147,,166708.40000152588,2021-11-08T10:06:22.716Z,166890.007,1636365696,full,ni_sequenzen,NI_Sequenzen,,,,,,,,,,,,,,
,Screen_1,canvas.Screen,0_2_5_0,,skipped,6,166709.70000076294,,,166709.70000076294,,166709.70000076294,2021-11-08T10:06:22.718Z,166890.007,1636365696,full,ni_sequenzen,NI_Sequenzen,,,,,,,,,,,,,,
,Screen_2,canvas.Screen,0_2_5_1,,skipped,6,166710.60000038147,,,166709.70000076294,,166710.70000076294,2021-11-08T10:06:22.719Z,166890.007,1636365696,full,ni_sequenzen,NI_Sequenzen,,,,,,,,,,,,,,
,Screen_3,canvas.Screen,0_2_5_2,,skipped,6,166711.8000011444,,,166709.70000076294,,166712,2021-11-08T10:06:22.720Z,166890.007,1636365696,full,ni_sequenzen,NI_Sequenzen,,,,,,,,,,,,,,
,Screen_4,canvas.Screen,0_2_5_3,,skipped,6,166713,,,166709.70000076294,,166713.10000038147,2021-11-08T10:06:22.721Z,166890.007,1636365696,full,ni_sequenzen,NI_Sequenzen,,,,,,,,,,,,,,
,Screen_5,canvas.Screen,0_2_5_4,,skipped,6,166715,,,166709.70000076294,,166715.10000038147,2021-11-08T10:06:22.723Z,166890.007,1636365696,full,ni_sequenzen,NI_Sequenzen,,,,,,,,,,,,,,
,Screen_6,canvas.Screen,0_2_5_5,,skipped,6,166716.10000038147,,,166709.70000076294,,166716.10000038147,2021-11-08T10:06:22.724Z,166890.007,1636365696,full,ni_sequenzen,NI_Sequenzen,,,,,,,,,,,,,,
,Sequence,flow.Sequence,0_2_5,,completion,6,166708.8000011444,,,166709.70000076294,,166716.20000076294,2021-11-08T10:06:22.724Z,166890.007,1636365696,full,ni_sequenzen,NI_Sequenzen,,,,,,,,,,,,,,
,Screen_1,canvas.Screen,0_2_6_0,,skipped,7,166717.40000152588,,,166717.40000152588,,166717.5,2021-11-08T10:06:22.726Z,166890.007,1636365696,full,ni_sequenzen,NI_Sequenzen,,,,,,,,,,,,,,
,Screen_2,canvas.Screen,0_2_6_1,,skipped,7,166718.5,,,166717.40000152588,,166718.5,2021-11-08T10:06:22.727Z,166890.007,1636365696,full,ni_sequenzen,NI_Sequenzen,,,,,,,,,,,,,,
,Screen_3,canvas.Screen,0_2_6_2,,skipped,7,166719.3000011444,,,166717.40000152588,,166719.40000152588,2021-11-08T10:06:22.727Z,166890.007,1636365696,full,ni_sequenzen,NI_Sequenzen,,,,,,,,,,,,,,
,Screen_4,canvas.Screen,0_2_6_3,,skipped,7,166720.3000011444,,,166717.40000152588,,166720.40000152588,2021-11-08T10:06:22.728Z,166890.007,1636365696,full,ni_sequenzen,NI_Sequenzen,,,,,,,,,,,,,,
,Screen_5,canvas.Screen,0_2_6_4,,skipped,7,166721.20000076294,,,166717.40000152588,,166721.3000011444,2021-11-08T10:06:22.729Z,166890.007,1636365696,full,ni_sequenzen,NI_Sequenzen,,,,,,,,,,,,,,
,Screen_6,canvas.Screen,0_2_6_5,,skipped,7,166722.10000038147,,,166717.40000152588,,166722.20000076294,2021-11-08T10:06:22.730Z,166890.007,1636365696,full,ni_sequenzen,NI_Sequenzen,,,,,,,,,,,,,,
,Sequence,flow.Sequence,0_2_6,,completion,7,166716.60000038147,,,166717.40000152588,,166722.20000076294,2021-11-08T10:06:22.730Z,166890.007,1636365696,full,ni_sequenzen,NI_Sequenzen,,,,,,,,,,,,,,
,Screen_1,canvas.Screen,0_2_7_0,,skipped,8,166723.5,,,166723.5,,166723.60000038147,2021-11-08T10:06:22.732Z,166890.007,1636365696,full,ni_sequenzen,NI_Sequenzen,,,,,,,,,,,,,,
,Screen_2,canvas.Screen,0_2_7_1,,skipped,8,166724.40000152588,,,166723.5,,166724.5,2021-11-08T10:06:22.732Z,166890.007,1636365696,full,ni_sequenzen,NI_Sequenzen,,,,,,,,,,,,,,
,Screen_3,canvas.Screen,0_2_7_2,,skipped,8,166725.3000011444,,,166723.5,,166725.3000011444,2021-11-08T10:06:22.733Z,166890.007,1636365696,full,ni_sequenzen,NI_Sequenzen,,,,,,,,,,,,,,
,Screen_4,canvas.Screen,0_2_7_3,,skipped,8,166726.3000011444,,,166723.5,,166726.40000152588,2021-11-08T10:06:22.734Z,166890.007,1636365696,full,ni_sequenzen,NI_Sequenzen,,,,,,,,,,,,,,
,Screen_5,canvas.Screen,0_2_7_4,,skipped,8,166727.20000076294,,,166723.5,,166727.20000076294,2021-11-08T10:06:22.735Z,166890.007,1636365696,full,ni_sequenzen,NI_Sequenzen,,,,,,,,,,,,,,
,Screen_6,canvas.Screen,0_2_7_5,,skipped,8,166728,,,166723.5,,166728.10000038147,2021-11-08T10:06:22.736Z,166890.007,1636365696,full,ni_sequenzen,NI_Sequenzen,,,,,,,,,,,,,,
,Sequence,flow.Sequence,0_2_7,,completion,8,166722.70000076294,,,166723.5,,166728.3000011444,2021-11-08T10:06:22.736Z,166890.007,1636365696,full,ni_sequenzen,NI_Sequenzen,,,,,,,,,,,,,,
,Screen_1,canvas.Screen,0_2_8_0,,skipped,9,166729.5,,,166729.60000038147,,166729.70000076294,2021-11-08T10:06:22.738Z,166890.007,1636365696,full,ni_sequenzen,NI_Sequenzen,,,,,,,,,,,,,,
,Screen_2,canvas.Screen,0_2_8_1,,skipped,9,166731.60000038147,,,166729.60000038147,,166731.70000076294,2021-11-08T10:06:22.740Z,166890.007,1636365696,full,ni_sequenzen,NI_Sequenzen,,,,,,,,,,,,,,
,Screen_3,canvas.Screen,0_2_8_2,,skipped,9,166732.60000038147,,,166729.60000038147,,166732.70000076294,2021-11-08T10:06:22.741Z,166890.007,1636365696,full,ni_sequenzen,NI_Sequenzen,,,,,,,,,,,,,,
,Screen_4,canvas.Screen,0_2_8_3,,skipped,9,166733.3000011444,,,166729.60000038147,,166733.3000011444,2021-11-08T10:06:22.741Z,166890.007,1636365696,full,ni_sequenzen,NI_Sequenzen,,,,,,,,,,,,,,
,Screen_5,canvas.Screen,0_2_8_4,,skipped,9,166733.8000011444,,,166729.60000038147,,166733.90000152588,2021-11-08T10:06:22.742Z,166890.007,1636365696,full,ni_sequenzen,NI_Sequenzen,,,,,,,,,,,,,,
,Screen_6,canvas.Screen,0_2_8_5,,skipped,9,166734.5,,,166729.60000038147,,166734.60000038147,2021-11-08T10:06:22.743Z,166890.007,1636365696,full,ni_sequenzen,NI_Sequenzen,,,,,,,,,,,,,,
,Sequence,flow.Sequence,0_2_8,,completion,9,166728.70000076294,,,166729.60000038147,,166734.70000076294,2021-11-08T10:06:22.743Z,166890.007,1636365696,full,ni_sequenzen,NI_Sequenzen,,,,,,,,,,,,,,
,Screen_1,canvas.Screen,0_2_9_0,,skipped,10,166735.8000011444,,,166735.8000011444,,166735.90000152588,2021-11-08T10:06:22.744Z,166890.007,1636365696,full,ni_sequenzen,NI_Sequenzen,,,,,,,,,,,,,,
,Screen_2,canvas.Screen,0_2_9_1,,skipped,10,166736.5,,,166735.8000011444,,166736.60000038147,2021-11-08T10:06:22.745Z,166890.007,1636365696,full,ni_sequenzen,NI_Sequenzen,,,,,,,,,,,,,,
,Screen_3,canvas.Screen,0_2_9_2,,skipped,10,166737.20000076294,,,166735.8000011444,,166737.20000076294,2021-11-08T10:06:22.745Z,166890.007,1636365696,full,ni_sequenzen,NI_Sequenzen,,,,,,,,,,,,,,
,Screen_4,canvas.Screen,0_2_9_3,,skipped,10,166737.90000152588,,,166735.8000011444,,166738,2021-11-08T10:06:22.746Z,166890.007,1636365696,full,ni_sequenzen,NI_Sequenzen,,,,,,,,,,,,,,
,Screen_5,canvas.Screen,0_2_9_4,,skipped,10,166738.70000076294,,,166735.8000011444,,166738.70000076294,2021-11-08T10:06:22.747Z,166890.007,1636365696,full,ni_sequenzen,NI_Sequenzen,,,,,,,,,,,,,,
,Screen_6,canvas.Screen,0_2_9_5,,skipped,10,166739.3000011444,,,166735.8000011444,,166739.40000152588,2021-11-08T10:06:22.747Z,166890.007,1636365696,full,ni_sequenzen,NI_Sequenzen,,,,,,,,,,,,,,
,Sequence,flow.Sequence,0_2_9,,completion,10,166735.10000038147,,,166735.8000011444,,166739.5,2021-11-08T10:06:22.747Z,166890.007,1636365696,full,ni_sequenzen,NI_Sequenzen,,,,,,,,,,,,,,
,Screen_1,canvas.Screen,0_2_10_0,,skipped,11,166740.40000152588,,,166740.40000152588,,166740.40000152588,2021-11-08T10:06:22.748Z,166890.007,1636365696,full,ni_sequenzen,NI_Sequenzen,,,,,,,,,,,,,,
,Screen_2,canvas.Screen,0_2_10_1,,skipped,11,166741,,,166740.40000152588,,166741.10000038147,2021-11-08T10:06:22.749Z,166890.007,1636365696,full,ni_sequenzen,NI_Sequenzen,,,,,,,,,,,,,,
,Screen_3,canvas.Screen,0_2_10_2,,skipped,11,166741.70000076294,,,166740.40000152588,,166741.8000011444,2021-11-08T10:06:22.750Z,166890.007,1636365696,full,ni_sequenzen,NI_Sequenzen,,,,,,,,,,,,,,
,Screen_4,canvas.Screen,0_2_10_3,,skipped,11,166742.3000011444,,,166740.40000152588,,166742.40000152588,2021-11-08T10:06:22.750Z,166890.007,1636365696,full,ni_sequenzen,NI_Sequenzen,,,,,,,,,,,,,,
,Screen_5,canvas.Screen,0_2_10_4,,skipped,11,166743.10000038147,,,166740.40000152588,,166743.3000011444,2021-11-08T10:06:22.751Z,166890.007,1636365696,full,ni_sequenzen,NI_Sequenzen,,,,,,,,,,,,,,
,Screen_6,canvas.Screen,0_2_10_5,,skipped,11,166745.20000076294,,,166740.40000152588,,166745.3000011444,2021-11-08T10:06:22.753Z,166890.007,1636365696,full,ni_sequenzen,NI_Sequenzen,,,,,,,,,,,,,,
,Sequence,flow.Sequence,0_2_10,,completion,11,166739.8000011444,,,166740.40000152588,,166745.5,2021-11-08T10:06:22.753Z,166890.007,1636365696,full,ni_sequenzen,NI_Sequenzen,,,,,,,,,,,,,,
,Screen_1,canvas.Screen,0_2_11_0,,skipped,12,166746.70000076294,,,166746.70000076294,,166746.70000076294,2021-11-08T10:06:22.755Z,166890.007,1636365696,full,ni_sequenzen,NI_Sequenzen,,,,,,,,,,,,,,
,Screen_2,canvas.Screen,0_2_11_1,,skipped,12,166747.3000011444,,,166746.70000076294,,166747.40000152588,2021-11-08T10:06:22.755Z,166890.007,1636365696,full,ni_sequenzen,NI_Sequenzen,,,,,,,,,,,,,,
,Screen_3,canvas.Screen,0_2_11_2,,skipped,12,166747.90000152588,,,166746.70000076294,,166748,2021-11-08T10:06:22.756Z,166890.007,1636365696,full,ni_sequenzen,NI_Sequenzen,,,,,,,,,,,,,,
,Screen_4,canvas.Screen,0_2_11_3,,skipped,12,166748.5,,,166746.70000076294,,166748.5,2021-11-08T10:06:22.757Z,166890.007,1636365696,full,ni_sequenzen,NI_Sequenzen,,,,,,,,,,,,,,
,Screen_5,canvas.Screen,0_2_11_4,,skipped,12,166749.10000038147,,,166746.70000076294,,166749.10000038147,2021-11-08T10:06:22.757Z,166890.007,1636365696,full,ni_sequenzen,NI_Sequenzen,,,,,,,,,,,,,,
,Screen_6,canvas.Screen,0_2_11_5,,skipped,12,166749.70000076294,,,166746.70000076294,,166749.8000011444,2021-11-08T10:06:22.758Z,166890.007,1636365696,full,ni_sequenzen,NI_Sequenzen,,,,,,,,,,,,,,
,Sequence,flow.Sequence,0_2_11,,completion,12,166745.90000152588,,,166746.70000076294,,166749.8000011444,2021-11-08T10:06:22.758Z,166890.007,1636365696,full,ni_sequenzen,NI_Sequenzen,,,,,,,,,,,,,,
,Screen_1,canvas.Screen,0_2_12_0,,skipped,13,166750.90000152588,,,166750.90000152588,,166750.90000152588,2021-11-08T10:06:22.759Z,166890.007,1636365696,full,ni_sequenzen,NI_Sequenzen,,,,,,,,,,,,,,
,Screen_2,canvas.Screen,0_2_12_1,,skipped,13,166751.5,,,166750.90000152588,,166751.5,2021-11-08T10:06:22.760Z,166890.007,1636365696,full,ni_sequenzen,NI_Sequenzen,,,,,,,,,,,,,,
,Screen_3,canvas.Screen,0_2_12_2,,skipped,13,166752.20000076294,,,166750.90000152588,,166752.20000076294,2021-11-08T10:06:22.760Z,166890.007,1636365696,full,ni_sequenzen,NI_Sequenzen,,,,,,,,,,,,,,
,Screen_4,canvas.Screen,0_2_12_3,,skipped,13,166752.70000076294,,,166750.90000152588,,166752.8000011444,2021-11-08T10:06:22.761Z,166890.007,1636365696,full,ni_sequenzen,NI_Sequenzen,,,,,,,,,,,,,,
,Screen_5,canvas.Screen,0_2_12_4,,skipped,13,166753.40000152588,,,166750.90000152588,,166753.5,2021-11-08T10:06:22.761Z,166890.007,1636365696,full,ni_sequenzen,NI_Sequenzen,,,,,,,,,,,,,,
,Screen_6,canvas.Screen,0_2_12_5,,skipped,13,166754.10000038147,,,166750.90000152588,,166754.10000038147,2021-11-08T10:06:22.762Z,166890.007,1636365696,full,ni_sequenzen,NI_Sequenzen,,,,,,,,,,,,,,
,Sequence,flow.Sequence,0_2_12,,completion,13,166750.20000076294,,,166750.90000152588,,166754.3000011444,2021-11-08T10:06:22.762Z,166890.007,1636365696,full,ni_sequenzen,NI_Sequenzen,,,,,,,,,,,,,,
,Screen_1,canvas.Screen,0_2_13_0,,skipped,14,166755.10000038147,,,166755.10000038147,,166755.20000076294,2021-11-08T10:06:22.763Z,166890.007,1636365696,full,ni_sequenzen,NI_Sequenzen,,,,,,,,,,,,,,
,Screen_2,canvas.Screen,0_2_13_1,,skipped,14,166756.60000038147,,,166755.10000038147,,166756.8000011444,2021-11-08T10:06:22.765Z,166890.007,1636365696,full,ni_sequenzen,NI_Sequenzen,,,,,,,,,,,,,,
,Screen_3,canvas.Screen,0_2_13_2,,skipped,14,166757.60000038147,,,166755.10000038147,,166757.70000076294,2021-11-08T10:06:22.766Z,166890.007,1636365696,full,ni_sequenzen,NI_Sequenzen,,,,,,,,,,,,,,
,Screen_4,canvas.Screen,0_2_13_3,,skipped,14,166758.5,,,166755.10000038147,,166758.70000076294,2021-11-08T10:06:22.767Z,166890.007,1636365696,full,ni_sequenzen,NI_Sequenzen,,,,,,,,,,,,,,
,Screen_5,canvas.Screen,0_2_13_4,,skipped,14,166759.60000038147,,,166755.10000038147,,166759.70000076294,2021-11-08T10:06:22.768Z,166890.007,1636365696,full,ni_sequenzen,NI_Sequenzen,,,,,,,,,,,,,,
,Screen_6,canvas.Screen,0_2_13_5,,skipped,14,166760.5,,,166755.10000038147,,166760.60000038147,2021-11-08T10:06:22.769Z,166890.007,1636365696,full,ni_sequenzen,NI_Sequenzen,,,,,,,,,,,,,,
,Sequence,flow.Sequence,0_2_13,,completion,14,166754.60000038147,,,166755.10000038147,,166760.70000076294,2021-11-08T10:06:22.769Z,166890.007,1636365696,full,ni_sequenzen,NI_Sequenzen,,,,,,,,,,,,,,
,Screen_1,canvas.Screen,0_2_14_0,,skipped,15,166761.8000011444,,,166761.8000011444,,166761.90000152588,2021-11-08T10:06:22.770Z,166890.007,1636365696,full,ni_sequenzen,NI_Sequenzen,,,,,,,,,,,,,,
,Screen_2,canvas.Screen,0_2_14_1,,skipped,15,166762.5,,,166761.8000011444,,166762.5,2021-11-08T10:06:22.771Z,166890.007,1636365696,full,ni_sequenzen,NI_Sequenzen,,,,,,,,,,,,,,
,Screen_3,canvas.Screen,0_2_14_2,,skipped,15,166763.10000038147,,,166761.8000011444,,166763.10000038147,2021-11-08T10:06:22.771Z,166890.007,1636365696,full,ni_sequenzen,NI_Sequenzen,,,,,,,,,,,,,,
,Screen_4,canvas.Screen,0_2_14_3,,skipped,15,166763.70000076294,,,166761.8000011444,,166763.8000011444,2021-11-08T10:06:22.772Z,166890.007,1636365696,full,ni_sequenzen,NI_Sequenzen,,,,,,,,,,,,,,
,Screen_5,canvas.Screen,0_2_14_4,,skipped,15,166764.5,,,166761.8000011444,,166764.60000038147,2021-11-08T10:06:22.773Z,166890.007,1636365696,full,ni_sequenzen,NI_Sequenzen,,,,,,,,,,,,,,
,Screen_6,canvas.Screen,0_2_14_5,,skipped,15,166765.40000152588,,,166761.8000011444,,166765.5,2021-11-08T10:06:22.773Z,166890.007,1636365696,full,ni_sequenzen,NI_Sequenzen,,,,,,,,,,,,,,
,Sequence,flow.Sequence,0_2_14,,completion,15,166761.10000038147,,,166761.8000011444,,166765.5,2021-11-08T10:06:22.774Z,166890.007,1636365696,full,ni_sequenzen,NI_Sequenzen,,,,,,,,,,,,,,
,Screen_1,canvas.Screen,0_2_15_0,,skipped,16,166766.5,,,166766.5,,166766.5,2021-11-08T10:06:22.774Z,166890.007,1636365696,full,ni_sequenzen,NI_Sequenzen,,,,,,,,,,,,,,
,Screen_2,canvas.Screen,0_2_15_1,,skipped,16,166767.10000038147,,,166766.5,,166767.10000038147,2021-11-08T10:06:22.775Z,166890.007,1636365696,full,ni_sequenzen,NI_Sequenzen,,,,,,,,,,,,,,
,Screen_3,canvas.Screen,0_2_15_2,,skipped,16,166767.70000076294,,,166766.5,,166767.8000011444,2021-11-08T10:06:22.776Z,166890.007,1636365696,full,ni_sequenzen,NI_Sequenzen,,,,,,,,,,,,,,
,Screen_4,canvas.Screen,0_2_15_3,,skipped,16,166769.10000038147,,,166766.5,,166769.20000076294,2021-11-08T10:06:22.777Z,166890.007,1636365696,full,ni_sequenzen,NI_Sequenzen,,,,,,,,,,,,,,
,Screen_5,canvas.Screen,0_2_15_4,,skipped,16,166769.8000011444,,,166766.5,,166769.90000152588,2021-11-08T10:06:22.778Z,166890.007,1636365696,full,ni_sequenzen,NI_Sequenzen,,,,,,,,,,,,,,
,Screen_6,canvas.Screen,0_2_15_5,,skipped,16,166770.5,,,166766.5,,166770.60000038147,2021-11-08T10:06:22.779Z,166890.007,1636365696,full,ni_sequenzen,NI_Sequenzen,,,,,,,,,,,,,,
,Sequence,flow.Sequence,0_2_15,,completion,16,166765.90000152588,,,166766.5,,166770.70000076294,2021-11-08T10:06:22.779Z,166890.007,1636365696,full,ni_sequenzen,NI_Sequenzen,,,,,,,,,,,,,,
,Screen_1,canvas.Screen,0_2_16_0,,skipped,17,166771.60000038147,,,166771.60000038147,,166771.60000038147,2021-11-08T10:06:22.780Z,166890.007,1636365696,full,ni_sequenzen,NI_Sequenzen,,,,,,,,,,,,,,
,Screen_2,canvas.Screen,0_2_16_1,,skipped,17,166772.20000076294,,,166771.60000038147,,166772.20000076294,2021-11-08T10:06:22.780Z,166890.007,1636365696,full,ni_sequenzen,NI_Sequenzen,,,,,,,,,,,,,,
,Screen_3,canvas.Screen,0_2_16_2,,skipped,17,166772.8000011444,,,166771.60000038147,,166772.8000011444,2021-11-08T10:06:22.781Z,166890.007,1636365696,full,ni_sequenzen,NI_Sequenzen,,,,,,,,,,,,,,
,Screen_4,canvas.Screen,0_2_16_3,,skipped,17,166773.40000152588,,,166771.60000038147,,166773.5,2021-11-08T10:06:22.781Z,166890.007,1636365696,full,ni_sequenzen,NI_Sequenzen,,,,,,,,,,,,,,
,Screen_5,canvas.Screen,0_2_16_4,,skipped,17,166773.90000152588,,,166771.60000038147,,166774.10000038147,2021-11-08T10:06:22.782Z,166890.007,1636365696,full,ni_sequenzen,NI_Sequenzen,,,,,,,,,,,,,,
,Screen_6,canvas.Screen,0_2_16_5,,skipped,17,166774.5,,,166771.60000038147,,166774.60000038147,2021-11-08T10:06:22.783Z,166890.007,1636365696,full,ni_sequenzen,NI_Sequenzen,,,,,,,,,,,,,,
,Sequence,flow.Sequence,0_2_16,,completion,17,166771,,,166771.60000038147,,166774.8000011444,2021-11-08T10:06:22.783Z,166890.007,1636365696,full,ni_sequenzen,NI_Sequenzen,,,,,,,,,,,,,,
,Screen_1,canvas.Screen,0_2_17_0,,skipped,18,166775.60000038147,,,166775.60000038147,,166775.70000076294,2021-11-08T10:06:22.784Z,166890.007,1636365696,full,ni_sequenzen,NI_Sequenzen,,,,,,,,,,,,,,
,Screen_2,canvas.Screen,0_2_17_1,,skipped,18,166776.20000076294,,,166775.60000038147,,166776.20000076294,2021-11-08T10:06:22.784Z,166890.007,1636365696,full,ni_sequenzen,NI_Sequenzen,,,,,,,,,,,,,,
,Screen_3,canvas.Screen,0_2_17_2,,skipped,18,166777.20000076294,,,166775.60000038147,,166777.20000076294,2021-11-08T10:06:22.785Z,166890.007,1636365696,full,ni_sequenzen,NI_Sequenzen,,,,,,,,,,,,,,
,Screen_4,canvas.Screen,0_2_17_3,,skipped,18,166778.10000038147,,,166775.60000038147,,166778.20000076294,2021-11-08T10:06:22.786Z,166890.007,1636365696,full,ni_sequenzen,NI_Sequenzen,,,,,,,,,,,,,,
,Screen_5,canvas.Screen,0_2_17_4,,skipped,18,166779.60000038147,,,166775.60000038147,,166779.70000076294,2021-11-08T10:06:22.788Z,166890.007,1636365696,full,ni_sequenzen,NI_Sequenzen,,,,,,,,,,,,,,
,Screen_6,canvas.Screen,0_2_17_5,,skipped,18,166780.70000076294,,,166775.60000038147,,166780.70000076294,2021-11-08T10:06:22.789Z,166890.007,1636365696,full,ni_sequenzen,NI_Sequenzen,,,,,,,,,,,,,,
,Sequence,flow.Sequence,0_2_17,,completion,18,166775,,,166775.60000038147,,166780.90000152588,2021-11-08T10:06:22.789Z,166890.007,1636365696,full,ni_sequenzen,NI_Sequenzen,,,,,,,,,,,,,,
,Screen_1,canvas.Screen,0_2_18_0,,skipped,19,166782.10000038147,,,166782.10000038147,,166782.20000076294,2021-11-08T10:06:22.790Z,166890.007,1636365696,full,ni_sequenzen,NI_Sequenzen,,,,,,,,,,,,,,
,Screen_2,canvas.Screen,0_2_18_1,,skipped,19,166783,,,166782.10000038147,,166783.10000038147,2021-11-08T10:06:22.791Z,166890.007,1636365696,full,ni_sequenzen,NI_Sequenzen,,,,,,,,,,,,,,
,Screen_3,canvas.Screen,0_2_18_2,,skipped,19,166784,,,166782.10000038147,,166784.10000038147,2021-11-08T10:06:22.792Z,166890.007,1636365696,full,ni_sequenzen,NI_Sequenzen,,,,,,,,,,,,,,
,Screen_4,canvas.Screen,0_2_18_3,,skipped,19,166784.90000152588,,,166782.10000038147,,166784.90000152588,2021-11-08T10:06:22.793Z,166890.007,1636365696,full,ni_sequenzen,NI_Sequenzen,,,,,,,,,,,,,,
,Screen_5,canvas.Screen,0_2_18_4,,skipped,19,166785.70000076294,,,166782.10000038147,,166785.8000011444,2021-11-08T10:06:22.794Z,166890.007,1636365696,full,ni_sequenzen,NI_Sequenzen,,,,,,,,,,,,,,
,Screen_6,canvas.Screen,0_2_18_5,,skipped,19,166786.8000011444,,,166782.10000038147,,166786.8000011444,2021-11-08T10:06:22.795Z,166890.007,1636365696,full,ni_sequenzen,NI_Sequenzen,,,,,,,,,,,,,,
,Sequence,flow.Sequence,0_2_18,,completion,19,166781.3000011444,,,166782.10000038147,,166787,2021-11-08T10:06:22.795Z,166890.007,1636365696,full,ni_sequenzen,NI_Sequenzen,,,,,,,,,,,,,,
,Screen_1,canvas.Screen,0_2_19_0,,skipped,20,166788.10000038147,,,166788.10000038147,,166788.20000076294,2021-11-08T10:06:22.796Z,166890.007,1636365696,full,ni_sequenzen,NI_Sequenzen,,,,,,,,,,,,,,
,Screen_2,canvas.Screen,0_2_19_1,,skipped,20,166789.10000038147,,,166788.10000038147,,166789.10000038147,2021-11-08T10:06:22.797Z,166890.007,1636365696,full,ni_sequenzen,NI_Sequenzen,,,,,,,,,,,,,,
,Screen_3,canvas.Screen,0_2_19_2,,skipped,20,166790,,,166788.10000038147,,166790.10000038147,2021-11-08T10:06:22.798Z,166890.007,1636365696,full,ni_sequenzen,NI_Sequenzen,,,,,,,,,,,,,,
,Screen_4,canvas.Screen,0_2_19_3,,skipped,20,166790.8000011444,,,166788.10000038147,,166791,2021-11-08T10:06:22.799Z,166890.007,1636365696,full,ni_sequenzen,NI_Sequenzen,,,,,,,,,,,,,,
,Screen_5,canvas.Screen,0_2_19_4,,skipped,20,166791.70000076294,,,166788.10000038147,,166791.8000011444,2021-11-08T10:06:22.800Z,166890.007,1636365696,full,ni_sequenzen,NI_Sequenzen,,,,,,,,,,,,,,
,Screen_6,canvas.Screen,0_2_19_5,,skipped,20,166793.8000011444,,,166788.10000038147,,166793.90000152588,2021-11-08T10:06:22.802Z,166890.007,1636365696,full,ni_sequenzen,NI_Sequenzen,,,,,,,,,,,,,,
,Sequence,flow.Sequence,0_2_19,,completion,20,166787.40000152588,,,166788.10000038147,,166793.90000152588,2021-11-08T10:06:22.802Z,166890.007,1636365696,full,ni_sequenzen,NI_Sequenzen,,,,,,,,,,,,,,
,Screen_1,canvas.Screen,0_2_20_0,,skipped,21,166794.90000152588,,,166794.90000152588,,166794.90000152588,2021-11-08T10:06:22.803Z,166890.007,1636365696,full,ni_sequenzen,NI_Sequenzen,,,,,,,,,,,,,,
,Screen_2,canvas.Screen,0_2_20_1,,skipped,21,166795.5,,,166794.90000152588,,166795.60000038147,2021-11-08T10:06:22.804Z,166890.007,1636365696,full,ni_sequenzen,NI_Sequenzen,,,,,,,,,,,,,,
,Screen_3,canvas.Screen,0_2_20_2,,skipped,21,166796.20000076294,,,166794.90000152588,,166796.3000011444,2021-11-08T10:06:22.804Z,166890.007,1636365696,full,ni_sequenzen,NI_Sequenzen,,,,,,,,,,,,,,
,Screen_4,canvas.Screen,0_2_20_3,,skipped,21,166796.8000011444,,,166794.90000152588,,166796.8000011444,2021-11-08T10:06:22.805Z,166890.007,1636365696,full,ni_sequenzen,NI_Sequenzen,,,,,,,,,,,,,,
,Screen_5,canvas.Screen,0_2_20_4,,skipped,21,166797.5,,,166794.90000152588,,166797.5,2021-11-08T10:06:22.805Z,166890.007,1636365696,full,ni_sequenzen,NI_Sequenzen,,,,,,,,,,,,,,
,Screen_6,canvas.Screen,0_2_20_5,,skipped,21,166798,,,166794.90000152588,,166798.10000038147,2021-11-08T10:06:22.806Z,166890.007,1636365696,full,ni_sequenzen,NI_Sequenzen,,,,,,,,,,,,,,
,Sequence,flow.Sequence,0_2_20,,completion,21,166794.3000011444,,,166794.90000152588,,166798.20000076294,2021-11-08T10:06:22.806Z,166890.007,1636365696,full,ni_sequenzen,NI_Sequenzen,,,,,,,,,,,,,,
,Screen_1,canvas.Screen,0_2_21_0,,skipped,22,166799.10000038147,,,166799.10000038147,,166799.10000038147,2021-11-08T10:06:22.807Z,166890.007,1636365696,full,ni_sequenzen,NI_Sequenzen,,,,,,,,,,,,,,
,Screen_2,canvas.Screen,0_2_21_1,,skipped,22,166799.70000076294,,,166799.10000038147,,166799.8000011444,2021-11-08T10:06:22.808Z,166890.007,1636365696,full,ni_sequenzen,NI_Sequenzen,,,,,,,,,,,,,,
,Screen_3,canvas.Screen,0_2_21_2,,skipped,22,166800.3000011444,,,166799.10000038147,,166800.3000011444,2021-11-08T10:06:22.808Z,166890.007,1636365696,full,ni_sequenzen,NI_Sequenzen,,,,,,,,,,,,,,
,Screen_4,canvas.Screen,0_2_21_3,,skipped,22,166800.90000152588,,,166799.10000038147,,166801,2021-11-08T10:06:22.809Z,166890.007,1636365696,full,ni_sequenzen,NI_Sequenzen,,,,,,,,,,,,,,
,Screen_5,canvas.Screen,0_2_21_4,,skipped,22,166801.60000038147,,,166799.10000038147,,166801.60000038147,2021-11-08T10:06:22.810Z,166890.007,1636365696,full,ni_sequenzen,NI_Sequenzen,,,,,,,,,,,,,,
,Screen_6,canvas.Screen,0_2_21_5,,skipped,22,166802.90000152588,,,166799.10000038147,,166803,2021-11-08T10:06:22.811Z,166890.007,1636365696,full,ni_sequenzen,NI_Sequenzen,,,,,,,,,,,,,,
,Sequence,flow.Sequence,0_2_21,,completion,22,166798.5,,,166799.10000038147,,166803.20000076294,2021-11-08T10:06:22.811Z,166890.007,1636365696,full,ni_sequenzen,NI_Sequenzen,,,,,,,,,,,,,,
,Screen_1,canvas.Screen,0_2_22_0,,skipped,23,166805.10000038147,,,166805.10000038147,,166805.20000076294,2021-11-08T10:06:22.813Z,166890.007,1636365696,full,ni_sequenzen,NI_Sequenzen,,,,,,,,,,,,,,
,Screen_2,canvas.Screen,0_2_22_1,,skipped,23,166805.90000152588,,,166805.10000038147,,166805.90000152588,2021-11-08T10:06:22.814Z,166890.007,1636365696,full,ni_sequenzen,NI_Sequenzen,,,,,,,,,,,,,,
,Screen_3,canvas.Screen,0_2_22_2,,skipped,23,166806.60000038147,,,166805.10000038147,,166806.70000076294,2021-11-08T10:06:22.815Z,166890.007,1636365696,full,ni_sequenzen,NI_Sequenzen,,,,,,,,,,,,,,
,Screen_4,canvas.Screen,0_2_22_3,,skipped,23,166807.3000011444,,,166805.10000038147,,166807.3000011444,2021-11-08T10:06:22.815Z,166890.007,1636365696,full,ni_sequenzen,NI_Sequenzen,,,,,,,,,,,,,,
,Screen_5,canvas.Screen,0_2_22_4,,skipped,23,166808.10000038147,,,166805.10000038147,,166808.3000011444,2021-11-08T10:06:22.816Z,166890.007,1636365696,full,ni_sequenzen,NI_Sequenzen,,,,,,,,,,,,,,
,Screen_6,canvas.Screen,0_2_22_5,,skipped,23,166809,,,166805.10000038147,,166809.10000038147,2021-11-08T10:06:22.817Z,166890.007,1636365696,full,ni_sequenzen,NI_Sequenzen,,,,,,,,,,,,,,
,Sequence,flow.Sequence,0_2_22,,completion,23,166803.60000038147,,,166805.10000038147,,166809.20000076294,2021-11-08T10:06:22.817Z,166890.007,1636365696,full,ni_sequenzen,NI_Sequenzen,,,,,,,,,,,,,,
,Screen_1,canvas.Screen,0_2_23_0,,skipped,24,166810.20000076294,,,166810.20000076294,,166810.3000011444,2021-11-08T10:06:22.818Z,166890.007,1636365696,full,ni_sequenzen,NI_Sequenzen,,,,,,,,,,,,,,
,Screen_2,canvas.Screen,0_2_23_1,,skipped,24,166810.90000152588,,,166810.20000076294,,166811,2021-11-08T10:06:22.819Z,166890.007,1636365696,full,ni_sequenzen,NI_Sequenzen,,,,,,,,,,,,,,
,Screen_3,canvas.Screen,0_2_23_2,,skipped,24,166811.70000076294,,,166810.20000076294,,166811.70000076294,2021-11-08T10:06:22.820Z,166890.007,1636365696,full,ni_sequenzen,NI_Sequenzen,,,,,,,,,,,,,,
,Screen_4,canvas.Screen,0_2_23_3,,skipped,24,166812.20000076294,,,166810.20000076294,,166812.3000011444,2021-11-08T10:06:22.820Z,166890.007,1636365696,full,ni_sequenzen,NI_Sequenzen,,,,,,,,,,,,,,
,Screen_5,canvas.Screen,0_2_23_4,,skipped,24,166812.90000152588,,,166810.20000076294,,166812.90000152588,2021-11-08T10:06:22.821Z,166890.007,1636365696,full,ni_sequenzen,NI_Sequenzen,,,,,,,,,,,,,,
,Screen_6,canvas.Screen,0_2_23_5,,skipped,24,166813.5,,,166810.20000076294,,166813.5,2021-11-08T10:06:22.822Z,166890.007,1636365696,full,ni_sequenzen,NI_Sequenzen,,,,,,,,,,,,,,
,Sequence,flow.Sequence,0_2_23,,completion,24,166809.5,,,166810.20000076294,,166813.60000038147,2021-11-08T10:06:22.822Z,166890.007,1636365696,full,ni_sequenzen,NI_Sequenzen,,,,,,,,,,,,,,
,Screen_1,canvas.Screen,0_2_24_0,,skipped,25,166814.5,,,166814.5,,166814.60000038147,2021-11-08T10:06:22.823Z,166890.007,1636365696,full,ni_sequenzen,NI_Sequenzen,,,,,,,,,,,,,,
,Screen_2,canvas.Screen,0_2_24_1,,skipped,25,166815.10000038147,,,166814.5,,166815.20000076294,2021-11-08T10:06:22.823Z,166890.007,1636365696,full,ni_sequenzen,NI_Sequenzen,,,,,,,,,,,,,,
,Screen_3,canvas.Screen,0_2_24_2,,skipped,25,166816.70000076294,,,166814.5,,166816.70000076294,2021-11-08T10:06:22.825Z,166890.007,1636365696,full,ni_sequenzen,NI_Sequenzen,,,,,,,,,,,,,,
,Screen_4,canvas.Screen,0_2_24_3,,skipped,25,166817.3000011444,,,166814.5,,166817.5,2021-11-08T10:06:22.825Z,166890.007,1636365696,full,ni_sequenzen,NI_Sequenzen,,,,,,,,,,,,,,
,Screen_5,canvas.Screen,0_2_24_4,,skipped,25,166818,,,166814.5,,166818,2021-11-08T10:06:22.826Z,166890.007,1636365696,full,ni_sequenzen,NI_Sequenzen,,,,,,,,,,,,,,
,Screen_6,canvas.Screen,0_2_24_5,,skipped,25,166818.70000076294,,,166814.5,,166818.70000076294,2021-11-08T10:06:22.827Z,166890.007,1636365696,full,ni_sequenzen,NI_Sequenzen,,,,,,,,,,,,,,
,Sequence,flow.Sequence,0_2_24,,completion,25,166813.90000152588,,,166814.5,,166818.70000076294,2021-11-08T10:06:22.827Z,166890.007,1636365696,full,ni_sequenzen,NI_Sequenzen,,,,,,,,,,,,,,
,Screen_1,canvas.Screen,0_2_25_0,,skipped,26,166819.60000038147,,,166819.60000038147,,166819.70000076294,2021-11-08T10:06:22.828Z,166890.007,1636365696,full,ni_sequenzen,NI_Sequenzen,,,,,,,,,,,,,,
,Screen_2,canvas.Screen,0_2_25_1,,skipped,26,166820.3000011444,,,166819.60000038147,,166820.40000152588,2021-11-08T10:06:22.828Z,166890.007,1636365696,full,ni_sequenzen,NI_Sequenzen,,,,,,,,,,,,,,
,Screen_3,canvas.Screen,0_2_25_2,,skipped,26,166820.90000152588,,,166819.60000038147,,166821,2021-11-08T10:06:22.829Z,166890.007,1636365696,full,ni_sequenzen,NI_Sequenzen,,,,,,,,,,,,,,
,Screen_4,canvas.Screen,0_2_25_3,,skipped,26,166821.5,,,166819.60000038147,,166821.60000038147,2021-11-08T10:06:22.830Z,166890.007,1636365696,full,ni_sequenzen,NI_Sequenzen,,,,,,,,,,,,,,
,Screen_5,canvas.Screen,0_2_25_4,,skipped,26,166822.10000038147,,,166819.60000038147,,166822.20000076294,2021-11-08T10:06:22.830Z,166890.007,1636365696,full,ni_sequenzen,NI_Sequenzen,,,,,,,,,,,,,,
,Screen_6,canvas.Screen,0_2_25_5,,skipped,26,166822.70000076294,,,166819.60000038147,,166822.70000076294,2021-11-08T10:06:22.831Z,166890.007,1636365696,full,ni_sequenzen,NI_Sequenzen,,,,,,,,,,,,,,
,Sequence,flow.Sequence,0_2_25,,completion,26,166819.10000038147,,,166819.60000038147,,166822.8000011444,2021-11-08T10:06:22.831Z,166890.007,1636365696,full,ni_sequenzen,NI_Sequenzen,,,,,,,,,,,,,,
,Screen_1,canvas.Screen,0_2_26_0,,skipped,27,166823.8000011444,,,166823.8000011444,,166823.90000152588,2021-11-08T10:06:22.832Z,166890.007,1636365696,full,ni_sequenzen,NI_Sequenzen,,,,,,,,,,,,,,
,Screen_2,canvas.Screen,0_2_26_1,,skipped,27,166824.40000152588,,,166823.8000011444,,166824.5,2021-11-08T10:06:22.832Z,166890.007,1636365696,full,ni_sequenzen,NI_Sequenzen,,,,,,,,,,,,,,
,Screen_3,canvas.Screen,0_2_26_2,,skipped,27,166825.10000038147,,,166823.8000011444,,166825.10000038147,2021-11-08T10:06:22.833Z,166890.007,1636365696,full,ni_sequenzen,NI_Sequenzen,,,,,,,,,,,,,,
,Screen_4,canvas.Screen,0_2_26_3,,skipped,27,166826.5,,,166823.8000011444,,166826.60000038147,2021-11-08T10:06:22.835Z,166890.007,1636365696,full,ni_sequenzen,NI_Sequenzen,,,,,,,,,,,,,,
,Screen_5,canvas.Screen,0_2_26_4,,skipped,27,166827.3000011444,,,166823.8000011444,,166827.3000011444,2021-11-08T10:06:22.835Z,166890.007,1636365696,full,ni_sequenzen,NI_Sequenzen,,,,,,,,,,,,,,
,Screen_6,canvas.Screen,0_2_26_5,,skipped,27,166827.90000152588,,,166823.8000011444,,166828,2021-11-08T10:06:22.836Z,166890.007,1636365696,full,ni_sequenzen,NI_Sequenzen,,,,,,,,,,,,,,
,Sequence,flow.Sequence,0_2_26,,completion,27,166823.10000038147,,,166823.8000011444,,166828.10000038147,2021-11-08T10:06:22.836Z,166890.007,1636365696,full,ni_sequenzen,NI_Sequenzen,,,,,,,,,,,,,,
,Screen_1,canvas.Screen,0_2_27_0,,skipped,28,166829,,,166829,,166829,2021-11-08T10:06:22.837Z,166890.007,1636365696,full,ni_sequenzen,NI_Sequenzen,,,,,,,,,,,,,,
,Screen_2,canvas.Screen,0_2_27_1,,skipped,28,166829.60000038147,,,166829,,166829.60000038147,2021-11-08T10:06:22.838Z,166890.007,1636365696,full,ni_sequenzen,NI_Sequenzen,,,,,,,,,,,,,,
,Screen_3,canvas.Screen,0_2_27_2,,skipped,28,166830.3000011444,,,166829,,166830.3000011444,2021-11-08T10:06:22.838Z,166890.007,1636365696,full,ni_sequenzen,NI_Sequenzen,,,,,,,,,,,,,,
,Screen_4,canvas.Screen,0_2_27_3,,skipped,28,166830.8000011444,,,166829,,166830.90000152588,2021-11-08T10:06:22.839Z,166890.007,1636365696,full,ni_sequenzen,NI_Sequenzen,,,,,,,,,,,,,,
,Screen_5,canvas.Screen,0_2_27_4,,skipped,28,166831.5,,,166829,,166831.5,2021-11-08T10:06:22.839Z,166890.007,1636365696,full,ni_sequenzen,NI_Sequenzen,,,,,,,,,,,,,,
,Screen_6,canvas.Screen,0_2_27_5,,skipped,28,166832.10000038147,,,166829,,166832.10000038147,2021-11-08T10:06:22.840Z,166890.007,1636365696,full,ni_sequenzen,NI_Sequenzen,,,,,,,,,,,,,,
,Sequence,flow.Sequence,0_2_27,,completion,28,166828.40000152588,,,166829,,166832.20000076294,2021-11-08T10:06:22.840Z,166890.007,1636365696,full,ni_sequenzen,NI_Sequenzen,,,,,,,,,,,,,,
,Screen_1,canvas.Screen,0_2_28_0,,skipped,29,166833.10000038147,,,166833.10000038147,,166833.10000038147,2021-11-08T10:06:22.841Z,166890.007,1636365696,full,ni_sequenzen,NI_Sequenzen,,,,,,,,,,,,,,
,Screen_2,canvas.Screen,0_2_28_1,,skipped,29,166833.70000076294,,,166833.10000038147,,166833.70000076294,2021-11-08T10:06:22.842Z,166890.007,1636365696,full,ni_sequenzen,NI_Sequenzen,,,,,,,,,,,,,,
,Screen_3,canvas.Screen,0_2_28_2,,skipped,29,166834.3000011444,,,166833.10000038147,,166834.40000152588,2021-11-08T10:06:22.842Z,166890.007,1636365696,full,ni_sequenzen,NI_Sequenzen,,,,,,,,,,,,,,
,Screen_4,canvas.Screen,0_2_28_3,,skipped,29,166834.90000152588,,,166833.10000038147,,166835,2021-11-08T10:06:22.843Z,166890.007,1636365696,full,ni_sequenzen,NI_Sequenzen,,,,,,,,,,,,,,
,Screen_5,canvas.Screen,0_2_28_4,,skipped,29,166835.60000038147,,,166833.10000038147,,166835.70000076294,2021-11-08T10:06:22.844Z,166890.007,1636365696,full,ni_sequenzen,NI_Sequenzen,,,,,,,,,,,,,,
,Screen_6,canvas.Screen,0_2_28_5,,skipped,29,166836.8000011444,,,166833.10000038147,,166836.8000011444,2021-11-08T10:06:22.845Z,166890.007,1636365696,full,ni_sequenzen,NI_Sequenzen,,,,,,,,,,,,,,
,Sequence,flow.Sequence,0_2_28,,completion,29,166832.5,,,166833.10000038147,,166837,2021-11-08T10:06:22.845Z,166890.007,1636365696,full,ni_sequenzen,NI_Sequenzen,,,,,,,,,,,,,,
,Screen_1,canvas.Screen,0_2_29_0,,skipped,30,166837.8000011444,,,166837.8000011444,,166837.90000152588,2021-11-08T10:06:22.846Z,166890.007,1636365696,full,ni_sequenzen,NI_Sequenzen,,,,,,,,,,,,,,
,Screen_2,canvas.Screen,0_2_29_1,,skipped,30,166838.40000152588,,,166837.8000011444,,166838.40000152588,2021-11-08T10:06:22.846Z,166890.007,1636365696,full,ni_sequenzen,NI_Sequenzen,,,,,,,,,,,,,,
,Screen_3,canvas.Screen,0_2_29_2,,skipped,30,166839.3000011444,,,166837.8000011444,,166839.40000152588,2021-11-08T10:06:22.847Z,166890.007,1636365696,full,ni_sequenzen,NI_Sequenzen,,,,,,,,,,,,,,
,Screen_4,canvas.Screen,0_2_29_3,,skipped,30,166840.10000038147,,,166837.8000011444,,166840.20000076294,2021-11-08T10:06:22.848Z,166890.007,1636365696,full,ni_sequenzen,NI_Sequenzen,,,,,,,,,,,,,,
,Screen_5,canvas.Screen,0_2_29_4,,skipped,30,166841,,,166837.8000011444,,166841.10000038147,2021-11-08T10:06:22.849Z,166890.007,1636365696,full,ni_sequenzen,NI_Sequenzen,,,,,,,,,,,,,,
,Screen_6,canvas.Screen,0_2_29_5,,skipped,30,166841.90000152588,,,166837.8000011444,,166842,2021-11-08T10:06:22.850Z,166890.007,1636365696,full,ni_sequenzen,NI_Sequenzen,,,,,,,,,,,,,,
,Sequence,flow.Sequence,0_2_29,,completion,30,166837.20000076294,,,166837.8000011444,,166842,2021-11-08T10:06:22.850Z,166890.007,1636365696,full,ni_sequenzen,NI_Sequenzen,,,,,,,,,,,,,,
,Instructions_II,flow.Loop,0_2,,completion,,93202.30000114441,93195.751,93212.137,166837.8000011444,73625.6630011444,166842.20000076294,2021-11-08T10:06:22.850Z,166890.007,1636365696,full,ni_sequenzen,NI_Sequenzen,,,,,,,,,,,,,,
,Move,canvas.Screen,0_3_0_0_0_0,right,response,,166881.40000152588,166873.202,166890.007,173069.8000011444,6179.793001144397,173072.20000076294,2021-11-08T10:06:29.080Z,173089.607,1636365696,full,ni_sequenzen,NI_Sequenzen,1,0,,,,,,,,,,,,
,Move,canvas.Screen,0_3_0_0_0_1,down,response,,173079.3000011444,173072.729,173089.607,177334.90000152588,4245.29300152589,177335.40000152588,2021-11-08T10:06:33.343Z,177339.379,1636365696,full,ni_sequenzen,NI_Sequenzen,2,0,,,,,,,,,,,,
,Move,canvas.Screen,0_3_0_0_0_2,right,response,,177337.40000152588,177323.024,177339.379,177789.5,450.12100000001374,177791,2021-11-08T10:06:33.799Z,177805.862,1636365696,full,ni_sequenzen,NI_Sequenzen,3,0,,,,,,,,,,,,
,Move,canvas.Screen,0_3_0_0_0_3,down,response,,177795.70000076294,177789.915,177805.862,178636.20000076294,830.3380007629457,178636.8000011444,2021-11-08T10:06:34.645Z,178704.596,1636365696,full,ni_sequenzen,NI_Sequenzen,4,0,,,,,,,,,,,,
,Move,canvas.Screen,0_3_0_0_0_4,-999,skipped,,178639.90000152588,,,178636.20000076294,,178640,2021-11-08T10:06:34.648Z,178704.596,1636365696,full,ni_sequenzen,NI_Sequenzen,5,0,,,,,,,,,,,,
,Move,canvas.Screen,0_3_0_0_0_5,-999,skipped,,178643.20000076294,,,178636.20000076294,,178643.3000011444,2021-11-08T10:06:34.651Z,178704.596,1636365696,full,ni_sequenzen,NI_Sequenzen,6,0,,,,,,,,,,,,
,Move,canvas.Screen,0_3_0_0_0_6,-999,skipped,,178646.20000076294,,,178636.20000076294,,178646.20000076294,2021-11-08T10:06:34.654Z,178704.596,1636365696,full,ni_sequenzen,NI_Sequenzen,7,0,,,,,,,,,,,,
,Move,canvas.Screen,0_3_0_0_0_7,-999,skipped,,178650.5,,,178636.20000076294,,178650.70000076294,2021-11-08T10:06:34.659Z,178704.596,1636365696,full,ni_sequenzen,NI_Sequenzen,8,0,,,,,,,,,,,,
,Move,canvas.Screen,0_3_0_0_0_8,-999,skipped,,178653.20000076294,,,178636.20000076294,,178653.3000011444,2021-11-08T10:06:34.661Z,178704.596,1636365696,full,ni_sequenzen,NI_Sequenzen,9,0,,,,,,,,,,,,
,Move,canvas.Screen,0_3_0_0_0_9,-999,skipped,,178655.70000076294,,,178636.20000076294,,178655.8000011444,2021-11-08T10:06:34.664Z,178704.596,1636365696,full,ni_sequenzen,NI_Sequenzen,10,0,,,,,,,,,,,,
,Move,canvas.Screen,0_3_0_0_0_10,-999,skipped,,178658.60000038147,,,178636.20000076294,,178658.70000076294,2021-11-08T10:06:34.667Z,178704.596,1636365696,full,ni_sequenzen,NI_Sequenzen,11,0,,,,,,,,,,,,
,Move,canvas.Screen,0_3_0_0_0_11,-999,skipped,,178660.8000011444,,,178636.20000076294,,178660.90000152588,2021-11-08T10:06:34.669Z,178704.596,1636365696,full,ni_sequenzen,NI_Sequenzen,12,0,,,,,,,,,,,,
,Move,canvas.Screen,0_3_0_0_0_12,-999,skipped,,178663,,,178636.20000076294,,178663.10000038147,2021-11-08T10:06:34.671Z,178704.596,1636365696,full,ni_sequenzen,NI_Sequenzen,13,0,,,,,,,,,,,,
,Move,canvas.Screen,0_3_0_0_0_13,-999,skipped,,178666,,,178636.20000076294,,178666,2021-11-08T10:06:34.674Z,178704.596,1636365696,full,ni_sequenzen,NI_Sequenzen,14,0,,,,,,,,,,,,
,Move,canvas.Screen,0_3_0_0_0_14,-999,skipped,,178668.20000076294,,,178636.20000076294,,178668.40000152588,2021-11-08T10:06:34.676Z,178704.596,1636365696,full,ni_sequenzen,NI_Sequenzen,15,0,,,,,,,,,,,,
,Loop,flow.Loop,0_3_0_0_0,-999,completion,,166876.20000076294,166873.202,166890.007,178636.20000076294,11746.193000762927,178668.60000038147,2021-11-08T10:06:34.677Z,178704.596,1636365696,full,ni_sequenzen,NI_Sequenzen,,0,,,,,,,,,,,,
,Feedback,canvas.Screen,0_3_0_0_1,,timeout,,178671.5,178655.841,178704.596,182689.16,4017.592000000004,182691.20000076294,2021-11-08T10:06:38.699Z,182722.188,1636365696,full,ni_sequenzen,NI_Sequenzen,,0,,,,,,,,,,,,
,Trial,flow.Sequence,0_3_0_0,,completion,,166860.90000152588,166873.202,166890.007,182689.16,15799.152999999991,182691.60000038147,2021-11-08T10:06:38.700Z,182739.143,1636365696,full,ni_sequenzen,NI_Sequenzen,,0,,,,,,,,,,,,
,Move,canvas.Screen,0_3_0_1_0_0,down,response,,182722.40000152588,182722.188,182739.143,187772.70000076294,5033.5570007629285,187774.20000076294,2021-11-08T10:06:43.782Z,187788.711,1636365696,full,ni_sequenzen,NI_Sequenzen,1,1,,,,,,,,,,,,
,Move,canvas.Screen,0_3_0_1_0_1,left,response,,187777.20000076294,187771.923,187788.711,188226,437.28899999998976,188226.5,2021-11-08T10:06:44.234Z,188238.616,1636365696,full,ni_sequenzen,NI_Sequenzen,2,1,,,,,,,,,,,,
,Move,canvas.Screen,0_3_0_1_0_2,down,response,,188228.5,188221.991,188238.616,189812.70000076294,1574.0840007629304,189813.20000076294,2021-11-08T10:06:45.821Z,189821.907,1636365696,full,ni_sequenzen,NI_Sequenzen,3,1,,,,,,,,,,,,
,Move,canvas.Screen,0_3_0_1_0_3,left,response,,189815.90000152588,189805.242,189821.907,190134.5,312.5929999999935,190135.20000076294,2021-11-08T10:06:46.143Z,190188.387,1636365696,full,ni_sequenzen,NI_Sequenzen,4,1,,,,,,,,,,,,
,Move,canvas.Screen,0_3_0_1_0_4,-999,skipped,,190137.8000011444,,,190134.5,,190138,2021-11-08T10:06:46.146Z,190188.387,1636365696,full,ni_sequenzen,NI_Sequenzen,5,1,,,,,,,,,,,,
,Move,canvas.Screen,0_3_0_1_0_5,-999,skipped,,190141.90000152588,,,190134.5,,190142,2021-11-08T10:06:46.150Z,190188.387,1636365696,full,ni_sequenzen,NI_Sequenzen,6,1,,,,,,,,,,,,
,Move,canvas.Screen,0_3_0_1_0_6,-999,skipped,,190145.8000011444,,,190134.5,,190146,2021-11-08T10:06:46.154Z,190188.387,1636365696,full,ni_sequenzen,NI_Sequenzen,7,1,,,,,,,,,,,,
,Move,canvas.Screen,0_3_0_1_0_7,-999,skipped,,190150.8000011444,,,190134.5,,190150.90000152588,2021-11-08T10:06:46.159Z,190188.387,1636365696,full,ni_sequenzen,NI_Sequenzen,8,1,,,,,,,,,,,,
,Move,canvas.Screen,0_3_0_1_0_8,-999,skipped,,190154.60000038147,,,190134.5,,190154.8000011444,2021-11-08T10:06:46.163Z,190188.387,1636365696,full,ni_sequenzen,NI_Sequenzen,9,1,,,,,,,,,,,,
,Move,canvas.Screen,0_3_0_1_0_9,-999,skipped,,190157.40000152588,,,190134.5,,190157.5,2021-11-08T10:06:46.166Z,190188.387,1636365696,full,ni_sequenzen,NI_Sequenzen,10,1,,,,,,,,,,,,
,Move,canvas.Screen,0_3_0_1_0_10,-999,skipped,,190161.70000076294,,,190134.5,,190161.90000152588,2021-11-08T10:06:46.170Z,190188.387,1636365696,full,ni_sequenzen,NI_Sequenzen,11,1,,,,,,,,,,,,
,Move,canvas.Screen,0_3_0_1_0_11,-999,skipped,,190164.20000076294,,,190134.5,,190164.20000076294,2021-11-08T10:06:46.172Z,190188.387,1636365696,full,ni_sequenzen,NI_Sequenzen,12,1,,,,,,,,,,,,
,Move,canvas.Screen,0_3_0_1_0_12,-999,skipped,,190166.5,,,190134.5,,190166.60000038147,2021-11-08T10:06:46.175Z,190188.387,1636365696,full,ni_sequenzen,NI_Sequenzen,13,1,,,,,,,,,,,,
,Move,canvas.Screen,0_3_0_1_0_13,-999,skipped,,190168.20000076294,,,190134.5,,190168.20000076294,2021-11-08T10:06:46.176Z,190188.387,1636365696,full,ni_sequenzen,NI_Sequenzen,14,1,,,,,,,,,,,,
,Move,canvas.Screen,0_3_0_1_0_14,-999,skipped,,190171.5,,,190134.5,,190171.60000038147,2021-11-08T10:06:46.180Z,190188.387,1636365696,full,ni_sequenzen,NI_Sequenzen,15,1,,,,,,,,,,,,
,Loop,flow.Loop,0_3_0_1_0,-999,completion,,182720,182722.188,182739.143,190134.5,7395.356999999989,190171.8000011444,2021-11-08T10:06:46.180Z,190188.387,1636365696,full,ni_sequenzen,NI_Sequenzen,,1,,,,,,,,,,,,
,Feedback,canvas.Screen,0_3_0_1_1,,timeout,,190173.60000038147,190172.114,190188.387,194171.34,3999.6059999999998,194173.70000076294,2021-11-08T10:06:50.182Z,194187.993,1636365696,full,ni_sequenzen,NI_Sequenzen,,1,,,,,,,,,,,,
,Trial,flow.Sequence,0_3_0_1,,completion,,182692.60000038147,182722.188,182739.143,194171.34,11432.196999999986,194173.8000011444,2021-11-08T10:06:50.182Z,194204.722,1636365696,full,ni_sequenzen,NI_Sequenzen,,1,,,,,,,,,,,,
,Move,canvas.Screen,0_3_0_2_0_0,down,response,,194190.10000038147,194187.993,194204.722,197980.70000076294,3775.9780007629306,197981.10000038147,2021-11-08T10:06:53.989Z,197987.705,1636365696,full,ni_sequenzen,NI_Sequenzen,1,2,,,,,,,,,,,,
,Move,canvas.Screen,0_3_0_2_0_1,left,response,,197984,197970.994,197987.705,200804.90000152588,2817.1950015258917,200806.5,2021-11-08T10:06:56.818Z,200870.833,1636365696,full,ni_sequenzen,NI_Sequenzen,2,2,,,,,,,,,,,,
,Move,canvas.Screen,0_3_0_2_0_2,right,response,,200851.60000038147,200837.842,200870.833,201237.70000076294,366.8670007629262,201238.20000076294,2021-11-08T10:06:57.250Z,201254.169,1636365696,full,ni_sequenzen,NI_Sequenzen,3,2,,,,,,,,,,,,
,Move,canvas.Screen,0_3_0_2_0_3,down,response,,201239.8000011444,201237.842,201254.169,205966.3000011444,4712.131001144415,205968,2021-11-08T10:07:01.979Z,205987.142,1636365696,full,ni_sequenzen,NI_Sequenzen,4,2,,,,,,,,,,,,
,Move,canvas.Screen,0_3_0_2_0_4,right,response,,205977.40000152588,205970.385,205987.142,211018.90000152588,5031.758001525886,211019.40000152588,2021-11-08T10:07:07.031Z,211053.645,1636365696,full,ni_sequenzen,NI_Sequenzen,5,2,,,,,,,,,,,,
,Move,canvas.Screen,0_3_0_2_0_5,-999,skipped,,211022.90000152588,,,211018.90000152588,,211023.10000038147,2021-11-08T10:07:07.035Z,211053.645,1636365696,full,ni_sequenzen,NI_Sequenzen,6,2,,,,,,,,,,,,
,Move,canvas.Screen,0_3_0_2_0_6,-999,skipped,,211026.70000076294,,,211018.90000152588,,211026.70000076294,2021-11-08T10:07:07.038Z,211053.645,1636365696,full,ni_sequenzen,NI_Sequenzen,7,2,,,,,,,,,,,,
,Move,canvas.Screen,0_3_0_2_0_7,-999,skipped,,211030,,,211018.90000152588,,211030.10000038147,2021-11-08T10:07:07.042Z,211053.645,1636365696,full,ni_sequenzen,NI_Sequenzen,8,2,,,,,,,,,,,,
,Move,canvas.Screen,0_3_0_2_0_8,-999,skipped,,211032.40000152588,,,211018.90000152588,,211032.5,2021-11-08T10:07:07.044Z,211053.645,1636365696,full,ni_sequenzen,NI_Sequenzen,9,2,,,,,,,,,,,,
,Move,canvas.Screen,0_3_0_2_0_9,-999,skipped,,211034.10000038147,,,211018.90000152588,,211034.20000076294,2021-11-08T10:07:07.046Z,211053.645,1636365696,full,ni_sequenzen,NI_Sequenzen,10,2,,,,,,,,,,,,
,Move,canvas.Screen,0_3_0_2_0_10,-999,skipped,,211036.20000076294,,,211018.90000152588,,211036.40000152588,2021-11-08T10:07:07.048Z,211053.645,1636365696,full,ni_sequenzen,NI_Sequenzen,11,2,,,,,,,,,,,,
,Move,canvas.Screen,0_3_0_2_0_11,-999,skipped,,211038.60000038147,,,211018.90000152588,,211038.70000076294,2021-11-08T10:07:07.050Z,211053.645,1636365696,full,ni_sequenzen,NI_Sequenzen,12,2,,,,,,,,,,,,
,Move,canvas.Screen,0_3_0_2_0_12,-999,skipped,,211040.10000038147,,,211018.90000152588,,211040.20000076294,2021-11-08T10:07:07.052Z,211053.645,1636365696,full,ni_sequenzen,NI_Sequenzen,13,2,,,,,,,,,,,,
,Move,canvas.Screen,0_3_0_2_0_13,-999,skipped,,211041.70000076294,,,211018.90000152588,,211041.70000076294,2021-11-08T10:07:07.053Z,211053.645,1636365696,full,ni_sequenzen,NI_Sequenzen,14,2,,,,,,,,,,,,
,Move,canvas.Screen,0_3_0_2_0_14,-999,skipped,,211043.90000152588,,,211018.90000152588,,211044.10000038147,2021-11-08T10:07:07.056Z,211053.645,1636365696,full,ni_sequenzen,NI_Sequenzen,15,2,,,,,,,,,,,,
,Loop,flow.Loop,0_3_0_2_0,-999,completion,,194188.10000038147,194187.993,194204.722,211018.90000152588,16814.17800152587,211044.20000076294,2021-11-08T10:07:07.056Z,211053.645,1636365696,full,ni_sequenzen,NI_Sequenzen,,2,,,,,,,,,,,,
,Feedback,canvas.Screen,0_3_0_2_1,,timeout,,211045.40000152588,211036.771,211053.645,215036.665,4016.1760000000068,215038.10000038147,2021-11-08T10:07:11.050Z,215069.821,1636365696,full,ni_sequenzen,NI_Sequenzen,,2,,,,,,,,,,,,
,Trial,flow.Sequence,0_3_0_2,,completion,,194174.10000038147,194187.993,194204.722,215036.665,20831.943,215041,2021-11-08T10:07:11.052Z,215086.513,1636365696,full,ni_sequenzen,NI_Sequenzen,,2,,,,,,,,,,,,
,Move,canvas.Screen,0_3_0_3_0_0,down,response,,215071.40000152588,215069.821,215086.513,217424.70000076294,2338.187000762933,217425.3000011444,2021-11-08T10:07:13.437Z,217436.305,1636365696,full,ni_sequenzen,NI_Sequenzen,1,3,,,,,,,,,,,,
,Move,canvas.Screen,0_3_0_3_0_1,left,response,,217427.8000011444,217419.738,217436.305,218469.10000038147,1032.7950003814767,218470.70000076294,2021-11-08T10:07:14.482Z,218486.185,1636365696,full,ni_sequenzen,NI_Sequenzen,2,3,,,,,,,,,,,,
,Move,canvas.Screen,0_3_0_3_0_2,down,response,,218476.5,218469.741,218486.185,218798.10000038147,311.91500038147205,218798.60000038147,2021-11-08T10:07:14.810Z,218802.99,1636365696,full,ni_sequenzen,NI_Sequenzen,3,3,,,,,,,,,,,,
,Move,canvas.Screen,0_3_0_3_0_3,left,response,,218800.5,218786.178,218802.99,219069.70000076294,266.71000076294877,219070.3000011444,2021-11-08T10:07:15.082Z,219102.929,1636365696,full,ni_sequenzen,NI_Sequenzen,4,3,,,,,,,,,,,,
,Move,canvas.Screen,0_3_0_3_0_4,-999,skipped,,219072.3000011444,,,219069.70000076294,,219072.40000152588,2021-11-08T10:07:15.084Z,219102.929,1636365696,full,ni_sequenzen,NI_Sequenzen,5,3,,,,,,,,,,,,
,Move,canvas.Screen,0_3_0_3_0_5,-999,skipped,,219074,,,219069.70000076294,,219074,2021-11-08T10:07:15.085Z,219102.929,1636365696,full,ni_sequenzen,NI_Sequenzen,6,3,,,,,,,,,,,,
,Move,canvas.Screen,0_3_0_3_0_6,-999,skipped,,219076.10000038147,,,219069.70000076294,,219076.10000038147,2021-11-08T10:07:15.088Z,219102.929,1636365696,full,ni_sequenzen,NI_Sequenzen,7,3,,,,,,,,,,,,
,Move,canvas.Screen,0_3_0_3_0_7,-999,skipped,,219077.5,,,219069.70000076294,,219077.5,2021-11-08T10:07:15.089Z,219102.929,1636365696,full,ni_sequenzen,NI_Sequenzen,8,3,,,,,,,,,,,,
,Move,canvas.Screen,0_3_0_3_0_8,-999,skipped,,219079,,,219069.70000076294,,219079,2021-11-08T10:07:15.090Z,219102.929,1636365696,full,ni_sequenzen,NI_Sequenzen,9,3,,,,,,,,,,,,
,Move,canvas.Screen,0_3_0_3_0_9,-999,skipped,,219081.3000011444,,,219069.70000076294,,219081.40000152588,2021-11-08T10:07:15.093Z,219102.929,1636365696,full,ni_sequenzen,NI_Sequenzen,10,3,,,,,,,,,,,,
,Move,canvas.Screen,0_3_0_3_0_10,-999,skipped,,219082.90000152588,,,219069.70000076294,,219082.90000152588,2021-11-08T10:07:15.094Z,219102.929,1636365696,full,ni_sequenzen,NI_Sequenzen,11,3,,,,,,,,,,,,
,Move,canvas.Screen,0_3_0_3_0_11,-999,skipped,,219084.40000152588,,,219069.70000076294,,219084.40000152588,2021-11-08T10:07:15.096Z,219102.929,1636365696,full,ni_sequenzen,NI_Sequenzen,12,3,,,,,,,,,,,,
,Move,canvas.Screen,0_3_0_3_0_12,-999,skipped,,219086.60000038147,,,219069.70000076294,,219086.60000038147,2021-11-08T10:07:15.098Z,219102.929,1636365696,full,ni_sequenzen,NI_Sequenzen,13,3,,,,,,,,,,,,
,Move,canvas.Screen,0_3_0_3_0_13,-999,skipped,,219088.3000011444,,,219069.70000076294,,219088.40000152588,2021-11-08T10:07:15.100Z,219102.929,1636365696,full,ni_sequenzen,NI_Sequenzen,14,3,,,,,,,,,,,,
,Move,canvas.Screen,0_3_0_3_0_14,-999,skipped,,219089.8000011444,,,219069.70000076294,,219090,2021-11-08T10:07:15.101Z,219102.929,1636365696,full,ni_sequenzen,NI_Sequenzen,15,3,,,,,,,,,,,,
,Loop,flow.Loop,0_3_0_3_0,-999,completion,,215067.60000038147,215069.821,215086.513,219069.70000076294,3983.187000762933,219090.10000038147,2021-11-08T10:07:15.102Z,219102.929,1636365696,full,ni_sequenzen,NI_Sequenzen,,3,,,,,,,,,,,,
,Feedback,canvas.Screen,0_3_0_3_1,,timeout,,219091.3000011444,219086.428,219102.929,223068.438,3983.636999999988,223068.8000011444,2021-11-08T10:07:19.080Z,223086.566,1636365696,full,ni_sequenzen,NI_Sequenzen,,3,,,,,,,,,,,,
,Trial,flow.Sequence,0_3_0_3,,completion,,215042,215069.821,215086.513,223068.438,7981.924999999988,223068.90000152588,2021-11-08T10:07:19.080Z,223102.885,1636365696,full,ni_sequenzen,NI_Sequenzen,,3,,,,,,,,,,,,
,Move,canvas.Screen,0_3_0_4_0_0,down,response,,223082.60000038147,223086.566,223102.885,224856.10000038147,1753.2150003814604,224856.70000076294,2021-11-08T10:07:20.868Z,224869.05,1636365696,full,ni_sequenzen,NI_Sequenzen,1,4,,,,,,,,,,,,
,Move,canvas.Screen,0_3_0_4_0_1,right,response,,224860.5,224852.457,224869.05,225275.10000038147,406.05000038148137,225275.90000152588,2021-11-08T10:07:21.287Z,225285.691,1636365696,full,ni_sequenzen,NI_Sequenzen,2,4,,,,,,,,,,,,
,Move,canvas.Screen,0_3_0_4_0_2,right,response,,225279.3000011444,225269.002,225285.691,226326.40000152588,1040.7090015258873,226328.20000076294,2021-11-08T10:07:22.340Z,226352.329,1636365696,full,ni_sequenzen,NI_Sequenzen,3,4,,,,,,,,,,,,
,Move,canvas.Screen,0_3_0_4_0_3,down,response,,226339.70000076294,226335.688,226352.329,226622.20000076294,269.87100076294155,226638.20000076294,2021-11-08T10:07:22.650Z,226668.944,1636365696,full,ni_sequenzen,NI_Sequenzen,4,4,,,,,,,,,,,,
,Move,canvas.Screen,0_3_0_4_0_4,-999,skipped,,226640.70000076294,,,226622.20000076294,,226640.70000076294,2021-11-08T10:07:22.652Z,226668.944,1636365696,full,ni_sequenzen,NI_Sequenzen,5,4,,,,,,,,,,,,
,Move,canvas.Screen,0_3_0_4_0_5,-999,skipped,,226642.5,,,226622.20000076294,,226642.5,2021-11-08T10:07:22.654Z,226668.944,1636365696,full,ni_sequenzen,NI_Sequenzen,6,4,,,,,,,,,,,,
,Move,canvas.Screen,0_3_0_4_0_6,-999,skipped,,226644,,,226622.20000076294,,226644.10000038147,2021-11-08T10:07:22.656Z,226668.944,1636365696,full,ni_sequenzen,NI_Sequenzen,7,4,,,,,,,,,,,,
,Move,canvas.Screen,0_3_0_4_0_7,-999,skipped,,226646,,,226622.20000076294,,226646.10000038147,2021-11-08T10:07:22.658Z,226668.944,1636365696,full,ni_sequenzen,NI_Sequenzen,8,4,,,,,,,,,,,,
,Move,canvas.Screen,0_3_0_4_0_8,-999,skipped,,226647.5,,,226622.20000076294,,226647.60000038147,2021-11-08T10:07:22.659Z,226668.944,1636365696,full,ni_sequenzen,NI_Sequenzen,9,4,,,,,,,,,,,,
,Move,canvas.Screen,0_3_0_4_0_9,-999,skipped,,226649,,,226622.20000076294,,226649.10000038147,2021-11-08T10:07:22.661Z,226668.944,1636365696,full,ni_sequenzen,NI_Sequenzen,10,4,,,,,,,,,,,,
,Move,canvas.Screen,0_3_0_4_0_10,-999,skipped,,226650.90000152588,,,226622.20000076294,,226650.90000152588,2021-11-08T10:07:22.662Z,226668.944,1636365696,full,ni_sequenzen,NI_Sequenzen,11,4,,,,,,,,,,,,
,Move,canvas.Screen,0_3_0_4_0_11,-999,skipped,,226652.40000152588,,,226622.20000076294,,226652.5,2021-11-08T10:07:22.664Z,226668.944,1636365696,full,ni_sequenzen,NI_Sequenzen,12,4,,,,,,,,,,,,
,Move,canvas.Screen,0_3_0_4_0_12,-999,skipped,,226654,,,226622.20000076294,,226654.10000038147,2021-11-08T10:07:22.666Z,226668.944,1636365696,full,ni_sequenzen,NI_Sequenzen,13,4,,,,,,,,,,,,
,Move,canvas.Screen,0_3_0_4_0_13,-999,skipped,,226656.40000152588,,,226622.20000076294,,226656.5,2021-11-08T10:07:22.668Z,226668.944,1636365696,full,ni_sequenzen,NI_Sequenzen,14,4,,,,,,,,,,,,
,Move,canvas.Screen,0_3_0_4_0_14,-999,skipped,,226659.60000038147,,,226622.20000076294,,226659.70000076294,2021-11-08T10:07:22.671Z,226668.944,1636365696,full,ni_sequenzen,NI_Sequenzen,15,4,,,,,,,,,,,,
,Loop,flow.Loop,0_3_0_4_0,-999,completion,,223080.60000038147,223086.566,223102.885,226622.20000076294,3519.31500076293,226659.70000076294,2021-11-08T10:07:22.671Z,226668.944,1636365696,full,ni_sequenzen,NI_Sequenzen,,4,,,,,,,,,,,,
,Feedback,canvas.Screen,0_3_0_4_1,,timeout,,226661,226652.513,226668.944,230652.123,3999.8890000000247,230652.8000011444,2021-11-08T10:07:26.664Z,230668.833,1636365696,full,ni_sequenzen,NI_Sequenzen,,4,,,,,,,,,,,,
,Trial,flow.Sequence,0_3_0_4,,completion,,223069.10000038147,223086.566,223102.885,230652.123,7549.237999999983,230653.3000011444,2021-11-08T10:07:26.665Z,230685.441,1636365696,full,ni_sequenzen,NI_Sequenzen,,4,,,,,,,,,,,,
,Move,canvas.Screen,0_3_0_5_0_0,right,response,,230665.3000011444,230668.833,230685.441,233520.70000076294,2835.259000762948,233522.20000076294,2021-11-08T10:07:29.534Z,233535.107,1636365696,full,ni_sequenzen,NI_Sequenzen,1,5,,,,,,,,,,,,
,Move,canvas.Screen,0_3_0_5_0_1,down,response,,233526.70000076294,233518.676,233535.107,234030.70000076294,495.5930007629504,234031.3000011444,2021-11-08T10:07:30.043Z,234035.176,1636365696,full,ni_sequenzen,NI_Sequenzen,2,5,,,,,,,,,,,,
,Move,canvas.Screen,0_3_0_5_0_2,right,response,,234032.90000152588,234018.555,234035.176,234766.70000076294,731.5240007629327,234767.20000076294,2021-11-08T10:07:30.779Z,234785.248,1636365696,full,ni_sequenzen,NI_Sequenzen,3,5,,,,,,,,,,,,
,Move,canvas.Screen,0_3_0_5_0_3,down,response,,234769.40000152588,234768.494,234785.248,235215.70000076294,430.45200076294714,235217.3000011444,2021-11-08T10:07:31.229Z,235268.267,1636365696,full,ni_sequenzen,NI_Sequenzen,4,5,,,,,,,,,,,,
,Move,canvas.Screen,0_3_0_5_0_4,-999,skipped,,235231,,,235215.70000076294,,235231.10000038147,2021-11-08T10:07:31.242Z,235268.267,1636365696,full,ni_sequenzen,NI_Sequenzen,5,5,,,,,,,,,,,,
,Move,canvas.Screen,0_3_0_5_0_5,-999,skipped,,235233.60000038147,,,235215.70000076294,,235233.70000076294,2021-11-08T10:07:31.245Z,235268.267,1636365696,full,ni_sequenzen,NI_Sequenzen,6,5,,,,,,,,,,,,
,Move,canvas.Screen,0_3_0_5_0_6,-999,skipped,,235236.20000076294,,,235215.70000076294,,235236.3000011444,2021-11-08T10:07:31.248Z,235268.267,1636365696,full,ni_sequenzen,NI_Sequenzen,7,5,,,,,,,,,,,,
,Move,canvas.Screen,0_3_0_5_0_7,-999,skipped,,235240,,,235215.70000076294,,235240,2021-11-08T10:07:31.252Z,235268.267,1636365696,full,ni_sequenzen,NI_Sequenzen,8,5,,,,,,,,,,,,
,Move,canvas.Screen,0_3_0_5_0_8,-999,skipped,,235242.8000011444,,,235215.70000076294,,235243,2021-11-08T10:07:31.254Z,235268.267,1636365696,full,ni_sequenzen,NI_Sequenzen,9,5,,,,,,,,,,,,
,Move,canvas.Screen,0_3_0_5_0_9,-999,skipped,,235244.5,,,235215.70000076294,,235244.5,2021-11-08T10:07:31.256Z,235268.267,1636365696,full,ni_sequenzen,NI_Sequenzen,10,5,,,,,,,,,,,,
,Move,canvas.Screen,0_3_0_5_0_10,-999,skipped,,235247,,,235215.70000076294,,235247.10000038147,2021-11-08T10:07:31.259Z,235268.267,1636365696,full,ni_sequenzen,NI_Sequenzen,11,5,,,,,,,,,,,,
,Move,canvas.Screen,0_3_0_5_0_11,-999,skipped,,235248.60000038147,,,235215.70000076294,,235248.70000076294,2021-11-08T10:07:31.260Z,235268.267,1636365696,full,ni_sequenzen,NI_Sequenzen,12,5,,,,,,,,,,,,
,Move,canvas.Screen,0_3_0_5_0_12,-999,skipped,,235250.3000011444,,,235215.70000076294,,235250.3000011444,2021-11-08T10:07:31.262Z,235268.267,1636365696,full,ni_sequenzen,NI_Sequenzen,13,5,,,,,,,,,,,,
,Move,canvas.Screen,0_3_0_5_0_13,-999,skipped,,235251.90000152588,,,235215.70000076294,,235251.90000152588,2021-11-08T10:07:31.263Z,235268.267,1636365696,full,ni_sequenzen,NI_Sequenzen,14,5,,,,,,,,,,,,
,Move,canvas.Screen,0_3_0_5_0_14,-999,skipped,,235254.40000152588,,,235215.70000076294,,235254.5,2021-11-08T10:07:31.266Z,235268.267,1636365696,full,ni_sequenzen,NI_Sequenzen,15,5,,,,,,,,,,,,
,Loop,flow.Loop,0_3_0_5_0,-999,completion,,230662.90000152588,230668.833,230685.441,235215.70000076294,4530.259000762948,235254.60000038147,2021-11-08T10:07:31.266Z,235268.267,1636365696,full,ni_sequenzen,NI_Sequenzen,,5,,,,,,,,,,,,
,Feedback,canvas.Screen,0_3_0_5_1,,timeout,,235255.90000152588,235251.774,235268.267,239251.542,3999.860000000015,239252.10000038147,2021-11-08T10:07:35.264Z,239268.127,1636365696,full,ni_sequenzen,NI_Sequenzen,,5,,,,,,,,,,,,
,Trial,flow.Sequence,0_3_0_5,,completion,,230653.5,230668.833,230685.441,239251.542,8566.100999999995,239252.20000076294,2021-11-08T10:07:35.264Z,239284.898,1636365696,full,ni_sequenzen,NI_Sequenzen,,5,,,,,,,,,,,,
,Move,canvas.Screen,0_3_0_6_0_0,down,response,,239264.3000011444,239268.127,239284.898,240479.8000011444,1194.9020011444227,240481.5,2021-11-08T10:07:36.493Z,240501.269,1636365696,full,ni_sequenzen,NI_Sequenzen,1,6,,,,,,,,,,,,
,Move,canvas.Screen,0_3_0_6_0_1,left,response,,240493.70000076294,240484.564,240501.269,240836.10000038147,334.8310003814695,240837.5,2021-11-08T10:07:36.849Z,240851.331,1636365696,full,ni_sequenzen,NI_Sequenzen,2,6,,,,,,,,,,,,
,Move,canvas.Screen,0_3_0_6_0_2,down,response,,240846.5,240835.051,240851.331,241511.10000038147,659.7690003814641,241512.70000076294,2021-11-08T10:07:37.524Z,241534.506,1636365696,full,ni_sequenzen,NI_Sequenzen,3,6,,,,,,,,,,,,
,Move,canvas.Screen,0_3_0_6_0_3,left,response,,241527.90000152588,241517.891,241534.506,241752.70000076294,218.1940007629455,241753.20000076294,2021-11-08T10:07:37.765Z,241801.135,1636365696,full,ni_sequenzen,NI_Sequenzen,4,6,,,,,,,,,,,,
,Move,canvas.Screen,0_3_0_6_0_4,-999,skipped,,241755.90000152588,,,241752.70000076294,,241755.90000152588,2021-11-08T10:07:37.767Z,241801.135,1636365696,full,ni_sequenzen,NI_Sequenzen,5,6,,,,,,,,,,,,
,Move,canvas.Screen,0_3_0_6_0_5,-999,skipped,,241758.40000152588,,,241752.70000076294,,241758.60000038147,2021-11-08T10:07:37.770Z,241801.135,1636365696,full,ni_sequenzen,NI_Sequenzen,6,6,,,,,,,,,,,,
,Move,canvas.Screen,0_3_0_6_0_6,-999,skipped,,241761.10000038147,,,241752.70000076294,,241761.20000076294,2021-11-08T10:07:37.773Z,241801.135,1636365696,full,ni_sequenzen,NI_Sequenzen,7,6,,,,,,,,,,,,
,Move,canvas.Screen,0_3_0_6_0_7,-999,skipped,,241762.8000011444,,,241752.70000076294,,241762.8000011444,2021-11-08T10:07:37.774Z,241801.135,1636365696,full,ni_sequenzen,NI_Sequenzen,8,6,,,,,,,,,,,,
,Move,canvas.Screen,0_3_0_6_0_8,-999,skipped,,241764.8000011444,,,241752.70000076294,,241764.90000152588,2021-11-08T10:07:37.776Z,241801.135,1636365696,full,ni_sequenzen,NI_Sequenzen,9,6,,,,,,,,,,,,
,Move,canvas.Screen,0_3_0_6_0_9,-999,skipped,,241767.60000038147,,,241752.70000076294,,241767.60000038147,2021-11-08T10:07:37.779Z,241801.135,1636365696,full,ni_sequenzen,NI_Sequenzen,10,6,,,,,,,,,,,,
,Move,canvas.Screen,0_3_0_6_0_10,-999,skipped,,241769.40000152588,,,241752.70000076294,,241769.5,2021-11-08T10:07:37.781Z,241801.135,1636365696,full,ni_sequenzen,NI_Sequenzen,11,6,,,,,,,,,,,,
,Move,canvas.Screen,0_3_0_6_0_11,-999,skipped,,241772.40000152588,,,241752.70000076294,,241772.5,2021-11-08T10:07:37.784Z,241801.135,1636365696,full,ni_sequenzen,NI_Sequenzen,12,6,,,,,,,,,,,,
,Move,canvas.Screen,0_3_0_6_0_12,-999,skipped,,241775.3000011444,,,241752.70000076294,,241775.3000011444,2021-11-08T10:07:37.787Z,241801.135,1636365696,full,ni_sequenzen,NI_Sequenzen,13,6,,,,,,,,,,,,
,Move,canvas.Screen,0_3_0_6_0_13,-999,skipped,,241778.90000152588,,,241752.70000076294,,241779.10000038147,2021-11-08T10:07:37.791Z,241801.135,1636365696,full,ni_sequenzen,NI_Sequenzen,14,6,,,,,,,,,,,,
,Move,canvas.Screen,0_3_0_6_0_14,-999,skipped,,241781.90000152588,,,241752.70000076294,,241782,2021-11-08T10:07:37.793Z,241801.135,1636365696,full,ni_sequenzen,NI_Sequenzen,15,6,,,,,,,,,,,,
,Loop,flow.Loop,0_3_0_6_0,-999,completion,,239262.20000076294,239268.127,239284.898,241752.70000076294,2467.802000762953,241782.20000076294,2021-11-08T10:07:37.794Z,241801.135,1636365696,full,ni_sequenzen,NI_Sequenzen,,6,,,,,,,,,,,,
,Feedback,canvas.Screen,0_3_0_6_1,,timeout,,241784.5,241784.528,241801.135,245784.2,3999.7309999999998,245784.70000076294,2021-11-08T10:07:41.796Z,245800.866,1636365696,full,ni_sequenzen,NI_Sequenzen,,6,,,,,,,,,,,,
,Trial,flow.Sequence,0_3_0_6,,completion,,239252.5,239268.127,239284.898,245784.2,6499.302000000025,245784.70000076294,2021-11-08T10:07:41.796Z,245817.651,1636365696,full,ni_sequenzen,NI_Sequenzen,,6,,,,,,,,,,,,
,Move,canvas.Screen,0_3_0_7_0_0,down,response,,245798.90000152588,245800.866,245817.651,248074.60000038147,2256.949000381457,248075,2021-11-08T10:07:44.087Z,248084.02,1636365696,full,ni_sequenzen,NI_Sequenzen,1,7,,,,,,,,,,,,
,Move,canvas.Screen,0_3_0_7_0_1,right,response,,248078.40000152588,248067.386,248084.02,248457.40000152588,373.3800015258894,248459,2021-11-08T10:07:44.470Z,248500.85,1636365696,full,ni_sequenzen,NI_Sequenzen,2,7,,,,,,,,,,,,
,Move,canvas.Screen,0_3_0_7_0_2,right,response,,248466.8000011444,248484.302,248500.85,249178.90000152588,678.0500015258731,249179.60000038147,2021-11-08T10:07:45.191Z,249183.919,1636365696,full,ni_sequenzen,NI_Sequenzen,3,7,,,,,,,,,,,,
,Move,canvas.Screen,0_3_0_7_0_3,down,response,,249181.5,249167.254,249183.919,249501,317.0810000000056,249501.60000038147,2021-11-08T10:07:45.513Z,249534.105,1636365696,full,ni_sequenzen,NI_Sequenzen,4,7,,,,,,,,,,,,
,Move,canvas.Screen,0_3_0_7_0_4,-999,skipped,,249504,,,249501,,249504.10000038147,2021-11-08T10:07:45.516Z,249534.105,1636365696,full,ni_sequenzen,NI_Sequenzen,5,7,,,,,,,,,,,,
,Move,canvas.Screen,0_3_0_7_0_5,-999,skipped,,249505.60000038147,,,249501,,249505.70000076294,2021-11-08T10:07:45.517Z,249534.105,1636365696,full,ni_sequenzen,NI_Sequenzen,6,7,,,,,,,,,,,,
,Move,canvas.Screen,0_3_0_7_0_6,-999,skipped,,249507.20000076294,,,249501,,249507.3000011444,2021-11-08T10:07:45.519Z,249534.105,1636365696,full,ni_sequenzen,NI_Sequenzen,7,7,,,,,,,,,,,,
,Move,canvas.Screen,0_3_0_7_0_7,-999,skipped,,249509.3000011444,,,249501,,249509.40000152588,2021-11-08T10:07:45.521Z,249534.105,1636365696,full,ni_sequenzen,NI_Sequenzen,8,7,,,,,,,,,,,,
,Move,canvas.Screen,0_3_0_7_0_8,-999,skipped,,249511,,,249501,,249511,2021-11-08T10:07:45.522Z,249534.105,1636365696,full,ni_sequenzen,NI_Sequenzen,9,7,,,,,,,,,,,,
,Move,canvas.Screen,0_3_0_7_0_9,-999,skipped,,249512.5,,,249501,,249512.5,2021-11-08T10:07:45.524Z,249534.105,1636365696,full,ni_sequenzen,NI_Sequenzen,10,7,,,,,,,,,,,,
,Move,canvas.Screen,0_3_0_7_0_10,-999,skipped,,249514.8000011444,,,249501,,249515,2021-11-08T10:07:45.526Z,249534.105,1636365696,full,ni_sequenzen,NI_Sequenzen,11,7,,,,,,,,,,,,
,Move,canvas.Screen,0_3_0_7_0_11,-999,skipped,,249516.5,,,249501,,249516.60000038147,2021-11-08T10:07:45.528Z,249534.105,1636365696,full,ni_sequenzen,NI_Sequenzen,12,7,,,,,,,,,,,,
,Move,canvas.Screen,0_3_0_7_0_12,-999,skipped,,249518.10000038147,,,249501,,249518.20000076294,2021-11-08T10:07:45.530Z,249534.105,1636365696,full,ni_sequenzen,NI_Sequenzen,13,7,,,,,,,,,,,,
,Move,canvas.Screen,0_3_0_7_0_13,-999,skipped,,249519.60000038147,,,249501,,249519.70000076294,2021-11-08T10:07:45.531Z,249534.105,1636365696,full,ni_sequenzen,NI_Sequenzen,14,7,,,,,,,,,,,,
,Move,canvas.Screen,0_3_0_7_0_14,-999,skipped,,249522,,,249501,,249522,2021-11-08T10:07:45.534Z,249534.105,1636365696,full,ni_sequenzen,NI_Sequenzen,15,7,,,,,,,,,,,,
,Loop,flow.Loop,0_3_0_7_0,-999,completion,,245797.3000011444,245800.866,245817.651,249501,3683.3489999999874,249522.20000076294,2021-11-08T10:07:45.534Z,249534.105,1636365696,full,ni_sequenzen,NI_Sequenzen,,7,,,,,,,,,,,,
,Feedback,canvas.Screen,0_3_0_7_1,,timeout,,249523.60000038147,249517.378,249534.105,253517.152,3999.5169999999925,253518.20000076294,2021-11-08T10:07:49.530Z,253533.622,1636365696,full,ni_sequenzen,NI_Sequenzen,,7,,,,,,,,,,,,
,Trial,flow.Sequence,0_3_0_7,,completion,,245785,245800.866,245817.651,253517.152,7699.500999999989,253518.5,2021-11-08T10:07:49.530Z,253550.281,1636365696,full,ni_sequenzen,NI_Sequenzen,,7,,,,,,,,,,,,
,Move,canvas.Screen,0_3_0_8_0_0,right,response,,253543.90000152588,253533.622,253550.281,257254.60000038147,3704.3190003814816,257255,2021-11-08T10:07:53.266Z,257266.688,1636365696,full,ni_sequenzen,NI_Sequenzen,1,8,,,,,,,,,,,,
,Move,canvas.Screen,0_3_0_8_0_1,down,response,,257257.10000038147,257249.948,257266.688,258095.10000038147,828.4120003814751,258095.70000076294,2021-11-08T10:07:54.107Z,258099.923,1636365696,full,ni_sequenzen,NI_Sequenzen,2,8,,,,,,,,,,,,
,Move,canvas.Screen,0_3_0_8_0_2,right,response,,258098.3000011444,258083.272,258099.923,259188.70000076294,1088.7770007629297,259189.90000152588,2021-11-08T10:07:55.201Z,259232.041,1636365696,full,ni_sequenzen,NI_Sequenzen,3,8,,,,,,,,,,,,
,Move,canvas.Screen,0_3_0_8_0_3,down,response,,259199,259183.177,259232.041,259752.8000011444,520.7590011444117,259754.70000076294,2021-11-08T10:07:55.766Z,259799.959,1636365696,full,ni_sequenzen,NI_Sequenzen,4,8,,,,,,,,,,,,
,Move,canvas.Screen,0_3_0_8_0_4,-999,skipped,,259763.8000011444,,,259752.8000011444,,259764.3000011444,2021-11-08T10:07:55.776Z,259799.959,1636365696,full,ni_sequenzen,NI_Sequenzen,5,8,,,,,,,,,,,,
,Move,canvas.Screen,0_3_0_8_0_5,-999,skipped,,259770.70000076294,,,259752.8000011444,,259770.90000152588,2021-11-08T10:07:55.782Z,259799.959,1636365696,full,ni_sequenzen,NI_Sequenzen,6,8,,,,,,,,,,,,
,Move,canvas.Screen,0_3_0_8_0_6,-999,skipped,,259774.20000076294,,,259752.8000011444,,259774.3000011444,2021-11-08T10:07:55.786Z,259799.959,1636365696,full,ni_sequenzen,NI_Sequenzen,7,8,,,,,,,,,,,,
,Move,canvas.Screen,0_3_0_8_0_7,-999,skipped,,259777.20000076294,,,259752.8000011444,,259777.3000011444,2021-11-08T10:07:55.789Z,259799.959,1636365696,full,ni_sequenzen,NI_Sequenzen,8,8,,,,,,,,,,,,
,Move,canvas.Screen,0_3_0_8_0_8,-999,skipped,,259780.20000076294,,,259752.8000011444,,259780.40000152588,2021-11-08T10:07:55.792Z,259799.959,1636365696,full,ni_sequenzen,NI_Sequenzen,9,8,,,,,,,,,,,,
,Move,canvas.Screen,0_3_0_8_0_9,-999,skipped,,259783.5,,,259752.8000011444,,259783.5,2021-11-08T10:07:55.795Z,259799.959,1636365696,full,ni_sequenzen,NI_Sequenzen,10,8,,,,,,,,,,,,
,Move,canvas.Screen,0_3_0_8_0_10,-999,skipped,,259786.10000038147,,,259752.8000011444,,259786.10000038147,2021-11-08T10:07:55.798Z,259799.959,1636365696,full,ni_sequenzen,NI_Sequenzen,11,8,,,,,,,,,,,,
,Move,canvas.Screen,0_3_0_8_0_11,-999,skipped,,259788.3000011444,,,259752.8000011444,,259788.5,2021-11-08T10:07:55.800Z,259799.959,1636365696,full,ni_sequenzen,NI_Sequenzen,12,8,,,,,,,,,,,,
,Move,canvas.Screen,0_3_0_8_0_12,-999,skipped,,259790.10000038147,,,259752.8000011444,,259790.20000076294,2021-11-08T10:07:55.802Z,259799.959,1636365696,full,ni_sequenzen,NI_Sequenzen,13,8,,,,,,,,,,,,
,Move,canvas.Screen,0_3_0_8_0_13,-999,skipped,,259791.8000011444,,,259752.8000011444,,259791.90000152588,2021-11-08T10:07:55.803Z,259799.959,1636365696,full,ni_sequenzen,NI_Sequenzen,14,8,,,,,,,,,,,,
