meta,sender,sender_type,sender_id,response,ended_on,instrCount,time_run,time_render,time_show,time_end,duration,time_commit,timestamp,time_switch,openLabId,type,task,project,move,trialN,blockN_Train,blockN,moveCount,currPP,points,movesTrial,visitedFields,diff,reward,Strategie,Zweck,Probleme
[object Object],Screen_1,canvas.Screen,0_0_0_0,cont,response,1,972,971.86,1015.18,8201,7185.82,8219,2021-11-07T22:10:02.932Z,8331.94,1636322981,full,ni_sequenzen,NI_Sequenzen,,,,,,,,,,,,,,
,Screen_2,canvas.Screen,0_0_0_1,cont,response,1,8327,8327.1,8331.94,24217,15885.06,24233,2021-11-07T22:10:18.947Z,24315.34,1636322981,full,ni_sequenzen,NI_Sequenzen,,,,,,,,,,,,,,
,Screen_3,canvas.Screen,0_0_0_2,cont,response,1,24315,24315.16,24315.34,29983,5667.66,30001,2021-11-07T22:10:24.715Z,30015.2,1636322981,full,ni_sequenzen,NI_Sequenzen,,,,,,,,,,,,,,
,Screen_4,canvas.Screen,0_0_0_3,cont,response,1,30008,30007.42,30015.2,33935,3919.7999999999993,33945,2021-11-07T22:10:28.659Z,34381.86,1636322981,full,ni_sequenzen,NI_Sequenzen,,,,,,,,,,,,,,
,Sequence,flow.Sequence,0_0_0,,completion,1,866,971.86,1015.18,33935,32919.82,33946,2021-11-07T22:10:28.659Z,34381.86,1636322981,full,ni_sequenzen,NI_Sequenzen,,,,,,,,,,,,,,
,Screen_1,canvas.Screen,0_0_1_0,,skipped,2,33952,,,33952,,33953,2021-11-07T22:10:28.666Z,34381.86,1636322981,full,ni_sequenzen,NI_Sequenzen,,,,,,,,,,,,,,
,Screen_2,canvas.Screen,0_0_1_1,,skipped,2,33956,,,33952,,33957,2021-11-07T22:10:28.670Z,34381.86,1636322981,full,ni_sequenzen,NI_Sequenzen,,,,,,,,,,,,,,
,Screen_3,canvas.Screen,0_0_1_2,,skipped,2,33961,,,33952,,33961,2021-11-07T22:10:28.675Z,34381.86,1636322981,full,ni_sequenzen,NI_Sequenzen,,,,,,,,,,,,,,
,Screen_4,canvas.Screen,0_0_1_3,,skipped,2,33966,,,33952,,33966,2021-11-07T22:10:28.680Z,34381.86,1636322981,full,ni_sequenzen,NI_Sequenzen,,,,,,,,,,,,,,
,Sequence,flow.Sequence,0_0_1,,completion,2,33948,,,33952,,33968,2021-11-07T22:10:28.681Z,34381.86,1636322981,full,ni_sequenzen,NI_Sequenzen,,,,,,,,,,,,,,
,Screen_1,canvas.Screen,0_0_2_0,,skipped,3,33973,,,33973,,33974,2021-11-07T22:10:28.687Z,34381.86,1636322981,full,ni_sequenzen,NI_Sequenzen,,,,,,,,,,,,,,
,Screen_2,canvas.Screen,0_0_2_1,,skipped,3,33979,,,33973,,33980,2021-11-07T22:10:28.693Z,34381.86,1636322981,full,ni_sequenzen,NI_Sequenzen,,,,,,,,,,,,,,
,Screen_3,canvas.Screen,0_0_2_2,,skipped,3,33988,,,33973,,33988,2021-11-07T22:10:28.702Z,34381.86,1636322981,full,ni_sequenzen,NI_Sequenzen,,,,,,,,,,,,,,
,Screen_4,canvas.Screen,0_0_2_3,,skipped,3,33993,,,33973,,33993,2021-11-07T22:10:28.706Z,34381.86,1636322981,full,ni_sequenzen,NI_Sequenzen,,,,,,,,,,,,,,
,Sequence,flow.Sequence,0_0_2,,completion,3,33970,,,33973,,33993,2021-11-07T22:10:28.707Z,34381.86,1636322981,full,ni_sequenzen,NI_Sequenzen,,,,,,,,,,,,,,
,Screen_1,canvas.Screen,0_0_3_0,,skipped,4,33997,,,33997,,33997,2021-11-07T22:10:28.711Z,34381.86,1636322981,full,ni_sequenzen,NI_Sequenzen,,,,,,,,,,,,,,
,Screen_2,canvas.Screen,0_0_3_1,,skipped,4,34002,,,33997,,34002,2021-11-07T22:10:28.715Z,34381.86,1636322981,full,ni_sequenzen,NI_Sequenzen,,,,,,,,,,,,,,
,Screen_3,canvas.Screen,0_0_3_2,,skipped,4,34005,,,33997,,34005,2021-11-07T22:10:28.719Z,34381.86,1636322981,full,ni_sequenzen,NI_Sequenzen,,,,,,,,,,,,,,
,Screen_4,canvas.Screen,0_0_3_3,,skipped,4,34010,,,33997,,34010,2021-11-07T22:10:28.723Z,34381.86,1636322981,full,ni_sequenzen,NI_Sequenzen,,,,,,,,,,,,,,
,Sequence,flow.Sequence,0_0_3,,completion,4,33995,,,33997,,34010,2021-11-07T22:10:28.724Z,34381.86,1636322981,full,ni_sequenzen,NI_Sequenzen,,,,,,,,,,,,,,
,Screen_1,canvas.Screen,0_0_4_0,,skipped,5,34014,,,34014,,34015,2021-11-07T22:10:28.728Z,34381.86,1636322981,full,ni_sequenzen,NI_Sequenzen,,,,,,,,,,,,,,
,Screen_2,canvas.Screen,0_0_4_1,,skipped,5,34017,,,34014,,34017,2021-11-07T22:10:28.731Z,34381.86,1636322981,full,ni_sequenzen,NI_Sequenzen,,,,,,,,,,,,,,
,Screen_3,canvas.Screen,0_0_4_2,,skipped,5,34020,,,34014,,34020,2021-11-07T22:10:28.734Z,34381.86,1636322981,full,ni_sequenzen,NI_Sequenzen,,,,,,,,,,,,,,
,Screen_4,canvas.Screen,0_0_4_3,,skipped,5,34024,,,34014,,34024,2021-11-07T22:10:28.738Z,34381.86,1636322981,full,ni_sequenzen,NI_Sequenzen,,,,,,,,,,,,,,
,Sequence,flow.Sequence,0_0_4,,completion,5,34011,,,34014,,34024,2021-11-07T22:10:28.738Z,34381.86,1636322981,full,ni_sequenzen,NI_Sequenzen,,,,,,,,,,,,,,
,Screen_1,canvas.Screen,0_0_5_0,,skipped,6,34029,,,34029,,34029,2021-11-07T22:10:28.742Z,34381.86,1636322981,full,ni_sequenzen,NI_Sequenzen,,,,,,,,,,,,,,
,Screen_2,canvas.Screen,0_0_5_1,,skipped,6,34031,,,34029,,34031,2021-11-07T22:10:28.745Z,34381.86,1636322981,full,ni_sequenzen,NI_Sequenzen,,,,,,,,,,,,,,
,Screen_3,canvas.Screen,0_0_5_2,,skipped,6,34036,,,34029,,34036,2021-11-07T22:10:28.749Z,34381.86,1636322981,full,ni_sequenzen,NI_Sequenzen,,,,,,,,,,,,,,
,Screen_4,canvas.Screen,0_0_5_3,,skipped,6,34039,,,34029,,34039,2021-11-07T22:10:28.753Z,34381.86,1636322981,full,ni_sequenzen,NI_Sequenzen,,,,,,,,,,,,,,
,Sequence,flow.Sequence,0_0_5,,completion,6,34026,,,34029,,34040,2021-11-07T22:10:28.753Z,34381.86,1636322981,full,ni_sequenzen,NI_Sequenzen,,,,,,,,,,,,,,
,Screen_1,canvas.Screen,0_0_6_0,,skipped,7,34044,,,34044,,34044,2021-11-07T22:10:28.758Z,34381.86,1636322981,full,ni_sequenzen,NI_Sequenzen,,,,,,,,,,,,,,
,Screen_2,canvas.Screen,0_0_6_1,,skipped,7,34047,,,34044,,34048,2021-11-07T22:10:28.761Z,34381.86,1636322981,full,ni_sequenzen,NI_Sequenzen,,,,,,,,,,,,,,
,Screen_3,canvas.Screen,0_0_6_2,,skipped,7,34050,,,34044,,34050,2021-11-07T22:10:28.764Z,34381.86,1636322981,full,ni_sequenzen,NI_Sequenzen,,,,,,,,,,,,,,
,Screen_4,canvas.Screen,0_0_6_3,,skipped,7,34053,,,34044,,34053,2021-11-07T22:10:28.767Z,34381.86,1636322981,full,ni_sequenzen,NI_Sequenzen,,,,,,,,,,,,,,
,Sequence,flow.Sequence,0_0_6,,completion,7,34041,,,34044,,34053,2021-11-07T22:10:28.767Z,34381.86,1636322981,full,ni_sequenzen,NI_Sequenzen,,,,,,,,,,,,,,
,Screen_1,canvas.Screen,0_0_7_0,,skipped,8,34057,,,34057,,34057,2021-11-07T22:10:28.771Z,34381.86,1636322981,full,ni_sequenzen,NI_Sequenzen,,,,,,,,,,,,,,
,Screen_2,canvas.Screen,0_0_7_1,,skipped,8,34060,,,34057,,34060,2021-11-07T22:10:28.773Z,34381.86,1636322981,full,ni_sequenzen,NI_Sequenzen,,,,,,,,,,,,,,
,Screen_3,canvas.Screen,0_0_7_2,,skipped,8,34063,,,34057,,34063,2021-11-07T22:10:28.777Z,34381.86,1636322981,full,ni_sequenzen,NI_Sequenzen,,,,,,,,,,,,,,
,Screen_4,canvas.Screen,0_0_7_3,,skipped,8,34067,,,34057,,34068,2021-11-07T22:10:28.780Z,34381.86,1636322981,full,ni_sequenzen,NI_Sequenzen,,,,,,,,,,,,,,
,Sequence,flow.Sequence,0_0_7,,completion,8,34055,,,34057,,34068,2021-11-07T22:10:28.781Z,34381.86,1636322981,full,ni_sequenzen,NI_Sequenzen,,,,,,,,,,,,,,
,Screen_1,canvas.Screen,0_0_8_0,,skipped,9,34072,,,34072,,34072,2021-11-07T22:10:28.785Z,34381.86,1636322981,full,ni_sequenzen,NI_Sequenzen,,,,,,,,,,,,,,
,Screen_2,canvas.Screen,0_0_8_1,,skipped,9,34074,,,34072,,34075,2021-11-07T22:10:28.788Z,34381.86,1636322981,full,ni_sequenzen,NI_Sequenzen,,,,,,,,,,,,,,
,Screen_3,canvas.Screen,0_0_8_2,,skipped,9,34077,,,34072,,34078,2021-11-07T22:10:28.791Z,34381.86,1636322981,full,ni_sequenzen,NI_Sequenzen,,,,,,,,,,,,,,
,Screen_4,canvas.Screen,0_0_8_3,,skipped,9,34081,,,34072,,34081,2021-11-07T22:10:28.795Z,34381.86,1636322981,full,ni_sequenzen,NI_Sequenzen,,,,,,,,,,,,,,
,Sequence,flow.Sequence,0_0_8,,completion,9,34069,,,34072,,34082,2021-11-07T22:10:28.795Z,34381.86,1636322981,full,ni_sequenzen,NI_Sequenzen,,,,,,,,,,,,,,
,Screen_1,canvas.Screen,0_0_9_0,,skipped,10,34087,,,34087,,34087,2021-11-07T22:10:28.800Z,34381.86,1636322981,full,ni_sequenzen,NI_Sequenzen,,,,,,,,,,,,,,
,Screen_2,canvas.Screen,0_0_9_1,,skipped,10,34089,,,34087,,34089,2021-11-07T22:10:28.802Z,34381.86,1636322981,full,ni_sequenzen,NI_Sequenzen,,,,,,,,,,,,,,
,Screen_3,canvas.Screen,0_0_9_2,,skipped,10,34092,,,34087,,34092,2021-11-07T22:10:28.805Z,34381.86,1636322981,full,ni_sequenzen,NI_Sequenzen,,,,,,,,,,,,,,
,Screen_4,canvas.Screen,0_0_9_3,,skipped,10,34095,,,34087,,34095,2021-11-07T22:10:28.809Z,34381.86,1636322981,full,ni_sequenzen,NI_Sequenzen,,,,,,,,,,,,,,
,Sequence,flow.Sequence,0_0_9,,completion,10,34084,,,34087,,34096,2021-11-07T22:10:28.809Z,34381.86,1636322981,full,ni_sequenzen,NI_Sequenzen,,,,,,,,,,,,,,
,Screen_1,canvas.Screen,0_0_10_0,,skipped,11,34099,,,34099,,34099,2021-11-07T22:10:28.812Z,34381.86,1636322981,full,ni_sequenzen,NI_Sequenzen,,,,,,,,,,,,,,
,Screen_2,canvas.Screen,0_0_10_1,,skipped,11,34102,,,34099,,34102,2021-11-07T22:10:28.815Z,34381.86,1636322981,full,ni_sequenzen,NI_Sequenzen,,,,,,,,,,,,,,
,Screen_3,canvas.Screen,0_0_10_2,,skipped,11,34105,,,34099,,34105,2021-11-07T22:10:28.818Z,34381.86,1636322981,full,ni_sequenzen,NI_Sequenzen,,,,,,,,,,,,,,
,Screen_4,canvas.Screen,0_0_10_3,,skipped,11,34108,,,34099,,34108,2021-11-07T22:10:28.822Z,34381.86,1636322981,full,ni_sequenzen,NI_Sequenzen,,,,,,,,,,,,,,
,Sequence,flow.Sequence,0_0_10,,completion,11,34097,,,34099,,34109,2021-11-07T22:10:28.822Z,34381.86,1636322981,full,ni_sequenzen,NI_Sequenzen,,,,,,,,,,,,,,
,Screen_1,canvas.Screen,0_0_11_0,,skipped,12,34113,,,34113,,34113,2021-11-07T22:10:28.827Z,34381.86,1636322981,full,ni_sequenzen,NI_Sequenzen,,,,,,,,,,,,,,
,Screen_2,canvas.Screen,0_0_11_1,,skipped,12,34116,,,34113,,34117,2021-11-07T22:10:28.830Z,34381.86,1636322981,full,ni_sequenzen,NI_Sequenzen,,,,,,,,,,,,,,
,Screen_3,canvas.Screen,0_0_11_2,,skipped,12,34119,,,34113,,34119,2021-11-07T22:10:28.832Z,34381.86,1636322981,full,ni_sequenzen,NI_Sequenzen,,,,,,,,,,,,,,
,Screen_4,canvas.Screen,0_0_11_3,,skipped,12,34122,,,34113,,34122,2021-11-07T22:10:28.835Z,34381.86,1636322981,full,ni_sequenzen,NI_Sequenzen,,,,,,,,,,,,,,
,Sequence,flow.Sequence,0_0_11,,completion,12,34110,,,34113,,34122,2021-11-07T22:10:28.835Z,34381.86,1636322981,full,ni_sequenzen,NI_Sequenzen,,,,,,,,,,,,,,
,Screen_1,canvas.Screen,0_0_12_0,,skipped,13,34126,,,34126,,34126,2021-11-07T22:10:28.839Z,34381.86,1636322981,full,ni_sequenzen,NI_Sequenzen,,,,,,,,,,,,,,
,Screen_2,canvas.Screen,0_0_12_1,,skipped,13,34129,,,34126,,34129,2021-11-07T22:10:28.842Z,34381.86,1636322981,full,ni_sequenzen,NI_Sequenzen,,,,,,,,,,,,,,
,Screen_3,canvas.Screen,0_0_12_2,,skipped,13,34132,,,34126,,34132,2021-11-07T22:10:28.845Z,34381.86,1636322981,full,ni_sequenzen,NI_Sequenzen,,,,,,,,,,,,,,
,Screen_4,canvas.Screen,0_0_12_3,,skipped,13,34134,,,34126,,34135,2021-11-07T22:10:28.848Z,34381.86,1636322981,full,ni_sequenzen,NI_Sequenzen,,,,,,,,,,,,,,
,Sequence,flow.Sequence,0_0_12,,completion,13,34123,,,34126,,34135,2021-11-07T22:10:28.848Z,34381.86,1636322981,full,ni_sequenzen,NI_Sequenzen,,,,,,,,,,,,,,
,Screen_1,canvas.Screen,0_0_13_0,,skipped,14,34140,,,34140,,34140,2021-11-07T22:10:28.854Z,34381.86,1636322981,full,ni_sequenzen,NI_Sequenzen,,,,,,,,,,,,,,
,Screen_2,canvas.Screen,0_0_13_1,,skipped,14,34143,,,34140,,34143,2021-11-07T22:10:28.857Z,34381.86,1636322981,full,ni_sequenzen,NI_Sequenzen,,,,,,,,,,,,,,
,Screen_3,canvas.Screen,0_0_13_2,,skipped,14,34146,,,34140,,34147,2021-11-07T22:10:28.860Z,34381.86,1636322981,full,ni_sequenzen,NI_Sequenzen,,,,,,,,,,,,,,
,Screen_4,canvas.Screen,0_0_13_3,,skipped,14,34150,,,34140,,34150,2021-11-07T22:10:28.864Z,34381.86,1636322981,full,ni_sequenzen,NI_Sequenzen,,,,,,,,,,,,,,
,Sequence,flow.Sequence,0_0_13,,completion,14,34137,,,34140,,34150,2021-11-07T22:10:28.864Z,34381.86,1636322981,full,ni_sequenzen,NI_Sequenzen,,,,,,,,,,,,,,
,Screen_1,canvas.Screen,0_0_14_0,,skipped,15,34156,,,34156,,34156,2021-11-07T22:10:28.869Z,34381.86,1636322981,full,ni_sequenzen,NI_Sequenzen,,,,,,,,,,,,,,
,Screen_2,canvas.Screen,0_0_14_1,,skipped,15,34159,,,34156,,34159,2021-11-07T22:10:28.873Z,34381.86,1636322981,full,ni_sequenzen,NI_Sequenzen,,,,,,,,,,,,,,
,Screen_3,canvas.Screen,0_0_14_2,,skipped,15,34163,,,34156,,34163,2021-11-07T22:10:28.876Z,34381.86,1636322981,full,ni_sequenzen,NI_Sequenzen,,,,,,,,,,,,,,
,Screen_4,canvas.Screen,0_0_14_3,,skipped,15,34166,,,34156,,34166,2021-11-07T22:10:28.879Z,34381.86,1636322981,full,ni_sequenzen,NI_Sequenzen,,,,,,,,,,,,,,
,Sequence,flow.Sequence,0_0_14,,completion,15,34152,,,34156,,34166,2021-11-07T22:10:28.879Z,34381.86,1636322981,full,ni_sequenzen,NI_Sequenzen,,,,,,,,,,,,,,
,Screen_1,canvas.Screen,0_0_15_0,,skipped,16,34168,,,34168,,34169,2021-11-07T22:10:28.882Z,34381.86,1636322981,full,ni_sequenzen,NI_Sequenzen,,,,,,,,,,,,,,
,Screen_2,canvas.Screen,0_0_15_1,,skipped,16,34171,,,34168,,34171,2021-11-07T22:10:28.885Z,34381.86,1636322981,full,ni_sequenzen,NI_Sequenzen,,,,,,,,,,,,,,
,Screen_3,canvas.Screen,0_0_15_2,,skipped,16,34174,,,34168,,34175,2021-11-07T22:10:28.888Z,34381.86,1636322981,full,ni_sequenzen,NI_Sequenzen,,,,,,,,,,,,,,
,Screen_4,canvas.Screen,0_0_15_3,,skipped,16,34178,,,34168,,34178,2021-11-07T22:10:28.891Z,34381.86,1636322981,full,ni_sequenzen,NI_Sequenzen,,,,,,,,,,,,,,
,Sequence,flow.Sequence,0_0_15,,completion,16,34167,,,34168,,34178,2021-11-07T22:10:28.892Z,34381.86,1636322981,full,ni_sequenzen,NI_Sequenzen,,,,,,,,,,,,,,
,Screen_1,canvas.Screen,0_0_16_0,,skipped,17,34183,,,34183,,34183,2021-11-07T22:10:28.896Z,34381.86,1636322981,full,ni_sequenzen,NI_Sequenzen,,,,,,,,,,,,,,
,Screen_2,canvas.Screen,0_0_16_1,,skipped,17,34186,,,34183,,34186,2021-11-07T22:10:28.900Z,34381.86,1636322981,full,ni_sequenzen,NI_Sequenzen,,,,,,,,,,,,,,
,Screen_3,canvas.Screen,0_0_16_2,,skipped,17,34189,,,34183,,34189,2021-11-07T22:10:28.903Z,34381.86,1636322981,full,ni_sequenzen,NI_Sequenzen,,,,,,,,,,,,,,
,Screen_4,canvas.Screen,0_0_16_3,,skipped,17,34192,,,34183,,34192,2021-11-07T22:10:28.905Z,34381.86,1636322981,full,ni_sequenzen,NI_Sequenzen,,,,,,,,,,,,,,
,Sequence,flow.Sequence,0_0_16,,completion,17,34179,,,34183,,34192,2021-11-07T22:10:28.906Z,34381.86,1636322981,full,ni_sequenzen,NI_Sequenzen,,,,,,,,,,,,,,
,Screen_1,canvas.Screen,0_0_17_0,,skipped,18,34196,,,34196,,34196,2021-11-07T22:10:28.909Z,34381.86,1636322981,full,ni_sequenzen,NI_Sequenzen,,,,,,,,,,,,,,
,Screen_2,canvas.Screen,0_0_17_1,,skipped,18,34198,,,34196,,34198,2021-11-07T22:10:28.911Z,34381.86,1636322981,full,ni_sequenzen,NI_Sequenzen,,,,,,,,,,,,,,
,Screen_3,canvas.Screen,0_0_17_2,,skipped,18,34200,,,34196,,34200,2021-11-07T22:10:28.914Z,34381.86,1636322981,full,ni_sequenzen,NI_Sequenzen,,,,,,,,,,,,,,
,Screen_4,canvas.Screen,0_0_17_3,,skipped,18,34204,,,34196,,34204,2021-11-07T22:10:28.917Z,34381.86,1636322981,full,ni_sequenzen,NI_Sequenzen,,,,,,,,,,,,,,
,Sequence,flow.Sequence,0_0_17,,completion,18,34193,,,34196,,34204,2021-11-07T22:10:28.917Z,34381.86,1636322981,full,ni_sequenzen,NI_Sequenzen,,,,,,,,,,,,,,
,Screen_1,canvas.Screen,0_0_18_0,,skipped,19,34208,,,34208,,34208,2021-11-07T22:10:28.921Z,34381.86,1636322981,full,ni_sequenzen,NI_Sequenzen,,,,,,,,,,,,,,
,Screen_2,canvas.Screen,0_0_18_1,,skipped,19,34211,,,34208,,34211,2021-11-07T22:10:28.925Z,34381.86,1636322981,full,ni_sequenzen,NI_Sequenzen,,,,,,,,,,,,,,
,Screen_3,canvas.Screen,0_0_18_2,,skipped,19,34215,,,34208,,34215,2021-11-07T22:10:28.928Z,34381.86,1636322981,full,ni_sequenzen,NI_Sequenzen,,,,,,,,,,,,,,
,Screen_4,canvas.Screen,0_0_18_3,,skipped,19,34218,,,34208,,34218,2021-11-07T22:10:28.931Z,34381.86,1636322981,full,ni_sequenzen,NI_Sequenzen,,,,,,,,,,,,,,
,Sequence,flow.Sequence,0_0_18,,completion,19,34205,,,34208,,34218,2021-11-07T22:10:28.931Z,34381.86,1636322981,full,ni_sequenzen,NI_Sequenzen,,,,,,,,,,,,,,
,Screen_1,canvas.Screen,0_0_19_0,,skipped,20,34222,,,34222,,34222,2021-11-07T22:10:28.935Z,34381.86,1636322981,full,ni_sequenzen,NI_Sequenzen,,,,,,,,,,,,,,
,Screen_2,canvas.Screen,0_0_19_1,,skipped,20,34225,,,34222,,34225,2021-11-07T22:10:28.939Z,34381.86,1636322981,full,ni_sequenzen,NI_Sequenzen,,,,,,,,,,,,,,
,Screen_3,canvas.Screen,0_0_19_2,,skipped,20,34228,,,34222,,34229,2021-11-07T22:10:28.941Z,34381.86,1636322981,full,ni_sequenzen,NI_Sequenzen,,,,,,,,,,,,,,
,Screen_4,canvas.Screen,0_0_19_3,,skipped,20,34231,,,34222,,34231,2021-11-07T22:10:28.944Z,34381.86,1636322981,full,ni_sequenzen,NI_Sequenzen,,,,,,,,,,,,,,
,Sequence,flow.Sequence,0_0_19,,completion,20,34220,,,34222,,34231,2021-11-07T22:10:28.945Z,34381.86,1636322981,full,ni_sequenzen,NI_Sequenzen,,,,,,,,,,,,,,
,Instructions_I,flow.Loop,0_0,,completion,,864,971.86,1015.18,34222,33206.82,34232,2021-11-07T22:10:28.945Z,34381.86,1636322981,full,ni_sequenzen,NI_Sequenzen,,,,,,,,,,,,,,
,Move,canvas.Screen,0_1_0_0,right,response,,34368,34368.16,34381.86,35233,851.1399999999994,35241,2021-11-07T22:10:29.954Z,35265.18,1636322981,full,ni_sequenzen,NI_Sequenzen,1,,,,,,,,,,,,,
,Move,canvas.Screen,0_1_0_1,right,response,,35249,35249.54,35265.18,35810,544.8199999999997,35817,2021-11-07T22:10:30.530Z,35826.36,1636322981,full,ni_sequenzen,NI_Sequenzen,2,,,,,,,,,,,,,
,Move,canvas.Screen,0_1_0_2,down,response,,35826,35826.18,35826.36,36436,609.6399999999994,36458,2021-11-07T22:10:31.171Z,36465.6,1636322981,full,ni_sequenzen,NI_Sequenzen,3,,,,,,,,,,,,,
,Move,canvas.Screen,0_1_0_3,down,response,,36465,36465.42,36465.6,36749,283.40000000000146,36769,2021-11-07T22:10:31.482Z,36781.88,1636322981,full,ni_sequenzen,NI_Sequenzen,4,,,,,,,,,,,,,
,Move,canvas.Screen,0_1_0_4,left,response,,36777,36777.2,36781.88,37154,372.1200000000026,37177,2021-11-07T22:10:31.890Z,37198.5,1636322981,full,ni_sequenzen,NI_Sequenzen,5,,,,,,,,,,,,,
,Move,canvas.Screen,0_1_0_5,left,response,,37184,37183.8,37198.5,37514,315.5,37537,2021-11-07T22:10:32.250Z,37548.54,1636322981,full,ni_sequenzen,NI_Sequenzen,6,,,,,,,,,,,,,
,Move,canvas.Screen,0_1_0_6,down,response,,37545,37544.82,37548.54,38123,574.4599999999991,38129,2021-11-07T22:10:32.842Z,38148.52,1636322981,full,ni_sequenzen,NI_Sequenzen,7,,,,,,,,,,,,,
,Move,canvas.Screen,0_1_0_7,down,response,,38136,38136.74,38148.52,38452,303.4800000000032,38473,2021-11-07T22:10:33.187Z,38481.84,1636322981,full,ni_sequenzen,NI_Sequenzen,8,,,,,,,,,,,,,
,Move,canvas.Screen,0_1_0_8,left,response,,38481,38480.52,38481.84,39093,611.1600000000035,39097,2021-11-07T22:10:33.810Z,39115.18,1636322981,full,ni_sequenzen,NI_Sequenzen,9,,,,,,,,,,,,,
,Move,canvas.Screen,0_1_0_9,right,response,,39104,39103.86,39115.18,39607,491.8199999999997,39625,2021-11-07T22:10:34.339Z,39633.62,1636322981,full,ni_sequenzen,NI_Sequenzen,10,,,,,,,,,,,,,
,Move,canvas.Screen,0_1_0_10,down,response,,39633,39633.46,39633.62,40218,584.3799999999974,40233,2021-11-07T22:10:34.946Z,40248.52,1636322981,full,ni_sequenzen,NI_Sequenzen,11,,,,,,,,,,,,,
,Move,canvas.Screen,0_1_0_11,down,response,,40239,40238.6,40248.52,40592,343.4800000000032,40608,2021-11-07T22:10:35.322Z,40614.94,1636322981,full,ni_sequenzen,NI_Sequenzen,12,,,,,,,,,,,,,
,Move,canvas.Screen,0_1_0_12,down,response,,40615,40614.74,40614.94,40999,384.0599999999977,41008,2021-11-07T22:10:35.722Z,41015.18,1636322981,full,ni_sequenzen,NI_Sequenzen,13,,,,,,,,,,,,,
,Move,canvas.Screen,0_1_0_13,left,response,,41014,41013.76,41015.18,41452,436.8199999999997,41473,2021-11-07T22:10:36.186Z,41481.84,1636322981,full,ni_sequenzen,NI_Sequenzen,14,,,,,,,,,,,,,
,Move,canvas.Screen,0_1_0_14,left,response,,41481,41480.5,41481.84,41999,517.1600000000035,42008,2021-11-07T22:10:36.722Z,42031.86,1636322981,full,ni_sequenzen,NI_Sequenzen,15,,,,,,,,,,,,,
,Move,canvas.Screen,0_1_0_15,right,response,,42016,42016.48,42031.86,43092,1060.1399999999994,43104,2021-11-07T22:10:37.818Z,43115.2,1636322981,full,ni_sequenzen,NI_Sequenzen,16,,,,,,,,,,,,,
,Move,canvas.Screen,0_1_0_16,down,response,,43113,43113.3,43115.2,43780,664.8000000000029,43793,2021-11-07T22:10:38.506Z,43801.22,1636322981,full,ni_sequenzen,NI_Sequenzen,17,,,,,,,,,,,,,
,Move,canvas.Screen,0_1_0_17,down,response,,43801,43801.04,43801.22,44076,274.77999999999884,44080,2021-11-07T22:10:38.794Z,44098.5,1636322981,full,ni_sequenzen,NI_Sequenzen,18,,,,,,,,,,,,,
,Move,canvas.Screen,0_1_0_18,down,response,,44089,44088.54,44098.5,44810,711.5,44818,2021-11-07T22:10:39.531Z,44834.42,1636322981,full,ni_sequenzen,NI_Sequenzen,19,,,,,,,,,,,,,
,Move,canvas.Screen,0_1_0_19,right,response,,44834,44834.2,44834.42,45529,694.5800000000017,45554,2021-11-07T22:10:40.266Z,45565.18,1636322981,full,ni_sequenzen,NI_Sequenzen,20,,,,,,,,,,,,,
,Move,canvas.Screen,0_1_0_20,right,response,,45564,45563.94,45565.18,45921,355.8199999999997,45945,2021-11-07T22:10:40.659Z,45965.3,1636322981,full,ni_sequenzen,NI_Sequenzen,21,,,,,,,,,,,,,
,Move,canvas.Screen,0_1_0_21,down,response,,45957,45956.94,45965.3,48936,2970.699999999997,48954,2021-11-07T22:10:43.666Z,48965.18,1636322981,full,ni_sequenzen,NI_Sequenzen,22,,,,,,,,,,,,,
,Move,canvas.Screen,0_1_0_22,down,response,,48964,48963.5,48965.18,49248,282.8199999999997,49265,2021-11-07T22:10:43.979Z,49281.84,1636322981,full,ni_sequenzen,NI_Sequenzen,23,,,,,,,,,,,,,
,Move,canvas.Screen,0_1_0_23,left,response,,49274,49274.42,49281.84,49717,435.1600000000035,49721,2021-11-07T22:10:44.434Z,49731.66,1636322981,full,ni_sequenzen,NI_Sequenzen,24,,,,,,,,,,,,,
,Move,canvas.Screen,0_1_0_24,left,response,,49732,49731.48,49731.66,50046,314.3399999999965,50057,2021-11-07T22:10:44.771Z,50081.84,1636322981,full,ni_sequenzen,NI_Sequenzen,25,,,,,,,,,,,,,
,Move,canvas.Screen,0_1_0_25,left,response,,50066,50065.24,50081.84,50342,260.1600000000035,50353,2021-11-07T22:10:45.066Z,50365.16,1636322981,full,ni_sequenzen,NI_Sequenzen,26,,,,,,,,,,,,,
,Move,canvas.Screen,0_1_0_26,down,response,,50360,50360.08,50365.16,51310,944.8399999999965,51321,2021-11-07T22:10:46.035Z,51331.84,1636322981,full,ni_sequenzen,NI_Sequenzen,27,,,,,,,,,,,,,
,Move,canvas.Screen,0_1_0_27,down,response,,51330,51330.08,51331.84,51515,183.1600000000035,51529,2021-11-07T22:10:46.242Z,51548.5,1636322981,full,ni_sequenzen,NI_Sequenzen,28,,,,,,,,,,,,,
,Move,canvas.Screen,0_1_0_28,down,response,,51538,51538.86,51548.5,51764,215.5,51777,2021-11-07T22:10:46.490Z,51786.32,1636322981,full,ni_sequenzen,NI_Sequenzen,29,,,,,,,,,,,,,
,Move,canvas.Screen,0_1_0_29,down,response,,51786,51786.14,51786.32,52092,305.6800000000003,52113,2021-11-07T22:10:46.826Z,52215.16,1636322981,full,ni_sequenzen,NI_Sequenzen,30,,,,,,,,,,,,,
,Loop,flow.Loop,0_1_0,-999,completion,,34262,34368.16,34381.86,52092,17710.14,52114,2021-11-07T22:10:46.827Z,52215.16,1636322981,full,ni_sequenzen,NI_Sequenzen,,,,,,,,,,,,,,
,Training_I,flow.Sequence,0_1,,completion,,34234,34368.16,34381.86,52092,17710.14,52114,2021-11-07T22:10:46.827Z,52215.16,1636322981,full,ni_sequenzen,NI_Sequenzen,,,,,,,,,,,,,,
,Screen_1,canvas.Screen,0_2_0_0,cont,response,1,52204,52203.74,52215.16,57857,5641.8399999999965,57865,2021-11-07T22:10:52.579Z,57982.96,1636322981,full,ni_sequenzen,NI_Sequenzen,,,,,,,,,,,,,,
,Screen_2,canvas.Screen,0_2_0_1,cont,response,1,57983,57982.82,57982.96,64279,6296.040000000001,64306,2021-11-07T22:10:59.018Z,64315.18,1636322981,full,ni_sequenzen,NI_Sequenzen,,,,,,,,,,,,,,
,Screen_3,canvas.Screen,0_2_0_2,cont,response,1,64310,64310.04,64315.18,71185,6869.82,71201,2021-11-07T22:11:05.915Z,71398.5,1636322981,full,ni_sequenzen,NI_Sequenzen,,,,,,,,,,,,,,
,Screen_4,canvas.Screen,0_2_0_3,cont,response,1,71392,71391.54,71398.5,76248,4849.5,76272,2021-11-07T22:11:10.986Z,76281.82,1636322981,full,ni_sequenzen,NI_Sequenzen,,,,,,,,,,,,,,
,Screen_5,canvas.Screen,0_2_0_4,cont,response,1,76277,76277.16,76281.82,80014,3732.179999999993,80033,2021-11-07T22:11:14.747Z,80148.5,1636322981,full,ni_sequenzen,NI_Sequenzen,,,,,,,,,,,,,,
,Screen_6,canvas.Screen,0_2_0_5,cont,response,1,80140,80140.14,80148.5,85248,5099.5,85266,2021-11-07T22:11:19.979Z,85781.82,1636322981,full,ni_sequenzen,NI_Sequenzen,,,,,,,,,,,,,,
,Sequence,flow.Sequence,0_2_0,,completion,1,52201,52203.74,52215.16,85248,33032.84,85267,2021-11-07T22:11:19.980Z,85781.82,1636322981,full,ni_sequenzen,NI_Sequenzen,,,,,,,,,,,,,,
,Screen_1,canvas.Screen,0_2_1_0,,skipped,2,85275,,,85275,,85276,2021-11-07T22:11:19.989Z,85781.82,1636322981,full,ni_sequenzen,NI_Sequenzen,,,,,,,,,,,,,,
,Screen_2,canvas.Screen,0_2_1_1,,skipped,2,85278,,,85275,,85279,2021-11-07T22:11:19.992Z,85781.82,1636322981,full,ni_sequenzen,NI_Sequenzen,,,,,,,,,,,,,,
,Screen_3,canvas.Screen,0_2_1_2,,skipped,2,85282,,,85275,,85282,2021-11-07T22:11:19.995Z,85781.82,1636322981,full,ni_sequenzen,NI_Sequenzen,,,,,,,,,,,,,,
,Screen_4,canvas.Screen,0_2_1_3,,skipped,2,85284,,,85275,,85285,2021-11-07T22:11:19.998Z,85781.82,1636322981,full,ni_sequenzen,NI_Sequenzen,,,,,,,,,,,,,,
,Screen_5,canvas.Screen,0_2_1_4,,skipped,2,85287,,,85275,,85287,2021-11-07T22:11:20.000Z,85781.82,1636322981,full,ni_sequenzen,NI_Sequenzen,,,,,,,,,,,,,,
,Screen_6,canvas.Screen,0_2_1_5,,skipped,2,85289,,,85275,,85289,2021-11-07T22:11:20.002Z,85781.82,1636322981,full,ni_sequenzen,NI_Sequenzen,,,,,,,,,,,,,,
,Sequence,flow.Sequence,0_2_1,,completion,2,85270,,,85275,,85290,2021-11-07T22:11:20.003Z,85781.82,1636322981,full,ni_sequenzen,NI_Sequenzen,,,,,,,,,,,,,,
,Screen_1,canvas.Screen,0_2_2_0,,skipped,3,85292,,,85292,,85293,2021-11-07T22:11:20.007Z,85781.82,1636322981,full,ni_sequenzen,NI_Sequenzen,,,,,,,,,,,,,,
,Screen_2,canvas.Screen,0_2_2_1,,skipped,3,85296,,,85292,,85296,2021-11-07T22:11:20.010Z,85781.82,1636322981,full,ni_sequenzen,NI_Sequenzen,,,,,,,,,,,,,,
,Screen_3,canvas.Screen,0_2_2_2,,skipped,3,85300,,,85292,,85300,2021-11-07T22:11:20.013Z,85781.82,1636322981,full,ni_sequenzen,NI_Sequenzen,,,,,,,,,,,,,,
,Screen_4,canvas.Screen,0_2_2_3,,skipped,3,85304,,,85292,,85304,2021-11-07T22:11:20.017Z,85781.82,1636322981,full,ni_sequenzen,NI_Sequenzen,,,,,,,,,,,,,,
,Screen_5,canvas.Screen,0_2_2_4,,skipped,3,85307,,,85292,,85307,2021-11-07T22:11:20.020Z,85781.82,1636322981,full,ni_sequenzen,NI_Sequenzen,,,,,,,,,,,,,,
,Screen_6,canvas.Screen,0_2_2_5,,skipped,3,85310,,,85292,,85310,2021-11-07T22:11:20.023Z,85781.82,1636322981,full,ni_sequenzen,NI_Sequenzen,,,,,,,,,,,,,,
,Sequence,flow.Sequence,0_2_2,,completion,3,85291,,,85292,,85310,2021-11-07T22:11:20.023Z,85781.82,1636322981,full,ni_sequenzen,NI_Sequenzen,,,,,,,,,,,,,,
,Screen_1,canvas.Screen,0_2_3_0,,skipped,4,85314,,,85314,,85314,2021-11-07T22:11:20.028Z,85781.82,1636322981,full,ni_sequenzen,NI_Sequenzen,,,,,,,,,,,,,,
,Screen_2,canvas.Screen,0_2_3_1,,skipped,4,85317,,,85314,,85318,2021-11-07T22:11:20.031Z,85781.82,1636322981,full,ni_sequenzen,NI_Sequenzen,,,,,,,,,,,,,,
,Screen_3,canvas.Screen,0_2_3_2,,skipped,4,85321,,,85314,,85321,2021-11-07T22:11:20.034Z,85781.82,1636322981,full,ni_sequenzen,NI_Sequenzen,,,,,,,,,,,,,,
,Screen_4,canvas.Screen,0_2_3_3,,skipped,4,85325,,,85314,,85325,2021-11-07T22:11:20.038Z,85781.82,1636322981,full,ni_sequenzen,NI_Sequenzen,,,,,,,,,,,,,,
,Screen_5,canvas.Screen,0_2_3_4,,skipped,4,85328,,,85314,,85328,2021-11-07T22:11:20.042Z,85781.82,1636322981,full,ni_sequenzen,NI_Sequenzen,,,,,,,,,,,,,,
,Screen_6,canvas.Screen,0_2_3_5,,skipped,4,85330,,,85314,,85330,2021-11-07T22:11:20.043Z,85781.82,1636322981,full,ni_sequenzen,NI_Sequenzen,,,,,,,,,,,,,,
,Sequence,flow.Sequence,0_2_3,,completion,4,85312,,,85314,,85330,2021-11-07T22:11:20.044Z,85781.82,1636322981,full,ni_sequenzen,NI_Sequenzen,,,,,,,,,,,,,,
,Screen_1,canvas.Screen,0_2_4_0,,skipped,5,85334,,,85334,,85334,2021-11-07T22:11:20.048Z,85781.82,1636322981,full,ni_sequenzen,NI_Sequenzen,,,,,,,,,,,,,,
,Screen_2,canvas.Screen,0_2_4_1,,skipped,5,85338,,,85334,,85338,2021-11-07T22:11:20.051Z,85781.82,1636322981,full,ni_sequenzen,NI_Sequenzen,,,,,,,,,,,,,,
,Screen_3,canvas.Screen,0_2_4_2,,skipped,5,85341,,,85334,,85341,2021-11-07T22:11:20.054Z,85781.82,1636322981,full,ni_sequenzen,NI_Sequenzen,,,,,,,,,,,,,,
,Screen_4,canvas.Screen,0_2_4_3,,skipped,5,85344,,,85334,,85344,2021-11-07T22:11:20.058Z,85781.82,1636322981,full,ni_sequenzen,NI_Sequenzen,,,,,,,,,,,,,,
,Screen_5,canvas.Screen,0_2_4_4,,skipped,5,85347,,,85334,,85348,2021-11-07T22:11:20.061Z,85781.82,1636322981,full,ni_sequenzen,NI_Sequenzen,,,,,,,,,,,,,,
,Screen_6,canvas.Screen,0_2_4_5,,skipped,5,85350,,,85334,,85351,2021-11-07T22:11:20.064Z,85781.82,1636322981,full,ni_sequenzen,NI_Sequenzen,,,,,,,,,,,,,,
,Sequence,flow.Sequence,0_2_4,,completion,5,85331,,,85334,,85351,2021-11-07T22:11:20.065Z,85781.82,1636322981,full,ni_sequenzen,NI_Sequenzen,,,,,,,,,,,,,,
,Screen_1,canvas.Screen,0_2_5_0,,skipped,6,85354,,,85355,,85355,2021-11-07T22:11:20.068Z,85781.82,1636322981,full,ni_sequenzen,NI_Sequenzen,,,,,,,,,,,,,,
,Screen_2,canvas.Screen,0_2_5_1,,skipped,6,85358,,,85355,,85358,2021-11-07T22:11:20.071Z,85781.82,1636322981,full,ni_sequenzen,NI_Sequenzen,,,,,,,,,,,,,,
,Screen_3,canvas.Screen,0_2_5_2,,skipped,6,85360,,,85355,,85360,2021-11-07T22:11:20.074Z,85781.82,1636322981,full,ni_sequenzen,NI_Sequenzen,,,,,,,,,,,,,,
,Screen_4,canvas.Screen,0_2_5_3,,skipped,6,85362,,,85355,,85362,2021-11-07T22:11:20.076Z,85781.82,1636322981,full,ni_sequenzen,NI_Sequenzen,,,,,,,,,,,,,,
,Screen_5,canvas.Screen,0_2_5_4,,skipped,6,85364,,,85355,,85365,2021-11-07T22:11:20.078Z,85781.82,1636322981,full,ni_sequenzen,NI_Sequenzen,,,,,,,,,,,,,,
,Screen_6,canvas.Screen,0_2_5_5,,skipped,6,85367,,,85355,,85367,2021-11-07T22:11:20.081Z,85781.82,1636322981,full,ni_sequenzen,NI_Sequenzen,,,,,,,,,,,,,,
,Sequence,flow.Sequence,0_2_5,,completion,6,85352,,,85355,,85368,2021-11-07T22:11:20.081Z,85781.82,1636322981,full,ni_sequenzen,NI_Sequenzen,,,,,,,,,,,,,,
,Screen_1,canvas.Screen,0_2_6_0,,skipped,7,85370,,,85370,,85370,2021-11-07T22:11:20.084Z,85781.82,1636322981,full,ni_sequenzen,NI_Sequenzen,,,,,,,,,,,,,,
,Screen_2,canvas.Screen,0_2_6_1,,skipped,7,85372,,,85370,,85372,2021-11-07T22:11:20.086Z,85781.82,1636322981,full,ni_sequenzen,NI_Sequenzen,,,,,,,,,,,,,,
,Screen_3,canvas.Screen,0_2_6_2,,skipped,7,85375,,,85370,,85375,2021-11-07T22:11:20.088Z,85781.82,1636322981,full,ni_sequenzen,NI_Sequenzen,,,,,,,,,,,,,,
,Screen_4,canvas.Screen,0_2_6_3,,skipped,7,85378,,,85370,,85379,2021-11-07T22:11:20.092Z,85781.82,1636322981,full,ni_sequenzen,NI_Sequenzen,,,,,,,,,,,,,,
,Screen_5,canvas.Screen,0_2_6_4,,skipped,7,85380,,,85370,,85381,2021-11-07T22:11:20.094Z,85781.82,1636322981,full,ni_sequenzen,NI_Sequenzen,,,,,,,,,,,,,,
,Screen_6,canvas.Screen,0_2_6_5,,skipped,7,85383,,,85370,,85383,2021-11-07T22:11:20.097Z,85781.82,1636322981,full,ni_sequenzen,NI_Sequenzen,,,,,,,,,,,,,,
,Sequence,flow.Sequence,0_2_6,,completion,7,85368,,,85370,,85384,2021-11-07T22:11:20.097Z,85781.82,1636322981,full,ni_sequenzen,NI_Sequenzen,,,,,,,,,,,,,,
,Screen_1,canvas.Screen,0_2_7_0,,skipped,8,85386,,,85386,,85386,2021-11-07T22:11:20.100Z,85781.82,1636322981,full,ni_sequenzen,NI_Sequenzen,,,,,,,,,,,,,,
,Screen_2,canvas.Screen,0_2_7_1,,skipped,8,85388,,,85386,,85389,2021-11-07T22:11:20.102Z,85781.82,1636322981,full,ni_sequenzen,NI_Sequenzen,,,,,,,,,,,,,,
,Screen_3,canvas.Screen,0_2_7_2,,skipped,8,85390,,,85386,,85390,2021-11-07T22:11:20.104Z,85781.82,1636322981,full,ni_sequenzen,NI_Sequenzen,,,,,,,,,,,,,,
,Screen_4,canvas.Screen,0_2_7_3,,skipped,8,85392,,,85386,,85393,2021-11-07T22:11:20.106Z,85781.82,1636322981,full,ni_sequenzen,NI_Sequenzen,,,,,,,,,,,,,,
,Screen_5,canvas.Screen,0_2_7_4,,skipped,8,85394,,,85386,,85394,2021-11-07T22:11:20.108Z,85781.82,1636322981,full,ni_sequenzen,NI_Sequenzen,,,,,,,,,,,,,,
,Screen_6,canvas.Screen,0_2_7_5,,skipped,8,85396,,,85386,,85396,2021-11-07T22:11:20.109Z,85781.82,1636322981,full,ni_sequenzen,NI_Sequenzen,,,,,,,,,,,,,,
,Sequence,flow.Sequence,0_2_7,,completion,8,85385,,,85386,,85396,2021-11-07T22:11:20.110Z,85781.82,1636322981,full,ni_sequenzen,NI_Sequenzen,,,,,,,,,,,,,,
,Screen_1,canvas.Screen,0_2_8_0,,skipped,9,85399,,,85399,,85399,2021-11-07T22:11:20.112Z,85781.82,1636322981,full,ni_sequenzen,NI_Sequenzen,,,,,,,,,,,,,,
,Screen_2,canvas.Screen,0_2_8_1,,skipped,9,85401,,,85399,,85401,2021-11-07T22:11:20.115Z,85781.82,1636322981,full,ni_sequenzen,NI_Sequenzen,,,,,,,,,,,,,,
,Screen_3,canvas.Screen,0_2_8_2,,skipped,9,85404,,,85399,,85404,2021-11-07T22:11:20.117Z,85781.82,1636322981,full,ni_sequenzen,NI_Sequenzen,,,,,,,,,,,,,,
,Screen_4,canvas.Screen,0_2_8_3,,skipped,9,85405,,,85399,,85406,2021-11-07T22:11:20.119Z,85781.82,1636322981,full,ni_sequenzen,NI_Sequenzen,,,,,,,,,,,,,,
,Screen_5,canvas.Screen,0_2_8_4,,skipped,9,85407,,,85399,,85407,2021-11-07T22:11:20.120Z,85781.82,1636322981,full,ni_sequenzen,NI_Sequenzen,,,,,,,,,,,,,,
,Screen_6,canvas.Screen,0_2_8_5,,skipped,9,85409,,,85399,,85409,2021-11-07T22:11:20.122Z,85781.82,1636322981,full,ni_sequenzen,NI_Sequenzen,,,,,,,,,,,,,,
,Sequence,flow.Sequence,0_2_8,,completion,9,85397,,,85399,,85409,2021-11-07T22:11:20.122Z,85781.82,1636322981,full,ni_sequenzen,NI_Sequenzen,,,,,,,,,,,,,,
,Screen_1,canvas.Screen,0_2_9_0,,skipped,10,85412,,,85412,,85412,2021-11-07T22:11:20.125Z,85781.82,1636322981,full,ni_sequenzen,NI_Sequenzen,,,,,,,,,,,,,,
,Screen_2,canvas.Screen,0_2_9_1,,skipped,10,85413,,,85412,,85414,2021-11-07T22:11:20.127Z,85781.82,1636322981,full,ni_sequenzen,NI_Sequenzen,,,,,,,,,,,,,,
,Screen_3,canvas.Screen,0_2_9_2,,skipped,10,85415,,,85412,,85415,2021-11-07T22:11:20.129Z,85781.82,1636322981,full,ni_sequenzen,NI_Sequenzen,,,,,,,,,,,,,,
,Screen_4,canvas.Screen,0_2_9_3,,skipped,10,85417,,,85412,,85418,2021-11-07T22:11:20.131Z,85781.82,1636322981,full,ni_sequenzen,NI_Sequenzen,,,,,,,,,,,,,,
,Screen_5,canvas.Screen,0_2_9_4,,skipped,10,85419,,,85412,,85419,2021-11-07T22:11:20.133Z,85781.82,1636322981,full,ni_sequenzen,NI_Sequenzen,,,,,,,,,,,,,,
,Screen_6,canvas.Screen,0_2_9_5,,skipped,10,85422,,,85412,,85422,2021-11-07T22:11:20.136Z,85781.82,1636322981,full,ni_sequenzen,NI_Sequenzen,,,,,,,,,,,,,,
,Sequence,flow.Sequence,0_2_9,,completion,10,85409,,,85412,,85422,2021-11-07T22:11:20.136Z,85781.82,1636322981,full,ni_sequenzen,NI_Sequenzen,,,,,,,,,,,,,,
,Screen_1,canvas.Screen,0_2_10_0,,skipped,11,85426,,,85426,,85426,2021-11-07T22:11:20.139Z,85781.82,1636322981,full,ni_sequenzen,NI_Sequenzen,,,,,,,,,,,,,,
,Screen_2,canvas.Screen,0_2_10_1,,skipped,11,85428,,,85426,,85428,2021-11-07T22:11:20.142Z,85781.82,1636322981,full,ni_sequenzen,NI_Sequenzen,,,,,,,,,,,,,,
,Screen_3,canvas.Screen,0_2_10_2,,skipped,11,85430,,,85426,,85430,2021-11-07T22:11:20.144Z,85781.82,1636322981,full,ni_sequenzen,NI_Sequenzen,,,,,,,,,,,,,,
,Screen_4,canvas.Screen,0_2_10_3,,skipped,11,85432,,,85426,,85432,2021-11-07T22:11:20.146Z,85781.82,1636322981,full,ni_sequenzen,NI_Sequenzen,,,,,,,,,,,,,,
,Screen_5,canvas.Screen,0_2_10_4,,skipped,11,85434,,,85426,,85434,2021-11-07T22:11:20.148Z,85781.82,1636322981,full,ni_sequenzen,NI_Sequenzen,,,,,,,,,,,,,,
,Screen_6,canvas.Screen,0_2_10_5,,skipped,11,85436,,,85426,,85437,2021-11-07T22:11:20.150Z,85781.82,1636322981,full,ni_sequenzen,NI_Sequenzen,,,,,,,,,,,,,,
,Sequence,flow.Sequence,0_2_10,,completion,11,85424,,,85426,,85437,2021-11-07T22:11:20.150Z,85781.82,1636322981,full,ni_sequenzen,NI_Sequenzen,,,,,,,,,,,,,,
,Screen_1,canvas.Screen,0_2_11_0,,skipped,12,85439,,,85439,,85439,2021-11-07T22:11:20.152Z,85781.82,1636322981,full,ni_sequenzen,NI_Sequenzen,,,,,,,,,,,,,,
,Screen_2,canvas.Screen,0_2_11_1,,skipped,12,85441,,,85439,,85441,2021-11-07T22:11:20.154Z,85781.82,1636322981,full,ni_sequenzen,NI_Sequenzen,,,,,,,,,,,,,,
,Screen_3,canvas.Screen,0_2_11_2,,skipped,12,85442,,,85439,,85442,2021-11-07T22:11:20.156Z,85781.82,1636322981,full,ni_sequenzen,NI_Sequenzen,,,,,,,,,,,,,,
,Screen_4,canvas.Screen,0_2_11_3,,skipped,12,85445,,,85439,,85445,2021-11-07T22:11:20.158Z,85781.82,1636322981,full,ni_sequenzen,NI_Sequenzen,,,,,,,,,,,,,,
,Screen_5,canvas.Screen,0_2_11_4,,skipped,12,85447,,,85439,,85447,2021-11-07T22:11:20.160Z,85781.82,1636322981,full,ni_sequenzen,NI_Sequenzen,,,,,,,,,,,,,,
,Screen_6,canvas.Screen,0_2_11_5,,skipped,12,85448,,,85439,,85449,2021-11-07T22:11:20.162Z,85781.82,1636322981,full,ni_sequenzen,NI_Sequenzen,,,,,,,,,,,,,,
,Sequence,flow.Sequence,0_2_11,,completion,12,85438,,,85439,,85449,2021-11-07T22:11:20.162Z,85781.82,1636322981,full,ni_sequenzen,NI_Sequenzen,,,,,,,,,,,,,,
,Screen_1,canvas.Screen,0_2_12_0,,skipped,13,85452,,,85452,,85453,2021-11-07T22:11:20.167Z,85781.82,1636322981,full,ni_sequenzen,NI_Sequenzen,,,,,,,,,,,,,,
,Screen_2,canvas.Screen,0_2_12_1,,skipped,13,85455,,,85452,,85456,2021-11-07T22:11:20.169Z,85781.82,1636322981,full,ni_sequenzen,NI_Sequenzen,,,,,,,,,,,,,,
,Screen_3,canvas.Screen,0_2_12_2,,skipped,13,85458,,,85452,,85458,2021-11-07T22:11:20.171Z,85781.82,1636322981,full,ni_sequenzen,NI_Sequenzen,,,,,,,,,,,,,,
,Screen_4,canvas.Screen,0_2_12_3,,skipped,13,85459,,,85452,,85459,2021-11-07T22:11:20.173Z,85781.82,1636322981,full,ni_sequenzen,NI_Sequenzen,,,,,,,,,,,,,,
,Screen_5,canvas.Screen,0_2_12_4,,skipped,13,85461,,,85452,,85461,2021-11-07T22:11:20.174Z,85781.82,1636322981,full,ni_sequenzen,NI_Sequenzen,,,,,,,,,,,,,,
,Screen_6,canvas.Screen,0_2_12_5,,skipped,13,85463,,,85452,,85463,2021-11-07T22:11:20.176Z,85781.82,1636322981,full,ni_sequenzen,NI_Sequenzen,,,,,,,,,,,,,,
,Sequence,flow.Sequence,0_2_12,,completion,13,85450,,,85452,,85463,2021-11-07T22:11:20.176Z,85781.82,1636322981,full,ni_sequenzen,NI_Sequenzen,,,,,,,,,,,,,,
,Screen_1,canvas.Screen,0_2_13_0,,skipped,14,85465,,,85465,,85465,2021-11-07T22:11:20.179Z,85781.82,1636322981,full,ni_sequenzen,NI_Sequenzen,,,,,,,,,,,,,,
,Screen_2,canvas.Screen,0_2_13_1,,skipped,14,85468,,,85465,,85468,2021-11-07T22:11:20.182Z,85781.82,1636322981,full,ni_sequenzen,NI_Sequenzen,,,,,,,,,,,,,,
,Screen_3,canvas.Screen,0_2_13_2,,skipped,14,85470,,,85465,,85470,2021-11-07T22:11:20.184Z,85781.82,1636322981,full,ni_sequenzen,NI_Sequenzen,,,,,,,,,,,,,,
,Screen_4,canvas.Screen,0_2_13_3,,skipped,14,85473,,,85465,,85473,2021-11-07T22:11:20.186Z,85781.82,1636322981,full,ni_sequenzen,NI_Sequenzen,,,,,,,,,,,,,,
,Screen_5,canvas.Screen,0_2_13_4,,skipped,14,85476,,,85465,,85476,2021-11-07T22:11:20.189Z,85781.82,1636322981,full,ni_sequenzen,NI_Sequenzen,,,,,,,,,,,,,,
,Screen_6,canvas.Screen,0_2_13_5,,skipped,14,85477,,,85465,,85478,2021-11-07T22:11:20.191Z,85781.82,1636322981,full,ni_sequenzen,NI_Sequenzen,,,,,,,,,,,,,,
,Sequence,flow.Sequence,0_2_13,,completion,14,85464,,,85465,,85478,2021-11-07T22:11:20.192Z,85781.82,1636322981,full,ni_sequenzen,NI_Sequenzen,,,,,,,,,,,,,,
,Screen_1,canvas.Screen,0_2_14_0,,skipped,15,85481,,,85481,,85481,2021-11-07T22:11:20.195Z,85781.82,1636322981,full,ni_sequenzen,NI_Sequenzen,,,,,,,,,,,,,,
,Screen_2,canvas.Screen,0_2_14_1,,skipped,15,85483,,,85481,,85483,2021-11-07T22:11:20.196Z,85781.82,1636322981,full,ni_sequenzen,NI_Sequenzen,,,,,,,,,,,,,,
,Screen_3,canvas.Screen,0_2_14_2,,skipped,15,85485,,,85481,,85485,2021-11-07T22:11:20.198Z,85781.82,1636322981,full,ni_sequenzen,NI_Sequenzen,,,,,,,,,,,,,,
,Screen_4,canvas.Screen,0_2_14_3,,skipped,15,85486,,,85481,,85487,2021-11-07T22:11:20.200Z,85781.82,1636322981,full,ni_sequenzen,NI_Sequenzen,,,,,,,,,,,,,,
,Screen_5,canvas.Screen,0_2_14_4,,skipped,15,85488,,,85481,,85488,2021-11-07T22:11:20.201Z,85781.82,1636322981,full,ni_sequenzen,NI_Sequenzen,,,,,,,,,,,,,,
,Screen_6,canvas.Screen,0_2_14_5,,skipped,15,85490,,,85481,,85490,2021-11-07T22:11:20.203Z,85781.82,1636322981,full,ni_sequenzen,NI_Sequenzen,,,,,,,,,,,,,,
,Sequence,flow.Sequence,0_2_14,,completion,15,85479,,,85481,,85490,2021-11-07T22:11:20.203Z,85781.82,1636322981,full,ni_sequenzen,NI_Sequenzen,,,,,,,,,,,,,,
,Screen_1,canvas.Screen,0_2_15_0,,skipped,16,85492,,,85492,,85492,2021-11-07T22:11:20.206Z,85781.82,1636322981,full,ni_sequenzen,NI_Sequenzen,,,,,,,,,,,,,,
,Screen_2,canvas.Screen,0_2_15_1,,skipped,16,85494,,,85492,,85494,2021-11-07T22:11:20.207Z,85781.82,1636322981,full,ni_sequenzen,NI_Sequenzen,,,,,,,,,,,,,,
,Screen_3,canvas.Screen,0_2_15_2,,skipped,16,85496,,,85492,,85496,2021-11-07T22:11:20.209Z,85781.82,1636322981,full,ni_sequenzen,NI_Sequenzen,,,,,,,,,,,,,,
,Screen_4,canvas.Screen,0_2_15_3,,skipped,16,85498,,,85492,,85498,2021-11-07T22:11:20.212Z,85781.82,1636322981,full,ni_sequenzen,NI_Sequenzen,,,,,,,,,,,,,,
,Screen_5,canvas.Screen,0_2_15_4,,skipped,16,85500,,,85492,,85500,2021-11-07T22:11:20.213Z,85781.82,1636322981,full,ni_sequenzen,NI_Sequenzen,,,,,,,,,,,,,,
,Screen_6,canvas.Screen,0_2_15_5,,skipped,16,85501,,,85492,,85501,2021-11-07T22:11:20.215Z,85781.82,1636322981,full,ni_sequenzen,NI_Sequenzen,,,,,,,,,,,,,,
,Sequence,flow.Sequence,0_2_15,,completion,16,85491,,,85492,,85502,2021-11-07T22:11:20.215Z,85781.82,1636322981,full,ni_sequenzen,NI_Sequenzen,,,,,,,,,,,,,,
,Screen_1,canvas.Screen,0_2_16_0,,skipped,17,85504,,,85504,,85504,2021-11-07T22:11:20.218Z,85781.82,1636322981,full,ni_sequenzen,NI_Sequenzen,,,,,,,,,,,,,,
,Screen_2,canvas.Screen,0_2_16_1,,skipped,17,85506,,,85504,,85506,2021-11-07T22:11:20.219Z,85781.82,1636322981,full,ni_sequenzen,NI_Sequenzen,,,,,,,,,,,,,,
,Screen_3,canvas.Screen,0_2_16_2,,skipped,17,85508,,,85504,,85508,2021-11-07T22:11:20.221Z,85781.82,1636322981,full,ni_sequenzen,NI_Sequenzen,,,,,,,,,,,,,,
,Screen_4,canvas.Screen,0_2_16_3,,skipped,17,85509,,,85504,,85509,2021-11-07T22:11:20.223Z,85781.82,1636322981,full,ni_sequenzen,NI_Sequenzen,,,,,,,,,,,,,,
,Screen_5,canvas.Screen,0_2_16_4,,skipped,17,85510,,,85504,,85510,2021-11-07T22:11:20.224Z,85781.82,1636322981,full,ni_sequenzen,NI_Sequenzen,,,,,,,,,,,,,,
,Screen_6,canvas.Screen,0_2_16_5,,skipped,17,85512,,,85504,,85512,2021-11-07T22:11:20.225Z,85781.82,1636322981,full,ni_sequenzen,NI_Sequenzen,,,,,,,,,,,,,,
,Sequence,flow.Sequence,0_2_16,,completion,17,85503,,,85504,,85512,2021-11-07T22:11:20.225Z,85781.82,1636322981,full,ni_sequenzen,NI_Sequenzen,,,,,,,,,,,,,,
,Screen_1,canvas.Screen,0_2_17_0,,skipped,18,85514,,,85514,,85514,2021-11-07T22:11:20.228Z,85781.82,1636322981,full,ni_sequenzen,NI_Sequenzen,,,,,,,,,,,,,,
,Screen_2,canvas.Screen,0_2_17_1,,skipped,18,85516,,,85514,,85516,2021-11-07T22:11:20.230Z,85781.82,1636322981,full,ni_sequenzen,NI_Sequenzen,,,,,,,,,,,,,,
,Screen_3,canvas.Screen,0_2_17_2,,skipped,18,85518,,,85514,,85518,2021-11-07T22:11:20.232Z,85781.82,1636322981,full,ni_sequenzen,NI_Sequenzen,,,,,,,,,,,,,,
,Screen_4,canvas.Screen,0_2_17_3,,skipped,18,85520,,,85514,,85520,2021-11-07T22:11:20.233Z,85781.82,1636322981,full,ni_sequenzen,NI_Sequenzen,,,,,,,,,,,,,,
,Screen_5,canvas.Screen,0_2_17_4,,skipped,18,85521,,,85514,,85521,2021-11-07T22:11:20.235Z,85781.82,1636322981,full,ni_sequenzen,NI_Sequenzen,,,,,,,,,,,,,,
,Screen_6,canvas.Screen,0_2_17_5,,skipped,18,85523,,,85514,,85523,2021-11-07T22:11:20.236Z,85781.82,1636322981,full,ni_sequenzen,NI_Sequenzen,,,,,,,,,,,,,,
,Sequence,flow.Sequence,0_2_17,,completion,18,85513,,,85514,,85523,2021-11-07T22:11:20.236Z,85781.82,1636322981,full,ni_sequenzen,NI_Sequenzen,,,,,,,,,,,,,,
,Screen_1,canvas.Screen,0_2_18_0,,skipped,19,85526,,,85526,,85526,2021-11-07T22:11:20.240Z,85781.82,1636322981,full,ni_sequenzen,NI_Sequenzen,,,,,,,,,,,,,,
,Screen_2,canvas.Screen,0_2_18_1,,skipped,19,85528,,,85526,,85528,2021-11-07T22:11:20.241Z,85781.82,1636322981,full,ni_sequenzen,NI_Sequenzen,,,,,,,,,,,,,,
,Screen_3,canvas.Screen,0_2_18_2,,skipped,19,85530,,,85526,,85530,2021-11-07T22:11:20.244Z,85781.82,1636322981,full,ni_sequenzen,NI_Sequenzen,,,,,,,,,,,,,,
,Screen_4,canvas.Screen,0_2_18_3,,skipped,19,85533,,,85526,,85533,2021-11-07T22:11:20.246Z,85781.82,1636322981,full,ni_sequenzen,NI_Sequenzen,,,,,,,,,,,,,,
,Screen_5,canvas.Screen,0_2_18_4,,skipped,19,85535,,,85526,,85535,2021-11-07T22:11:20.249Z,85781.82,1636322981,full,ni_sequenzen,NI_Sequenzen,,,,,,,,,,,,,,
,Screen_6,canvas.Screen,0_2_18_5,,skipped,19,85538,,,85526,,85538,2021-11-07T22:11:20.251Z,85781.82,1636322981,full,ni_sequenzen,NI_Sequenzen,,,,,,,,,,,,,,
,Sequence,flow.Sequence,0_2_18,,completion,19,85525,,,85526,,85538,2021-11-07T22:11:20.252Z,85781.82,1636322981,full,ni_sequenzen,NI_Sequenzen,,,,,,,,,,,,,,
,Screen_1,canvas.Screen,0_2_19_0,,skipped,20,85541,,,85541,,85541,2021-11-07T22:11:20.255Z,85781.82,1636322981,full,ni_sequenzen,NI_Sequenzen,,,,,,,,,,,,,,
,Screen_2,canvas.Screen,0_2_19_1,,skipped,20,85543,,,85541,,85544,2021-11-07T22:11:20.257Z,85781.82,1636322981,full,ni_sequenzen,NI_Sequenzen,,,,,,,,,,,,,,
,Screen_3,canvas.Screen,0_2_19_2,,skipped,20,85546,,,85541,,85546,2021-11-07T22:11:20.260Z,85781.82,1636322981,full,ni_sequenzen,NI_Sequenzen,,,,,,,,,,,,,,
,Screen_4,canvas.Screen,0_2_19_3,,skipped,20,85549,,,85541,,85549,2021-11-07T22:11:20.262Z,85781.82,1636322981,full,ni_sequenzen,NI_Sequenzen,,,,,,,,,,,,,,
,Screen_5,canvas.Screen,0_2_19_4,,skipped,20,85555,,,85541,,85555,2021-11-07T22:11:20.268Z,85781.82,1636322981,full,ni_sequenzen,NI_Sequenzen,,,,,,,,,,,,,,
,Screen_6,canvas.Screen,0_2_19_5,,skipped,20,85557,,,85541,,85558,2021-11-07T22:11:20.271Z,85781.82,1636322981,full,ni_sequenzen,NI_Sequenzen,,,,,,,,,,,,,,
,Sequence,flow.Sequence,0_2_19,,completion,20,85539,,,85541,,85558,2021-11-07T22:11:20.271Z,85781.82,1636322981,full,ni_sequenzen,NI_Sequenzen,,,,,,,,,,,,,,
,Screen_1,canvas.Screen,0_2_20_0,,skipped,21,85561,,,85561,,85561,2021-11-07T22:11:20.274Z,85781.82,1636322981,full,ni_sequenzen,NI_Sequenzen,,,,,,,,,,,,,,
,Screen_2,canvas.Screen,0_2_20_1,,skipped,21,85563,,,85561,,85564,2021-11-07T22:11:20.277Z,85781.82,1636322981,full,ni_sequenzen,NI_Sequenzen,,,,,,,,,,,,,,
,Screen_3,canvas.Screen,0_2_20_2,,skipped,21,85566,,,85561,,85566,2021-11-07T22:11:20.279Z,85781.82,1636322981,full,ni_sequenzen,NI_Sequenzen,,,,,,,,,,,,,,
,Screen_4,canvas.Screen,0_2_20_3,,skipped,21,85569,,,85561,,85569,2021-11-07T22:11:20.282Z,85781.82,1636322981,full,ni_sequenzen,NI_Sequenzen,,,,,,,,,,,,,,
,Screen_5,canvas.Screen,0_2_20_4,,skipped,21,85571,,,85561,,85571,2021-11-07T22:11:20.284Z,85781.82,1636322981,full,ni_sequenzen,NI_Sequenzen,,,,,,,,,,,,,,
,Screen_6,canvas.Screen,0_2_20_5,,skipped,21,85573,,,85561,,85573,2021-11-07T22:11:20.286Z,85781.82,1636322981,full,ni_sequenzen,NI_Sequenzen,,,,,,,,,,,,,,
,Sequence,flow.Sequence,0_2_20,,completion,21,85559,,,85561,,85573,2021-11-07T22:11:20.286Z,85781.82,1636322981,full,ni_sequenzen,NI_Sequenzen,,,,,,,,,,,,,,
,Screen_1,canvas.Screen,0_2_21_0,,skipped,22,85575,,,85575,,85575,2021-11-07T22:11:20.289Z,85781.82,1636322981,full,ni_sequenzen,NI_Sequenzen,,,,,,,,,,,,,,
,Screen_2,canvas.Screen,0_2_21_1,,skipped,22,85577,,,85575,,85577,2021-11-07T22:11:20.290Z,85781.82,1636322981,full,ni_sequenzen,NI_Sequenzen,,,,,,,,,,,,,,
,Screen_3,canvas.Screen,0_2_21_2,,skipped,22,85579,,,85575,,85579,2021-11-07T22:11:20.292Z,85781.82,1636322981,full,ni_sequenzen,NI_Sequenzen,,,,,,,,,,,,,,
,Screen_4,canvas.Screen,0_2_21_3,,skipped,22,85582,,,85575,,85582,2021-11-07T22:11:20.295Z,85781.82,1636322981,full,ni_sequenzen,NI_Sequenzen,,,,,,,,,,,,,,
,Screen_5,canvas.Screen,0_2_21_4,,skipped,22,85585,,,85575,,85585,2021-11-07T22:11:20.298Z,85781.82,1636322981,full,ni_sequenzen,NI_Sequenzen,,,,,,,,,,,,,,
,Screen_6,canvas.Screen,0_2_21_5,,skipped,22,85588,,,85575,,85588,2021-11-07T22:11:20.301Z,85781.82,1636322981,full,ni_sequenzen,NI_Sequenzen,,,,,,,,,,,,,,
,Sequence,flow.Sequence,0_2_21,,completion,22,85574,,,85575,,85588,2021-11-07T22:11:20.301Z,85781.82,1636322981,full,ni_sequenzen,NI_Sequenzen,,,,,,,,,,,,,,
,Screen_1,canvas.Screen,0_2_22_0,,skipped,23,85591,,,85591,,85591,2021-11-07T22:11:20.305Z,85781.82,1636322981,full,ni_sequenzen,NI_Sequenzen,,,,,,,,,,,,,,
,Screen_2,canvas.Screen,0_2_22_1,,skipped,23,85595,,,85591,,85595,2021-11-07T22:11:20.308Z,85781.82,1636322981,full,ni_sequenzen,NI_Sequenzen,,,,,,,,,,,,,,
,Screen_3,canvas.Screen,0_2_22_2,,skipped,23,85597,,,85591,,85598,2021-11-07T22:11:20.311Z,85781.82,1636322981,full,ni_sequenzen,NI_Sequenzen,,,,,,,,,,,,,,
,Screen_4,canvas.Screen,0_2_22_3,,skipped,23,85600,,,85591,,85601,2021-11-07T22:11:20.314Z,85781.82,1636322981,full,ni_sequenzen,NI_Sequenzen,,,,,,,,,,,,,,
,Screen_5,canvas.Screen,0_2_22_4,,skipped,23,85603,,,85591,,85603,2021-11-07T22:11:20.317Z,85781.82,1636322981,full,ni_sequenzen,NI_Sequenzen,,,,,,,,,,,,,,
,Screen_6,canvas.Screen,0_2_22_5,,skipped,23,85606,,,85591,,85606,2021-11-07T22:11:20.319Z,85781.82,1636322981,full,ni_sequenzen,NI_Sequenzen,,,,,,,,,,,,,,
,Sequence,flow.Sequence,0_2_22,,completion,23,85589,,,85591,,85606,2021-11-07T22:11:20.319Z,85781.82,1636322981,full,ni_sequenzen,NI_Sequenzen,,,,,,,,,,,,,,
,Screen_1,canvas.Screen,0_2_23_0,,skipped,24,85608,,,85608,,85608,2021-11-07T22:11:20.322Z,85781.82,1636322981,full,ni_sequenzen,NI_Sequenzen,,,,,,,,,,,,,,
,Screen_2,canvas.Screen,0_2_23_1,,skipped,24,85610,,,85608,,85611,2021-11-07T22:11:20.324Z,85781.82,1636322981,full,ni_sequenzen,NI_Sequenzen,,,,,,,,,,,,,,
,Screen_3,canvas.Screen,0_2_23_2,,skipped,24,85613,,,85608,,85613,2021-11-07T22:11:20.327Z,85781.82,1636322981,full,ni_sequenzen,NI_Sequenzen,,,,,,,,,,,,,,
,Screen_4,canvas.Screen,0_2_23_3,,skipped,24,85616,,,85608,,85617,2021-11-07T22:11:20.330Z,85781.82,1636322981,full,ni_sequenzen,NI_Sequenzen,,,,,,,,,,,,,,
,Screen_5,canvas.Screen,0_2_23_4,,skipped,24,85619,,,85608,,85619,2021-11-07T22:11:20.332Z,85781.82,1636322981,full,ni_sequenzen,NI_Sequenzen,,,,,,,,,,,,,,
,Screen_6,canvas.Screen,0_2_23_5,,skipped,24,85622,,,85608,,85622,2021-11-07T22:11:20.335Z,85781.82,1636322981,full,ni_sequenzen,NI_Sequenzen,,,,,,,,,,,,,,
,Sequence,flow.Sequence,0_2_23,,completion,24,85607,,,85608,,85622,2021-11-07T22:11:20.335Z,85781.82,1636322981,full,ni_sequenzen,NI_Sequenzen,,,,,,,,,,,,,,
,Screen_1,canvas.Screen,0_2_24_0,,skipped,25,85625,,,85625,,85625,2021-11-07T22:11:20.339Z,85781.82,1636322981,full,ni_sequenzen,NI_Sequenzen,,,,,,,,,,,,,,
,Screen_2,canvas.Screen,0_2_24_1,,skipped,25,85627,,,85625,,85628,2021-11-07T22:11:20.341Z,85781.82,1636322981,full,ni_sequenzen,NI_Sequenzen,,,,,,,,,,,,,,
,Screen_3,canvas.Screen,0_2_24_2,,skipped,25,85633,,,85625,,85633,2021-11-07T22:11:20.346Z,85781.82,1636322981,full,ni_sequenzen,NI_Sequenzen,,,,,,,,,,,,,,
,Screen_4,canvas.Screen,0_2_24_3,,skipped,25,85636,,,85625,,85636,2021-11-07T22:11:20.349Z,85781.82,1636322981,full,ni_sequenzen,NI_Sequenzen,,,,,,,,,,,,,,
,Screen_5,canvas.Screen,0_2_24_4,,skipped,25,85638,,,85625,,85638,2021-11-07T22:11:20.351Z,85781.82,1636322981,full,ni_sequenzen,NI_Sequenzen,,,,,,,,,,,,,,
,Screen_6,canvas.Screen,0_2_24_5,,skipped,25,85640,,,85625,,85640,2021-11-07T22:11:20.353Z,85781.82,1636322981,full,ni_sequenzen,NI_Sequenzen,,,,,,,,,,,,,,
,Sequence,flow.Sequence,0_2_24,,completion,25,85623,,,85625,,85640,2021-11-07T22:11:20.353Z,85781.82,1636322981,full,ni_sequenzen,NI_Sequenzen,,,,,,,,,,,,,,
,Screen_1,canvas.Screen,0_2_25_0,,skipped,26,85642,,,85642,,85642,2021-11-07T22:11:20.356Z,85781.82,1636322981,full,ni_sequenzen,NI_Sequenzen,,,,,,,,,,,,,,
,Screen_2,canvas.Screen,0_2_25_1,,skipped,26,85645,,,85642,,85645,2021-11-07T22:11:20.359Z,85781.82,1636322981,full,ni_sequenzen,NI_Sequenzen,,,,,,,,,,,,,,
,Screen_3,canvas.Screen,0_2_25_2,,skipped,26,85647,,,85642,,85647,2021-11-07T22:11:20.361Z,85781.82,1636322981,full,ni_sequenzen,NI_Sequenzen,,,,,,,,,,,,,,
,Screen_4,canvas.Screen,0_2_25_3,,skipped,26,85650,,,85642,,85650,2021-11-07T22:11:20.363Z,85781.82,1636322981,full,ni_sequenzen,NI_Sequenzen,,,,,,,,,,,,,,
,Screen_5,canvas.Screen,0_2_25_4,,skipped,26,85652,,,85642,,85652,2021-11-07T22:11:20.366Z,85781.82,1636322981,full,ni_sequenzen,NI_Sequenzen,,,,,,,,,,,,,,
,Screen_6,canvas.Screen,0_2_25_5,,skipped,26,85656,,,85642,,85656,2021-11-07T22:11:20.369Z,85781.82,1636322981,full,ni_sequenzen,NI_Sequenzen,,,,,,,,,,,,,,
,Sequence,flow.Sequence,0_2_25,,completion,26,85641,,,85642,,85656,2021-11-07T22:11:20.369Z,85781.82,1636322981,full,ni_sequenzen,NI_Sequenzen,,,,,,,,,,,,,,
,Screen_1,canvas.Screen,0_2_26_0,,skipped,27,85658,,,85658,,85658,2021-11-07T22:11:20.372Z,85781.82,1636322981,full,ni_sequenzen,NI_Sequenzen,,,,,,,,,,,,,,
,Screen_2,canvas.Screen,0_2_26_1,,skipped,27,85661,,,85658,,85661,2021-11-07T22:11:20.374Z,85781.82,1636322981,full,ni_sequenzen,NI_Sequenzen,,,,,,,,,,,,,,
,Screen_3,canvas.Screen,0_2_26_2,,skipped,27,85663,,,85658,,85663,2021-11-07T22:11:20.376Z,85781.82,1636322981,full,ni_sequenzen,NI_Sequenzen,,,,,,,,,,,,,,
,Screen_4,canvas.Screen,0_2_26_3,,skipped,27,85665,,,85658,,85665,2021-11-07T22:11:20.379Z,85781.82,1636322981,full,ni_sequenzen,NI_Sequenzen,,,,,,,,,,,,,,
,Screen_5,canvas.Screen,0_2_26_4,,skipped,27,85669,,,85658,,85669,2021-11-07T22:11:20.382Z,85781.82,1636322981,full,ni_sequenzen,NI_Sequenzen,,,,,,,,,,,,,,
,Screen_6,canvas.Screen,0_2_26_5,,skipped,27,85671,,,85658,,85671,2021-11-07T22:11:20.384Z,85781.82,1636322981,full,ni_sequenzen,NI_Sequenzen,,,,,,,,,,,,,,
,Sequence,flow.Sequence,0_2_26,,completion,27,85656,,,85658,,85671,2021-11-07T22:11:20.384Z,85781.82,1636322981,full,ni_sequenzen,NI_Sequenzen,,,,,,,,,,,,,,
,Screen_1,canvas.Screen,0_2_27_0,,skipped,28,85673,,,85673,,85673,2021-11-07T22:11:20.387Z,85781.82,1636322981,full,ni_sequenzen,NI_Sequenzen,,,,,,,,,,,,,,
,Screen_2,canvas.Screen,0_2_27_1,,skipped,28,85676,,,85673,,85676,2021-11-07T22:11:20.389Z,85781.82,1636322981,full,ni_sequenzen,NI_Sequenzen,,,,,,,,,,,,,,
,Screen_3,canvas.Screen,0_2_27_2,,skipped,28,85678,,,85673,,85678,2021-11-07T22:11:20.391Z,85781.82,1636322981,full,ni_sequenzen,NI_Sequenzen,,,,,,,,,,,,,,
,Screen_4,canvas.Screen,0_2_27_3,,skipped,28,85680,,,85673,,85680,2021-11-07T22:11:20.393Z,85781.82,1636322981,full,ni_sequenzen,NI_Sequenzen,,,,,,,,,,,,,,
,Screen_5,canvas.Screen,0_2_27_4,,skipped,28,85683,,,85673,,85683,2021-11-07T22:11:20.396Z,85781.82,1636322981,full,ni_sequenzen,NI_Sequenzen,,,,,,,,,,,,,,
,Screen_6,canvas.Screen,0_2_27_5,,skipped,28,85685,,,85673,,85685,2021-11-07T22:11:20.399Z,85781.82,1636322981,full,ni_sequenzen,NI_Sequenzen,,,,,,,,,,,,,,
,Sequence,flow.Sequence,0_2_27,,completion,28,85672,,,85673,,85686,2021-11-07T22:11:20.399Z,85781.82,1636322981,full,ni_sequenzen,NI_Sequenzen,,,,,,,,,,,,,,
,Screen_1,canvas.Screen,0_2_28_0,,skipped,29,85690,,,85690,,85690,2021-11-07T22:11:20.403Z,85781.82,1636322981,full,ni_sequenzen,NI_Sequenzen,,,,,,,,,,,,,,
,Screen_2,canvas.Screen,0_2_28_1,,skipped,29,85693,,,85690,,85693,2021-11-07T22:11:20.406Z,85781.82,1636322981,full,ni_sequenzen,NI_Sequenzen,,,,,,,,,,,,,,
,Screen_3,canvas.Screen,0_2_28_2,,skipped,29,85695,,,85690,,85696,2021-11-07T22:11:20.409Z,85781.82,1636322981,full,ni_sequenzen,NI_Sequenzen,,,,,,,,,,,,,,
,Screen_4,canvas.Screen,0_2_28_3,,skipped,29,85698,,,85690,,85698,2021-11-07T22:11:20.412Z,85781.82,1636322981,full,ni_sequenzen,NI_Sequenzen,,,,,,,,,,,,,,
,Screen_5,canvas.Screen,0_2_28_4,,skipped,29,85701,,,85690,,85701,2021-11-07T22:11:20.414Z,85781.82,1636322981,full,ni_sequenzen,NI_Sequenzen,,,,,,,,,,,,,,
,Screen_6,canvas.Screen,0_2_28_5,,skipped,29,85704,,,85690,,85704,2021-11-07T22:11:20.417Z,85781.82,1636322981,full,ni_sequenzen,NI_Sequenzen,,,,,,,,,,,,,,
,Sequence,flow.Sequence,0_2_28,,completion,29,85686,,,85690,,85704,2021-11-07T22:11:20.417Z,85781.82,1636322981,full,ni_sequenzen,NI_Sequenzen,,,,,,,,,,,,,,
,Screen_1,canvas.Screen,0_2_29_0,,skipped,30,85706,,,85706,,85707,2021-11-07T22:11:20.420Z,85781.82,1636322981,full,ni_sequenzen,NI_Sequenzen,,,,,,,,,,,,,,
,Screen_2,canvas.Screen,0_2_29_1,,skipped,30,85709,,,85706,,85709,2021-11-07T22:11:20.423Z,85781.82,1636322981,full,ni_sequenzen,NI_Sequenzen,,,,,,,,,,,,,,
,Screen_3,canvas.Screen,0_2_29_2,,skipped,30,85711,,,85706,,85711,2021-11-07T22:11:20.425Z,85781.82,1636322981,full,ni_sequenzen,NI_Sequenzen,,,,,,,,,,,,,,
,Screen_4,canvas.Screen,0_2_29_3,,skipped,30,85714,,,85706,,85714,2021-11-07T22:11:20.427Z,85781.82,1636322981,full,ni_sequenzen,NI_Sequenzen,,,,,,,,,,,,,,
,Screen_5,canvas.Screen,0_2_29_4,,skipped,30,85716,,,85706,,85716,2021-11-07T22:11:20.429Z,85781.82,1636322981,full,ni_sequenzen,NI_Sequenzen,,,,,,,,,,,,,,
,Screen_6,canvas.Screen,0_2_29_5,,skipped,30,85718,,,85706,,85718,2021-11-07T22:11:20.432Z,85781.82,1636322981,full,ni_sequenzen,NI_Sequenzen,,,,,,,,,,,,,,
,Sequence,flow.Sequence,0_2_29,,completion,30,85705,,,85706,,85718,2021-11-07T22:11:20.432Z,85781.82,1636322981,full,ni_sequenzen,NI_Sequenzen,,,,,,,,,,,,,,
,Instructions_II,flow.Loop,0_2,,completion,,52199,52203.74,52215.16,85706,33490.84,85719,2021-11-07T22:11:20.432Z,85781.82,1636322981,full,ni_sequenzen,NI_Sequenzen,,,,,,,,,,,,,,
,Move,canvas.Screen,0_3_0_0_0_0,right,response,,85779,85778.88,85781.82,87248,1466.179999999993,87257,2021-11-07T22:11:21.971Z,87281.82,1636322981,full,ni_sequenzen,NI_Sequenzen,1,0,,,,,,,,,,,,
,Move,canvas.Screen,0_3_0_0_0_1,down,response,,87275,87274.78,87281.82,88561,1279.179999999993,88584,2021-11-07T22:11:23.298Z,88615.16,1636322981,full,ni_sequenzen,NI_Sequenzen,2,0,,,,,,,,,,,,
,Move,canvas.Screen,0_3_0_0_0_2,right,response,,88600,88599.82,88615.16,89232,616.8399999999965,89249,2021-11-07T22:11:23.963Z,89266.04,1636322981,full,ni_sequenzen,NI_Sequenzen,3,0,,,,,,,,,,,,
,Move,canvas.Screen,0_3_0_0_0_3,down,response,,89266,89265.88,89266.04,89717,450.9600000000064,89737,2021-11-07T22:11:24.450Z,89831.82,1636322981,full,ni_sequenzen,NI_Sequenzen,4,0,,,,,,,,,,,,
,Move,canvas.Screen,0_3_0_0_0_4,-999,skipped,,89744,,,89717,,89744,2021-11-07T22:11:24.458Z,89831.82,1636322981,full,ni_sequenzen,NI_Sequenzen,5,0,,,,,,,,,,,,
,Move,canvas.Screen,0_3_0_0_0_5,-999,skipped,,89751,,,89717,,89751,2021-11-07T22:11:24.464Z,89831.82,1636322981,full,ni_sequenzen,NI_Sequenzen,6,0,,,,,,,,,,,,
,Move,canvas.Screen,0_3_0_0_0_6,-999,skipped,,89758,,,89717,,89758,2021-11-07T22:11:24.471Z,89831.82,1636322981,full,ni_sequenzen,NI_Sequenzen,7,0,,,,,,,,,,,,
,Move,canvas.Screen,0_3_0_0_0_7,-999,skipped,,89764,,,89717,,89764,2021-11-07T22:11:24.477Z,89831.82,1636322981,full,ni_sequenzen,NI_Sequenzen,8,0,,,,,,,,,,,,
,Move,canvas.Screen,0_3_0_0_0_8,-999,skipped,,89770,,,89717,,89770,2021-11-07T22:11:24.484Z,89831.82,1636322981,full,ni_sequenzen,NI_Sequenzen,9,0,,,,,,,,,,,,
,Move,canvas.Screen,0_3_0_0_0_9,-999,skipped,,89775,,,89717,,89775,2021-11-07T22:11:24.489Z,89831.82,1636322981,full,ni_sequenzen,NI_Sequenzen,10,0,,,,,,,,,,,,
,Move,canvas.Screen,0_3_0_0_0_10,-999,skipped,,89783,,,89717,,89783,2021-11-07T22:11:24.496Z,89831.82,1636322981,full,ni_sequenzen,NI_Sequenzen,11,0,,,,,,,,,,,,
,Move,canvas.Screen,0_3_0_0_0_11,-999,skipped,,89790,,,89717,,89790,2021-11-07T22:11:24.504Z,89831.82,1636322981,full,ni_sequenzen,NI_Sequenzen,12,0,,,,,,,,,,,,
,Move,canvas.Screen,0_3_0_0_0_12,-999,skipped,,89797,,,89717,,89798,2021-11-07T22:11:24.511Z,89831.82,1636322981,full,ni_sequenzen,NI_Sequenzen,13,0,,,,,,,,,,,,
,Move,canvas.Screen,0_3_0_0_0_13,-999,skipped,,89805,,,89717,,89805,2021-11-07T22:11:24.518Z,89831.82,1636322981,full,ni_sequenzen,NI_Sequenzen,14,0,,,,,,,,,,,,
,Move,canvas.Screen,0_3_0_0_0_14,-999,skipped,,89812,,,89717,,89812,2021-11-07T22:11:24.526Z,89831.82,1636322981,full,ni_sequenzen,NI_Sequenzen,15,0,,,,,,,,,,,,
,Loop,flow.Loop,0_3_0_0_0,-999,completion,,85766,85778.88,85781.82,89717,3935.179999999993,89812,2021-11-07T22:11:24.526Z,89831.82,1636322981,full,ni_sequenzen,NI_Sequenzen,,0,,,,,,,,,,,,
,Feedback,canvas.Screen,0_3_0_0_1,,timeout,,89818,89818.2,89831.82,93815.2,4004.7599999999948,93816,2021-11-07T22:11:28.530Z,93836.58,1636322981,full,ni_sequenzen,NI_Sequenzen,,0,,,,,,,,,,,,
,Trial,flow.Sequence,0_3_0_0,,completion,,85758,85778.88,85781.82,93815.2,8033.37999999999,93816,2021-11-07T22:11:28.530Z,93848.52,1636322981,full,ni_sequenzen,NI_Sequenzen,,0,,,,,,,,,,,,
,Move,canvas.Screen,0_3_0_1_0_0,left,response,,93837,93836.58,93848.52,96780,2931.479999999996,96793,2021-11-07T22:11:31.506Z,96815.16,1636322981,full,ni_sequenzen,NI_Sequenzen,1,1,,,,,,,,,,,,
,Move,canvas.Screen,0_3_0_1_0_1,down,response,,96802,96802.4,96815.16,97218,402.8399999999965,97240,2021-11-07T22:11:31.954Z,97252.6,1636322981,full,ni_sequenzen,NI_Sequenzen,2,1,,,,,,,,,,,,
,Move,canvas.Screen,0_3_0_1_0_2,right,response,,97252,97252.42,97252.6,97796,543.3999999999942,97809,2021-11-07T22:11:32.522Z,97831.82,1636322981,full,ni_sequenzen,NI_Sequenzen,3,1,,,,,,,,,,,,
,Move,canvas.Screen,0_3_0_1_0_3,right,response,,97822,97821.66,97831.82,99420,1588.179999999993,99426,2021-11-07T22:11:34.139Z,99598.48,1636322981,full,ni_sequenzen,NI_Sequenzen,4,1,,,,,,,,,,,,
,Move,canvas.Screen,0_3_0_1_0_4,-999,skipped,,99444,,,99420,,99445,2021-11-07T22:11:34.158Z,99598.48,1636322981,full,ni_sequenzen,NI_Sequenzen,5,1,,,,,,,,,,,,
,Move,canvas.Screen,0_3_0_1_0_5,-999,skipped,,99460,,,99420,,99460,2021-11-07T22:11:34.173Z,99598.48,1636322981,full,ni_sequenzen,NI_Sequenzen,6,1,,,,,,,,,,,,
,Move,canvas.Screen,0_3_0_1_0_6,-999,skipped,,99472,,,99420,,99472,2021-11-07T22:11:34.185Z,99598.48,1636322981,full,ni_sequenzen,NI_Sequenzen,7,1,,,,,,,,,,,,
,Move,canvas.Screen,0_3_0_1_0_7,-999,skipped,,99486,,,99420,,99486,2021-11-07T22:11:34.199Z,99598.48,1636322981,full,ni_sequenzen,NI_Sequenzen,8,1,,,,,,,,,,,,
,Move,canvas.Screen,0_3_0_1_0_8,-999,skipped,,99495,,,99420,,99495,2021-11-07T22:11:34.208Z,99598.48,1636322981,full,ni_sequenzen,NI_Sequenzen,9,1,,,,,,,,,,,,
,Move,canvas.Screen,0_3_0_1_0_9,-999,skipped,,99506,,,99420,,99506,2021-11-07T22:11:34.219Z,99598.48,1636322981,full,ni_sequenzen,NI_Sequenzen,10,1,,,,,,,,,,,,
,Move,canvas.Screen,0_3_0_1_0_10,-999,skipped,,99514,,,99420,,99514,2021-11-07T22:11:34.227Z,99598.48,1636322981,full,ni_sequenzen,NI_Sequenzen,11,1,,,,,,,,,,,,
,Move,canvas.Screen,0_3_0_1_0_11,-999,skipped,,99528,,,99420,,99528,2021-11-07T22:11:34.241Z,99598.48,1636322981,full,ni_sequenzen,NI_Sequenzen,12,1,,,,,,,,,,,,
,Move,canvas.Screen,0_3_0_1_0_12,-999,skipped,,99542,,,99420,,99543,2021-11-07T22:11:34.255Z,99598.48,1636322981,full,ni_sequenzen,NI_Sequenzen,13,1,,,,,,,,,,,,
,Move,canvas.Screen,0_3_0_1_0_13,-999,skipped,,99556,,,99420,,99557,2021-11-07T22:11:34.270Z,99598.48,1636322981,full,ni_sequenzen,NI_Sequenzen,14,1,,,,,,,,,,,,
,Move,canvas.Screen,0_3_0_1_0_14,-999,skipped,,99571,,,99420,,99571,2021-11-07T22:11:34.285Z,99598.48,1636322981,full,ni_sequenzen,NI_Sequenzen,15,1,,,,,,,,,,,,
,Loop,flow.Loop,0_3_0_1_0,-999,completion,,93827,93836.58,93848.52,99420,5571.479999999996,99572,2021-11-07T22:11:34.285Z,99598.48,1636322981,full,ni_sequenzen,NI_Sequenzen,,1,,,,,,,,,,,,
,Feedback,canvas.Screen,0_3_0_1_1,,timeout,,99584,99584,99598.48,103581.82,4015.4600000000064,103583,2021-11-07T22:11:38.296Z,103613.94,1636322981,full,ni_sequenzen,NI_Sequenzen,,1,,,,,,,,,,,,
,Trial,flow.Sequence,0_3_0_1,,completion,,93817,93836.58,93848.52,103581.82,9733.300000000003,103583,2021-11-07T22:11:38.296Z,103615.16,1636322981,full,ni_sequenzen,NI_Sequenzen,,1,,,,,,,,,,,,
,Move,canvas.Screen,0_3_0_2_0_0,right,response,,103614,103613.94,103615.16,104373,757.8399999999965,104393,2021-11-07T22:11:39.107Z,104409.5,1636322981,full,ni_sequenzen,NI_Sequenzen,1,2,,,,,,,,,,,,
,Move,canvas.Screen,0_3_0_2_0_1,down,response,,104409,104409.34,104409.5,104811,401.5,104817,2021-11-07T22:11:39.530Z,104848.48,1636322981,full,ni_sequenzen,NI_Sequenzen,2,2,,,,,,,,,,,,
,Move,canvas.Screen,0_3_0_2_0_2,right,response,,104832,104832.16,104848.48,105202,353.5200000000041,105217,2021-11-07T22:11:39.931Z,105231.94,1636322981,full,ni_sequenzen,NI_Sequenzen,3,2,,,,,,,,,,,,
,Move,canvas.Screen,0_3_0_2_0_3,down,response,,105232,105231.76,105231.94,105530,298.0599999999977,105537,2021-11-07T22:11:40.251Z,105715.12,1636322981,full,ni_sequenzen,NI_Sequenzen,4,2,,,,,,,,,,,,
,Move,canvas.Screen,0_3_0_2_0_4,-999,skipped,,105553,,,105530,,105553,2021-11-07T22:11:40.266Z,105715.12,1636322981,full,ni_sequenzen,NI_Sequenzen,5,2,,,,,,,,,,,,
,Move,canvas.Screen,0_3_0_2_0_5,-999,skipped,,105567,,,105530,,105567,2021-11-07T22:11:40.281Z,105715.12,1636322981,full,ni_sequenzen,NI_Sequenzen,6,2,,,,,,,,,,,,
,Move,canvas.Screen,0_3_0_2_0_6,-999,skipped,,105584,,,105530,,105584,2021-11-07T22:11:40.298Z,105715.12,1636322981,full,ni_sequenzen,NI_Sequenzen,7,2,,,,,,,,,,,,
,Move,canvas.Screen,0_3_0_2_0_7,-999,skipped,,105598,,,105530,,105598,2021-11-07T22:11:40.312Z,105715.12,1636322981,full,ni_sequenzen,NI_Sequenzen,8,2,,,,,,,,,,,,
,Move,canvas.Screen,0_3_0_2_0_8,-999,skipped,,105617,,,105530,,105617,2021-11-07T22:11:40.331Z,105715.12,1636322981,full,ni_sequenzen,NI_Sequenzen,9,2,,,,,,,,,,,,
,Move,canvas.Screen,0_3_0_2_0_9,-999,skipped,,105633,,,105530,,105634,2021-11-07T22:11:40.347Z,105715.12,1636322981,full,ni_sequenzen,NI_Sequenzen,10,2,,,,,,,,,,,,
,Move,canvas.Screen,0_3_0_2_0_10,-999,skipped,,105646,,,105530,,105646,2021-11-07T22:11:40.360Z,105715.12,1636322981,full,ni_sequenzen,NI_Sequenzen,11,2,,,,,,,,,,,,
,Move,canvas.Screen,0_3_0_2_0_11,-999,skipped,,105658,,,105530,,105658,2021-11-07T22:11:40.372Z,105715.12,1636322981,full,ni_sequenzen,NI_Sequenzen,12,2,,,,,,,,,,,,
,Move,canvas.Screen,0_3_0_2_0_12,-999,skipped,,105670,,,105530,,105670,2021-11-07T22:11:40.383Z,105715.12,1636322981,full,ni_sequenzen,NI_Sequenzen,13,2,,,,,,,,,,,,
,Move,canvas.Screen,0_3_0_2_0_13,-999,skipped,,105686,,,105530,,105686,2021-11-07T22:11:40.399Z,105715.12,1636322981,full,ni_sequenzen,NI_Sequenzen,14,2,,,,,,,,,,,,
,Move,canvas.Screen,0_3_0_2_0_14,-999,skipped,,105701,,,105530,,105701,2021-11-07T22:11:40.413Z,105715.12,1636322981,full,ni_sequenzen,NI_Sequenzen,15,2,,,,,,,,,,,,
,Loop,flow.Loop,0_3_0_2_0,-999,completion,,103601,103613.94,103615.16,105530,1914.8399999999965,105701,2021-11-07T22:11:40.414Z,105715.12,1636322981,full,ni_sequenzen,NI_Sequenzen,,2,,,,,,,,,,,,
,Feedback,canvas.Screen,0_3_0_2_1,,timeout,,105711,105710.2,105715.12,109698.48,4006.4000000000087,109699,2021-11-07T22:11:44.412Z,109721.52,1636322981,full,ni_sequenzen,NI_Sequenzen,,2,,,,,,,,,,,,
,Trial,flow.Sequence,0_3_0_2,,completion,,103584,103613.94,103615.16,109698.48,6083.319999999992,109699,2021-11-07T22:11:44.413Z,109731.82,1636322981,full,ni_sequenzen,NI_Sequenzen,,2,,,,,,,,,,,,
,Move,canvas.Screen,0_3_0_3_0_0,right,response,,109721,109721.52,109731.82,110483,751.179999999993,110505,2021-11-07T22:11:45.218Z,110531.82,1636322981,full,ni_sequenzen,NI_Sequenzen,1,3,,,,,,,,,,,,
,Move,canvas.Screen,0_3_0_3_0_1,down,response,,110518,110517.54,110531.82,110905,373.179999999993,110913,2021-11-07T22:11:45.626Z,110931.8,1636322981,full,ni_sequenzen,NI_Sequenzen,2,3,,,,,,,,,,,,
,Move,canvas.Screen,0_3_0_3_0_2,right,response,,110921,110921.14,110931.8,111170,238.1999999999971,111185,2021-11-07T22:11:45.898Z,111193.38,1636322981,full,ni_sequenzen,NI_Sequenzen,3,3,,,,,,,,,,,,
,Move,canvas.Screen,0_3_0_3_0_3,down,response,,111193,111193.22,111193.38,111451,257.61999999999534,111481,2021-11-07T22:11:46.195Z,111598.48,1636322981,full,ni_sequenzen,NI_Sequenzen,4,3,,,,,,,,,,,,
,Move,canvas.Screen,0_3_0_3_0_4,-999,skipped,,111496,,,111451,,111496,2021-11-07T22:11:46.210Z,111598.48,1636322981,full,ni_sequenzen,NI_Sequenzen,5,3,,,,,,,,,,,,
,Move,canvas.Screen,0_3_0_3_0_5,-999,skipped,,111508,,,111451,,111508,2021-11-07T22:11:46.221Z,111598.48,1636322981,full,ni_sequenzen,NI_Sequenzen,6,3,,,,,,,,,,,,
,Move,canvas.Screen,0_3_0_3_0_6,-999,skipped,,111521,,,111451,,111521,2021-11-07T22:11:46.235Z,111598.48,1636322981,full,ni_sequenzen,NI_Sequenzen,7,3,,,,,,,,,,,,
,Move,canvas.Screen,0_3_0_3_0_7,-999,skipped,,111531,,,111451,,111532,2021-11-07T22:11:46.245Z,111598.48,1636322981,full,ni_sequenzen,NI_Sequenzen,8,3,,,,,,,,,,,,
,Move,canvas.Screen,0_3_0_3_0_8,-999,skipped,,111540,,,111451,,111541,2021-11-07T22:11:46.254Z,111598.48,1636322981,full,ni_sequenzen,NI_Sequenzen,9,3,,,,,,,,,,,,
,Move,canvas.Screen,0_3_0_3_0_9,-999,skipped,,111549,,,111451,,111550,2021-11-07T22:11:46.263Z,111598.48,1636322981,full,ni_sequenzen,NI_Sequenzen,10,3,,,,,,,,,,,,
,Move,canvas.Screen,0_3_0_3_0_10,-999,skipped,,111561,,,111451,,111561,2021-11-07T22:11:46.275Z,111598.48,1636322981,full,ni_sequenzen,NI_Sequenzen,11,3,,,,,,,,,,,,
,Move,canvas.Screen,0_3_0_3_0_11,-999,skipped,,111569,,,111451,,111569,2021-11-07T22:11:46.283Z,111598.48,1636322981,full,ni_sequenzen,NI_Sequenzen,12,3,,,,,,,,,,,,
,Move,canvas.Screen,0_3_0_3_0_12,-999,skipped,,111575,,,111451,,111575,2021-11-07T22:11:46.289Z,111598.48,1636322981,full,ni_sequenzen,NI_Sequenzen,13,3,,,,,,,,,,,,
,Move,canvas.Screen,0_3_0_3_0_13,-999,skipped,,111582,,,111451,,111582,2021-11-07T22:11:46.296Z,111598.48,1636322981,full,ni_sequenzen,NI_Sequenzen,14,3,,,,,,,,,,,,
,Move,canvas.Screen,0_3_0_3_0_14,-999,skipped,,111591,,,111451,,111591,2021-11-07T22:11:46.304Z,111598.48,1636322981,full,ni_sequenzen,NI_Sequenzen,15,3,,,,,,,,,,,,
,Loop,flow.Loop,0_3_0_3_0,-999,completion,,109713,109721.52,109731.82,111451,1719.179999999993,111592,2021-11-07T22:11:46.305Z,111598.48,1636322981,full,ni_sequenzen,NI_Sequenzen,,3,,,,,,,,,,,,
,Feedback,canvas.Screen,0_3_0_3_1,,timeout,,111597,111596.52,111598.48,115581.82,4031.540000000008,115583,2021-11-07T22:11:50.296Z,115630.02,1636322981,full,ni_sequenzen,NI_Sequenzen,,3,,,,,,,,,,,,
,Trial,flow.Sequence,0_3_0_3,,completion,,109700,109721.52,109731.82,115581.82,5850,115583,2021-11-07T22:11:50.297Z,115631.8,1636322981,full,ni_sequenzen,NI_Sequenzen,,3,,,,,,,,,,,,
,Move,canvas.Screen,0_3_0_4_0_0,right,response,,115630,115630.02,115631.8,116670,1038.199999999997,116688,2021-11-07T22:11:51.402Z,116698.48,1636322981,full,ni_sequenzen,NI_Sequenzen,1,4,,,,,,,,,,,,
,Move,canvas.Screen,0_3_0_4_0_1,down,response,,116698,116698.28,116698.48,116982,283.5200000000041,116993,2021-11-07T22:11:51.706Z,117015.14,1636322981,full,ni_sequenzen,NI_Sequenzen,2,4,,,,,,,,,,,,
,Move,canvas.Screen,0_3_0_4_0_2,right,response,,117001,117001,117015.14,117280,264.8600000000006,117297,2021-11-07T22:11:52.010Z,117306.2,1636322981,full,ni_sequenzen,NI_Sequenzen,3,4,,,,,,,,,,,,
,Move,canvas.Screen,0_3_0_4_0_3,down,response,,117306,117306.02,117306.2,117576,269.8000000000029,117585,2021-11-07T22:11:52.298Z,117681.8,1636322981,full,ni_sequenzen,NI_Sequenzen,4,4,,,,,,,,,,,,
,Move,canvas.Screen,0_3_0_4_0_4,-999,skipped,,117593,,,117576,,117593,2021-11-07T22:11:52.306Z,117681.8,1636322981,full,ni_sequenzen,NI_Sequenzen,5,4,,,,,,,,,,,,
,Move,canvas.Screen,0_3_0_4_0_5,-999,skipped,,117600,,,117576,,117600,2021-11-07T22:11:52.314Z,117681.8,1636322981,full,ni_sequenzen,NI_Sequenzen,6,4,,,,,,,,,,,,
,Move,canvas.Screen,0_3_0_4_0_6,-999,skipped,,117607,,,117576,,117607,2021-11-07T22:11:52.320Z,117681.8,1636322981,full,ni_sequenzen,NI_Sequenzen,7,4,,,,,,,,,,,,
,Move,canvas.Screen,0_3_0_4_0_7,-999,skipped,,117614,,,117576,,117614,2021-11-07T22:11:52.327Z,117681.8,1636322981,full,ni_sequenzen,NI_Sequenzen,8,4,,,,,,,,,,,,
,Move,canvas.Screen,0_3_0_4_0_8,-999,skipped,,117621,,,117576,,117621,2021-11-07T22:11:52.334Z,117681.8,1636322981,full,ni_sequenzen,NI_Sequenzen,9,4,,,,,,,,,,,,
,Move,canvas.Screen,0_3_0_4_0_9,-999,skipped,,117628,,,117576,,117628,2021-11-07T22:11:52.341Z,117681.8,1636322981,full,ni_sequenzen,NI_Sequenzen,10,4,,,,,,,,,,,,
,Move,canvas.Screen,0_3_0_4_0_10,-999,skipped,,117633,,,117576,,117633,2021-11-07T22:11:52.346Z,117681.8,1636322981,full,ni_sequenzen,NI_Sequenzen,11,4,,,,,,,,,,,,
,Move,canvas.Screen,0_3_0_4_0_11,-999,skipped,,117640,,,117576,,117640,2021-11-07T22:11:52.353Z,117681.8,1636322981,full,ni_sequenzen,NI_Sequenzen,12,4,,,,,,,,,,,,
,Move,canvas.Screen,0_3_0_4_0_12,-999,skipped,,117646,,,117576,,117646,2021-11-07T22:11:52.359Z,117681.8,1636322981,full,ni_sequenzen,NI_Sequenzen,13,4,,,,,,,,,,,,
,Move,canvas.Screen,0_3_0_4_0_13,-999,skipped,,117655,,,117576,,117655,2021-11-07T22:11:52.368Z,117681.8,1636322981,full,ni_sequenzen,NI_Sequenzen,14,4,,,,,,,,,,,,
,Move,canvas.Screen,0_3_0_4_0_14,-999,skipped,,117662,,,117576,,117662,2021-11-07T22:11:52.375Z,117681.8,1636322981,full,ni_sequenzen,NI_Sequenzen,15,4,,,,,,,,,,,,
,Loop,flow.Loop,0_3_0_4_0,-999,completion,,115617,115630.02,115631.8,117576,1944.199999999997,117662,2021-11-07T22:11:52.375Z,117681.8,1636322981,full,ni_sequenzen,NI_Sequenzen,,4,,,,,,,,,,,,
,Feedback,canvas.Screen,0_3_0_4_1,,timeout,,117669,117668.88,117681.8,121665.12,4013.5,121666,2021-11-07T22:11:56.379Z,121695.3,1636322981,full,ni_sequenzen,NI_Sequenzen,,4,,,,,,,,,,,,
,Trial,flow.Sequence,0_3_0_4,,completion,,115585,115630.02,115631.8,121665.12,6033.319999999992,121666,2021-11-07T22:11:56.379Z,121698.46,1636322981,full,ni_sequenzen,NI_Sequenzen,,4,,,,,,,,,,,,
,Move,canvas.Screen,0_3_0_5_0_0,right,response,,121695,121695.3,121698.46,122265,566.5399999999936,122273,2021-11-07T22:11:56.986Z,122284.4,1636322981,full,ni_sequenzen,NI_Sequenzen,1,5,,,,,,,,,,,,
,Move,canvas.Screen,0_3_0_5_0_1,down,response,,122284,122284.22,122284.4,122639,354.6000000000058,122657,2021-11-07T22:11:57.370Z,122681.82,1636322981,full,ni_sequenzen,NI_Sequenzen,2,5,,,,,,,,,,,,
,Move,canvas.Screen,0_3_0_5_0_2,right,response,,122667,122667.84,122681.82,123060,378.179999999993,123072,2021-11-07T22:11:57.786Z,123081.8,1636322981,full,ni_sequenzen,NI_Sequenzen,3,5,,,,,,,,,,,,
,Move,canvas.Screen,0_3_0_5_0_3,down,response,,123081,123081.34,123081.8,123436,354.1999999999971,123448,2021-11-07T22:11:58.162Z,123548.48,1636322981,full,ni_sequenzen,NI_Sequenzen,4,5,,,,,,,,,,,,
,Move,canvas.Screen,0_3_0_5_0_4,-999,skipped,,123457,,,123436,,123457,2021-11-07T22:11:58.171Z,123548.48,1636322981,full,ni_sequenzen,NI_Sequenzen,5,5,,,,,,,,,,,,
,Move,canvas.Screen,0_3_0_5_0_5,-999,skipped,,123464,,,123436,,123464,2021-11-07T22:11:58.178Z,123548.48,1636322981,full,ni_sequenzen,NI_Sequenzen,6,5,,,,,,,,,,,,
,Move,canvas.Screen,0_3_0_5_0_6,-999,skipped,,123472,,,123436,,123472,2021-11-07T22:11:58.185Z,123548.48,1636322981,full,ni_sequenzen,NI_Sequenzen,7,5,,,,,,,,,,,,
,Move,canvas.Screen,0_3_0_5_0_7,-999,skipped,,123480,,,123436,,123480,2021-11-07T22:11:58.193Z,123548.48,1636322981,full,ni_sequenzen,NI_Sequenzen,8,5,,,,,,,,,,,,
,Move,canvas.Screen,0_3_0_5_0_8,-999,skipped,,123487,,,123436,,123488,2021-11-07T22:11:58.202Z,123548.48,1636322981,full,ni_sequenzen,NI_Sequenzen,9,5,,,,,,,,,,,,
,Move,canvas.Screen,0_3_0_5_0_9,-999,skipped,,123499,,,123436,,123499,2021-11-07T22:11:58.213Z,123548.48,1636322981,full,ni_sequenzen,NI_Sequenzen,10,5,,,,,,,,,,,,
,Move,canvas.Screen,0_3_0_5_0_10,-999,skipped,,123509,,,123436,,123509,2021-11-07T22:11:58.223Z,123548.48,1636322981,full,ni_sequenzen,NI_Sequenzen,11,5,,,,,,,,,,,,
,Move,canvas.Screen,0_3_0_5_0_11,-999,skipped,,123519,,,123436,,123519,2021-11-07T22:11:58.231Z,123548.48,1636322981,full,ni_sequenzen,NI_Sequenzen,12,5,,,,,,,,,,,,
,Move,canvas.Screen,0_3_0_5_0_12,-999,skipped,,123526,,,123436,,123526,2021-11-07T22:11:58.240Z,123548.48,1636322981,full,ni_sequenzen,NI_Sequenzen,13,5,,,,,,,,,,,,
,Move,canvas.Screen,0_3_0_5_0_13,-999,skipped,,123533,,,123436,,123533,2021-11-07T22:11:58.246Z,123548.48,1636322981,full,ni_sequenzen,NI_Sequenzen,14,5,,,,,,,,,,,,
,Move,canvas.Screen,0_3_0_5_0_14,-999,skipped,,123540,,,123436,,123541,2021-11-07T22:11:58.254Z,123548.48,1636322981,full,ni_sequenzen,NI_Sequenzen,15,5,,,,,,,,,,,,
,Loop,flow.Loop,0_3_0_5_0,-999,completion,,121686,121695.3,121698.46,123436,1737.5399999999936,123541,2021-11-07T22:11:58.254Z,123548.48,1636322981,full,ni_sequenzen,NI_Sequenzen,,5,,,,,,,,,,,,
,Feedback,canvas.Screen,0_3_0_5_1,,timeout,,123547,123546.56,123548.48,127531.8,4011.320000000007,127532,2021-11-07T22:12:02.246Z,127559.8,1636322981,full,ni_sequenzen,NI_Sequenzen,,5,,,,,,,,,,,,
,Trial,flow.Sequence,0_3_0_5,,completion,,121667,121695.3,121698.46,127531.8,5833.3399999999965,127533,2021-11-07T22:12:02.246Z,127565.12,1636322981,full,ni_sequenzen,NI_Sequenzen,,5,,,,,,,,,,,,
,Move,canvas.Screen,0_3_0_6_0_0,left,response,,127560,127559.8,127565.12,128248,682.8800000000047,128265,2021-11-07T22:12:02.978Z,128277.74,1636322981,full,ni_sequenzen,NI_Sequenzen,1,6,,,,,,,,,,,,
,Move,canvas.Screen,0_3_0_6_0_1,left,response,,128278,128277.56,128277.74,128890,612.2599999999948,128905,2021-11-07T22:12:03.618Z,128931.8,1636322981,full,ni_sequenzen,NI_Sequenzen,2,6,,,,,,,,,,,,
,Move,canvas.Screen,0_3_0_6_0_2,down,response,,128918,128917.74,128931.8,129420,488.1999999999971,129433,2021-11-07T22:12:04.146Z,129441.72,1636322981,full,ni_sequenzen,NI_Sequenzen,3,6,,,,,,,,,,,,
,Move,canvas.Screen,0_3_0_6_0_3,right,response,,129441,129441.56,129441.72,129967,525.2799999999988,129985,2021-11-07T22:12:04.698Z,130098.46,1636322981,full,ni_sequenzen,NI_Sequenzen,4,6,,,,,,,,,,,,
,Move,canvas.Screen,0_3_0_6_0_4,-999,skipped,,129994,,,129967,,129995,2021-11-07T22:12:04.708Z,130098.46,1636322981,full,ni_sequenzen,NI_Sequenzen,5,6,,,,,,,,,,,,
,Move,canvas.Screen,0_3_0_6_0_5,-999,skipped,,130004,,,129967,,130004,2021-11-07T22:12:04.718Z,130098.46,1636322981,full,ni_sequenzen,NI_Sequenzen,6,6,,,,,,,,,,,,
,Move,canvas.Screen,0_3_0_6_0_6,-999,skipped,,130012,,,129967,,130012,2021-11-07T22:12:04.725Z,130098.46,1636322981,full,ni_sequenzen,NI_Sequenzen,7,6,,,,,,,,,,,,
,Move,canvas.Screen,0_3_0_6_0_7,-999,skipped,,130021,,,129967,,130021,2021-11-07T22:12:04.734Z,130098.46,1636322981,full,ni_sequenzen,NI_Sequenzen,8,6,,,,,,,,,,,,
,Move,canvas.Screen,0_3_0_6_0_8,-999,skipped,,130030,,,129967,,130030,2021-11-07T22:12:04.744Z,130098.46,1636322981,full,ni_sequenzen,NI_Sequenzen,9,6,,,,,,,,,,,,
,Move,canvas.Screen,0_3_0_6_0_9,-999,skipped,,130038,,,129967,,130038,2021-11-07T22:12:04.751Z,130098.46,1636322981,full,ni_sequenzen,NI_Sequenzen,10,6,,,,,,,,,,,,
,Move,canvas.Screen,0_3_0_6_0_10,-999,skipped,,130044,,,129967,,130044,2021-11-07T22:12:04.757Z,130098.46,1636322981,full,ni_sequenzen,NI_Sequenzen,11,6,,,,,,,,,,,,
,Move,canvas.Screen,0_3_0_6_0_11,-999,skipped,,130051,,,129967,,130051,2021-11-07T22:12:04.764Z,130098.46,1636322981,full,ni_sequenzen,NI_Sequenzen,12,6,,,,,,,,,,,,
,Move,canvas.Screen,0_3_0_6_0_12,-999,skipped,,130057,,,129967,,130057,2021-11-07T22:12:04.771Z,130098.46,1636322981,full,ni_sequenzen,NI_Sequenzen,13,6,,,,,,,,,,,,
,Move,canvas.Screen,0_3_0_6_0_13,-999,skipped,,130068,,,129967,,130068,2021-11-07T22:12:04.782Z,130098.46,1636322981,full,ni_sequenzen,NI_Sequenzen,14,6,,,,,,,,,,,,
,Move,canvas.Screen,0_3_0_6_0_14,-999,skipped,,130075,,,129967,,130075,2021-11-07T22:12:04.789Z,130098.46,1636322981,full,ni_sequenzen,NI_Sequenzen,15,6,,,,,,,,,,,,
,Loop,flow.Loop,0_3_0_6_0,-999,completion,,127550,127559.8,127565.12,129967,2401.8800000000047,130076,2021-11-07T22:12:04.789Z,130098.46,1636322981,full,ni_sequenzen,NI_Sequenzen,,6,,,,,,,,,,,,
,Feedback,canvas.Screen,0_3_0_6_1,,timeout,,130085,130084.3,130098.46,134081.8,4005.159999999989,134083,2021-11-07T22:12:08.796Z,134103.62,1636322981,full,ni_sequenzen,NI_Sequenzen,,6,,,,,,,,,,,,
,Trial,flow.Sequence,0_3_0_6,,completion,,127533,127559.8,127565.12,134081.8,6516.679999999993,134083,2021-11-07T22:12:08.796Z,134115.14,1636322981,full,ni_sequenzen,NI_Sequenzen,,6,,,,,,,,,,,,
,Move,canvas.Screen,0_3_0_7_0_0,right,response,,134104,134103.62,134115.14,134670,554.859999999986,134680,2021-11-07T22:12:09.394Z,134691.44,1636322981,full,ni_sequenzen,NI_Sequenzen,1,7,,,,,,,,,,,,
,Move,canvas.Screen,0_3_0_7_0_1,down,response,,134691,134691.28,134691.44,135046,354.5599999999977,135057,2021-11-07T22:12:09.770Z,135081.78,1636322981,full,ni_sequenzen,NI_Sequenzen,2,7,,,,,,,,,,,,
,Move,canvas.Screen,0_3_0_7_0_2,right,response,,135070,135070.08,135081.78,135327,245.22000000000116,135344,2021-11-07T22:12:10.058Z,135353.56,1636322981,full,ni_sequenzen,NI_Sequenzen,3,7,,,,,,,,,,,,
,Move,canvas.Screen,0_3_0_7_0_3,down,response,,135354,135353.38,135353.56,135623,269.4400000000023,135649,2021-11-07T22:12:10.362Z,135765.14,1636322981,full,ni_sequenzen,NI_Sequenzen,4,7,,,,,,,,,,,,
,Move,canvas.Screen,0_3_0_7_0_4,-999,skipped,,135661,,,135623,,135661,2021-11-07T22:12:10.375Z,135765.14,1636322981,full,ni_sequenzen,NI_Sequenzen,5,7,,,,,,,,,,,,
,Move,canvas.Screen,0_3_0_7_0_5,-999,skipped,,135672,,,135623,,135672,2021-11-07T22:12:10.386Z,135765.14,1636322981,full,ni_sequenzen,NI_Sequenzen,6,7,,,,,,,,,,,,
,Move,canvas.Screen,0_3_0_7_0_6,-999,skipped,,135683,,,135623,,135683,2021-11-07T22:12:10.397Z,135765.14,1636322981,full,ni_sequenzen,NI_Sequenzen,7,7,,,,,,,,,,,,
,Move,canvas.Screen,0_3_0_7_0_7,-999,skipped,,135694,,,135623,,135695,2021-11-07T22:12:10.409Z,135765.14,1636322981,full,ni_sequenzen,NI_Sequenzen,8,7,,,,,,,,,,,,
,Move,canvas.Screen,0_3_0_7_0_8,-999,skipped,,135705,,,135623,,135705,2021-11-07T22:12:10.419Z,135765.14,1636322981,full,ni_sequenzen,NI_Sequenzen,9,7,,,,,,,,,,,,
,Move,canvas.Screen,0_3_0_7_0_9,-999,skipped,,135712,,,135623,,135712,2021-11-07T22:12:10.425Z,135765.14,1636322981,full,ni_sequenzen,NI_Sequenzen,10,7,,,,,,,,,,,,
,Move,canvas.Screen,0_3_0_7_0_10,-999,skipped,,135719,,,135623,,135719,2021-11-07T22:12:10.433Z,135765.14,1636322981,full,ni_sequenzen,NI_Sequenzen,11,7,,,,,,,,,,,,
,Move,canvas.Screen,0_3_0_7_0_11,-999,skipped,,135726,,,135623,,135726,2021-11-07T22:12:10.440Z,135765.14,1636322981,full,ni_sequenzen,NI_Sequenzen,12,7,,,,,,,,,,,,
,Move,canvas.Screen,0_3_0_7_0_12,-999,skipped,,135733,,,135623,,135733,2021-11-07T22:12:10.447Z,135765.14,1636322981,full,ni_sequenzen,NI_Sequenzen,13,7,,,,,,,,,,,,
,Move,canvas.Screen,0_3_0_7_0_13,-999,skipped,,135745,,,135623,,135745,2021-11-07T22:12:10.458Z,135765.14,1636322981,full,ni_sequenzen,NI_Sequenzen,14,7,,,,,,,,,,,,
,Move,canvas.Screen,0_3_0_7_0_14,-999,skipped,,135756,,,135623,,135756,2021-11-07T22:12:10.469Z,135765.14,1636322981,full,ni_sequenzen,NI_Sequenzen,15,7,,,,,,,,,,,,
,Loop,flow.Loop,0_3_0_7_0,-999,completion,,134096,134103.62,134115.14,135623,1507.859999999986,135756,2021-11-07T22:12:10.469Z,135765.14,1636322981,full,ni_sequenzen,NI_Sequenzen,,7,,,,,,,,,,,,
,Feedback,canvas.Screen,0_3_0_7_1,,timeout,,135763,135763.9,135765.14,139748.48,4001.399999999994,139749,2021-11-07T22:12:14.463Z,139766.54,1636322981,full,ni_sequenzen,NI_Sequenzen,,7,,,,,,,,,,,,
,Trial,flow.Sequence,0_3_0_7,,completion,,134085,134103.62,134115.14,139748.48,5633.3399999999965,139749,2021-11-07T22:12:14.463Z,139781.8,1636322981,full,ni_sequenzen,NI_Sequenzen,,7,,,,,,,,,,,,
,Move,canvas.Screen,0_3_0_8_0_0,down,response,,139766,139766.54,139781.8,140795,1013.2000000000116,140817,2021-11-07T22:12:15.530Z,140831.8,1636322981,full,ni_sequenzen,NI_Sequenzen,1,8,,,,,,,,,,,,
,Move,canvas.Screen,0_3_0_8_0_1,right,response,,140826,140825.98,140831.8,141264,432.20000000001164,141273,2021-11-07T22:12:15.986Z,141282.2,1636322981,full,ni_sequenzen,NI_Sequenzen,2,8,,,,,,,,,,,,
,Move,canvas.Screen,0_3_0_8_0_2,down,response,,141282,141282.02,141282.2,141670,387.79999999998836,141697,2021-11-07T22:12:16.411Z,141707.3,1636322981,full,ni_sequenzen,NI_Sequenzen,3,8,,,,,,,,,,,,
,Move,canvas.Screen,0_3_0_8_0_3,right,response,,141707,141707.14,141707.3,142061,353.70000000001164,142080,2021-11-07T22:12:16.793Z,142181.78,1636322981,full,ni_sequenzen,NI_Sequenzen,4,8,,,,,,,,,,,,
,Move,canvas.Screen,0_3_0_8_0_4,-999,skipped,,142090,,,142061,,142090,2021-11-07T22:12:16.803Z,142181.78,1636322981,full,ni_sequenzen,NI_Sequenzen,5,8,,,,,,,,,,,,
,Move,canvas.Screen,0_3_0_8_0_5,-999,skipped,,142099,,,142061,,142099,2021-11-07T22:12:16.813Z,142181.78,1636322981,full,ni_sequenzen,NI_Sequenzen,6,8,,,,,,,,,,,,
,Move,canvas.Screen,0_3_0_8_0_6,-999,skipped,,142107,,,142061,,142107,2021-11-07T22:12:16.820Z,142181.78,1636322981,full,ni_sequenzen,NI_Sequenzen,7,8,,,,,,,,,,,,
,Move,canvas.Screen,0_3_0_8_0_7,-999,skipped,,142117,,,142061,,142117,2021-11-07T22:12:16.831Z,142181.78,1636322981,full,ni_sequenzen,NI_Sequenzen,8,8,,,,,,,,,,,,
,Move,canvas.Screen,0_3_0_8_0_8,-999,skipped,,142126,,,142061,,142127,2021-11-07T22:12:16.840Z,142181.78,1636322981,full,ni_sequenzen,NI_Sequenzen,9,8,,,,,,,,,,,,
,Move,canvas.Screen,0_3_0_8_0_9,-999,skipped,,142132,,,142061,,142132,2021-11-07T22:12:16.846Z,142181.78,1636322981,full,ni_sequenzen,NI_Sequenzen,10,8,,,,,,,,,,,,
,Move,canvas.Screen,0_3_0_8_0_10,-999,skipped,,142143,,,142061,,142143,2021-11-07T22:12:16.856Z,142181.78,1636322981,full,ni_sequenzen,NI_Sequenzen,11,8,,,,,,,,,,,,
,Move,canvas.Screen,0_3_0_8_0_11,-999,skipped,,142152,,,142061,,142152,2021-11-07T22:12:16.866Z,142181.78,1636322981,full,ni_sequenzen,NI_Sequenzen,12,8,,,,,,,,,,,,
,Move,canvas.Screen,0_3_0_8_0_12,-999,skipped,,142159,,,142061,,142160,2021-11-07T22:12:16.873Z,142181.78,1636322981,full,ni_sequenzen,NI_Sequenzen,13,8,,,,,,,,,,,,
,Move,canvas.Screen,0_3_0_8_0_13,-999,skipped,,142167,,,142061,,142167,2021-11-07T22:12:16.880Z,142181.78,1636322981,full,ni_sequenzen,NI_Sequenzen,14,8,,,,,,,,,,,,
,Move,canvas.Screen,0_3_0_8_0_14,-999,skipped,,142176,,,142061,,142176,2021-11-07T22:12:16.889Z,142181.78,1636322981,full,ni_sequenzen,NI_Sequenzen,15,8,,,,,,,,,,,,
,Loop,flow.Loop,0_3_0_8_0,-999,completion,,139760,139766.54,139781.8,142061,2279.2000000000116,142176,2021-11-07T22:12:16.889Z,142181.78,1636322981,full,ni_sequenzen,NI_Sequenzen,,8,,,,,,,,,,,,
,Feedback,canvas.Screen,0_3_0_8_1,,timeout,,142181,142181.56,142181.78,146165.12,4007.4800000000105,146166,2021-11-07T22:12:20.879Z,146189.26,1636322981,full,ni_sequenzen,NI_Sequenzen,,8,,,,,,,,,,,,
,Trial,flow.Sequence,0_3_0_8,,completion,,139750,139766.54,139781.8,146165.12,6383.320000000007,146166,2021-11-07T22:12:20.880Z,146198.46,1636322981,full,ni_sequenzen,NI_Sequenzen,,8,,,,,,,,,,,,
,Move,canvas.Screen,0_3_0_9_0_0,right,response,,146189,146189.26,146198.46,147201,1002.5400000000081,147217,2021-11-07T22:12:21.930Z,147231.8,1636322981,full,ni_sequenzen,NI_Sequenzen,1,9,,,,,,,,,,,,
,Move,canvas.Screen,0_3_0_9_0_1,down,response,,147228,147227.74,147231.8,147608,376.20000000001164,147624,2021-11-07T22:12:22.338Z,147636.4,1636322981,full,ni_sequenzen,NI_Sequenzen,2,9,,,,,,,,,,,,
,Move,canvas.Screen,0_3_0_9_0_2,right,response,,147636,147636.24,147636.4,148093,456.6000000000058,148113,2021-11-07T22:12:22.825Z,148131.78,1636322981,full,ni_sequenzen,NI_Sequenzen,3,9,,,,,,,,,,,,
,Move,canvas.Screen,0_3_0_9_0_3,down,response,,148123,148123.5,148131.78,148420,288.22000000000116,148425,2021-11-07T22:12:23.138Z,148515.12,1636322981,full,ni_sequenzen,NI_Sequenzen,4,9,,,,,,,,,,,,
,Move,canvas.Screen,0_3_0_9_0_4,-999,skipped,,148434,,,148420,,148434,2021-11-07T22:12:23.147Z,148515.12,1636322981,full,ni_sequenzen,NI_Sequenzen,5,9,,,,,,,,,,,,
,Move,canvas.Screen,0_3_0_9_0_5,-999,skipped,,148443,,,148420,,148443,2021-11-07T22:12:23.157Z,148515.12,1636322981,full,ni_sequenzen,NI_Sequenzen,6,9,,,,,,,,,,,,
,Move,canvas.Screen,0_3_0_9_0_6,-999,skipped,,148452,,,148420,,148453,2021-11-07T22:12:23.166Z,148515.12,1636322981,full,ni_sequenzen,NI_Sequenzen,7,9,,,,,,,,,,,,
,Move,canvas.Screen,0_3_0_9_0_7,-999,skipped,,148459,,,148420,,148459,2021-11-07T22:12:23.172Z,148515.12,1636322981,full,ni_sequenzen,NI_Sequenzen,8,9,,,,,,,,,,,,
,Move,canvas.Screen,0_3_0_9_0_8,-999,skipped,,148465,,,148420,,148465,2021-11-07T22:12:23.179Z,148515.12,1636322981,full,ni_sequenzen,NI_Sequenzen,9,9,,,,,,,,,,,,
,Move,canvas.Screen,0_3_0_9_0_9,-999,skipped,,148473,,,148420,,148473,2021-11-07T22:12:23.187Z,148515.12,1636322981,full,ni_sequenzen,NI_Sequenzen,10,9,,,,,,,,,,,,
,Move,canvas.Screen,0_3_0_9_0_10,-999,skipped,,148480,,,148420,,148480,2021-11-07T22:12:23.193Z,148515.12,1636322981,full,ni_sequenzen,NI_Sequenzen,11,9,,,,,,,,,,,,
,Move,canvas.Screen,0_3_0_9_0_11,-999,skipped,,148487,,,148420,,148487,2021-11-07T22:12:23.200Z,148515.12,1636322981,full,ni_sequenzen,NI_Sequenzen,12,9,,,,,,,,,,,,
,Move,canvas.Screen,0_3_0_9_0_12,-999,skipped,,148494,,,148420,,148494,2021-11-07T22:12:23.207Z,148515.12,1636322981,full,ni_sequenzen,NI_Sequenzen,13,9,,,,,,,,,,,,
,Move,canvas.Screen,0_3_0_9_0_13,-999,skipped,,148501,,,148420,,148501,2021-11-07T22:12:23.215Z,148515.12,1636322981,full,ni_sequenzen,NI_Sequenzen,14,9,,,,,,,,,,,,
,Move,canvas.Screen,0_3_0_9_0_14,-999,skipped,,148508,,,148420,,148508,2021-11-07T22:12:23.220Z,148515.12,1636322981,full,ni_sequenzen,NI_Sequenzen,15,9,,,,,,,,,,,,
,Loop,flow.Loop,0_3_0_9_0,-999,completion,,146180,146189.26,146198.46,148420,2221.540000000008,148508,2021-11-07T22:12:23.221Z,148515.12,1636322981,full,ni_sequenzen,NI_Sequenzen,,9,,,,,,,,,,,,
,Feedback,canvas.Screen,0_3_0_9_1,,timeout,,148513,148512.82,148515.12,152498.46,4180.420000000013,152499,2021-11-07T22:12:27.212Z,152695.54,1636322981,full,ni_sequenzen,NI_Sequenzen,,9,,,,,,,,,,,,
,Trial,flow.Sequence,0_3_0_9,,completion,,146166,146189.26,146198.46,152498.46,6300,152500,2021-11-07T22:12:27.213Z,152698.48,1636322981,full,ni_sequenzen,NI_Sequenzen,,9,,,,,,,,,,,,
,Block,flow.Loop,0_3_0,,completion,,85757,85778.88,85781.82,152498.46,66716.63999999998,152500,2021-11-07T22:12:27.213Z,152698.48,1636322981,full,ni_sequenzen,NI_Sequenzen,,,,,,,,,,,,,,
,Training_II,flow.Sequence,0_3,,completion,,85721,85778.88,85781.82,152498.46,66716.63999999998,152500,2021-11-07T22:12:27.213Z,152698.48,1636322981,full,ni_sequenzen,NI_Sequenzen,,,,,,,,,,,,,,
,Screen_1,canvas.Screen,0_4_0_0,cont,response,1,152695,152695.54,152698.48,155357,2658.5199999999895,155369,2021-11-07T22:12:30.082Z,155381.78,1636322981,full,ni_sequenzen,NI_Sequenzen,,,,,,,,,,,,,,
,Screen_2,canvas.Screen,0_4_0_1,cont,response,1,155373,155372.82,155381.78,165296,9914.220000000001,165313,2021-11-07T22:12:40.026Z,165415.12,1636322981,full,ni_sequenzen,NI_Sequenzen,,,,,,,,,,,,,,
,Screen_3,canvas.Screen,0_4_0_2,cont,response,1,165413,165412.92,165415.12,170202,4786.880000000005,170216,2021-11-07T22:12:44.930Z,170448.44,1636322981,full,ni_sequenzen,NI_Sequenzen,,,,,,,,,,,,,,
,Sequence,flow.Sequence,0_4_0,,completion,1,152539,152695.54,152698.48,170202,17503.51999999999,170217,2021-11-07T22:12:44.930Z,170448.44,1636322981,full,ni_sequenzen,NI_Sequenzen,,,,,,,,,,,,,,
,Screen_1,canvas.Screen,0_4_1_0,,skipped,2,170221,,,170221,,170221,2021-11-07T22:12:44.934Z,170448.44,1636322981,full,ni_sequenzen,NI_Sequenzen,,,,,,,,,,,,,,
,Screen_2,canvas.Screen,0_4_1_1,,skipped,2,170222,,,170221,,170222,2021-11-07T22:12:44.935Z,170448.44,1636322981,full,ni_sequenzen,NI_Sequenzen,,,,,,,,,,,,,,
,Screen_3,canvas.Screen,0_4_1_2,,skipped,2,170223,,,170221,,170223,2021-11-07T22:12:44.937Z,170448.44,1636322981,full,ni_sequenzen,NI_Sequenzen,,,,,,,,,,,,,,
,Sequence,flow.Sequence,0_4_1,,completion,2,170218,,,170221,,170223,2021-11-07T22:12:44.937Z,170448.44,1636322981,full,ni_sequenzen,NI_Sequenzen,,,,,,,,,,,,,,
,Screen_1,canvas.Screen,0_4_2_0,,skipped,3,170225,,,170225,,170225,2021-11-07T22:12:44.939Z,170448.44,1636322981,full,ni_sequenzen,NI_Sequenzen,,,,,,,,,,,,,,
,Screen_2,canvas.Screen,0_4_2_1,,skipped,3,170226,,,170225,,170227,2021-11-07T22:12:44.940Z,170448.44,1636322981,full,ni_sequenzen,NI_Sequenzen,,,,,,,,,,,,,,
,Screen_3,canvas.Screen,0_4_2_2,,skipped,3,170228,,,170225,,170228,2021-11-07T22:12:44.941Z,170448.44,1636322981,full,ni_sequenzen,NI_Sequenzen,,,,,,,,,,,,,,
,Sequence,flow.Sequence,0_4_2,,completion,3,170223,,,170225,,170228,2021-11-07T22:12:44.941Z,170448.44,1636322981,full,ni_sequenzen,NI_Sequenzen,,,,,,,,,,,,,,
,Screen_1,canvas.Screen,0_4_3_0,,skipped,4,170230,,,170230,,170230,2021-11-07T22:12:44.943Z,170448.44,1636322981,full,ni_sequenzen,NI_Sequenzen,,,,,,,,,,,,,,
,Screen_2,canvas.Screen,0_4_3_1,,skipped,4,170231,,,170230,,170232,2021-11-07T22:12:44.945Z,170448.44,1636322981,full,ni_sequenzen,NI_Sequenzen,,,,,,,,,,,,,,
,Screen_3,canvas.Screen,0_4_3_2,,skipped,4,170233,,,170230,,170233,2021-11-07T22:12:44.946Z,170448.44,1636322981,full,ni_sequenzen,NI_Sequenzen,,,,,,,,,,,,,,
,Sequence,flow.Sequence,0_4_3,,completion,4,170228,,,170230,,170233,2021-11-07T22:12:44.946Z,170448.44,1636322981,full,ni_sequenzen,NI_Sequenzen,,,,,,,,,,,,,,
,Screen_1,canvas.Screen,0_4_4_0,,skipped,5,170235,,,170235,,170235,2021-11-07T22:12:44.948Z,170448.44,1636322981,full,ni_sequenzen,NI_Sequenzen,,,,,,,,,,,,,,
,Screen_2,canvas.Screen,0_4_4_1,,skipped,5,170236,,,170235,,170236,2021-11-07T22:12:44.950Z,170448.44,1636322981,full,ni_sequenzen,NI_Sequenzen,,,,,,,,,,,,,,
,Screen_3,canvas.Screen,0_4_4_2,,skipped,5,170237,,,170235,,170237,2021-11-07T22:12:44.951Z,170448.44,1636322981,full,ni_sequenzen,NI_Sequenzen,,,,,,,,,,,,,,
,Sequence,flow.Sequence,0_4_4,,completion,5,170234,,,170235,,170237,2021-11-07T22:12:44.951Z,170448.44,1636322981,full,ni_sequenzen,NI_Sequenzen,,,,,,,,,,,,,,
,Screen_1,canvas.Screen,0_4_5_0,,skipped,6,170239,,,170239,,170239,2021-11-07T22:12:44.952Z,170448.44,1636322981,full,ni_sequenzen,NI_Sequenzen,,,,,,,,,,,,,,
,Screen_2,canvas.Screen,0_4_5_1,,skipped,6,170240,,,170239,,170240,2021-11-07T22:12:44.954Z,170448.44,1636322981,full,ni_sequenzen,NI_Sequenzen,,,,,,,,,,,,,,
,Screen_3,canvas.Screen,0_4_5_2,,skipped,6,170241,,,170239,,170241,2021-11-07T22:12:44.955Z,170448.44,1636322981,full,ni_sequenzen,NI_Sequenzen,,,,,,,,,,,,,,
,Sequence,flow.Sequence,0_4_5,,completion,6,170238,,,170239,,170241,2021-11-07T22:12:44.955Z,170448.44,1636322981,full,ni_sequenzen,NI_Sequenzen,,,,,,,,,,,,,,
,Screen_1,canvas.Screen,0_4_6_0,,skipped,7,170243,,,170243,,170243,2021-11-07T22:12:44.957Z,170448.44,1636322981,full,ni_sequenzen,NI_Sequenzen,,,,,,,,,,,,,,
,Screen_2,canvas.Screen,0_4_6_1,,skipped,7,170244,,,170243,,170244,2021-11-07T22:12:44.958Z,170448.44,1636322981,full,ni_sequenzen,NI_Sequenzen,,,,,,,,,,,,,,
,Screen_3,canvas.Screen,0_4_6_2,,skipped,7,170246,,,170243,,170246,2021-11-07T22:12:44.960Z,170448.44,1636322981,full,ni_sequenzen,NI_Sequenzen,,,,,,,,,,,,,,
,Sequence,flow.Sequence,0_4_6,,completion,7,170242,,,170243,,170247,2021-11-07T22:12:44.960Z,170448.44,1636322981,full,ni_sequenzen,NI_Sequenzen,,,,,,,,,,,,,,
,Screen_1,canvas.Screen,0_4_7_0,,skipped,8,170248,,,170248,,170248,2021-11-07T22:12:44.961Z,170448.44,1636322981,full,ni_sequenzen,NI_Sequenzen,,,,,,,,,,,,,,
,Screen_2,canvas.Screen,0_4_7_1,,skipped,8,170249,,,170248,,170249,2021-11-07T22:12:44.963Z,170448.44,1636322981,full,ni_sequenzen,NI_Sequenzen,,,,,,,,,,,,,,
,Screen_3,canvas.Screen,0_4_7_2,,skipped,8,170252,,,170248,,170252,2021-11-07T22:12:44.965Z,170448.44,1636322981,full,ni_sequenzen,NI_Sequenzen,,,,,,,,,,,,,,
,Sequence,flow.Sequence,0_4_7,,completion,8,170247,,,170248,,170252,2021-11-07T22:12:44.965Z,170448.44,1636322981,full,ni_sequenzen,NI_Sequenzen,,,,,,,,,,,,,,
,Screen_1,canvas.Screen,0_4_8_0,,skipped,9,170255,,,170255,,170255,2021-11-07T22:12:44.969Z,170448.44,1636322981,full,ni_sequenzen,NI_Sequenzen,,,,,,,,,,,,,,
,Screen_2,canvas.Screen,0_4_8_1,,skipped,9,170258,,,170255,,170258,2021-11-07T22:12:44.971Z,170448.44,1636322981,full,ni_sequenzen,NI_Sequenzen,,,,,,,,,,,,,,
,Screen_3,canvas.Screen,0_4_8_2,,skipped,9,170260,,,170255,,170260,2021-11-07T22:12:44.973Z,170448.44,1636322981,full,ni_sequenzen,NI_Sequenzen,,,,,,,,,,,,,,
,Sequence,flow.Sequence,0_4_8,,completion,9,170253,,,170255,,170261,2021-11-07T22:12:44.974Z,170448.44,1636322981,full,ni_sequenzen,NI_Sequenzen,,,,,,,,,,,,,,
,Screen_1,canvas.Screen,0_4_9_0,,skipped,10,170264,,,170264,,170264,2021-11-07T22:12:44.978Z,170448.44,1636322981,full,ni_sequenzen,NI_Sequenzen,,,,,,,,,,,,,,
,Screen_2,canvas.Screen,0_4_9_1,,skipped,10,170267,,,170264,,170267,2021-11-07T22:12:44.980Z,170448.44,1636322981,full,ni_sequenzen,NI_Sequenzen,,,,,,,,,,,,,,
,Screen_3,canvas.Screen,0_4_9_2,,skipped,10,170269,,,170264,,170269,2021-11-07T22:12:44.983Z,170448.44,1636322981,full,ni_sequenzen,NI_Sequenzen,,,,,,,,,,,,,,
,Sequence,flow.Sequence,0_4_9,,completion,10,170262,,,170264,,170269,2021-11-07T22:12:44.983Z,170448.44,1636322981,full,ni_sequenzen,NI_Sequenzen,,,,,,,,,,,,,,
,Screen_1,canvas.Screen,0_4_10_0,,skipped,11,170273,,,170273,,170273,2021-11-07T22:12:44.986Z,170448.44,1636322981,full,ni_sequenzen,NI_Sequenzen,,,,,,,,,,,,,,
,Screen_2,canvas.Screen,0_4_10_1,,skipped,11,170276,,,170273,,170276,2021-11-07T22:12:44.989Z,170448.44,1636322981,full,ni_sequenzen,NI_Sequenzen,,,,,,,,,,,,,,
,Screen_3,canvas.Screen,0_4_10_2,,skipped,11,170278,,,170273,,170278,2021-11-07T22:12:44.992Z,170448.44,1636322981,full,ni_sequenzen,NI_Sequenzen,,,,,,,,,,,,,,
,Sequence,flow.Sequence,0_4_10,,completion,11,170270,,,170273,,170279,2021-11-07T22:12:44.992Z,170448.44,1636322981,full,ni_sequenzen,NI_Sequenzen,,,,,,,,,,,,,,
,Screen_1,canvas.Screen,0_4_11_0,,skipped,12,170281,,,170281,,170281,2021-11-07T22:12:44.995Z,170448.44,1636322981,full,ni_sequenzen,NI_Sequenzen,,,,,,,,,,,,,,
,Screen_2,canvas.Screen,0_4_11_1,,skipped,12,170284,,,170281,,170284,2021-11-07T22:12:44.998Z,170448.44,1636322981,full,ni_sequenzen,NI_Sequenzen,,,,,,,,,,,,,,
,Screen_3,canvas.Screen,0_4_11_2,,skipped,12,170287,,,170281,,170287,2021-11-07T22:12:45.000Z,170448.44,1636322981,full,ni_sequenzen,NI_Sequenzen,,,,,,,,,,,,,,
,Sequence,flow.Sequence,0_4_11,,completion,12,170279,,,170281,,170287,2021-11-07T22:12:45.001Z,170448.44,1636322981,full,ni_sequenzen,NI_Sequenzen,,,,,,,,,,,,,,
,Screen_1,canvas.Screen,0_4_12_0,,skipped,13,170290,,,170290,,170290,2021-11-07T22:12:45.004Z,170448.44,1636322981,full,ni_sequenzen,NI_Sequenzen,,,,,,,,,,,,,,
,Screen_2,canvas.Screen,0_4_12_1,,skipped,13,170293,,,170290,,170293,2021-11-07T22:12:45.006Z,170448.44,1636322981,full,ni_sequenzen,NI_Sequenzen,,,,,,,,,,,,,,
,Screen_3,canvas.Screen,0_4_12_2,,skipped,13,170294,,,170290,,170294,2021-11-07T22:12:45.008Z,170448.44,1636322981,full,ni_sequenzen,NI_Sequenzen,,,,,,,,,,,,,,
,Sequence,flow.Sequence,0_4_12,,completion,13,170288,,,170290,,170295,2021-11-07T22:12:45.009Z,170448.44,1636322981,full,ni_sequenzen,NI_Sequenzen,,,,,,,,,,,,,,
,Screen_1,canvas.Screen,0_4_13_0,,skipped,14,170298,,,170298,,170298,2021-11-07T22:12:45.012Z,170448.44,1636322981,full,ni_sequenzen,NI_Sequenzen,,,,,,,,,,,,,,
,Screen_2,canvas.Screen,0_4_13_1,,skipped,14,170300,,,170298,,170300,2021-11-07T22:12:45.014Z,170448.44,1636322981,full,ni_sequenzen,NI_Sequenzen,,,,,,,,,,,,,,
,Screen_3,canvas.Screen,0_4_13_2,,skipped,14,170301,,,170298,,170301,2021-11-07T22:12:45.015Z,170448.44,1636322981,full,ni_sequenzen,NI_Sequenzen,,,,,,,,,,,,,,
,Sequence,flow.Sequence,0_4_13,,completion,14,170295,,,170298,,170301,2021-11-07T22:12:45.015Z,170448.44,1636322981,full,ni_sequenzen,NI_Sequenzen,,,,,,,,,,,,,,
,Screen_1,canvas.Screen,0_4_14_0,,skipped,15,170303,,,170303,,170303,2021-11-07T22:12:45.017Z,170448.44,1636322981,full,ni_sequenzen,NI_Sequenzen,,,,,,,,,,,,,,
,Screen_2,canvas.Screen,0_4_14_1,,skipped,15,170305,,,170303,,170305,2021-11-07T22:12:45.019Z,170448.44,1636322981,full,ni_sequenzen,NI_Sequenzen,,,,,,,,,,,,,,
,Screen_3,canvas.Screen,0_4_14_2,,skipped,15,170307,,,170303,,170307,2021-11-07T22:12:45.021Z,170448.44,1636322981,full,ni_sequenzen,NI_Sequenzen,,,,,,,,,,,,,,
,Sequence,flow.Sequence,0_4_14,,completion,15,170302,,,170303,,170307,2021-11-07T22:12:45.021Z,170448.44,1636322981,full,ni_sequenzen,NI_Sequenzen,,,,,,,,,,,,,,
,Screen_1,canvas.Screen,0_4_15_0,,skipped,16,170309,,,170309,,170310,2021-11-07T22:12:45.023Z,170448.44,1636322981,full,ni_sequenzen,NI_Sequenzen,,,,,,,,,,,,,,
,Screen_2,canvas.Screen,0_4_15_1,,skipped,16,170311,,,170309,,170311,2021-11-07T22:12:45.024Z,170448.44,1636322981,full,ni_sequenzen,NI_Sequenzen,,,,,,,,,,,,,,
,Screen_3,canvas.Screen,0_4_15_2,,skipped,16,170312,,,170309,,170312,2021-11-07T22:12:45.026Z,170448.44,1636322981,full,ni_sequenzen,NI_Sequenzen,,,,,,,,,,,,,,
,Sequence,flow.Sequence,0_4_15,,completion,16,170308,,,170309,,170312,2021-11-07T22:12:45.026Z,170448.44,1636322981,full,ni_sequenzen,NI_Sequenzen,,,,,,,,,,,,,,
,Screen_1,canvas.Screen,0_4_16_0,,skipped,17,170314,,,170314,,170314,2021-11-07T22:12:45.028Z,170448.44,1636322981,full,ni_sequenzen,NI_Sequenzen,,,,,,,,,,,,,,
,Screen_2,canvas.Screen,0_4_16_1,,skipped,17,170316,,,170314,,170316,2021-11-07T22:12:45.030Z,170448.44,1636322981,full,ni_sequenzen,NI_Sequenzen,,,,,,,,,,,,,,
,Screen_3,canvas.Screen,0_4_16_2,,skipped,17,170318,,,170314,,170318,2021-11-07T22:12:45.032Z,170448.44,1636322981,full,ni_sequenzen,NI_Sequenzen,,,,,,,,,,,,,,
,Sequence,flow.Sequence,0_4_16,,completion,17,170313,,,170314,,170318,2021-11-07T22:12:45.032Z,170448.44,1636322981,full,ni_sequenzen,NI_Sequenzen,,,,,,,,,,,,,,
,Screen_1,canvas.Screen,0_4_17_0,,skipped,18,170320,,,170320,,170320,2021-11-07T22:12:45.034Z,170448.44,1636322981,full,ni_sequenzen,NI_Sequenzen,,,,,,,,,,,,,,
,Screen_2,canvas.Screen,0_4_17_1,,skipped,18,170322,,,170320,,170322,2021-11-07T22:12:45.035Z,170448.44,1636322981,full,ni_sequenzen,NI_Sequenzen,,,,,,,,,,,,,,
,Screen_3,canvas.Screen,0_4_17_2,,skipped,18,170323,,,170320,,170323,2021-11-07T22:12:45.037Z,170448.44,1636322981,full,ni_sequenzen,NI_Sequenzen,,,,,,,,,,,,,,
,Sequence,flow.Sequence,0_4_17,,completion,18,170319,,,170320,,170324,2021-11-07T22:12:45.037Z,170448.44,1636322981,full,ni_sequenzen,NI_Sequenzen,,,,,,,,,,,,,,
,Screen_1,canvas.Screen,0_4_18_0,,skipped,19,170326,,,170326,,170326,2021-11-07T22:12:45.039Z,170448.44,1636322981,full,ni_sequenzen,NI_Sequenzen,,,,,,,,,,,,,,
,Screen_2,canvas.Screen,0_4_18_1,,skipped,19,170327,,,170326,,170327,2021-11-07T22:12:45.041Z,170448.44,1636322981,full,ni_sequenzen,NI_Sequenzen,,,,,,,,,,,,,,
,Screen_3,canvas.Screen,0_4_18_2,,skipped,19,170330,,,170326,,170330,2021-11-07T22:12:45.044Z,170448.44,1636322981,full,ni_sequenzen,NI_Sequenzen,,,,,,,,,,,,,,
