meta,sender,sender_type,sender_id,response,ended_on,instrCount,time_run,time_render,time_show,time_end,duration,time_commit,timestamp,time_switch,openLabId,type,task,project,move,trialN,blockN_Train,blockN,moveCount,currPP,points,movesTrial,visitedFields,diff,reward,Strategie,Zweck,Probleme
[object Object],Screen_1,canvas.Screen,0_0_0_0,cont,response,1,928.4000000357628,916.454,956.526,50837.700000047684,49881.174000047686,50840.10000002384,2021-11-05T22:45:00.832Z,51024.074,1636152235,full,ni_sequenzen,NI_Sequenzen,,,,,,,,,,,,,,
,Screen_2,canvas.Screen,0_0_0_1,cont,response,1,51021.90000003576,51004.031,51024.074,96572.80000001192,45548.72600001192,96573.40000003576,2021-11-05T22:45:46.565Z,96708.975,1636152235,full,ni_sequenzen,NI_Sequenzen,,,,,,,,,,,,,,
,Screen_3,canvas.Screen,0_0_0_2,cont,response,1,96694,96688.93,96708.975,148223.80000001192,51514.825000011915,148224.5,2021-11-05T22:46:38.216Z,148247.104,1636152235,full,ni_sequenzen,NI_Sequenzen,,,,,,,,,,,,,,
,Screen_4,canvas.Screen,0_0_0_3,cont,response,1,148228.20000004768,148227.058,148247.104,160657.10000002384,12409.99600002385,160657.60000002384,2021-11-05T22:46:50.649Z,160907.583,1636152235,full,ni_sequenzen,NI_Sequenzen,,,,,,,,,,,,,,
,Sequence,flow.Sequence,0_0_0,,completion,1,804.7000000476837,916.454,956.526,160657.10000002384,159700.57400002383,160660,2021-11-05T22:46:50.651Z,160907.583,1636152235,full,ni_sequenzen,NI_Sequenzen,,,,,,,,,,,,,,
,Screen_1,canvas.Screen,0_0_1_0,,skipped,2,160662.10000002384,,,160662.10000002384,,160662.20000004768,2021-11-05T22:46:50.654Z,160907.583,1636152235,full,ni_sequenzen,NI_Sequenzen,,,,,,,,,,,,,,
,Screen_2,canvas.Screen,0_0_1_1,,skipped,2,160663.40000003576,,,160662.10000002384,,160663.5,2021-11-05T22:46:50.655Z,160907.583,1636152235,full,ni_sequenzen,NI_Sequenzen,,,,,,,,,,,,,,
,Screen_3,canvas.Screen,0_0_1_2,,skipped,2,160664.70000004768,,,160662.10000002384,,160664.80000001192,2021-11-05T22:46:50.656Z,160907.583,1636152235,full,ni_sequenzen,NI_Sequenzen,,,,,,,,,,,,,,
,Screen_4,canvas.Screen,0_0_1_3,,skipped,2,160666,,,160662.10000002384,,160666.30000001192,2021-11-05T22:46:50.658Z,160907.583,1636152235,full,ni_sequenzen,NI_Sequenzen,,,,,,,,,,,,,,
,Sequence,flow.Sequence,0_0_1,,completion,2,160660.90000003576,,,160662.10000002384,,160666.5,2021-11-05T22:46:50.658Z,160907.583,1636152235,full,ni_sequenzen,NI_Sequenzen,,,,,,,,,,,,,,
,Screen_1,canvas.Screen,0_0_2_0,,skipped,3,160667.80000001192,,,160667.80000001192,,160667.90000003576,2021-11-05T22:46:50.659Z,160907.583,1636152235,full,ni_sequenzen,NI_Sequenzen,,,,,,,,,,,,,,
,Screen_2,canvas.Screen,0_0_2_1,,skipped,3,160668.90000003576,,,160667.80000001192,,160668.90000003576,2021-11-05T22:46:50.660Z,160907.583,1636152235,full,ni_sequenzen,NI_Sequenzen,,,,,,,,,,,,,,
,Screen_3,canvas.Screen,0_0_2_2,,skipped,3,160670,,,160667.80000001192,,160670.10000002384,2021-11-05T22:46:50.662Z,160907.583,1636152235,full,ni_sequenzen,NI_Sequenzen,,,,,,,,,,,,,,
,Screen_4,canvas.Screen,0_0_2_3,,skipped,3,160671,,,160667.80000001192,,160671.20000004768,2021-11-05T22:46:50.663Z,160907.583,1636152235,full,ni_sequenzen,NI_Sequenzen,,,,,,,,,,,,,,
,Sequence,flow.Sequence,0_0_2,,completion,3,160667,,,160667.80000001192,,160671.30000001192,2021-11-05T22:46:50.663Z,160907.583,1636152235,full,ni_sequenzen,NI_Sequenzen,,,,,,,,,,,,,,
,Screen_1,canvas.Screen,0_0_3_0,,skipped,4,160672.5,,,160672.5,,160672.60000002384,2021-11-05T22:46:50.664Z,160907.583,1636152235,full,ni_sequenzen,NI_Sequenzen,,,,,,,,,,,,,,
,Screen_2,canvas.Screen,0_0_3_1,,skipped,4,160674.20000004768,,,160672.5,,160674.40000003576,2021-11-05T22:46:50.666Z,160907.583,1636152235,full,ni_sequenzen,NI_Sequenzen,,,,,,,,,,,,,,
,Screen_3,canvas.Screen,0_0_3_2,,skipped,4,160675.5,,,160672.5,,160675.60000002384,2021-11-05T22:46:50.667Z,160907.583,1636152235,full,ni_sequenzen,NI_Sequenzen,,,,,,,,,,,,,,
,Screen_4,canvas.Screen,0_0_3_3,,skipped,4,160676.40000003576,,,160672.5,,160676.5,2021-11-05T22:46:50.668Z,160907.583,1636152235,full,ni_sequenzen,NI_Sequenzen,,,,,,,,,,,,,,
,Sequence,flow.Sequence,0_0_3,,completion,4,160671.60000002384,,,160672.5,,160676.60000002384,2021-11-05T22:46:50.668Z,160907.583,1636152235,full,ni_sequenzen,NI_Sequenzen,,,,,,,,,,,,,,
,Screen_1,canvas.Screen,0_0_4_0,,skipped,5,160677.80000001192,,,160677.80000001192,,160677.80000001192,2021-11-05T22:46:50.669Z,160907.583,1636152235,full,ni_sequenzen,NI_Sequenzen,,,,,,,,,,,,,,
,Screen_2,canvas.Screen,0_0_4_1,,skipped,5,160678.60000002384,,,160677.80000001192,,160678.70000004768,2021-11-05T22:46:50.670Z,160907.583,1636152235,full,ni_sequenzen,NI_Sequenzen,,,,,,,,,,,,,,
,Screen_3,canvas.Screen,0_0_4_2,,skipped,5,160679.40000003576,,,160677.80000001192,,160679.5,2021-11-05T22:46:50.671Z,160907.583,1636152235,full,ni_sequenzen,NI_Sequenzen,,,,,,,,,,,,,,
,Screen_4,canvas.Screen,0_0_4_3,,skipped,5,160680.5,,,160677.80000001192,,160680.5,2021-11-05T22:46:50.672Z,160907.583,1636152235,full,ni_sequenzen,NI_Sequenzen,,,,,,,,,,,,,,
,Sequence,flow.Sequence,0_0_4,,completion,5,160677,,,160677.80000001192,,160680.60000002384,2021-11-05T22:46:50.672Z,160907.583,1636152235,full,ni_sequenzen,NI_Sequenzen,,,,,,,,,,,,,,
,Screen_1,canvas.Screen,0_0_5_0,,skipped,6,160681.70000004768,,,160681.70000004768,,160681.90000003576,2021-11-05T22:46:50.673Z,160907.583,1636152235,full,ni_sequenzen,NI_Sequenzen,,,,,,,,,,,,,,
,Screen_2,canvas.Screen,0_0_5_1,,skipped,6,160682.60000002384,,,160681.70000004768,,160682.70000004768,2021-11-05T22:46:50.674Z,160907.583,1636152235,full,ni_sequenzen,NI_Sequenzen,,,,,,,,,,,,,,
,Screen_3,canvas.Screen,0_0_5_2,,skipped,6,160683.60000002384,,,160681.70000004768,,160683.70000004768,2021-11-05T22:46:50.675Z,160907.583,1636152235,full,ni_sequenzen,NI_Sequenzen,,,,,,,,,,,,,,
,Screen_4,canvas.Screen,0_0_5_3,,skipped,6,160684.5,,,160681.70000004768,,160684.60000002384,2021-11-05T22:46:50.676Z,160907.583,1636152235,full,ni_sequenzen,NI_Sequenzen,,,,,,,,,,,,,,
,Sequence,flow.Sequence,0_0_5,,completion,6,160681.10000002384,,,160681.70000004768,,160684.70000004768,2021-11-05T22:46:50.676Z,160907.583,1636152235,full,ni_sequenzen,NI_Sequenzen,,,,,,,,,,,,,,
,Screen_1,canvas.Screen,0_0_6_0,,skipped,7,160685.80000001192,,,160685.80000001192,,160685.80000001192,2021-11-05T22:46:50.677Z,160907.583,1636152235,full,ni_sequenzen,NI_Sequenzen,,,,,,,,,,,,,,
,Screen_2,canvas.Screen,0_0_6_1,,skipped,7,160686.5,,,160685.80000001192,,160686.70000004768,2021-11-05T22:46:50.678Z,160907.583,1636152235,full,ni_sequenzen,NI_Sequenzen,,,,,,,,,,,,,,
,Screen_3,canvas.Screen,0_0_6_2,,skipped,7,160688.40000003576,,,160685.80000001192,,160688.40000003576,2021-11-05T22:46:50.680Z,160907.583,1636152235,full,ni_sequenzen,NI_Sequenzen,,,,,,,,,,,,,,
,Screen_4,canvas.Screen,0_0_6_3,,skipped,7,160689.30000001192,,,160685.80000001192,,160689.40000003576,2021-11-05T22:46:50.681Z,160907.583,1636152235,full,ni_sequenzen,NI_Sequenzen,,,,,,,,,,,,,,
,Sequence,flow.Sequence,0_0_6,,completion,7,160685,,,160685.80000001192,,160689.5,2021-11-05T22:46:50.681Z,160907.583,1636152235,full,ni_sequenzen,NI_Sequenzen,,,,,,,,,,,,,,
,Screen_1,canvas.Screen,0_0_7_0,,skipped,8,160690.60000002384,,,160690.60000002384,,160690.60000002384,2021-11-05T22:46:50.682Z,160907.583,1636152235,full,ni_sequenzen,NI_Sequenzen,,,,,,,,,,,,,,
,Screen_2,canvas.Screen,0_0_7_1,,skipped,8,160691.40000003576,,,160690.60000002384,,160691.5,2021-11-05T22:46:50.683Z,160907.583,1636152235,full,ni_sequenzen,NI_Sequenzen,,,,,,,,,,,,,,
,Screen_3,canvas.Screen,0_0_7_2,,skipped,8,160692.70000004768,,,160690.60000002384,,160692.80000001192,2021-11-05T22:46:50.684Z,160907.583,1636152235,full,ni_sequenzen,NI_Sequenzen,,,,,,,,,,,,,,
,Screen_4,canvas.Screen,0_0_7_3,,skipped,8,160693.80000001192,,,160690.60000002384,,160693.90000003576,2021-11-05T22:46:50.685Z,160907.583,1636152235,full,ni_sequenzen,NI_Sequenzen,,,,,,,,,,,,,,
,Sequence,flow.Sequence,0_0_7,,completion,8,160689.80000001192,,,160690.60000002384,,160694,2021-11-05T22:46:50.685Z,160907.583,1636152235,full,ni_sequenzen,NI_Sequenzen,,,,,,,,,,,,,,
,Screen_1,canvas.Screen,0_0_8_0,,skipped,9,160695.10000002384,,,160695.10000002384,,160695.10000002384,2021-11-05T22:46:50.687Z,160907.583,1636152235,full,ni_sequenzen,NI_Sequenzen,,,,,,,,,,,,,,
,Screen_2,canvas.Screen,0_0_8_1,,skipped,9,160695.90000003576,,,160695.10000002384,,160696,2021-11-05T22:46:50.687Z,160907.583,1636152235,full,ni_sequenzen,NI_Sequenzen,,,,,,,,,,,,,,
,Screen_3,canvas.Screen,0_0_8_2,,skipped,9,160696.80000001192,,,160695.10000002384,,160696.90000003576,2021-11-05T22:46:50.688Z,160907.583,1636152235,full,ni_sequenzen,NI_Sequenzen,,,,,,,,,,,,,,
,Screen_4,canvas.Screen,0_0_8_3,,skipped,9,160697.60000002384,,,160695.10000002384,,160697.70000004768,2021-11-05T22:46:50.689Z,160907.583,1636152235,full,ni_sequenzen,NI_Sequenzen,,,,,,,,,,,,,,
,Sequence,flow.Sequence,0_0_8,,completion,9,160694.40000003576,,,160695.10000002384,,160697.90000003576,2021-11-05T22:46:50.689Z,160907.583,1636152235,full,ni_sequenzen,NI_Sequenzen,,,,,,,,,,,,,,
,Screen_1,canvas.Screen,0_0_9_0,,skipped,10,160699.10000002384,,,160699.10000002384,,160699.10000002384,2021-11-05T22:46:50.691Z,160907.583,1636152235,full,ni_sequenzen,NI_Sequenzen,,,,,,,,,,,,,,
,Screen_2,canvas.Screen,0_0_9_1,,skipped,10,160700,,,160699.10000002384,,160700.10000002384,2021-11-05T22:46:50.691Z,160907.583,1636152235,full,ni_sequenzen,NI_Sequenzen,,,,,,,,,,,,,,
,Screen_3,canvas.Screen,0_0_9_2,,skipped,10,160700.90000003576,,,160699.10000002384,,160701,2021-11-05T22:46:50.692Z,160907.583,1636152235,full,ni_sequenzen,NI_Sequenzen,,,,,,,,,,,,,,
,Screen_4,canvas.Screen,0_0_9_3,,skipped,10,160702,,,160699.10000002384,,160702.10000002384,2021-11-05T22:46:50.693Z,160907.583,1636152235,full,ni_sequenzen,NI_Sequenzen,,,,,,,,,,,,,,
,Sequence,flow.Sequence,0_0_9,,completion,10,160698.20000004768,,,160699.10000002384,,160702.20000004768,2021-11-05T22:46:50.694Z,160907.583,1636152235,full,ni_sequenzen,NI_Sequenzen,,,,,,,,,,,,,,
,Screen_1,canvas.Screen,0_0_10_0,,skipped,11,160704.60000002384,,,160704.60000002384,,160704.70000004768,2021-11-05T22:46:50.696Z,160907.583,1636152235,full,ni_sequenzen,NI_Sequenzen,,,,,,,,,,,,,,
,Screen_2,canvas.Screen,0_0_10_1,,skipped,11,160705.5,,,160704.60000002384,,160705.60000002384,2021-11-05T22:46:50.697Z,160907.583,1636152235,full,ni_sequenzen,NI_Sequenzen,,,,,,,,,,,,,,
,Screen_3,canvas.Screen,0_0_10_2,,skipped,11,160706.40000003576,,,160704.60000002384,,160706.5,2021-11-05T22:46:50.698Z,160907.583,1636152235,full,ni_sequenzen,NI_Sequenzen,,,,,,,,,,,,,,
,Screen_4,canvas.Screen,0_0_10_3,,skipped,11,160707.30000001192,,,160704.60000002384,,160707.40000003576,2021-11-05T22:46:50.699Z,160907.583,1636152235,full,ni_sequenzen,NI_Sequenzen,,,,,,,,,,,,,,
,Sequence,flow.Sequence,0_0_10,,completion,11,160703.60000002384,,,160704.60000002384,,160707.60000002384,2021-11-05T22:46:50.699Z,160907.583,1636152235,full,ni_sequenzen,NI_Sequenzen,,,,,,,,,,,,,,
,Screen_1,canvas.Screen,0_0_11_0,,skipped,12,160708.5,,,160708.5,,160708.60000002384,2021-11-05T22:46:50.700Z,160907.583,1636152235,full,ni_sequenzen,NI_Sequenzen,,,,,,,,,,,,,,
,Screen_2,canvas.Screen,0_0_11_1,,skipped,12,160710.60000002384,,,160708.5,,160710.70000004768,2021-11-05T22:46:50.702Z,160907.583,1636152235,full,ni_sequenzen,NI_Sequenzen,,,,,,,,,,,,,,
,Screen_3,canvas.Screen,0_0_11_2,,skipped,12,160712.40000003576,,,160708.5,,160712.5,2021-11-05T22:46:50.704Z,160907.583,1636152235,full,ni_sequenzen,NI_Sequenzen,,,,,,,,,,,,,,
,Screen_4,canvas.Screen,0_0_11_3,,skipped,12,160714.10000002384,,,160708.5,,160714.20000004768,2021-11-05T22:46:50.706Z,160907.583,1636152235,full,ni_sequenzen,NI_Sequenzen,,,,,,,,,,,,,,
,Sequence,flow.Sequence,0_0_11,,completion,12,160707.80000001192,,,160708.5,,160714.5,2021-11-05T22:46:50.706Z,160907.583,1636152235,full,ni_sequenzen,NI_Sequenzen,,,,,,,,,,,,,,
,Screen_1,canvas.Screen,0_0_12_0,,skipped,13,160716.10000002384,,,160716.10000002384,,160716.30000001192,2021-11-05T22:46:50.708Z,160907.583,1636152235,full,ni_sequenzen,NI_Sequenzen,,,,,,,,,,,,,,
,Screen_2,canvas.Screen,0_0_12_1,,skipped,13,160717.30000001192,,,160716.10000002384,,160717.40000003576,2021-11-05T22:46:50.709Z,160907.583,1636152235,full,ni_sequenzen,NI_Sequenzen,,,,,,,,,,,,,,
,Screen_3,canvas.Screen,0_0_12_2,,skipped,13,160718.5,,,160716.10000002384,,160718.60000002384,2021-11-05T22:46:50.710Z,160907.583,1636152235,full,ni_sequenzen,NI_Sequenzen,,,,,,,,,,,,,,
,Screen_4,canvas.Screen,0_0_12_3,,skipped,13,160719.40000003576,,,160716.10000002384,,160719.40000003576,2021-11-05T22:46:50.711Z,160907.583,1636152235,full,ni_sequenzen,NI_Sequenzen,,,,,,,,,,,,,,
,Sequence,flow.Sequence,0_0_12,,completion,13,160715,,,160716.10000002384,,160719.60000002384,2021-11-05T22:46:50.711Z,160907.583,1636152235,full,ni_sequenzen,NI_Sequenzen,,,,,,,,,,,,,,
,Screen_1,canvas.Screen,0_0_13_0,,skipped,14,160720.60000002384,,,160720.60000002384,,160720.60000002384,2021-11-05T22:46:50.712Z,160907.583,1636152235,full,ni_sequenzen,NI_Sequenzen,,,,,,,,,,,,,,
,Screen_2,canvas.Screen,0_0_13_1,,skipped,14,160722.10000002384,,,160720.60000002384,,160722.20000004768,2021-11-05T22:46:50.714Z,160907.583,1636152235,full,ni_sequenzen,NI_Sequenzen,,,,,,,,,,,,,,
,Screen_3,canvas.Screen,0_0_13_2,,skipped,14,160723,,,160720.60000002384,,160723,2021-11-05T22:46:50.714Z,160907.583,1636152235,full,ni_sequenzen,NI_Sequenzen,,,,,,,,,,,,,,
,Screen_4,canvas.Screen,0_0_13_3,,skipped,14,160723.90000003576,,,160720.60000002384,,160723.90000003576,2021-11-05T22:46:50.715Z,160907.583,1636152235,full,ni_sequenzen,NI_Sequenzen,,,,,,,,,,,,,,
,Sequence,flow.Sequence,0_0_13,,completion,14,160719.90000003576,,,160720.60000002384,,160724,2021-11-05T22:46:50.715Z,160907.583,1636152235,full,ni_sequenzen,NI_Sequenzen,,,,,,,,,,,,,,
,Screen_1,canvas.Screen,0_0_14_0,,skipped,15,160725.10000002384,,,160725.10000002384,,160725.20000004768,2021-11-05T22:46:50.717Z,160907.583,1636152235,full,ni_sequenzen,NI_Sequenzen,,,,,,,,,,,,,,
,Screen_2,canvas.Screen,0_0_14_1,,skipped,15,160725.90000003576,,,160725.10000002384,,160725.90000003576,2021-11-05T22:46:50.717Z,160907.583,1636152235,full,ni_sequenzen,NI_Sequenzen,,,,,,,,,,,,,,
,Screen_3,canvas.Screen,0_0_14_2,,skipped,15,160726.80000001192,,,160725.10000002384,,160726.90000003576,2021-11-05T22:46:50.718Z,160907.583,1636152235,full,ni_sequenzen,NI_Sequenzen,,,,,,,,,,,,,,
,Screen_4,canvas.Screen,0_0_14_3,,skipped,15,160727.70000004768,,,160725.10000002384,,160727.80000001192,2021-11-05T22:46:50.719Z,160907.583,1636152235,full,ni_sequenzen,NI_Sequenzen,,,,,,,,,,,,,,
,Sequence,flow.Sequence,0_0_14,,completion,15,160724.40000003576,,,160725.10000002384,,160727.90000003576,2021-11-05T22:46:50.719Z,160907.583,1636152235,full,ni_sequenzen,NI_Sequenzen,,,,,,,,,,,,,,
,Screen_1,canvas.Screen,0_0_15_0,,skipped,16,160728.90000003576,,,160728.90000003576,,160729,2021-11-05T22:46:50.720Z,160907.583,1636152235,full,ni_sequenzen,NI_Sequenzen,,,,,,,,,,,,,,
,Screen_2,canvas.Screen,0_0_15_1,,skipped,16,160729.70000004768,,,160728.90000003576,,160729.80000001192,2021-11-05T22:46:50.721Z,160907.583,1636152235,full,ni_sequenzen,NI_Sequenzen,,,,,,,,,,,,,,
,Screen_3,canvas.Screen,0_0_15_2,,skipped,16,160730.70000004768,,,160728.90000003576,,160730.80000001192,2021-11-05T22:46:50.722Z,160907.583,1636152235,full,ni_sequenzen,NI_Sequenzen,,,,,,,,,,,,,,
,Screen_4,canvas.Screen,0_0_15_3,,skipped,16,160733.20000004768,,,160728.90000003576,,160733.40000003576,2021-11-05T22:46:50.725Z,160907.583,1636152235,full,ni_sequenzen,NI_Sequenzen,,,,,,,,,,,,,,
,Sequence,flow.Sequence,0_0_15,,completion,16,160728.30000001192,,,160728.90000003576,,160733.60000002384,2021-11-05T22:46:50.725Z,160907.583,1636152235,full,ni_sequenzen,NI_Sequenzen,,,,,,,,,,,,,,
,Screen_1,canvas.Screen,0_0_16_0,,skipped,17,160735.40000003576,,,160735.40000003576,,160735.60000002384,2021-11-05T22:46:50.727Z,160907.583,1636152235,full,ni_sequenzen,NI_Sequenzen,,,,,,,,,,,,,,
,Screen_2,canvas.Screen,0_0_16_1,,skipped,17,160743.90000003576,,,160735.40000003576,,160744,2021-11-05T22:46:50.735Z,160907.583,1636152235,full,ni_sequenzen,NI_Sequenzen,,,,,,,,,,,,,,
,Screen_3,canvas.Screen,0_0_16_2,,skipped,17,160744.90000003576,,,160735.40000003576,,160744.90000003576,2021-11-05T22:46:50.736Z,160907.583,1636152235,full,ni_sequenzen,NI_Sequenzen,,,,,,,,,,,,,,
,Screen_4,canvas.Screen,0_0_16_3,,skipped,17,160745.90000003576,,,160735.40000003576,,160745.90000003576,2021-11-05T22:46:50.737Z,160907.583,1636152235,full,ni_sequenzen,NI_Sequenzen,,,,,,,,,,,,,,
,Sequence,flow.Sequence,0_0_16,,completion,17,160734.20000004768,,,160735.40000003576,,160746,2021-11-05T22:46:50.737Z,160907.583,1636152235,full,ni_sequenzen,NI_Sequenzen,,,,,,,,,,,,,,
,Screen_1,canvas.Screen,0_0_17_0,,skipped,18,160747.10000002384,,,160747.10000002384,,160747.20000004768,2021-11-05T22:46:50.739Z,160907.583,1636152235,full,ni_sequenzen,NI_Sequenzen,,,,,,,,,,,,,,
,Screen_2,canvas.Screen,0_0_17_1,,skipped,18,160747.90000003576,,,160747.10000002384,,160748,2021-11-05T22:46:50.739Z,160907.583,1636152235,full,ni_sequenzen,NI_Sequenzen,,,,,,,,,,,,,,
,Screen_3,canvas.Screen,0_0_17_2,,skipped,18,160748.70000004768,,,160747.10000002384,,160748.80000001192,2021-11-05T22:46:50.740Z,160907.583,1636152235,full,ni_sequenzen,NI_Sequenzen,,,,,,,,,,,,,,
,Screen_4,canvas.Screen,0_0_17_3,,skipped,18,160749.60000002384,,,160747.10000002384,,160749.70000004768,2021-11-05T22:46:50.741Z,160907.583,1636152235,full,ni_sequenzen,NI_Sequenzen,,,,,,,,,,,,,,
,Sequence,flow.Sequence,0_0_17,,completion,18,160746.30000001192,,,160747.10000002384,,160749.70000004768,2021-11-05T22:46:50.741Z,160907.583,1636152235,full,ni_sequenzen,NI_Sequenzen,,,,,,,,,,,,,,
,Screen_1,canvas.Screen,0_0_18_0,,skipped,19,160750.80000001192,,,160750.80000001192,,160750.80000001192,2021-11-05T22:46:50.742Z,160907.583,1636152235,full,ni_sequenzen,NI_Sequenzen,,,,,,,,,,,,,,
,Screen_2,canvas.Screen,0_0_18_1,,skipped,19,160751.5,,,160750.80000001192,,160751.5,2021-11-05T22:46:50.743Z,160907.583,1636152235,full,ni_sequenzen,NI_Sequenzen,,,,,,,,,,,,,,
,Screen_3,canvas.Screen,0_0_18_2,,skipped,19,160752.30000001192,,,160750.80000001192,,160752.40000003576,2021-11-05T22:46:50.744Z,160907.583,1636152235,full,ni_sequenzen,NI_Sequenzen,,,,,,,,,,,,,,
,Screen_4,canvas.Screen,0_0_18_3,,skipped,19,160753.20000004768,,,160750.80000001192,,160753.20000004768,2021-11-05T22:46:50.745Z,160907.583,1636152235,full,ni_sequenzen,NI_Sequenzen,,,,,,,,,,,,,,
,Sequence,flow.Sequence,0_0_18,,completion,19,160750.10000002384,,,160750.80000001192,,160753.40000003576,2021-11-05T22:46:50.745Z,160907.583,1636152235,full,ni_sequenzen,NI_Sequenzen,,,,,,,,,,,,,,
,Screen_1,canvas.Screen,0_0_19_0,,skipped,20,160754.40000003576,,,160754.40000003576,,160754.5,2021-11-05T22:46:50.746Z,160907.583,1636152235,full,ni_sequenzen,NI_Sequenzen,,,,,,,,,,,,,,
,Screen_2,canvas.Screen,0_0_19_1,,skipped,20,160755.10000002384,,,160754.40000003576,,160755.10000002384,2021-11-05T22:46:50.747Z,160907.583,1636152235,full,ni_sequenzen,NI_Sequenzen,,,,,,,,,,,,,,
,Screen_3,canvas.Screen,0_0_19_2,,skipped,20,160756.10000002384,,,160754.40000003576,,160756.10000002384,2021-11-05T22:46:50.747Z,160907.583,1636152235,full,ni_sequenzen,NI_Sequenzen,,,,,,,,,,,,,,
,Screen_4,canvas.Screen,0_0_19_3,,skipped,20,160756.80000001192,,,160754.40000003576,,160756.90000003576,2021-11-05T22:46:50.748Z,160907.583,1636152235,full,ni_sequenzen,NI_Sequenzen,,,,,,,,,,,,,,
,Sequence,flow.Sequence,0_0_19,,completion,20,160753.70000004768,,,160754.40000003576,,160757,2021-11-05T22:46:50.748Z,160907.583,1636152235,full,ni_sequenzen,NI_Sequenzen,,,,,,,,,,,,,,
,Instructions_I,flow.Loop,0_0,,completion,,803.7000000476837,916.454,956.526,160754.40000003576,159797.87400003575,160757.20000004768,2021-11-05T22:46:50.749Z,160907.583,1636152235,full,ni_sequenzen,NI_Sequenzen,,,,,,,,,,,,,,
,Move,canvas.Screen,0_1_0_0,left,response,,160897.5,160887.54,160907.583,165214.60000002384,4307.017000023829,165215.30000001192,2021-11-05T22:46:55.207Z,165238.697,1636152235,full,ni_sequenzen,NI_Sequenzen,1,,,,,,,,,,,,,
,Move,canvas.Screen,0_1_0_1,left,response,,165218.70000004768,165218.655,165238.697,165779.70000004768,541.0030000476982,165780.30000001192,2021-11-05T22:46:55.772Z,165800.912,1636152235,full,ni_sequenzen,NI_Sequenzen,2,,,,,,,,,,,,,
,Move,canvas.Screen,0_1_0_2,right,response,,165783.20000004768,165780.872,165800.912,167247.70000004768,1446.7880000476725,167248.10000002384,2021-11-05T22:46:57.240Z,167264.863,1636152235,full,ni_sequenzen,NI_Sequenzen,3,,,,,,,,,,,,,
,Move,canvas.Screen,0_1_0_3,down,response,,167249.80000001192,167244.823,167264.863,171326.80000001192,4061.937000011909,171327.30000001192,2021-11-05T22:47:01.319Z,171334.194,1636152235,full,ni_sequenzen,NI_Sequenzen,4,,,,,,,,,,,,,
,Move,canvas.Screen,0_1_0_4,right,response,,171328.90000003576,171314.15,171334.194,172762.10000002384,1427.9060000238533,172762.60000002384,2021-11-05T22:47:02.754Z,172777.165,1636152235,full,ni_sequenzen,NI_Sequenzen,5,,,,,,,,,,,,,
,Move,canvas.Screen,0_1_0_5,down,response,,172764.80000001192,172757.125,172777.165,174053.90000003576,1276.7350000357546,174054.5,2021-11-05T22:47:04.046Z,174059.721,1636152235,full,ni_sequenzen,NI_Sequenzen,6,,,,,,,,,,,,,
,Move,canvas.Screen,0_1_0_6,right,response,,174056.30000001192,174039.681,174059.721,174538.90000003576,479.17900003577233,174539.5,2021-11-05T22:47:04.531Z,174561.33,1636152235,full,ni_sequenzen,NI_Sequenzen,7,,,,,,,,,,,,,
,Move,canvas.Screen,0_1_0_7,down,response,,174541.30000001192,174541.29,174561.33,174960.40000003576,399.0700000357756,174961,2021-11-05T22:47:04.952Z,174982.276,1636152235,full,ni_sequenzen,NI_Sequenzen,8,,,,,,,,,,,,,
,Move,canvas.Screen,0_1_0_8,right,response,,174962.80000001192,174962.236,174982.276,175389.60000002384,407.3240000238293,175390.30000001192,2021-11-05T22:47:05.382Z,175403.198,1636152235,full,ni_sequenzen,NI_Sequenzen,9,,,,,,,,,,,,,
,Move,canvas.Screen,0_1_0_9,down,response,,175392.20000004768,175383.158,175403.198,175770.90000003576,367.70200003575883,175771.5,2021-11-05T22:47:05.763Z,175784.013,1636152235,full,ni_sequenzen,NI_Sequenzen,10,,,,,,,,,,,,,
,Move,canvas.Screen,0_1_0_10,right,response,,175773.20000004768,175763.972,175784.013,176160.40000003576,376.3870000357565,176160.90000003576,2021-11-05T22:47:06.152Z,176164.946,1636152235,full,ni_sequenzen,NI_Sequenzen,11,,,,,,,,,,,,,
,Move,canvas.Screen,0_1_0_11,down,response,,176162.90000003576,176144.901,176164.946,177028.60000002384,863.6540000238456,177029.20000004768,2021-11-05T22:47:07.021Z,177047.103,1636152235,full,ni_sequenzen,NI_Sequenzen,12,,,,,,,,,,,,,
,Move,canvas.Screen,0_1_0_12,down,response,,177030.70000004768,177027.055,177047.103,177354.10000002384,306.99700002383906,177354.60000002384,2021-11-05T22:47:07.346Z,177367.682,1636152235,full,ni_sequenzen,NI_Sequenzen,13,,,,,,,,,,,,,
,Move,canvas.Screen,0_1_0_13,down,response,,177356.5,177347.636,177367.682,177703.60000002384,335.91800002384116,177704.10000002384,2021-11-05T22:47:07.695Z,177708.443,1636152235,full,ni_sequenzen,NI_Sequenzen,14,,,,,,,,,,,,,
,Move,canvas.Screen,0_1_0_14,left,response,,177706.30000001192,177688.397,177708.443,180983.40000003576,3274.9570000357635,180983.90000003576,2021-11-05T22:47:10.975Z,180995.735,1636152235,full,ni_sequenzen,NI_Sequenzen,15,,,,,,,,,,,,,
,Move,canvas.Screen,0_1_0_15,down,response,,180985.80000001192,180975.69,180995.735,183154.60000002384,2158.865000023856,183155.10000002384,2021-11-05T22:47:13.146Z,183160.665,1636152235,full,ni_sequenzen,NI_Sequenzen,16,,,,,,,,,,,,,
,Move,canvas.Screen,0_1_0_16,right,response,,183156.70000004768,183140.619,183160.665,184062.90000003576,902.2350000357546,184063.40000003576,2021-11-05T22:47:14.055Z,184082.565,1636152235,full,ni_sequenzen,NI_Sequenzen,17,,,,,,,,,,,,,
,Move,canvas.Screen,0_1_0_17,down,response,,184065.20000004768,184062.52,184082.565,185171.10000002384,1088.5350000238395,185171.60000002384,2021-11-05T22:47:15.163Z,185185.016,1636152235,full,ni_sequenzen,NI_Sequenzen,18,,,,,,,,,,,,,
,Move,canvas.Screen,0_1_0_18,left,response,,185173.40000003576,185164.971,185185.016,185647.80000001192,462.78400001191767,185648.30000001192,2021-11-05T22:47:15.640Z,185666.065,1636152235,full,ni_sequenzen,NI_Sequenzen,19,,,,,,,,,,,,,
,Move,canvas.Screen,0_1_0_19,down,response,,185650.40000003576,185646.02,185666.065,186828.20000004768,1162.1350000476814,186828.70000004768,2021-11-05T22:47:16.820Z,186848.627,1636152235,full,ni_sequenzen,NI_Sequenzen,20,,,,,,,,,,,,,
,Move,canvas.Screen,0_1_0_20,left,response,,186830.40000003576,186828.583,186848.627,187432.80000001192,584.1730000119132,187433.40000003576,2021-11-05T22:47:17.425Z,187449.744,1636152235,full,ni_sequenzen,NI_Sequenzen,21,,,,,,,,,,,,,
,Move,canvas.Screen,0_1_0_21,down,response,,187435.40000003576,187429.702,187449.744,188030.40000003576,580.6560000357567,188030.90000003576,2021-11-05T22:47:18.022Z,188051.267,1636152235,full,ni_sequenzen,NI_Sequenzen,22,,,,,,,,,,,,,
,Move,canvas.Screen,0_1_0_22,left,response,,188032.70000004768,188031.225,188051.267,188603,551.7330000000075,188603.5,2021-11-05T22:47:18.595Z,188612.431,1636152235,full,ni_sequenzen,NI_Sequenzen,23,,,,,,,,,,,,,
,Move,canvas.Screen,0_1_0_23,down,response,,188605.60000002384,188592.39,188612.431,189176.70000004768,564.2690000476723,189177.20000004768,2021-11-05T22:47:19.169Z,189193.799,1636152235,full,ni_sequenzen,NI_Sequenzen,24,,,,,,,,,,,,,
,Move,canvas.Screen,0_1_0_24,left,response,,189178.90000003576,189173.757,189193.799,189693.20000004768,499.40100004768465,189693.70000004768,2021-11-05T22:47:19.685Z,189714.913,1636152235,full,ni_sequenzen,NI_Sequenzen,25,,,,,,,,,,,,,
,Move,canvas.Screen,0_1_0_25,right,response,,189695.60000002384,189694.871,189714.913,191440.80000001192,1725.8870000119205,191441.30000001192,2021-11-05T22:47:21.433Z,191458.942,1636152235,full,ni_sequenzen,NI_Sequenzen,26,,,,,,,,,,,,,
,Move,canvas.Screen,0_1_0_26,down,response,,191443,191438.897,191458.942,192740.70000004768,1281.7580000476737,192741.20000004768,2021-11-05T22:47:22.733Z,192761.622,1636152235,full,ni_sequenzen,NI_Sequenzen,27,,,,,,,,,,,,,
,Move,canvas.Screen,0_1_0_27,down,response,,192743,192741.58,192761.622,193074.10000002384,312.47800002383883,193074.70000004768,2021-11-05T22:47:23.066Z,193082.199,1636152235,full,ni_sequenzen,NI_Sequenzen,28,,,,,,,,,,,,,
,Move,canvas.Screen,0_1_0_28,right,response,,193076.60000002384,193062.158,193082.199,193990.80000001192,908.6010000119277,193991.40000003576,2021-11-05T22:47:23.983Z,194004.233,1636152235,full,ni_sequenzen,NI_Sequenzen,29,,,,,,,,,,,,,
,Move,canvas.Screen,0_1_0_29,left,response,,193993.20000004768,193984.195,194004.233,194754.70000004768,750.4670000476763,194755.20000004768,2021-11-05T22:47:24.747Z,194805.36,1636152235,full,ni_sequenzen,NI_Sequenzen,30,,,,,,,,,,,,,
,Loop,flow.Loop,0_1_0,-999,completion,,160769.30000001192,160887.54,160907.583,194754.70000004768,33847.11700004767,194755.40000003576,2021-11-05T22:47:24.747Z,194805.36,1636152235,full,ni_sequenzen,NI_Sequenzen,,,,,,,,,,,,,,
,Training_I,flow.Sequence,0_1,,completion,,160758.20000004768,160887.54,160907.583,194754.70000004768,33847.11700004767,194755.5,2021-11-05T22:47:24.747Z,194805.36,1636152235,full,ni_sequenzen,NI_Sequenzen,,,,,,,,,,,,,,
,Screen_1,canvas.Screen,0_2_0_0,cont,response,1,194802.90000003576,194785.326,194805.36,237098,42292.640000000014,237098.60000002384,2021-11-05T22:48:07.091Z,237342.384,1636152235,full,ni_sequenzen,NI_Sequenzen,,,,,,,,,,,,,,
,Screen_2,canvas.Screen,0_2_0_1,cont,response,1,237339.80000001192,237322.348,237342.384,278514.60000002384,41172.21600002385,278515.2000000477,2021-11-05T22:48:48.507Z,278528.432,1636152235,full,ni_sequenzen,NI_Sequenzen,,,,,,,,,,,,,,
,Screen_3,canvas.Screen,0_2_0_2,cont,response,1,278523.90000003576,278508.399,278528.432,306375.7000000477,27847.268000047712,306376.10000002384,2021-11-05T22:49:16.368Z,306518.007,1636152235,full,ni_sequenzen,NI_Sequenzen,,,,,,,,,,,,,,
,Screen_4,canvas.Screen,0_2_0_3,cont,response,1,306507.60000002384,306497.973,306518.007,355246.2000000477,48728.1930000477,355246.90000003576,2021-11-05T22:50:05.239Z,355259.079,1636152235,full,ni_sequenzen,NI_Sequenzen,,,,,,,,,,,,,,
,Screen_5,canvas.Screen,0_2_0_4,cont,response,1,355249.5,355239.044,355259.079,367166.60000002384,11907.521000023815,367167.2000000477,2021-11-05T22:50:17.159Z,367300.952,1636152235,full,ni_sequenzen,NI_Sequenzen,,,,,,,,,,,,,,
,Screen_6,canvas.Screen,0_2_0_5,cont,response,1,367298.3000000119,367280.917,367300.952,379134.8000000119,11833.84800001193,379135.40000003576,2021-11-05T22:50:29.127Z,379346.494,1636152235,full,ni_sequenzen,NI_Sequenzen,,,,,,,,,,,,,,
,Sequence,flow.Sequence,0_2_0,,completion,1,194801.90000003576,194785.326,194805.36,379134.8000000119,184329.44000001193,379136.7000000477,2021-11-05T22:50:29.129Z,379346.494,1636152235,full,ni_sequenzen,NI_Sequenzen,,,,,,,,,,,,,,
,Screen_1,canvas.Screen,0_2_1_0,,skipped,2,379140,,,379140.10000002384,,379140.2000000477,2021-11-05T22:50:29.132Z,379346.494,1636152235,full,ni_sequenzen,NI_Sequenzen,,,,,,,,,,,,,,
,Screen_2,canvas.Screen,0_2_1_1,,skipped,2,379141.3000000119,,,379140.10000002384,,379141.3000000119,2021-11-05T22:50:29.133Z,379346.494,1636152235,full,ni_sequenzen,NI_Sequenzen,,,,,,,,,,,,,,
,Screen_3,canvas.Screen,0_2_1_2,,skipped,2,379142.3000000119,,,379140.10000002384,,379142.3000000119,2021-11-05T22:50:29.134Z,379346.494,1636152235,full,ni_sequenzen,NI_Sequenzen,,,,,,,,,,,,,,
,Screen_4,canvas.Screen,0_2_1_3,,skipped,2,379143.2000000477,,,379140.10000002384,,379143.2000000477,2021-11-05T22:50:29.135Z,379346.494,1636152235,full,ni_sequenzen,NI_Sequenzen,,,,,,,,,,,,,,
,Screen_5,canvas.Screen,0_2_1_4,,skipped,2,379144.2000000477,,,379140.10000002384,,379144.2000000477,2021-11-05T22:50:29.136Z,379346.494,1636152235,full,ni_sequenzen,NI_Sequenzen,,,,,,,,,,,,,,
,Screen_6,canvas.Screen,0_2_1_5,,skipped,2,379145.2000000477,,,379140.10000002384,,379145.3000000119,2021-11-05T22:50:29.137Z,379346.494,1636152235,full,ni_sequenzen,NI_Sequenzen,,,,,,,,,,,,,,
,Sequence,flow.Sequence,0_2_1,,completion,2,379138.40000003576,,,379140.10000002384,,379145.5,2021-11-05T22:50:29.137Z,379346.494,1636152235,full,ni_sequenzen,NI_Sequenzen,,,,,,,,,,,,,,
,Screen_1,canvas.Screen,0_2_2_0,,skipped,3,379152.8000000119,,,379152.8000000119,,379152.90000003576,2021-11-05T22:50:29.145Z,379346.494,1636152235,full,ni_sequenzen,NI_Sequenzen,,,,,,,,,,,,,,
,Screen_2,canvas.Screen,0_2_2_1,,skipped,3,379154,,,379152.8000000119,,379154.10000002384,2021-11-05T22:50:29.146Z,379346.494,1636152235,full,ni_sequenzen,NI_Sequenzen,,,,,,,,,,,,,,
,Screen_3,canvas.Screen,0_2_2_2,,skipped,3,379154.8000000119,,,379152.8000000119,,379154.90000003576,2021-11-05T22:50:29.147Z,379346.494,1636152235,full,ni_sequenzen,NI_Sequenzen,,,,,,,,,,,,,,
,Screen_4,canvas.Screen,0_2_2_3,,skipped,3,379155.60000002384,,,379152.8000000119,,379155.8000000119,2021-11-05T22:50:29.147Z,379346.494,1636152235,full,ni_sequenzen,NI_Sequenzen,,,,,,,,,,,,,,
,Screen_5,canvas.Screen,0_2_2_4,,skipped,3,379156.40000003576,,,379152.8000000119,,379156.40000003576,2021-11-05T22:50:29.148Z,379346.494,1636152235,full,ni_sequenzen,NI_Sequenzen,,,,,,,,,,,,,,
,Screen_6,canvas.Screen,0_2_2_5,,skipped,3,379157.2000000477,,,379152.8000000119,,379157.3000000119,2021-11-05T22:50:29.149Z,379346.494,1636152235,full,ni_sequenzen,NI_Sequenzen,,,,,,,,,,,,,,
,Sequence,flow.Sequence,0_2_2,,completion,3,379145.8000000119,,,379152.8000000119,,379157.40000003576,2021-11-05T22:50:29.149Z,379346.494,1636152235,full,ni_sequenzen,NI_Sequenzen,,,,,,,,,,,,,,
,Screen_1,canvas.Screen,0_2_3_0,,skipped,4,379158.40000003576,,,379158.40000003576,,379158.5,2021-11-05T22:50:29.150Z,379346.494,1636152235,full,ni_sequenzen,NI_Sequenzen,,,,,,,,,,,,,,
,Screen_2,canvas.Screen,0_2_3_1,,skipped,4,379159.10000002384,,,379158.40000003576,,379159.2000000477,2021-11-05T22:50:29.151Z,379346.494,1636152235,full,ni_sequenzen,NI_Sequenzen,,,,,,,,,,,,,,
,Screen_3,canvas.Screen,0_2_3_2,,skipped,4,379159.90000003576,,,379158.40000003576,,379159.90000003576,2021-11-05T22:50:29.152Z,379346.494,1636152235,full,ni_sequenzen,NI_Sequenzen,,,,,,,,,,,,,,
,Screen_4,canvas.Screen,0_2_3_3,,skipped,4,379160.7000000477,,,379158.40000003576,,379160.7000000477,2021-11-05T22:50:29.152Z,379346.494,1636152235,full,ni_sequenzen,NI_Sequenzen,,,,,,,,,,,,,,
,Screen_5,canvas.Screen,0_2_3_4,,skipped,4,379161.40000003576,,,379158.40000003576,,379161.40000003576,2021-11-05T22:50:29.153Z,379346.494,1636152235,full,ni_sequenzen,NI_Sequenzen,,,,,,,,,,,,,,
,Screen_6,canvas.Screen,0_2_3_5,,skipped,4,379162.3000000119,,,379158.40000003576,,379162.40000003576,2021-11-05T22:50:29.154Z,379346.494,1636152235,full,ni_sequenzen,NI_Sequenzen,,,,,,,,,,,,,,
,Sequence,flow.Sequence,0_2_3,,completion,4,379157.7000000477,,,379158.40000003576,,379162.60000002384,2021-11-05T22:50:29.154Z,379346.494,1636152235,full,ni_sequenzen,NI_Sequenzen,,,,,,,,,,,,,,
,Screen_1,canvas.Screen,0_2_4_0,,skipped,5,379163.7000000477,,,379163.7000000477,,379163.7000000477,2021-11-05T22:50:29.155Z,379346.494,1636152235,full,ni_sequenzen,NI_Sequenzen,,,,,,,,,,,,,,
,Screen_2,canvas.Screen,0_2_4_1,,skipped,5,379164.40000003576,,,379163.7000000477,,379164.5,2021-11-05T22:50:29.156Z,379346.494,1636152235,full,ni_sequenzen,NI_Sequenzen,,,,,,,,,,,,,,
,Screen_3,canvas.Screen,0_2_4_2,,skipped,5,379165.2000000477,,,379163.7000000477,,379165.3000000119,2021-11-05T22:50:29.157Z,379346.494,1636152235,full,ni_sequenzen,NI_Sequenzen,,,,,,,,,,,,,,
,Screen_4,canvas.Screen,0_2_4_3,,skipped,5,379166,,,379163.7000000477,,379166.2000000477,2021-11-05T22:50:29.158Z,379346.494,1636152235,full,ni_sequenzen,NI_Sequenzen,,,,,,,,,,,,,,
,Screen_5,canvas.Screen,0_2_4_4,,skipped,5,379166.90000003576,,,379163.7000000477,,379167,2021-11-05T22:50:29.159Z,379346.494,1636152235,full,ni_sequenzen,NI_Sequenzen,,,,,,,,,,,,,,
,Screen_6,canvas.Screen,0_2_4_5,,skipped,5,379168.40000003576,,,379163.7000000477,,379168.5,2021-11-05T22:50:29.160Z,379346.494,1636152235,full,ni_sequenzen,NI_Sequenzen,,,,,,,,,,,,,,
,Sequence,flow.Sequence,0_2_4,,completion,5,379162.90000003576,,,379163.7000000477,,379168.7000000477,2021-11-05T22:50:29.160Z,379346.494,1636152235,full,ni_sequenzen,NI_Sequenzen,,,,,,,,,,,,,,
,Screen_1,canvas.Screen,0_2_5_0,,skipped,6,379169.7000000477,,,379169.7000000477,,379169.8000000119,2021-11-05T22:50:29.162Z,379346.494,1636152235,full,ni_sequenzen,NI_Sequenzen,,,,,,,,,,,,,,
,Screen_2,canvas.Screen,0_2_5_1,,skipped,6,379170.5,,,379169.7000000477,,379170.60000002384,2021-11-05T22:50:29.162Z,379346.494,1636152235,full,ni_sequenzen,NI_Sequenzen,,,,,,,,,,,,,,
,Screen_3,canvas.Screen,0_2_5_2,,skipped,6,379171.3000000119,,,379169.7000000477,,379171.40000003576,2021-11-05T22:50:29.163Z,379346.494,1636152235,full,ni_sequenzen,NI_Sequenzen,,,,,,,,,,,,,,
,Screen_4,canvas.Screen,0_2_5_3,,skipped,6,379172,,,379169.7000000477,,379172.10000002384,2021-11-05T22:50:29.164Z,379346.494,1636152235,full,ni_sequenzen,NI_Sequenzen,,,,,,,,,,,,,,
,Screen_5,canvas.Screen,0_2_5_4,,skipped,6,379172.8000000119,,,379169.7000000477,,379172.90000003576,2021-11-05T22:50:29.165Z,379346.494,1636152235,full,ni_sequenzen,NI_Sequenzen,,,,,,,,,,,,,,
,Screen_6,canvas.Screen,0_2_5_5,,skipped,6,379173.60000002384,,,379169.7000000477,,379173.7000000477,2021-11-05T22:50:29.165Z,379346.494,1636152235,full,ni_sequenzen,NI_Sequenzen,,,,,,,,,,,,,,
,Sequence,flow.Sequence,0_2_5,,completion,6,379169.10000002384,,,379169.7000000477,,379173.8000000119,2021-11-05T22:50:29.166Z,379346.494,1636152235,full,ni_sequenzen,NI_Sequenzen,,,,,,,,,,,,,,
,Screen_1,canvas.Screen,0_2_6_0,,skipped,7,379174.8000000119,,,379174.8000000119,,379174.8000000119,2021-11-05T22:50:29.167Z,379346.494,1636152235,full,ni_sequenzen,NI_Sequenzen,,,,,,,,,,,,,,
,Screen_2,canvas.Screen,0_2_6_1,,skipped,7,379175.5,,,379174.8000000119,,379175.60000002384,2021-11-05T22:50:29.167Z,379346.494,1636152235,full,ni_sequenzen,NI_Sequenzen,,,,,,,,,,,,,,
,Screen_3,canvas.Screen,0_2_6_2,,skipped,7,379176.2000000477,,,379174.8000000119,,379176.3000000119,2021-11-05T22:50:29.168Z,379346.494,1636152235,full,ni_sequenzen,NI_Sequenzen,,,,,,,,,,,,,,
,Screen_4,canvas.Screen,0_2_6_3,,skipped,7,379177.10000002384,,,379174.8000000119,,379177.2000000477,2021-11-05T22:50:29.169Z,379346.494,1636152235,full,ni_sequenzen,NI_Sequenzen,,,,,,,,,,,,,,
,Screen_5,canvas.Screen,0_2_6_4,,skipped,7,379177.8000000119,,,379174.8000000119,,379177.90000003576,2021-11-05T22:50:29.170Z,379346.494,1636152235,full,ni_sequenzen,NI_Sequenzen,,,,,,,,,,,,,,
,Screen_6,canvas.Screen,0_2_6_5,,skipped,7,379178.60000002384,,,379174.8000000119,,379178.7000000477,2021-11-05T22:50:29.170Z,379346.494,1636152235,full,ni_sequenzen,NI_Sequenzen,,,,,,,,,,,,,,
,Sequence,flow.Sequence,0_2_6,,completion,7,379174.10000002384,,,379174.8000000119,,379178.7000000477,2021-11-05T22:50:29.171Z,379346.494,1636152235,full,ni_sequenzen,NI_Sequenzen,,,,,,,,,,,,,,
,Screen_1,canvas.Screen,0_2_7_0,,skipped,8,379179.7000000477,,,379179.7000000477,,379179.8000000119,2021-11-05T22:50:29.172Z,379346.494,1636152235,full,ni_sequenzen,NI_Sequenzen,,,,,,,,,,,,,,
,Screen_2,canvas.Screen,0_2_7_1,,skipped,8,379180.40000003576,,,379179.7000000477,,379180.5,2021-11-05T22:50:29.172Z,379346.494,1636152235,full,ni_sequenzen,NI_Sequenzen,,,,,,,,,,,,,,
,Screen_3,canvas.Screen,0_2_7_2,,skipped,8,379182,,,379179.7000000477,,379182.10000002384,2021-11-05T22:50:29.174Z,379346.494,1636152235,full,ni_sequenzen,NI_Sequenzen,,,,,,,,,,,,,,
,Screen_4,canvas.Screen,0_2_7_3,,skipped,8,379182.90000003576,,,379179.7000000477,,379183,2021-11-05T22:50:29.175Z,379346.494,1636152235,full,ni_sequenzen,NI_Sequenzen,,,,,,,,,,,,,,
,Screen_5,canvas.Screen,0_2_7_4,,skipped,8,379183.7000000477,,,379179.7000000477,,379183.8000000119,2021-11-05T22:50:29.176Z,379346.494,1636152235,full,ni_sequenzen,NI_Sequenzen,,,,,,,,,,,,,,
,Screen_6,canvas.Screen,0_2_7_5,,skipped,8,379184.40000003576,,,379179.7000000477,,379184.5,2021-11-05T22:50:29.176Z,379346.494,1636152235,full,ni_sequenzen,NI_Sequenzen,,,,,,,,,,,,,,
,Sequence,flow.Sequence,0_2_7,,completion,8,379179.10000002384,,,379179.7000000477,,379184.7000000477,2021-11-05T22:50:29.176Z,379346.494,1636152235,full,ni_sequenzen,NI_Sequenzen,,,,,,,,,,,,,,
,Screen_1,canvas.Screen,0_2_8_0,,skipped,9,379185.60000002384,,,379185.60000002384,,379185.8000000119,2021-11-05T22:50:29.177Z,379346.494,1636152235,full,ni_sequenzen,NI_Sequenzen,,,,,,,,,,,,,,
,Screen_2,canvas.Screen,0_2_8_1,,skipped,9,379186.40000003576,,,379185.60000002384,,379186.40000003576,2021-11-05T22:50:29.178Z,379346.494,1636152235,full,ni_sequenzen,NI_Sequenzen,,,,,,,,,,,,,,
,Screen_3,canvas.Screen,0_2_8_2,,skipped,9,379187.2000000477,,,379185.60000002384,,379187.2000000477,2021-11-05T22:50:29.179Z,379346.494,1636152235,full,ni_sequenzen,NI_Sequenzen,,,,,,,,,,,,,,
,Screen_4,canvas.Screen,0_2_8_3,,skipped,9,379187.90000003576,,,379185.60000002384,,379187.90000003576,2021-11-05T22:50:29.180Z,379346.494,1636152235,full,ni_sequenzen,NI_Sequenzen,,,,,,,,,,,,,,
,Screen_5,canvas.Screen,0_2_8_4,,skipped,9,379188.60000002384,,,379185.60000002384,,379188.8000000119,2021-11-05T22:50:29.180Z,379346.494,1636152235,full,ni_sequenzen,NI_Sequenzen,,,,,,,,,,,,,,
,Screen_6,canvas.Screen,0_2_8_5,,skipped,9,379189.3000000119,,,379185.60000002384,,379189.40000003576,2021-11-05T22:50:29.181Z,379346.494,1636152235,full,ni_sequenzen,NI_Sequenzen,,,,,,,,,,,,,,
,Sequence,flow.Sequence,0_2_8,,completion,9,379185,,,379185.60000002384,,379189.60000002384,2021-11-05T22:50:29.181Z,379346.494,1636152235,full,ni_sequenzen,NI_Sequenzen,,,,,,,,,,,,,,
,Screen_1,canvas.Screen,0_2_9_0,,skipped,10,379190.5,,,379190.5,,379190.60000002384,2021-11-05T22:50:29.182Z,379346.494,1636152235,full,ni_sequenzen,NI_Sequenzen,,,,,,,,,,,,,,
,Screen_2,canvas.Screen,0_2_9_1,,skipped,10,379191.2000000477,,,379190.5,,379191.3000000119,2021-11-05T22:50:29.183Z,379346.494,1636152235,full,ni_sequenzen,NI_Sequenzen,,,,,,,,,,,,,,
,Screen_3,canvas.Screen,0_2_9_2,,skipped,10,379192,,,379190.5,,379192.10000002384,2021-11-05T22:50:29.184Z,379346.494,1636152235,full,ni_sequenzen,NI_Sequenzen,,,,,,,,,,,,,,
,Screen_4,canvas.Screen,0_2_9_3,,skipped,10,379192.8000000119,,,379190.5,,379192.90000003576,2021-11-05T22:50:29.185Z,379346.494,1636152235,full,ni_sequenzen,NI_Sequenzen,,,,,,,,,,,,,,
,Screen_5,canvas.Screen,0_2_9_4,,skipped,10,379193.5,,,379190.5,,379193.60000002384,2021-11-05T22:50:29.185Z,379346.494,1636152235,full,ni_sequenzen,NI_Sequenzen,,,,,,,,,,,,,,
,Screen_6,canvas.Screen,0_2_9_5,,skipped,10,379194.3000000119,,,379190.5,,379194.40000003576,2021-11-05T22:50:29.186Z,379346.494,1636152235,full,ni_sequenzen,NI_Sequenzen,,,,,,,,,,,,,,
,Sequence,flow.Sequence,0_2_9,,completion,10,379189.90000003576,,,379190.5,,379194.40000003576,2021-11-05T22:50:29.186Z,379346.494,1636152235,full,ni_sequenzen,NI_Sequenzen,,,,,,,,,,,,,,
,Screen_1,canvas.Screen,0_2_10_0,,skipped,11,379196.40000003576,,,379196.40000003576,,379196.5,2021-11-05T22:50:29.188Z,379346.494,1636152235,full,ni_sequenzen,NI_Sequenzen,,,,,,,,,,,,,,
,Screen_2,canvas.Screen,0_2_10_1,,skipped,11,379197.2000000477,,,379196.40000003576,,379197.3000000119,2021-11-05T22:50:29.189Z,379346.494,1636152235,full,ni_sequenzen,NI_Sequenzen,,,,,,,,,,,,,,
,Screen_3,canvas.Screen,0_2_10_2,,skipped,11,379198.2000000477,,,379196.40000003576,,379198.2000000477,2021-11-05T22:50:29.190Z,379346.494,1636152235,full,ni_sequenzen,NI_Sequenzen,,,,,,,,,,,,,,
,Screen_4,canvas.Screen,0_2_10_3,,skipped,11,379198.90000003576,,,379196.40000003576,,379199.10000002384,2021-11-05T22:50:29.191Z,379346.494,1636152235,full,ni_sequenzen,NI_Sequenzen,,,,,,,,,,,,,,
,Screen_5,canvas.Screen,0_2_10_4,,skipped,11,379199.8000000119,,,379196.40000003576,,379199.8000000119,2021-11-05T22:50:29.192Z,379346.494,1636152235,full,ni_sequenzen,NI_Sequenzen,,,,,,,,,,,,,,
,Screen_6,canvas.Screen,0_2_10_5,,skipped,11,379200.60000002384,,,379196.40000003576,,379200.7000000477,2021-11-05T22:50:29.192Z,379346.494,1636152235,full,ni_sequenzen,NI_Sequenzen,,,,,,,,,,,,,,
,Sequence,flow.Sequence,0_2_10,,completion,11,379195.60000002384,,,379196.40000003576,,379200.90000003576,2021-11-05T22:50:29.193Z,379346.494,1636152235,full,ni_sequenzen,NI_Sequenzen,,,,,,,,,,,,,,
,Screen_1,canvas.Screen,0_2_11_0,,skipped,12,379201.90000003576,,,379201.90000003576,,379202,2021-11-05T22:50:29.194Z,379346.494,1636152235,full,ni_sequenzen,NI_Sequenzen,,,,,,,,,,,,,,
,Screen_2,canvas.Screen,0_2_11_1,,skipped,12,379202.7000000477,,,379201.90000003576,,379202.7000000477,2021-11-05T22:50:29.195Z,379346.494,1636152235,full,ni_sequenzen,NI_Sequenzen,,,,,,,,,,,,,,
,Screen_3,canvas.Screen,0_2_11_2,,skipped,12,379203.40000003576,,,379201.90000003576,,379203.5,2021-11-05T22:50:29.195Z,379346.494,1636152235,full,ni_sequenzen,NI_Sequenzen,,,,,,,,,,,,,,
,Screen_4,canvas.Screen,0_2_11_3,,skipped,12,379204.2000000477,,,379201.90000003576,,379204.3000000119,2021-11-05T22:50:29.196Z,379346.494,1636152235,full,ni_sequenzen,NI_Sequenzen,,,,,,,,,,,,,,
,Screen_5,canvas.Screen,0_2_11_4,,skipped,12,379204.90000003576,,,379201.90000003576,,379205,2021-11-05T22:50:29.197Z,379346.494,1636152235,full,ni_sequenzen,NI_Sequenzen,,,,,,,,,,,,,,
,Screen_6,canvas.Screen,0_2_11_5,,skipped,12,379205.7000000477,,,379201.90000003576,,379205.7000000477,2021-11-05T22:50:29.198Z,379346.494,1636152235,full,ni_sequenzen,NI_Sequenzen,,,,,,,,,,,,,,
,Sequence,flow.Sequence,0_2_11,,completion,12,379201.2000000477,,,379201.90000003576,,379205.90000003576,2021-11-05T22:50:29.198Z,379346.494,1636152235,full,ni_sequenzen,NI_Sequenzen,,,,,,,,,,,,,,
,Screen_1,canvas.Screen,0_2_12_0,,skipped,13,379207,,,379207.10000002384,,379207.10000002384,2021-11-05T22:50:29.199Z,379346.494,1636152235,full,ni_sequenzen,NI_Sequenzen,,,,,,,,,,,,,,
,Screen_2,canvas.Screen,0_2_12_1,,skipped,13,379208.5,,,379207.10000002384,,379208.60000002384,2021-11-05T22:50:29.200Z,379346.494,1636152235,full,ni_sequenzen,NI_Sequenzen,,,,,,,,,,,,,,
,Screen_3,canvas.Screen,0_2_12_2,,skipped,13,379209.3000000119,,,379207.10000002384,,379209.5,2021-11-05T22:50:29.201Z,379346.494,1636152235,full,ni_sequenzen,NI_Sequenzen,,,,,,,,,,,,,,
,Screen_4,canvas.Screen,0_2_12_3,,skipped,13,379210.10000002384,,,379207.10000002384,,379210.2000000477,2021-11-05T22:50:29.202Z,379346.494,1636152235,full,ni_sequenzen,NI_Sequenzen,,,,,,,,,,,,,,
,Screen_5,canvas.Screen,0_2_12_4,,skipped,13,379210.8000000119,,,379207.10000002384,,379210.90000003576,2021-11-05T22:50:29.203Z,379346.494,1636152235,full,ni_sequenzen,NI_Sequenzen,,,,,,,,,,,,,,
,Screen_6,canvas.Screen,0_2_12_5,,skipped,13,379211.5,,,379207.10000002384,,379211.7000000477,2021-11-05T22:50:29.203Z,379346.494,1636152235,full,ni_sequenzen,NI_Sequenzen,,,,,,,,,,,,,,
,Sequence,flow.Sequence,0_2_12,,completion,13,379206.2000000477,,,379207.10000002384,,379211.7000000477,2021-11-05T22:50:29.204Z,379346.494,1636152235,full,ni_sequenzen,NI_Sequenzen,,,,,,,,,,,,,,
,Screen_1,canvas.Screen,0_2_13_0,,skipped,14,379212.7000000477,,,379212.7000000477,,379212.8000000119,2021-11-05T22:50:29.205Z,379346.494,1636152235,full,ni_sequenzen,NI_Sequenzen,,,,,,,,,,,,,,
,Screen_2,canvas.Screen,0_2_13_1,,skipped,14,379213.5,,,379212.7000000477,,379213.60000002384,2021-11-05T22:50:29.205Z,379346.494,1636152235,full,ni_sequenzen,NI_Sequenzen,,,,,,,,,,,,,,
,Screen_3,canvas.Screen,0_2_13_2,,skipped,14,379214.2000000477,,,379212.7000000477,,379214.2000000477,2021-11-05T22:50:29.206Z,379346.494,1636152235,full,ni_sequenzen,NI_Sequenzen,,,,,,,,,,,,,,
,Screen_4,canvas.Screen,0_2_13_3,,skipped,14,379214.90000003576,,,379212.7000000477,,379215,2021-11-05T22:50:29.207Z,379346.494,1636152235,full,ni_sequenzen,NI_Sequenzen,,,,,,,,,,,,,,
,Screen_5,canvas.Screen,0_2_13_4,,skipped,14,379215.7000000477,,,379212.7000000477,,379215.7000000477,2021-11-05T22:50:29.208Z,379346.494,1636152235,full,ni_sequenzen,NI_Sequenzen,,,,,,,,,,,,,,
,Screen_6,canvas.Screen,0_2_13_5,,skipped,14,379216.60000002384,,,379212.7000000477,,379216.60000002384,2021-11-05T22:50:29.208Z,379346.494,1636152235,full,ni_sequenzen,NI_Sequenzen,,,,,,,,,,,,,,
,Sequence,flow.Sequence,0_2_13,,completion,14,379212.10000002384,,,379212.7000000477,,379216.8000000119,2021-11-05T22:50:29.209Z,379346.494,1636152235,full,ni_sequenzen,NI_Sequenzen,,,,,,,,,,,,,,
,Screen_1,canvas.Screen,0_2_14_0,,skipped,15,379217.8000000119,,,379217.8000000119,,379217.90000003576,2021-11-05T22:50:29.210Z,379346.494,1636152235,full,ni_sequenzen,NI_Sequenzen,,,,,,,,,,,,,,
,Screen_2,canvas.Screen,0_2_14_1,,skipped,15,379218.5,,,379217.8000000119,,379218.60000002384,2021-11-05T22:50:29.210Z,379346.494,1636152235,full,ni_sequenzen,NI_Sequenzen,,,,,,,,,,,,,,
,Screen_3,canvas.Screen,0_2_14_2,,skipped,15,379219.90000003576,,,379217.8000000119,,379220,2021-11-05T22:50:29.212Z,379346.494,1636152235,full,ni_sequenzen,NI_Sequenzen,,,,,,,,,,,,,,
,Screen_4,canvas.Screen,0_2_14_3,,skipped,15,379220.90000003576,,,379217.8000000119,,379221,2021-11-05T22:50:29.213Z,379346.494,1636152235,full,ni_sequenzen,NI_Sequenzen,,,,,,,,,,,,,,
,Screen_5,canvas.Screen,0_2_14_4,,skipped,15,379221.8000000119,,,379217.8000000119,,379221.8000000119,2021-11-05T22:50:29.214Z,379346.494,1636152235,full,ni_sequenzen,NI_Sequenzen,,,,,,,,,,,,,,
,Screen_6,canvas.Screen,0_2_14_5,,skipped,15,379222.60000002384,,,379217.8000000119,,379222.7000000477,2021-11-05T22:50:29.214Z,379346.494,1636152235,full,ni_sequenzen,NI_Sequenzen,,,,,,,,,,,,,,
,Sequence,flow.Sequence,0_2_14,,completion,15,379217.10000002384,,,379217.8000000119,,379222.8000000119,2021-11-05T22:50:29.215Z,379346.494,1636152235,full,ni_sequenzen,NI_Sequenzen,,,,,,,,,,,,,,
,Screen_1,canvas.Screen,0_2_15_0,,skipped,16,379223.8000000119,,,379223.8000000119,,379223.8000000119,2021-11-05T22:50:29.216Z,379346.494,1636152235,full,ni_sequenzen,NI_Sequenzen,,,,,,,,,,,,,,
,Screen_2,canvas.Screen,0_2_15_1,,skipped,16,379224.60000002384,,,379223.8000000119,,379224.60000002384,2021-11-05T22:50:29.216Z,379346.494,1636152235,full,ni_sequenzen,NI_Sequenzen,,,,,,,,,,,,,,
,Screen_3,canvas.Screen,0_2_15_2,,skipped,16,379225.3000000119,,,379223.8000000119,,379225.40000003576,2021-11-05T22:50:29.217Z,379346.494,1636152235,full,ni_sequenzen,NI_Sequenzen,,,,,,,,,,,,,,
,Screen_4,canvas.Screen,0_2_15_3,,skipped,16,379226.2000000477,,,379223.8000000119,,379226.2000000477,2021-11-05T22:50:29.218Z,379346.494,1636152235,full,ni_sequenzen,NI_Sequenzen,,,,,,,,,,,,,,
,Screen_5,canvas.Screen,0_2_15_4,,skipped,16,379226.90000003576,,,379223.8000000119,,379227,2021-11-05T22:50:29.219Z,379346.494,1636152235,full,ni_sequenzen,NI_Sequenzen,,,,,,,,,,,,,,
,Screen_6,canvas.Screen,0_2_15_5,,skipped,16,379227.7000000477,,,379223.8000000119,,379227.8000000119,2021-11-05T22:50:29.220Z,379346.494,1636152235,full,ni_sequenzen,NI_Sequenzen,,,,,,,,,,,,,,
,Sequence,flow.Sequence,0_2_15,,completion,16,379223.2000000477,,,379223.8000000119,,379227.8000000119,2021-11-05T22:50:29.220Z,379346.494,1636152235,full,ni_sequenzen,NI_Sequenzen,,,,,,,,,,,,,,
,Screen_1,canvas.Screen,0_2_16_0,,skipped,17,379228.90000003576,,,379228.90000003576,,379229,2021-11-05T22:50:29.221Z,379346.494,1636152235,full,ni_sequenzen,NI_Sequenzen,,,,,,,,,,,,,,
,Screen_2,canvas.Screen,0_2_16_1,,skipped,17,379229.7000000477,,,379228.90000003576,,379229.7000000477,2021-11-05T22:50:29.222Z,379346.494,1636152235,full,ni_sequenzen,NI_Sequenzen,,,,,,,,,,,,,,
,Screen_3,canvas.Screen,0_2_16_2,,skipped,17,379230.5,,,379228.90000003576,,379230.5,2021-11-05T22:50:29.222Z,379346.494,1636152235,full,ni_sequenzen,NI_Sequenzen,,,,,,,,,,,,,,
,Screen_4,canvas.Screen,0_2_16_3,,skipped,17,379231.2000000477,,,379228.90000003576,,379231.3000000119,2021-11-05T22:50:29.223Z,379346.494,1636152235,full,ni_sequenzen,NI_Sequenzen,,,,,,,,,,,,,,
,Screen_5,canvas.Screen,0_2_16_4,,skipped,17,379232.5,,,379228.90000003576,,379232.60000002384,2021-11-05T22:50:29.224Z,379346.494,1636152235,full,ni_sequenzen,NI_Sequenzen,,,,,,,,,,,,,,
,Screen_6,canvas.Screen,0_2_16_5,,skipped,17,379233.40000003576,,,379228.90000003576,,379233.40000003576,2021-11-05T22:50:29.225Z,379346.494,1636152235,full,ni_sequenzen,NI_Sequenzen,,,,,,,,,,,,,,
,Sequence,flow.Sequence,0_2_16,,completion,17,379228.3000000119,,,379228.90000003576,,379233.60000002384,2021-11-05T22:50:29.225Z,379346.494,1636152235,full,ni_sequenzen,NI_Sequenzen,,,,,,,,,,,,,,
,Screen_1,canvas.Screen,0_2_17_0,,skipped,18,379234.60000002384,,,379234.60000002384,,379234.7000000477,2021-11-05T22:50:29.226Z,379346.494,1636152235,full,ni_sequenzen,NI_Sequenzen,,,,,,,,,,,,,,
,Screen_2,canvas.Screen,0_2_17_1,,skipped,18,379235.40000003576,,,379234.60000002384,,379235.5,2021-11-05T22:50:29.227Z,379346.494,1636152235,full,ni_sequenzen,NI_Sequenzen,,,,,,,,,,,,,,
,Screen_3,canvas.Screen,0_2_17_2,,skipped,18,379236.10000002384,,,379234.60000002384,,379236.2000000477,2021-11-05T22:50:29.228Z,379346.494,1636152235,full,ni_sequenzen,NI_Sequenzen,,,,,,,,,,,,,,
,Screen_4,canvas.Screen,0_2_17_3,,skipped,18,379237,,,379234.60000002384,,379237,2021-11-05T22:50:29.229Z,379346.494,1636152235,full,ni_sequenzen,NI_Sequenzen,,,,,,,,,,,,,,
,Screen_5,canvas.Screen,0_2_17_4,,skipped,18,379237.8000000119,,,379234.60000002384,,379237.8000000119,2021-11-05T22:50:29.230Z,379346.494,1636152235,full,ni_sequenzen,NI_Sequenzen,,,,,,,,,,,,,,
,Screen_6,canvas.Screen,0_2_17_5,,skipped,18,379238.5,,,379234.60000002384,,379238.60000002384,2021-11-05T22:50:29.230Z,379346.494,1636152235,full,ni_sequenzen,NI_Sequenzen,,,,,,,,,,,,,,
,Sequence,flow.Sequence,0_2_17,,completion,18,379233.90000003576,,,379234.60000002384,,379238.7000000477,2021-11-05T22:50:29.230Z,379346.494,1636152235,full,ni_sequenzen,NI_Sequenzen,,,,,,,,,,,,,,
,Screen_1,canvas.Screen,0_2_18_0,,skipped,19,379239.7000000477,,,379239.7000000477,,379239.7000000477,2021-11-05T22:50:29.232Z,379346.494,1636152235,full,ni_sequenzen,NI_Sequenzen,,,,,,,,,,,,,,
,Screen_2,canvas.Screen,0_2_18_1,,skipped,19,379240.40000003576,,,379239.7000000477,,379240.60000002384,2021-11-05T22:50:29.232Z,379346.494,1636152235,full,ni_sequenzen,NI_Sequenzen,,,,,,,,,,,,,,
,Screen_3,canvas.Screen,0_2_18_2,,skipped,19,379241.3000000119,,,379239.7000000477,,379241.3000000119,2021-11-05T22:50:29.233Z,379346.494,1636152235,full,ni_sequenzen,NI_Sequenzen,,,,,,,,,,,,,,
,Screen_4,canvas.Screen,0_2_18_3,,skipped,19,379242,,,379239.7000000477,,379242.10000002384,2021-11-05T22:50:29.234Z,379346.494,1636152235,full,ni_sequenzen,NI_Sequenzen,,,,,,,,,,,,,,
,Screen_5,canvas.Screen,0_2_18_4,,skipped,19,379242.7000000477,,,379239.7000000477,,379242.8000000119,2021-11-05T22:50:29.235Z,379346.494,1636152235,full,ni_sequenzen,NI_Sequenzen,,,,,,,,,,,,,,
,Screen_6,canvas.Screen,0_2_18_5,,skipped,19,379244.10000002384,,,379239.7000000477,,379244.2000000477,2021-11-05T22:50:29.236Z,379346.494,1636152235,full,ni_sequenzen,NI_Sequenzen,,,,,,,,,,,,,,
,Sequence,flow.Sequence,0_2_18,,completion,19,379239,,,379239.7000000477,,379244.3000000119,2021-11-05T22:50:29.236Z,379346.494,1636152235,full,ni_sequenzen,NI_Sequenzen,,,,,,,,,,,,,,
,Screen_1,canvas.Screen,0_2_19_0,,skipped,20,379245.5,,,379245.5,,379245.5,2021-11-05T22:50:29.237Z,379346.494,1636152235,full,ni_sequenzen,NI_Sequenzen,,,,,,,,,,,,,,
,Screen_2,canvas.Screen,0_2_19_1,,skipped,20,379246.3000000119,,,379245.5,,379246.40000003576,2021-11-05T22:50:29.238Z,379346.494,1636152235,full,ni_sequenzen,NI_Sequenzen,,,,,,,,,,,,,,
,Screen_3,canvas.Screen,0_2_19_2,,skipped,20,379247,,,379245.5,,379247.2000000477,2021-11-05T22:50:29.239Z,379346.494,1636152235,full,ni_sequenzen,NI_Sequenzen,,,,,,,,,,,,,,
,Screen_4,canvas.Screen,0_2_19_3,,skipped,20,379247.90000003576,,,379245.5,,379247.90000003576,2021-11-05T22:50:29.240Z,379346.494,1636152235,full,ni_sequenzen,NI_Sequenzen,,,,,,,,,,,,,,
,Screen_5,canvas.Screen,0_2_19_4,,skipped,20,379248.60000002384,,,379245.5,,379248.7000000477,2021-11-05T22:50:29.240Z,379346.494,1636152235,full,ni_sequenzen,NI_Sequenzen,,,,,,,,,,,,,,
,Screen_6,canvas.Screen,0_2_19_5,,skipped,20,379249.40000003576,,,379245.5,,379249.5,2021-11-05T22:50:29.241Z,379346.494,1636152235,full,ni_sequenzen,NI_Sequenzen,,,,,,,,,,,,,,
,Sequence,flow.Sequence,0_2_19,,completion,20,379244.7000000477,,,379245.5,,379249.60000002384,2021-11-05T22:50:29.241Z,379346.494,1636152235,full,ni_sequenzen,NI_Sequenzen,,,,,,,,,,,,,,
,Screen_1,canvas.Screen,0_2_20_0,,skipped,21,379250.7000000477,,,379250.7000000477,,379250.7000000477,2021-11-05T22:50:29.242Z,379346.494,1636152235,full,ni_sequenzen,NI_Sequenzen,,,,,,,,,,,,,,
,Screen_2,canvas.Screen,0_2_20_1,,skipped,21,379251.40000003576,,,379250.7000000477,,379251.5,2021-11-05T22:50:29.243Z,379346.494,1636152235,full,ni_sequenzen,NI_Sequenzen,,,,,,,,,,,,,,
,Screen_3,canvas.Screen,0_2_20_2,,skipped,21,379252.2000000477,,,379250.7000000477,,379252.3000000119,2021-11-05T22:50:29.244Z,379346.494,1636152235,full,ni_sequenzen,NI_Sequenzen,,,,,,,,,,,,,,
,Screen_4,canvas.Screen,0_2_20_3,,skipped,21,379253,,,379250.7000000477,,379253,2021-11-05T22:50:29.245Z,379346.494,1636152235,full,ni_sequenzen,NI_Sequenzen,,,,,,,,,,,,,,
,Screen_5,canvas.Screen,0_2_20_4,,skipped,21,379253.8000000119,,,379250.7000000477,,379253.8000000119,2021-11-05T22:50:29.246Z,379346.494,1636152235,full,ni_sequenzen,NI_Sequenzen,,,,,,,,,,,,,,
,Screen_6,canvas.Screen,0_2_20_5,,skipped,21,379254.5,,,379250.7000000477,,379254.60000002384,2021-11-05T22:50:29.246Z,379346.494,1636152235,full,ni_sequenzen,NI_Sequenzen,,,,,,,,,,,,,,
,Sequence,flow.Sequence,0_2_20,,completion,21,379249.90000003576,,,379250.7000000477,,379254.7000000477,2021-11-05T22:50:29.246Z,379346.494,1636152235,full,ni_sequenzen,NI_Sequenzen,,,,,,,,,,,,,,
,Screen_1,canvas.Screen,0_2_21_0,,skipped,22,379256.3000000119,,,379256.3000000119,,379256.40000003576,2021-11-05T22:50:29.248Z,379346.494,1636152235,full,ni_sequenzen,NI_Sequenzen,,,,,,,,,,,,,,
,Screen_2,canvas.Screen,0_2_21_1,,skipped,22,379257.2000000477,,,379256.3000000119,,379257.3000000119,2021-11-05T22:50:29.249Z,379346.494,1636152235,full,ni_sequenzen,NI_Sequenzen,,,,,,,,,,,,,,
,Screen_3,canvas.Screen,0_2_21_2,,skipped,22,379258,,,379256.3000000119,,379258,2021-11-05T22:50:29.250Z,379346.494,1636152235,full,ni_sequenzen,NI_Sequenzen,,,,,,,,,,,,,,
,Screen_4,canvas.Screen,0_2_21_3,,skipped,22,379258.8000000119,,,379256.3000000119,,379258.90000003576,2021-11-05T22:50:29.251Z,379346.494,1636152235,full,ni_sequenzen,NI_Sequenzen,,,,,,,,,,,,,,
,Screen_5,canvas.Screen,0_2_21_4,,skipped,22,379259.7000000477,,,379256.3000000119,,379259.7000000477,2021-11-05T22:50:29.251Z,379346.494,1636152235,full,ni_sequenzen,NI_Sequenzen,,,,,,,,,,,,,,
,Screen_6,canvas.Screen,0_2_21_5,,skipped,22,379261.10000002384,,,379256.3000000119,,379261.2000000477,2021-11-05T22:50:29.253Z,379346.494,1636152235,full,ni_sequenzen,NI_Sequenzen,,,,,,,,,,,,,,
,Sequence,flow.Sequence,0_2_21,,completion,22,379255.10000002384,,,379256.3000000119,,379261.5,2021-11-05T22:50:29.253Z,379346.494,1636152235,full,ni_sequenzen,NI_Sequenzen,,,,,,,,,,,,,,
,Screen_1,canvas.Screen,0_2_22_0,,skipped,23,379263.10000002384,,,379263.10000002384,,379263.2000000477,2021-11-05T22:50:29.255Z,379346.494,1636152235,full,ni_sequenzen,NI_Sequenzen,,,,,,,,,,,,,,
,Screen_2,canvas.Screen,0_2_22_1,,skipped,23,379264.40000003576,,,379263.10000002384,,379264.5,2021-11-05T22:50:29.256Z,379346.494,1636152235,full,ni_sequenzen,NI_Sequenzen,,,,,,,,,,,,,,
,Screen_3,canvas.Screen,0_2_22_2,,skipped,23,379265.8000000119,,,379263.10000002384,,379265.90000003576,2021-11-05T22:50:29.258Z,379346.494,1636152235,full,ni_sequenzen,NI_Sequenzen,,,,,,,,,,,,,,
,Screen_4,canvas.Screen,0_2_22_3,,skipped,23,379267.2000000477,,,379263.10000002384,,379267.3000000119,2021-11-05T22:50:29.259Z,379346.494,1636152235,full,ni_sequenzen,NI_Sequenzen,,,,,,,,,,,,,,
,Screen_5,canvas.Screen,0_2_22_4,,skipped,23,379268.40000003576,,,379263.10000002384,,379268.5,2021-11-05T22:50:29.260Z,379346.494,1636152235,full,ni_sequenzen,NI_Sequenzen,,,,,,,,,,,,,,
,Screen_6,canvas.Screen,0_2_22_5,,skipped,23,379269.40000003576,,,379263.10000002384,,379269.5,2021-11-05T22:50:29.261Z,379346.494,1636152235,full,ni_sequenzen,NI_Sequenzen,,,,,,,,,,,,,,
,Sequence,flow.Sequence,0_2_22,,completion,23,379262.10000002384,,,379263.10000002384,,379269.60000002384,2021-11-05T22:50:29.261Z,379346.494,1636152235,full,ni_sequenzen,NI_Sequenzen,,,,,,,,,,,,,,
,Screen_1,canvas.Screen,0_2_23_0,,skipped,24,379270.7000000477,,,379270.7000000477,,379270.8000000119,2021-11-05T22:50:29.263Z,379346.494,1636152235,full,ni_sequenzen,NI_Sequenzen,,,,,,,,,,,,,,
,Screen_2,canvas.Screen,0_2_23_1,,skipped,24,379271.5,,,379270.7000000477,,379271.5,2021-11-05T22:50:29.263Z,379346.494,1636152235,full,ni_sequenzen,NI_Sequenzen,,,,,,,,,,,,,,
,Screen_3,canvas.Screen,0_2_23_2,,skipped,24,379272.3000000119,,,379270.7000000477,,379272.3000000119,2021-11-05T22:50:29.264Z,379346.494,1636152235,full,ni_sequenzen,NI_Sequenzen,,,,,,,,,,,,,,
,Screen_4,canvas.Screen,0_2_23_3,,skipped,24,379273.7000000477,,,379270.7000000477,,379273.8000000119,2021-11-05T22:50:29.266Z,379346.494,1636152235,full,ni_sequenzen,NI_Sequenzen,,,,,,,,,,,,,,
,Screen_5,canvas.Screen,0_2_23_4,,skipped,24,379274.60000002384,,,379270.7000000477,,379274.7000000477,2021-11-05T22:50:29.266Z,379346.494,1636152235,full,ni_sequenzen,NI_Sequenzen,,,,,,,,,,,,,,
,Screen_6,canvas.Screen,0_2_23_5,,skipped,24,379275.40000003576,,,379270.7000000477,,379275.5,2021-11-05T22:50:29.267Z,379346.494,1636152235,full,ni_sequenzen,NI_Sequenzen,,,,,,,,,,,,,,
,Sequence,flow.Sequence,0_2_23,,completion,24,379270.10000002384,,,379270.7000000477,,379275.60000002384,2021-11-05T22:50:29.267Z,379346.494,1636152235,full,ni_sequenzen,NI_Sequenzen,,,,,,,,,,,,,,
,Screen_1,canvas.Screen,0_2_24_0,,skipped,25,379276.60000002384,,,379276.60000002384,,379276.7000000477,2021-11-05T22:50:29.268Z,379346.494,1636152235,full,ni_sequenzen,NI_Sequenzen,,,,,,,,,,,,,,
,Screen_2,canvas.Screen,0_2_24_1,,skipped,25,379277.40000003576,,,379276.60000002384,,379277.40000003576,2021-11-05T22:50:29.269Z,379346.494,1636152235,full,ni_sequenzen,NI_Sequenzen,,,,,,,,,,,,,,
,Screen_3,canvas.Screen,0_2_24_2,,skipped,25,379278.10000002384,,,379276.60000002384,,379278.2000000477,2021-11-05T22:50:29.270Z,379346.494,1636152235,full,ni_sequenzen,NI_Sequenzen,,,,,,,,,,,,,,
,Screen_4,canvas.Screen,0_2_24_3,,skipped,25,379278.90000003576,,,379276.60000002384,,379278.90000003576,2021-11-05T22:50:29.271Z,379346.494,1636152235,full,ni_sequenzen,NI_Sequenzen,,,,,,,,,,,,,,
,Screen_5,canvas.Screen,0_2_24_4,,skipped,25,379279.60000002384,,,379276.60000002384,,379279.7000000477,2021-11-05T22:50:29.271Z,379346.494,1636152235,full,ni_sequenzen,NI_Sequenzen,,,,,,,,,,,,,,
,Screen_6,canvas.Screen,0_2_24_5,,skipped,25,379280.3000000119,,,379276.60000002384,,379280.40000003576,2021-11-05T22:50:29.272Z,379346.494,1636152235,full,ni_sequenzen,NI_Sequenzen,,,,,,,,,,,,,,
,Sequence,flow.Sequence,0_2_24,,completion,25,379275.90000003576,,,379276.60000002384,,379280.5,2021-11-05T22:50:29.272Z,379346.494,1636152235,full,ni_sequenzen,NI_Sequenzen,,,,,,,,,,,,,,
,Screen_1,canvas.Screen,0_2_25_0,,skipped,26,379281.40000003576,,,379281.40000003576,,379281.5,2021-11-05T22:50:29.273Z,379346.494,1636152235,full,ni_sequenzen,NI_Sequenzen,,,,,,,,,,,,,,
,Screen_2,canvas.Screen,0_2_25_1,,skipped,26,379282.2000000477,,,379281.40000003576,,379282.3000000119,2021-11-05T22:50:29.274Z,379346.494,1636152235,full,ni_sequenzen,NI_Sequenzen,,,,,,,,,,,,,,
,Screen_3,canvas.Screen,0_2_25_2,,skipped,26,379283,,,379281.40000003576,,379283,2021-11-05T22:50:29.275Z,379346.494,1636152235,full,ni_sequenzen,NI_Sequenzen,,,,,,,,,,,,,,
,Screen_4,canvas.Screen,0_2_25_3,,skipped,26,379283.7000000477,,,379281.40000003576,,379283.8000000119,2021-11-05T22:50:29.276Z,379346.494,1636152235,full,ni_sequenzen,NI_Sequenzen,,,,,,,,,,,,,,
,Screen_5,canvas.Screen,0_2_25_4,,skipped,26,379284.40000003576,,,379281.40000003576,,379284.5,2021-11-05T22:50:29.276Z,379346.494,1636152235,full,ni_sequenzen,NI_Sequenzen,,,,,,,,,,,,,,
,Screen_6,canvas.Screen,0_2_25_5,,skipped,26,379285.8000000119,,,379281.40000003576,,379285.90000003576,2021-11-05T22:50:29.278Z,379346.494,1636152235,full,ni_sequenzen,NI_Sequenzen,,,,,,,,,,,,,,
,Sequence,flow.Sequence,0_2_25,,completion,26,379280.8000000119,,,379281.40000003576,,379286,2021-11-05T22:50:29.278Z,379346.494,1636152235,full,ni_sequenzen,NI_Sequenzen,,,,,,,,,,,,,,
,Screen_1,canvas.Screen,0_2_26_0,,skipped,27,379287.10000002384,,,379287.10000002384,,379287.2000000477,2021-11-05T22:50:29.279Z,379346.494,1636152235,full,ni_sequenzen,NI_Sequenzen,,,,,,,,,,,,,,
,Screen_2,canvas.Screen,0_2_26_1,,skipped,27,379287.90000003576,,,379287.10000002384,,379287.90000003576,2021-11-05T22:50:29.280Z,379346.494,1636152235,full,ni_sequenzen,NI_Sequenzen,,,,,,,,,,,,,,
,Screen_3,canvas.Screen,0_2_26_2,,skipped,27,379288.60000002384,,,379287.10000002384,,379288.7000000477,2021-11-05T22:50:29.280Z,379346.494,1636152235,full,ni_sequenzen,NI_Sequenzen,,,,,,,,,,,,,,
,Screen_4,canvas.Screen,0_2_26_3,,skipped,27,379289.8000000119,,,379287.10000002384,,379289.8000000119,2021-11-05T22:50:29.282Z,379346.494,1636152235,full,ni_sequenzen,NI_Sequenzen,,,,,,,,,,,,,,
,Screen_5,canvas.Screen,0_2_26_4,,skipped,27,379290.5,,,379287.10000002384,,379290.5,2021-11-05T22:50:29.282Z,379346.494,1636152235,full,ni_sequenzen,NI_Sequenzen,,,,,,,,,,,,,,
,Screen_6,canvas.Screen,0_2_26_5,,skipped,27,379291.3000000119,,,379287.10000002384,,379291.3000000119,2021-11-05T22:50:29.283Z,379346.494,1636152235,full,ni_sequenzen,NI_Sequenzen,,,,,,,,,,,,,,
,Sequence,flow.Sequence,0_2_26,,completion,27,379286.3000000119,,,379287.10000002384,,379291.5,2021-11-05T22:50:29.283Z,379346.494,1636152235,full,ni_sequenzen,NI_Sequenzen,,,,,,,,,,,,,,
,Screen_1,canvas.Screen,0_2_27_0,,skipped,28,379292.5,,,379292.5,,379292.60000002384,2021-11-05T22:50:29.284Z,379346.494,1636152235,full,ni_sequenzen,NI_Sequenzen,,,,,,,,,,,,,,
,Screen_2,canvas.Screen,0_2_27_1,,skipped,28,379293.60000002384,,,379292.5,,379293.60000002384,2021-11-05T22:50:29.285Z,379346.494,1636152235,full,ni_sequenzen,NI_Sequenzen,,,,,,,,,,,,,,
,Screen_3,canvas.Screen,0_2_27_2,,skipped,28,379294.40000003576,,,379292.5,,379294.40000003576,2021-11-05T22:50:29.286Z,379346.494,1636152235,full,ni_sequenzen,NI_Sequenzen,,,,,,,,,,,,,,
,Screen_4,canvas.Screen,0_2_27_3,,skipped,28,379295.2000000477,,,379292.5,,379295.2000000477,2021-11-05T22:50:29.287Z,379346.494,1636152235,full,ni_sequenzen,NI_Sequenzen,,,,,,,,,,,,,,
,Screen_5,canvas.Screen,0_2_27_4,,skipped,28,379296,,,379292.5,,379296,2021-11-05T22:50:29.288Z,379346.494,1636152235,full,ni_sequenzen,NI_Sequenzen,,,,,,,,,,,,,,
,Screen_6,canvas.Screen,0_2_27_5,,skipped,28,379296.8000000119,,,379292.5,,379296.8000000119,2021-11-05T22:50:29.289Z,379346.494,1636152235,full,ni_sequenzen,NI_Sequenzen,,,,,,,,,,,,,,
,Sequence,flow.Sequence,0_2_27,,completion,28,379292,,,379292.5,,379297,2021-11-05T22:50:29.289Z,379346.494,1636152235,full,ni_sequenzen,NI_Sequenzen,,,,,,,,,,,,,,
,Screen_1,canvas.Screen,0_2_28_0,,skipped,29,379298.5,,,379298.5,,379298.60000002384,2021-11-05T22:50:29.290Z,379346.494,1636152235,full,ni_sequenzen,NI_Sequenzen,,,,,,,,,,,,,,
,Screen_2,canvas.Screen,0_2_28_1,,skipped,29,379299.3000000119,,,379298.5,,379299.40000003576,2021-11-05T22:50:29.291Z,379346.494,1636152235,full,ni_sequenzen,NI_Sequenzen,,,,,,,,,,,,,,
,Screen_3,canvas.Screen,0_2_28_2,,skipped,29,379300.2000000477,,,379298.5,,379300.2000000477,2021-11-05T22:50:29.292Z,379346.494,1636152235,full,ni_sequenzen,NI_Sequenzen,,,,,,,,,,,,,,
,Screen_4,canvas.Screen,0_2_28_3,,skipped,29,379300.90000003576,,,379298.5,,379300.90000003576,2021-11-05T22:50:29.293Z,379346.494,1636152235,full,ni_sequenzen,NI_Sequenzen,,,,,,,,,,,,,,
,Screen_5,canvas.Screen,0_2_28_4,,skipped,29,379301.60000002384,,,379298.5,,379301.7000000477,2021-11-05T22:50:29.293Z,379346.494,1636152235,full,ni_sequenzen,NI_Sequenzen,,,,,,,,,,,,,,
,Screen_6,canvas.Screen,0_2_28_5,,skipped,29,379302.40000003576,,,379298.5,,379302.40000003576,2021-11-05T22:50:29.294Z,379346.494,1636152235,full,ni_sequenzen,NI_Sequenzen,,,,,,,,,,,,,,
,Sequence,flow.Sequence,0_2_28,,completion,29,379297.3000000119,,,379298.5,,379302.5,2021-11-05T22:50:29.294Z,379346.494,1636152235,full,ni_sequenzen,NI_Sequenzen,,,,,,,,,,,,,,
,Screen_1,canvas.Screen,0_2_29_0,,skipped,30,379303.5,,,379303.5,,379303.60000002384,2021-11-05T22:50:29.295Z,379346.494,1636152235,full,ni_sequenzen,NI_Sequenzen,,,,,,,,,,,,,,
,Screen_2,canvas.Screen,0_2_29_1,,skipped,30,379304.2000000477,,,379303.5,,379304.3000000119,2021-11-05T22:50:29.296Z,379346.494,1636152235,full,ni_sequenzen,NI_Sequenzen,,,,,,,,,,,,,,
,Screen_3,canvas.Screen,0_2_29_2,,skipped,30,379305,,,379303.5,,379305.10000002384,2021-11-05T22:50:29.297Z,379346.494,1636152235,full,ni_sequenzen,NI_Sequenzen,,,,,,,,,,,,,,
,Screen_4,canvas.Screen,0_2_29_3,,skipped,30,379305.7000000477,,,379303.5,,379305.8000000119,2021-11-05T22:50:29.298Z,379346.494,1636152235,full,ni_sequenzen,NI_Sequenzen,,,,,,,,,,,,,,
,Screen_5,canvas.Screen,0_2_29_4,,skipped,30,379306.5,,,379303.5,,379306.60000002384,2021-11-05T22:50:29.298Z,379346.494,1636152235,full,ni_sequenzen,NI_Sequenzen,,,,,,,,,,,,,,
,Screen_6,canvas.Screen,0_2_29_5,,skipped,30,379307.2000000477,,,379303.5,,379307.2000000477,2021-11-05T22:50:29.299Z,379346.494,1636152235,full,ni_sequenzen,NI_Sequenzen,,,,,,,,,,,,,,
,Sequence,flow.Sequence,0_2_29,,completion,30,379302.90000003576,,,379303.5,,379307.40000003576,2021-11-05T22:50:29.299Z,379346.494,1636152235,full,ni_sequenzen,NI_Sequenzen,,,,,,,,,,,,,,
,Instructions_II,flow.Loop,0_2,,completion,,194801.20000004768,194785.326,194805.36,379303.5,184498.14,379307.5,2021-11-05T22:50:29.299Z,379346.494,1636152235,full,ni_sequenzen,NI_Sequenzen,,,,,,,,,,,,,,
,Move,canvas.Screen,0_3_0_0_0_0,right,response,,379338.60000002384,379326.457,379346.494,387349.8000000119,8003.306000011915,387350.3000000119,2021-11-05T22:50:37.342Z,387366.761,1636152235,full,ni_sequenzen,NI_Sequenzen,1,0,,,,,,,,,,,,
,Move,canvas.Screen,0_3_0_0_0_1,down,response,,387356.8000000119,387346.723,387366.761,388034.60000002384,667.8390000238433,388035,2021-11-05T22:50:38.027Z,388051.854,1636152235,full,ni_sequenzen,NI_Sequenzen,2,0,,,,,,,,,,,,
,Move,canvas.Screen,0_3_0_0_0_2,right,response,,388038,388031.816,388051.854,388671.3000000119,619.4460000119288,388671.8000000119,2021-11-05T22:50:38.664Z,388675.871,1636152235,full,ni_sequenzen,NI_Sequenzen,3,0,,,,,,,,,,,,
,Move,canvas.Screen,0_3_0_0_0_3,down,response,,388675.10000002384,388655.833,388675.871,389220.60000002384,544.7290000238572,389221.2000000477,2021-11-05T22:50:39.213Z,389257.18,1636152235,full,ni_sequenzen,NI_Sequenzen,4,0,,,,,,,,,,,,
,Move,canvas.Screen,0_3_0_0_0_4,-999,skipped,,389224,,,389220.60000002384,,389224.10000002384,2021-11-05T22:50:39.216Z,389257.18,1636152235,full,ni_sequenzen,NI_Sequenzen,5,0,,,,,,,,,,,,
,Move,canvas.Screen,0_3_0_0_0_5,-999,skipped,,389227.10000002384,,,389220.60000002384,,389227.2000000477,2021-11-05T22:50:39.219Z,389257.18,1636152235,full,ni_sequenzen,NI_Sequenzen,6,0,,,,,,,,,,,,
,Move,canvas.Screen,0_3_0_0_0_6,-999,skipped,,389230,,,389220.60000002384,,389230.10000002384,2021-11-05T22:50:39.222Z,389257.18,1636152235,full,ni_sequenzen,NI_Sequenzen,7,0,,,,,,,,,,,,
,Move,canvas.Screen,0_3_0_0_0_7,-999,skipped,,389233.10000002384,,,389220.60000002384,,389233.2000000477,2021-11-05T22:50:39.225Z,389257.18,1636152235,full,ni_sequenzen,NI_Sequenzen,8,0,,,,,,,,,,,,
,Move,canvas.Screen,0_3_0_0_0_8,-999,skipped,,389235.5,,,389220.60000002384,,389235.60000002384,2021-11-05T22:50:39.227Z,389257.18,1636152235,full,ni_sequenzen,NI_Sequenzen,9,0,,,,,,,,,,,,
,Move,canvas.Screen,0_3_0_0_0_9,-999,skipped,,389237.8000000119,,,389220.60000002384,,389237.90000003576,2021-11-05T22:50:39.230Z,389257.18,1636152235,full,ni_sequenzen,NI_Sequenzen,10,0,,,,,,,,,,,,
,Move,canvas.Screen,0_3_0_0_0_10,-999,skipped,,389240.8000000119,,,389220.60000002384,,389240.90000003576,2021-11-05T22:50:39.233Z,389257.18,1636152235,full,ni_sequenzen,NI_Sequenzen,11,0,,,,,,,,,,,,
,Move,canvas.Screen,0_3_0_0_0_11,-999,skipped,,389243.40000003576,,,389220.60000002384,,389243.60000002384,2021-11-05T22:50:39.235Z,389257.18,1636152235,full,ni_sequenzen,NI_Sequenzen,12,0,,,,,,,,,,,,
,Move,canvas.Screen,0_3_0_0_0_12,-999,skipped,,389246.40000003576,,,389220.60000002384,,389246.5,2021-11-05T22:50:39.238Z,389257.18,1636152235,full,ni_sequenzen,NI_Sequenzen,13,0,,,,,,,,,,,,
,Move,canvas.Screen,0_3_0_0_0_13,-999,skipped,,389249.90000003576,,,389220.60000002384,,389250,2021-11-05T22:50:39.242Z,389257.18,1636152235,full,ni_sequenzen,NI_Sequenzen,14,0,,,,,,,,,,,,
,Move,canvas.Screen,0_3_0_0_0_14,-999,skipped,,389253.2000000477,,,389220.60000002384,,389253.2000000477,2021-11-05T22:50:39.245Z,389257.18,1636152235,full,ni_sequenzen,NI_Sequenzen,15,0,,,,,,,,,,,,
,Loop,flow.Loop,0_3_0_0_0,-999,completion,,379334.10000002384,379326.457,379346.494,389220.60000002384,9874.106000023836,389253.40000003576,2021-11-05T22:50:39.245Z,389257.18,1636152235,full,ni_sequenzen,NI_Sequenzen,,0,,,,,,,,,,,,
,Feedback,canvas.Screen,0_3_0_0_1,,timeout,,389255.5,389237.142,389257.18,393244.93,4007.7880000000005,393246.10000002384,2021-11-05T22:50:43.238Z,393264.968,1636152235,full,ni_sequenzen,NI_Sequenzen,,0,,,,,,,,,,,,
,Trial,flow.Sequence,0_3_0_0,,completion,,379322.10000002384,379326.457,379346.494,393244.93,13898.435999999987,393246.2000000477,2021-11-05T22:50:43.238Z,393285.006,1636152235,full,ni_sequenzen,NI_Sequenzen,,0,,,,,,,,,,,,
,Move,canvas.Screen,0_3_0_1_0_0,right,response,,393257.60000002384,393264.968,393285.006,400284.60000002384,6999.594000023848,400285.2000000477,2021-11-05T22:50:50.277Z,400297.741,1636152235,full,ni_sequenzen,NI_Sequenzen,1,1,,,,,,,,,,,,
,Move,canvas.Screen,0_3_0_1_0_1,down,response,,400287.8000000119,400277.704,400297.741,400769.60000002384,471.8590000238619,400770,2021-11-05T22:50:50.762Z,400781.254,1636152235,full,ni_sequenzen,NI_Sequenzen,2,1,,,,,,,,,,,,
,Move,canvas.Screen,0_3_0_1_0_2,right,response,,400772.8000000119,400761.214,400781.254,401262.8000000119,481.54600001190556,401263.3000000119,2021-11-05T22:50:51.255Z,401283.826,1636152235,full,ni_sequenzen,NI_Sequenzen,3,1,,,,,,,,,,,,
,Move,canvas.Screen,0_3_0_1_0_3,down,response,,401266,401263.789,401283.826,401715.90000003576,432.07400003576186,401716.3000000119,2021-11-05T22:50:51.708Z,401764.899,1636152235,full,ni_sequenzen,NI_Sequenzen,4,1,,,,,,,,,,,,
,Move,canvas.Screen,0_3_0_1_0_4,-999,skipped,,401719.3000000119,,,401715.90000003576,,401719.40000003576,2021-11-05T22:50:51.711Z,401764.899,1636152235,full,ni_sequenzen,NI_Sequenzen,5,1,,,,,,,,,,,,
,Move,canvas.Screen,0_3_0_1_0_5,-999,skipped,,401722.2000000477,,,401715.90000003576,,401722.3000000119,2021-11-05T22:50:51.714Z,401764.899,1636152235,full,ni_sequenzen,NI_Sequenzen,6,1,,,,,,,,,,,,
,Move,canvas.Screen,0_3_0_1_0_6,-999,skipped,,401724.7000000477,,,401715.90000003576,,401724.7000000477,2021-11-05T22:50:51.717Z,401764.899,1636152235,full,ni_sequenzen,NI_Sequenzen,7,1,,,,,,,,,,,,
,Move,canvas.Screen,0_3_0_1_0_7,-999,skipped,,401727.40000003576,,,401715.90000003576,,401727.60000002384,2021-11-05T22:50:51.719Z,401764.899,1636152235,full,ni_sequenzen,NI_Sequenzen,8,1,,,,,,,,,,,,
,Move,canvas.Screen,0_3_0_1_0_8,-999,skipped,,401729.7000000477,,,401715.90000003576,,401729.90000003576,2021-11-05T22:50:51.722Z,401764.899,1636152235,full,ni_sequenzen,NI_Sequenzen,9,1,,,,,,,,,,,,
,Move,canvas.Screen,0_3_0_1_0_9,-999,skipped,,401732,,,401715.90000003576,,401732.10000002384,2021-11-05T22:50:51.724Z,401764.899,1636152235,full,ni_sequenzen,NI_Sequenzen,10,1,,,,,,,,,,,,
,Move,canvas.Screen,0_3_0_1_0_10,-999,skipped,,401736.10000002384,,,401715.90000003576,,401736.3000000119,2021-11-05T22:50:51.728Z,401764.899,1636152235,full,ni_sequenzen,NI_Sequenzen,11,1,,,,,,,,,,,,
,Move,canvas.Screen,0_3_0_1_0_11,-999,skipped,,401738.2000000477,,,401715.90000003576,,401738.40000003576,2021-11-05T22:50:51.730Z,401764.899,1636152235,full,ni_sequenzen,NI_Sequenzen,12,1,,,,,,,,,,,,
,Move,canvas.Screen,0_3_0_1_0_12,-999,skipped,,401740.2000000477,,,401715.90000003576,,401740.3000000119,2021-11-05T22:50:51.732Z,401764.899,1636152235,full,ni_sequenzen,NI_Sequenzen,13,1,,,,,,,,,,,,
,Move,canvas.Screen,0_3_0_1_0_13,-999,skipped,,401742.40000003576,,,401715.90000003576,,401742.5,2021-11-05T22:50:51.734Z,401764.899,1636152235,full,ni_sequenzen,NI_Sequenzen,14,1,,,,,,,,,,,,
,Move,canvas.Screen,0_3_0_1_0_14,-999,skipped,,401745.7000000477,,,401715.90000003576,,401745.8000000119,2021-11-05T22:50:51.738Z,401764.899,1636152235,full,ni_sequenzen,NI_Sequenzen,15,1,,,,,,,,,,,,
,Loop,flow.Loop,0_3_0_1_0,-999,completion,,393255,393264.968,393285.006,401715.90000003576,8430.894000035769,401746.10000002384,2021-11-05T22:50:51.738Z,401764.899,1636152235,full,ni_sequenzen,NI_Sequenzen,,1,,,,,,,,,,,,
,Feedback,canvas.Screen,0_3_0_1_1,,timeout,,401748.10000002384,401744.862,401764.899,405751.976,4007.112000000023,405753.10000002384,2021-11-05T22:50:55.745Z,405772.011,1636152235,full,ni_sequenzen,NI_Sequenzen,,1,,,,,,,,,,,,
,Trial,flow.Sequence,0_3_0_1,,completion,,393246.40000003576,393264.968,393285.006,405751.976,12466.97000000003,405753.10000002384,2021-11-05T22:50:55.745Z,405792.046,1636152235,full,ni_sequenzen,NI_Sequenzen,,1,,,,,,,,,,,,
,Move,canvas.Screen,0_3_0_2_0_0,down,response,,405765.7000000477,405772.011,405792.046,407477.5,1685.454000000027,407477.90000003576,2021-11-05T22:50:57.470Z,407496.229,1636152235,full,ni_sequenzen,NI_Sequenzen,1,2,,,,,,,,,,,,
,Move,canvas.Screen,0_3_0_2_0_1,right,response,,407481,407476.19,407496.229,409543.8000000119,2047.5710000119288,409544.40000003576,2021-11-05T22:50:59.536Z,409562.073,1636152235,full,ni_sequenzen,NI_Sequenzen,2,2,,,,,,,,,,,,
,Move,canvas.Screen,0_3_0_2_0_2,right,response,,409547.7000000477,409542.031,409562.073,410827.90000003576,1265.827000035788,410828.40000003576,2021-11-05T22:51:00.820Z,410845.129,1636152235,full,ni_sequenzen,NI_Sequenzen,3,2,,,,,,,,,,,,
,Move,canvas.Screen,0_3_0_2_0_3,down,response,,410831.10000002384,410825.085,410845.129,411735.90000003576,890.7710000357474,411736.40000003576,2021-11-05T22:51:01.728Z,411767.236,1636152235,full,ni_sequenzen,NI_Sequenzen,4,2,,,,,,,,,,,,
,Move,canvas.Screen,0_3_0_2_0_4,-999,skipped,,411739.5,,,411735.90000003576,,411739.5,2021-11-05T22:51:01.731Z,411767.236,1636152235,full,ni_sequenzen,NI_Sequenzen,5,2,,,,,,,,,,,,
,Move,canvas.Screen,0_3_0_2_0_5,-999,skipped,,411742,,,411735.90000003576,,411742,2021-11-05T22:51:01.734Z,411767.236,1636152235,full,ni_sequenzen,NI_Sequenzen,6,2,,,,,,,,,,,,
,Move,canvas.Screen,0_3_0_2_0_6,-999,skipped,,411744.3000000119,,,411735.90000003576,,411744.3000000119,2021-11-05T22:51:01.736Z,411767.236,1636152235,full,ni_sequenzen,NI_Sequenzen,7,2,,,,,,,,,,,,
,Move,canvas.Screen,0_3_0_2_0_7,-999,skipped,,411746.90000003576,,,411735.90000003576,,411747.10000002384,2021-11-05T22:51:01.739Z,411767.236,1636152235,full,ni_sequenzen,NI_Sequenzen,8,2,,,,,,,,,,,,
,Move,canvas.Screen,0_3_0_2_0_8,-999,skipped,,411749.2000000477,,,411735.90000003576,,411749.3000000119,2021-11-05T22:51:01.741Z,411767.236,1636152235,full,ni_sequenzen,NI_Sequenzen,9,2,,,,,,,,,,,,
,Move,canvas.Screen,0_3_0_2_0_9,-999,skipped,,411751.2000000477,,,411735.90000003576,,411751.3000000119,2021-11-05T22:51:01.743Z,411767.236,1636152235,full,ni_sequenzen,NI_Sequenzen,10,2,,,,,,,,,,,,
,Move,canvas.Screen,0_3_0_2_0_10,-999,skipped,,411754,,,411735.90000003576,,411754.2000000477,2021-11-05T22:51:01.746Z,411767.236,1636152235,full,ni_sequenzen,NI_Sequenzen,11,2,,,,,,,,,,,,
,Move,canvas.Screen,0_3_0_2_0_11,-999,skipped,,411756.10000002384,,,411735.90000003576,,411756.2000000477,2021-11-05T22:51:01.748Z,411767.236,1636152235,full,ni_sequenzen,NI_Sequenzen,12,2,,,,,,,,,,,,
,Move,canvas.Screen,0_3_0_2_0_12,-999,skipped,,411758.2000000477,,,411735.90000003576,,411758.3000000119,2021-11-05T22:51:01.750Z,411767.236,1636152235,full,ni_sequenzen,NI_Sequenzen,13,2,,,,,,,,,,,,
,Move,canvas.Screen,0_3_0_2_0_13,-999,skipped,,411760.2000000477,,,411735.90000003576,,411760.3000000119,2021-11-05T22:51:01.752Z,411767.236,1636152235,full,ni_sequenzen,NI_Sequenzen,14,2,,,,,,,,,,,,
,Move,canvas.Screen,0_3_0_2_0_14,-999,skipped,,411762.8000000119,,,411735.90000003576,,411762.8000000119,2021-11-05T22:51:01.755Z,411767.236,1636152235,full,ni_sequenzen,NI_Sequenzen,15,2,,,,,,,,,,,,
,Loop,flow.Loop,0_3_0_2_0,-999,completion,,405763.10000002384,405772.011,405792.046,411735.90000003576,5943.85400003579,411762.90000003576,2021-11-05T22:51:01.755Z,411767.236,1636152235,full,ni_sequenzen,NI_Sequenzen,,2,,,,,,,,,,,,
,Feedback,canvas.Screen,0_3_0_2_1,,timeout,,411764.60000002384,411747.192,411767.236,415755.952,4008.7600000000093,415757.8000000119,2021-11-05T22:51:05.750Z,415775.996,1636152235,full,ni_sequenzen,NI_Sequenzen,,2,,,,,,,,,,,,
,Trial,flow.Sequence,0_3_0_2,,completion,,405753.5,405772.011,405792.046,415755.952,9963.906000000017,415757.90000003576,2021-11-05T22:51:05.750Z,415796.04,1636152235,full,ni_sequenzen,NI_Sequenzen,,2,,,,,,,,,,,,
,Move,canvas.Screen,0_3_0_3_0_0,right,response,,415771.40000003576,415775.996,415796.04,418064.10000002384,2268.060000023863,418064.60000002384,2021-11-05T22:51:08.056Z,418081.181,1636152235,full,ni_sequenzen,NI_Sequenzen,1,3,,,,,,,,,,,,
,Move,canvas.Screen,0_3_0_3_0_1,down,response,,418067.3000000119,418061.137,418081.181,418509.3000000119,428.1190000119386,418509.90000003576,2021-11-05T22:51:08.502Z,418522.151,1636152235,full,ni_sequenzen,NI_Sequenzen,2,3,,,,,,,,,,,,
,Move,canvas.Screen,0_3_0_3_0_2,right,response,,418513.2000000477,418502.107,418522.151,418946.5,424.3489999999874,418947.10000002384,2021-11-05T22:51:08.939Z,418963.131,1636152235,full,ni_sequenzen,NI_Sequenzen,3,3,,,,,,,,,,,,
,Move,canvas.Screen,0_3_0_3_0_3,down,response,,418950.40000003576,418943.088,418963.131,419343.7000000477,380.56900004768977,419344.2000000477,2021-11-05T22:51:09.336Z,419384.091,1636152235,full,ni_sequenzen,NI_Sequenzen,4,3,,,,,,,,,,,,
,Move,canvas.Screen,0_3_0_3_0_4,-999,skipped,,419346.90000003576,,,419343.7000000477,,419347.10000002384,2021-11-05T22:51:09.339Z,419384.091,1636152235,full,ni_sequenzen,NI_Sequenzen,5,3,,,,,,,,,,,,
,Move,canvas.Screen,0_3_0_3_0_5,-999,skipped,,419350.3000000119,,,419343.7000000477,,419350.40000003576,2021-11-05T22:51:09.342Z,419384.091,1636152235,full,ni_sequenzen,NI_Sequenzen,6,3,,,,,,,,,,,,
,Move,canvas.Screen,0_3_0_3_0_6,-999,skipped,,419352.60000002384,,,419343.7000000477,,419352.7000000477,2021-11-05T22:51:09.344Z,419384.091,1636152235,full,ni_sequenzen,NI_Sequenzen,7,3,,,,,,,,,,,,
,Move,canvas.Screen,0_3_0_3_0_7,-999,skipped,,419354.8000000119,,,419343.7000000477,,419354.90000003576,2021-11-05T22:51:09.347Z,419384.091,1636152235,full,ni_sequenzen,NI_Sequenzen,8,3,,,,,,,,,,,,
,Move,canvas.Screen,0_3_0_3_0_8,-999,skipped,,419357.2000000477,,,419343.7000000477,,419357.2000000477,2021-11-05T22:51:09.349Z,419384.091,1636152235,full,ni_sequenzen,NI_Sequenzen,9,3,,,,,,,,,,,,
,Move,canvas.Screen,0_3_0_3_0_9,-999,skipped,,419359.90000003576,,,419343.7000000477,,419360.10000002384,2021-11-05T22:51:09.352Z,419384.091,1636152235,full,ni_sequenzen,NI_Sequenzen,10,3,,,,,,,,,,,,
,Move,canvas.Screen,0_3_0_3_0_10,-999,skipped,,419362.2000000477,,,419343.7000000477,,419362.2000000477,2021-11-05T22:51:09.354Z,419384.091,1636152235,full,ni_sequenzen,NI_Sequenzen,11,3,,,,,,,,,,,,
,Move,canvas.Screen,0_3_0_3_0_11,-999,skipped,,419364.40000003576,,,419343.7000000477,,419364.5,2021-11-05T22:51:09.356Z,419384.091,1636152235,full,ni_sequenzen,NI_Sequenzen,12,3,,,,,,,,,,,,
,Move,canvas.Screen,0_3_0_3_0_12,-999,skipped,,419367.40000003576,,,419343.7000000477,,419367.5,2021-11-05T22:51:09.359Z,419384.091,1636152235,full,ni_sequenzen,NI_Sequenzen,13,3,,,,,,,,,,,,
,Move,canvas.Screen,0_3_0_3_0_13,-999,skipped,,419369.8000000119,,,419343.7000000477,,419370,2021-11-05T22:51:09.362Z,419384.091,1636152235,full,ni_sequenzen,NI_Sequenzen,14,3,,,,,,,,,,,,
,Move,canvas.Screen,0_3_0_3_0_14,-999,skipped,,419372.3000000119,,,419343.7000000477,,419372.40000003576,2021-11-05T22:51:09.364Z,419384.091,1636152235,full,ni_sequenzen,NI_Sequenzen,15,3,,,,,,,,,,,,
,Loop,flow.Loop,0_3_0_3_0,-999,completion,,415768.40000003576,415775.996,415796.04,419343.7000000477,3547.6600000477047,419372.60000002384,2021-11-05T22:51:09.364Z,419384.091,1636152235,full,ni_sequenzen,NI_Sequenzen,,3,,,,,,,,,,,,
,Feedback,canvas.Screen,0_3_0_3_1,,timeout,,419374.7000000477,419364.047,419384.091,423373.273,4009.228000000003,423374.5,2021-11-05T22:51:13.366Z,423393.319,1636152235,full,ni_sequenzen,NI_Sequenzen,,3,,,,,,,,,,,,
,Trial,flow.Sequence,0_3_0_3,,completion,,415758.2000000477,415775.996,415796.04,423373.273,7577.233000000007,423374.7000000477,2021-11-05T22:51:13.366Z,423413.365,1636152235,full,ni_sequenzen,NI_Sequenzen,,3,,,,,,,,,,,,
,Move,canvas.Screen,0_3_0_4_0_0,right,response,,423387.3000000119,423393.319,423413.365,425193,1779.6350000000093,425193.5,2021-11-05T22:51:15.185Z,425216.918,1636152235,full,ni_sequenzen,NI_Sequenzen,1,4,,,,,,,,,,,,
,Move,canvas.Screen,0_3_0_4_0_1,down,response,,425196.90000003576,425196.875,425216.918,425766.10000002384,549.1820000238367,425766.7000000477,2021-11-05T22:51:15.758Z,425778.305,1636152235,full,ni_sequenzen,NI_Sequenzen,2,4,,,,,,,,,,,,
,Move,canvas.Screen,0_3_0_4_0_2,right,response,,425769.60000002384,425758.26,425778.305,426203.2000000477,424.8950000476907,426203.7000000477,2021-11-05T22:51:16.196Z,426219.281,1636152235,full,ni_sequenzen,NI_Sequenzen,3,4,,,,,,,,,,,,
,Move,canvas.Screen,0_3_0_4_0_3,down,response,,426206.60000002384,426199.236,426219.281,426640.5,421.21899999998277,426641,2021-11-05T22:51:16.633Z,426680.26,1636152235,full,ni_sequenzen,NI_Sequenzen,4,4,,,,,,,,,,,,
,Move,canvas.Screen,0_3_0_4_0_4,-999,skipped,,426643.60000002384,,,426640.5,,426643.8000000119,2021-11-05T22:51:16.636Z,426680.26,1636152235,full,ni_sequenzen,NI_Sequenzen,5,4,,,,,,,,,,,,
,Move,canvas.Screen,0_3_0_4_0_5,-999,skipped,,426646.40000003576,,,426640.5,,426646.5,2021-11-05T22:51:16.638Z,426680.26,1636152235,full,ni_sequenzen,NI_Sequenzen,6,4,,,,,,,,,,,,
,Move,canvas.Screen,0_3_0_4_0_6,-999,skipped,,426648.60000002384,,,426640.5,,426648.7000000477,2021-11-05T22:51:16.640Z,426680.26,1636152235,full,ni_sequenzen,NI_Sequenzen,7,4,,,,,,,,,,,,
,Move,canvas.Screen,0_3_0_4_0_7,-999,skipped,,426650.90000003576,,,426640.5,,426650.90000003576,2021-11-05T22:51:16.643Z,426680.26,1636152235,full,ni_sequenzen,NI_Sequenzen,8,4,,,,,,,,,,,,
,Move,canvas.Screen,0_3_0_4_0_8,-999,skipped,,426653.8000000119,,,426640.5,,426654,2021-11-05T22:51:16.646Z,426680.26,1636152235,full,ni_sequenzen,NI_Sequenzen,9,4,,,,,,,,,,,,
,Move,canvas.Screen,0_3_0_4_0_9,-999,skipped,,426656,,,426640.5,,426656.10000002384,2021-11-05T22:51:16.648Z,426680.26,1636152235,full,ni_sequenzen,NI_Sequenzen,10,4,,,,,,,,,,,,
,Move,canvas.Screen,0_3_0_4_0_10,-999,skipped,,426658.10000002384,,,426640.5,,426658.3000000119,2021-11-05T22:51:16.650Z,426680.26,1636152235,full,ni_sequenzen,NI_Sequenzen,11,4,,,,,,,,,,,,
,Move,canvas.Screen,0_3_0_4_0_11,-999,skipped,,426660.7000000477,,,426640.5,,426660.90000003576,2021-11-05T22:51:16.653Z,426680.26,1636152235,full,ni_sequenzen,NI_Sequenzen,12,4,,,,,,,,,,,,
,Move,canvas.Screen,0_3_0_4_0_12,-999,skipped,,426663.10000002384,,,426640.5,,426663.10000002384,2021-11-05T22:51:16.655Z,426680.26,1636152235,full,ni_sequenzen,NI_Sequenzen,13,4,,,,,,,,,,,,
,Move,canvas.Screen,0_3_0_4_0_13,-999,skipped,,426665.2000000477,,,426640.5,,426665.3000000119,2021-11-05T22:51:16.657Z,426680.26,1636152235,full,ni_sequenzen,NI_Sequenzen,14,4,,,,,,,,,,,,
,Move,canvas.Screen,0_3_0_4_0_14,-999,skipped,,426667.90000003576,,,426640.5,,426668.10000002384,2021-11-05T22:51:16.660Z,426680.26,1636152235,full,ni_sequenzen,NI_Sequenzen,15,4,,,,,,,,,,,,
,Loop,flow.Loop,0_3_0_4_0,-999,completion,,423384.60000002384,423393.319,423413.365,426640.5,3227.1350000000093,426668.3000000119,2021-11-05T22:51:16.660Z,426680.26,1636152235,full,ni_sequenzen,NI_Sequenzen,,4,,,,,,,,,,,,
,Feedback,canvas.Screen,0_3_0_4_1,,timeout,,426671.10000002384,426660.216,426680.26,430669.07,4008.853999999992,430670.3000000119,2021-11-05T22:51:20.662Z,430689.114,1636152235,full,ni_sequenzen,NI_Sequenzen,,4,,,,,,,,,,,,
,Trial,flow.Sequence,0_3_0_4,,completion,,423374.90000003576,423393.319,423413.365,430669.07,7255.705000000016,430670.40000003576,2021-11-05T22:51:20.662Z,430709.158,1636152235,full,ni_sequenzen,NI_Sequenzen,,4,,,,,,,,,,,,
,Move,canvas.Screen,0_3_0_5_0_0,right,response,,430682.3000000119,430689.114,430709.158,432737.7000000477,2028.542000047688,432738.3000000119,2021-11-05T22:51:22.730Z,432753.586,1636152235,full,ni_sequenzen,NI_Sequenzen,1,5,,,,,,,,,,,,
,Move,canvas.Screen,0_3_0_5_0_1,down,response,,432741.2000000477,432733.543,432753.586,433198.60000002384,445.0140000238316,433199.10000002384,2021-11-05T22:51:23.191Z,433214.992,1636152235,full,ni_sequenzen,NI_Sequenzen,2,5,,,,,,,,,,,,
,Move,canvas.Screen,0_3_0_5_0_2,right,response,,433201.90000003576,433194.946,433214.992,433627.90000003576,412.9080000357353,433628.40000003576,2021-11-05T22:51:23.620Z,433635.817,1636152235,full,ni_sequenzen,NI_Sequenzen,3,5,,,,,,,,,,,,
,Move,canvas.Screen,0_3_0_5_0_3,down,response,,433631.2000000477,433615.77,433635.817,434033.2000000477,397.3830000477028,434033.7000000477,2021-11-05T22:51:24.025Z,434076.785,1636152235,full,ni_sequenzen,NI_Sequenzen,4,5,,,,,,,,,,,,
,Move,canvas.Screen,0_3_0_5_0_4,-999,skipped,,434037.60000002384,,,434033.2000000477,,434037.8000000119,2021-11-05T22:51:24.030Z,434076.785,1636152235,full,ni_sequenzen,NI_Sequenzen,5,5,,,,,,,,,,,,
,Move,canvas.Screen,0_3_0_5_0_5,-999,skipped,,434041.3000000119,,,434033.2000000477,,434041.40000003576,2021-11-05T22:51:24.033Z,434076.785,1636152235,full,ni_sequenzen,NI_Sequenzen,6,5,,,,,,,,,,,,
,Move,canvas.Screen,0_3_0_5_0_6,-999,skipped,,434045,,,434033.2000000477,,434045.10000002384,2021-11-05T22:51:24.037Z,434076.785,1636152235,full,ni_sequenzen,NI_Sequenzen,7,5,,,,,,,,,,,,
,Move,canvas.Screen,0_3_0_5_0_7,-999,skipped,,434048.2000000477,,,434033.2000000477,,434048.3000000119,2021-11-05T22:51:24.040Z,434076.785,1636152235,full,ni_sequenzen,NI_Sequenzen,8,5,,,,,,,,,,,,
,Move,canvas.Screen,0_3_0_5_0_8,-999,skipped,,434050.5,,,434033.2000000477,,434050.60000002384,2021-11-05T22:51:24.042Z,434076.785,1636152235,full,ni_sequenzen,NI_Sequenzen,9,5,,,,,,,,,,,,
,Move,canvas.Screen,0_3_0_5_0_9,-999,skipped,,434052.8000000119,,,434033.2000000477,,434052.90000003576,2021-11-05T22:51:24.045Z,434076.785,1636152235,full,ni_sequenzen,NI_Sequenzen,10,5,,,,,,,,,,,,
,Move,canvas.Screen,0_3_0_5_0_10,-999,skipped,,434055.5,,,434033.2000000477,,434055.7000000477,2021-11-05T22:51:24.047Z,434076.785,1636152235,full,ni_sequenzen,NI_Sequenzen,11,5,,,,,,,,,,,,
,Move,canvas.Screen,0_3_0_5_0_11,-999,skipped,,434057.8000000119,,,434033.2000000477,,434057.90000003576,2021-11-05T22:51:24.050Z,434076.785,1636152235,full,ni_sequenzen,NI_Sequenzen,12,5,,,,,,,,,,,,
,Move,canvas.Screen,0_3_0_5_0_12,-999,skipped,,434059.90000003576,,,434033.2000000477,,434060,2021-11-05T22:51:24.052Z,434076.785,1636152235,full,ni_sequenzen,NI_Sequenzen,13,5,,,,,,,,,,,,
,Move,canvas.Screen,0_3_0_5_0_13,-999,skipped,,434062.2000000477,,,434033.2000000477,,434062.2000000477,2021-11-05T22:51:24.054Z,434076.785,1636152235,full,ni_sequenzen,NI_Sequenzen,14,5,,,,,,,,,,,,
,Move,canvas.Screen,0_3_0_5_0_14,-999,skipped,,434064.90000003576,,,434033.2000000477,,434064.90000003576,2021-11-05T22:51:24.057Z,434076.785,1636152235,full,ni_sequenzen,NI_Sequenzen,15,5,,,,,,,,,,,,
,Loop,flow.Loop,0_3_0_5_0,-999,completion,,430679.40000003576,430689.114,430709.158,434033.2000000477,3324.042000047688,434065.10000002384,2021-11-05T22:51:24.057Z,434076.785,1636152235,full,ni_sequenzen,NI_Sequenzen,,5,,,,,,,,,,,,
,Feedback,canvas.Screen,0_3_0_5_1,,timeout,,434066.8000000119,434056.737,434076.785,438065.829,4009.0900000000256,438066.8000000119,2021-11-05T22:51:28.059Z,438085.875,1636152235,full,ni_sequenzen,NI_Sequenzen,,5,,,,,,,,,,,,
,Trial,flow.Sequence,0_3_0_5,,completion,,430670.7000000477,430689.114,430709.158,438065.829,7356.671000000031,438066.90000003576,2021-11-05T22:51:28.059Z,438105.921,1636152235,full,ni_sequenzen,NI_Sequenzen,,5,,,,,,,,,,,,
,Move,canvas.Screen,0_3_0_6_0_0,right,response,,438079.8000000119,438085.875,438105.921,439291.2000000477,1185.2790000477107,439291.90000003576,2021-11-05T22:51:29.284Z,439308.282,1636152235,full,ni_sequenzen,NI_Sequenzen,1,6,,,,,,,,,,,,
,Move,canvas.Screen,0_3_0_6_0_1,down,response,,439295.3000000119,439288.238,439308.282,439680.5,372.2179999999935,439681,2021-11-05T22:51:29.673Z,439689.117,1636152235,full,ni_sequenzen,NI_Sequenzen,2,6,,,,,,,,,,,,
,Move,canvas.Screen,0_3_0_6_0_2,right,response,,439683.90000003576,439669.073,439689.117,440045.90000003576,356.7830000357353,440046.40000003576,2021-11-05T22:51:30.038Z,440049.842,1636152235,full,ni_sequenzen,NI_Sequenzen,3,6,,,,,,,,,,,,
,Move,canvas.Screen,0_3_0_6_0_3,down,response,,440049.3000000119,440029.8,440049.842,440411.2000000477,361.3580000476795,440411.8000000119,2021-11-05T22:51:30.404Z,440450.755,1636152235,full,ni_sequenzen,NI_Sequenzen,4,6,,,,,,,,,,,,
,Move,canvas.Screen,0_3_0_6_0_4,-999,skipped,,440416.5,,,440411.2000000477,,440416.60000002384,2021-11-05T22:51:30.408Z,440450.755,1636152235,full,ni_sequenzen,NI_Sequenzen,5,6,,,,,,,,,,,,
,Move,canvas.Screen,0_3_0_6_0_5,-999,skipped,,440420.10000002384,,,440411.2000000477,,440420.3000000119,2021-11-05T22:51:30.412Z,440450.755,1636152235,full,ni_sequenzen,NI_Sequenzen,6,6,,,,,,,,,,,,
,Move,canvas.Screen,0_3_0_6_0_6,-999,skipped,,440424,,,440411.2000000477,,440424.10000002384,2021-11-05T22:51:30.416Z,440450.755,1636152235,full,ni_sequenzen,NI_Sequenzen,7,6,,,,,,,,,,,,
,Move,canvas.Screen,0_3_0_6_0_7,-999,skipped,,440427.90000003576,,,440411.2000000477,,440428,2021-11-05T22:51:30.420Z,440450.755,1636152235,full,ni_sequenzen,NI_Sequenzen,8,6,,,,,,,,,,,,
,Move,canvas.Screen,0_3_0_6_0_8,-999,skipped,,440430.40000003576,,,440411.2000000477,,440430.5,2021-11-05T22:51:30.422Z,440450.755,1636152235,full,ni_sequenzen,NI_Sequenzen,9,6,,,,,,,,,,,,
,Move,canvas.Screen,0_3_0_6_0_9,-999,skipped,,440432.8000000119,,,440411.2000000477,,440433,2021-11-05T22:51:30.425Z,440450.755,1636152235,full,ni_sequenzen,NI_Sequenzen,10,6,,,,,,,,,,,,
,Move,canvas.Screen,0_3_0_6_0_10,-999,skipped,,440436,,,440411.2000000477,,440436.10000002384,2021-11-05T22:51:30.428Z,440450.755,1636152235,full,ni_sequenzen,NI_Sequenzen,11,6,,,,,,,,,,,,
,Move,canvas.Screen,0_3_0_6_0_11,-999,skipped,,440438.40000003576,,,440411.2000000477,,440438.5,2021-11-05T22:51:30.430Z,440450.755,1636152235,full,ni_sequenzen,NI_Sequenzen,12,6,,,,,,,,,,,,
,Move,canvas.Screen,0_3_0_6_0_12,-999,skipped,,440440.8000000119,,,440411.2000000477,,440440.8000000119,2021-11-05T22:51:30.433Z,440450.755,1636152235,full,ni_sequenzen,NI_Sequenzen,13,6,,,,,,,,,,,,
,Move,canvas.Screen,0_3_0_6_0_13,-999,skipped,,440443.60000002384,,,440411.2000000477,,440443.7000000477,2021-11-05T22:51:30.435Z,440450.755,1636152235,full,ni_sequenzen,NI_Sequenzen,14,6,,,,,,,,,,,,
,Move,canvas.Screen,0_3_0_6_0_14,-999,skipped,,440446,,,440411.2000000477,,440446.10000002384,2021-11-05T22:51:30.438Z,440450.755,1636152235,full,ni_sequenzen,NI_Sequenzen,15,6,,,,,,,,,,,,
,Loop,flow.Loop,0_3_0_6_0,-999,completion,,438077.2000000477,438085.875,438105.921,440411.2000000477,2305.2790000477107,440446.3000000119,2021-11-05T22:51:30.438Z,440450.755,1636152235,full,ni_sequenzen,NI_Sequenzen,,6,,,,,,,,,,,,
,Feedback,canvas.Screen,0_3_0_6_1,,timeout,,440448.10000002384,440430.713,440450.755,444438.735,4008.0200000000186,444440.7000000477,2021-11-05T22:51:34.432Z,444458.775,1636152235,full,ni_sequenzen,NI_Sequenzen,,6,,,,,,,,,,,,
,Trial,flow.Sequence,0_3_0_6,,completion,,438067.2000000477,438085.875,438105.921,444438.735,6332.814000000013,444440.8000000119,2021-11-05T22:51:34.433Z,444478.815,1636152235,full,ni_sequenzen,NI_Sequenzen,,6,,,,,,,,,,,,
,Move,canvas.Screen,0_3_0_7_0_0,down,response,,444454.3000000119,444458.775,444478.815,448265.3000000119,3786.4850000119186,448265.90000003576,2021-11-05T22:51:38.258Z,448286.421,1636152235,full,ni_sequenzen,NI_Sequenzen,1,7,,,,,,,,,,,,
,Move,canvas.Screen,0_3_0_7_0_1,left,response,,448269,448266.381,448286.421,448646.2000000477,359.7790000477107,448646.7000000477,2021-11-05T22:51:38.638Z,448668.068,1636152235,full,ni_sequenzen,NI_Sequenzen,2,7,,,,,,,,,,,,
,Move,canvas.Screen,0_3_0_7_0_2,down,response,,448649.60000002384,448648.028,448668.068,449203.7000000477,535.6320000476553,449204.2000000477,2021-11-05T22:51:39.196Z,449210.066,1636152235,full,ni_sequenzen,NI_Sequenzen,3,7,,,,,,,,,,,,
,Move,canvas.Screen,0_3_0_7_0_3,left,response,,449206.40000003576,449190.026,449210.066,449576.60000002384,366.53400002385024,449577,2021-11-05T22:51:39.569Z,449611.063,1636152235,full,ni_sequenzen,NI_Sequenzen,4,7,,,,,,,,,,,,
,Move,canvas.Screen,0_3_0_7_0_4,-999,skipped,,449579.7000000477,,,449576.60000002384,,449579.8000000119,2021-11-05T22:51:39.572Z,449611.063,1636152235,full,ni_sequenzen,NI_Sequenzen,5,7,,,,,,,,,,,,
,Move,canvas.Screen,0_3_0_7_0_5,-999,skipped,,449582.60000002384,,,449576.60000002384,,449582.7000000477,2021-11-05T22:51:39.574Z,449611.063,1636152235,full,ni_sequenzen,NI_Sequenzen,6,7,,,,,,,,,,,,
,Move,canvas.Screen,0_3_0_7_0_6,-999,skipped,,449584.7000000477,,,449576.60000002384,,449584.8000000119,2021-11-05T22:51:39.577Z,449611.063,1636152235,full,ni_sequenzen,NI_Sequenzen,7,7,,,,,,,,,,,,
,Move,canvas.Screen,0_3_0_7_0_7,-999,skipped,,449586.90000003576,,,449576.60000002384,,449587,2021-11-05T22:51:39.579Z,449611.063,1636152235,full,ni_sequenzen,NI_Sequenzen,8,7,,,,,,,,,,,,
,Move,canvas.Screen,0_3_0_7_0_8,-999,skipped,,449589.10000002384,,,449576.60000002384,,449589.2000000477,2021-11-05T22:51:39.581Z,449611.063,1636152235,full,ni_sequenzen,NI_Sequenzen,9,7,,,,,,,,,,,,
,Move,canvas.Screen,0_3_0_7_0_9,-999,skipped,,449592,,,449576.60000002384,,449592.10000002384,2021-11-05T22:51:39.584Z,449611.063,1636152235,full,ni_sequenzen,NI_Sequenzen,10,7,,,,,,,,,,,,
,Move,canvas.Screen,0_3_0_7_0_10,-999,skipped,,449594.2000000477,,,449576.60000002384,,449594.3000000119,2021-11-05T22:51:39.586Z,449611.063,1636152235,full,ni_sequenzen,NI_Sequenzen,11,7,,,,,,,,,,,,
,Move,canvas.Screen,0_3_0_7_0_11,-999,skipped,,449596.90000003576,,,449576.60000002384,,449597,2021-11-05T22:51:39.589Z,449611.063,1636152235,full,ni_sequenzen,NI_Sequenzen,12,7,,,,,,,,,,,,
,Move,canvas.Screen,0_3_0_7_0_12,-999,skipped,,449600.3000000119,,,449576.60000002384,,449600.40000003576,2021-11-05T22:51:39.592Z,449611.063,1636152235,full,ni_sequenzen,NI_Sequenzen,13,7,,,,,,,,,,,,
,Move,canvas.Screen,0_3_0_7_0_13,-999,skipped,,449602.40000003576,,,449576.60000002384,,449602.5,2021-11-05T22:51:39.594Z,449611.063,1636152235,full,ni_sequenzen,NI_Sequenzen,14,7,,,,,,,,,,,,
,Move,canvas.Screen,0_3_0_7_0_14,-999,skipped,,449604.7000000477,,,449576.60000002384,,449604.7000000477,2021-11-05T22:51:39.596Z,449611.063,1636152235,full,ni_sequenzen,NI_Sequenzen,15,7,,,,,,,,,,,,
,Loop,flow.Loop,0_3_0_7_0,-999,completion,,444451.90000003576,444458.775,444478.815,449576.60000002384,5097.7850000238395,449604.90000003576,2021-11-05T22:51:39.597Z,449611.063,1636152235,full,ni_sequenzen,NI_Sequenzen,,7,,,,,,,,,,,,
,Feedback,canvas.Screen,0_3_0_7_1,,timeout,,449607.10000002384,449591.023,449611.063,453599.026,4008.002999999968,453600.5,2021-11-05T22:51:43.592Z,453619.066,1636152235,full,ni_sequenzen,NI_Sequenzen,,7,,,,,,,,,,,,
,Trial,flow.Sequence,0_3_0_7,,completion,,444441,444458.775,444478.815,453599.026,9120.21100000001,453600.60000002384,2021-11-05T22:51:43.592Z,453639.106,1636152235,full,ni_sequenzen,NI_Sequenzen,,7,,,,,,,,,,,,
,Move,canvas.Screen,0_3_0_8_0_0,down,response,,453615,453619.066,453639.106,455728.10000002384,2088.994000023813,455728.60000002384,2021-11-05T22:51:45.720Z,455743.361,1636152235,full,ni_sequenzen,NI_Sequenzen,1,8,,,,,,,,,,,,
,Move,canvas.Screen,0_3_0_8_0_1,left,response,,455731.90000003576,455723.321,455743.361,456116.8000000119,373.4390000119456,456117.3000000119,2021-11-05T22:51:46.109Z,456125.41,1636152235,full,ni_sequenzen,NI_Sequenzen,2,8,,,,,,,,,,,,
,Move,canvas.Screen,0_3_0_8_0_2,down,response,,456120,456105.367,456125.41,456554.5,429.0900000000256,456555,2021-11-05T22:51:46.547Z,456566.581,1636152235,full,ni_sequenzen,NI_Sequenzen,3,8,,,,,,,,,,,,
,Move,canvas.Screen,0_3_0_8_0_3,left,response,,456557.5,456546.536,456566.581,456919.40000003576,352.8190000357572,456920,2021-11-05T22:51:46.912Z,456967.417,1636152235,full,ni_sequenzen,NI_Sequenzen,4,8,,,,,,,,,,,,
,Move,canvas.Screen,0_3_0_8_0_4,-999,skipped,,456922.90000003576,,,456919.40000003576,,456922.90000003576,2021-11-05T22:51:46.915Z,456967.417,1636152235,full,ni_sequenzen,NI_Sequenzen,5,8,,,,,,,,,,,,
,Move,canvas.Screen,0_3_0_8_0_5,-999,skipped,,456925.3000000119,,,456919.40000003576,,456925.40000003576,2021-11-05T22:51:46.917Z,456967.417,1636152235,full,ni_sequenzen,NI_Sequenzen,6,8,,,,,,,,,,,,
,Move,canvas.Screen,0_3_0_8_0_6,-999,skipped,,456927.60000002384,,,456919.40000003576,,456927.60000002384,2021-11-05T22:51:46.919Z,456967.417,1636152235,full,ni_sequenzen,NI_Sequenzen,7,8,,,,,,,,,,,,
,Move,canvas.Screen,0_3_0_8_0_7,-999,skipped,,456930.5,,,456919.40000003576,,456930.60000002384,2021-11-05T22:51:46.922Z,456967.417,1636152235,full,ni_sequenzen,NI_Sequenzen,8,8,,,,,,,,,,,,
,Move,canvas.Screen,0_3_0_8_0_8,-999,skipped,,456932.60000002384,,,456919.40000003576,,456932.7000000477,2021-11-05T22:51:46.925Z,456967.417,1636152235,full,ni_sequenzen,NI_Sequenzen,9,8,,,,,,,,,,,,
,Move,canvas.Screen,0_3_0_8_0_9,-999,skipped,,456935.10000002384,,,456919.40000003576,,456935.10000002384,2021-11-05T22:51:46.927Z,456967.417,1636152235,full,ni_sequenzen,NI_Sequenzen,10,8,,,,,,,,,,,,
