meta,sender,sender_type,sender_id,response,ended_on,instrCount,time_run,time_render,time_show,time_end,duration,time_commit,timestamp,time_switch,openLabId,type,task,project,move,trialN,blockN_Train,blockN,moveCount,currPP,points,movesTrial,visitedFields,diff,reward,Strategie,Zweck,Probleme
[object Object],Screen_1,canvas.Screen,0_0_0_0,cont,response,1,696.9000000953674,691.892,775.132,17986.200000047684,17211.068000047682,17990.400000095367,2021-11-04T16:50:11.591Z,18108.976,1636044587,full,ni_sequenzen,NI_Sequenzen,,,,,,,,,,,,,,
,Screen_2,canvas.Screen,0_0_0_1,cont,response,1,18105.700000047684,18092.297,18108.976,29884.300000190735,11775.324000190736,29885.200000047684,2021-11-04T16:50:23.486Z,29992.621,1636044587,full,ni_sequenzen,NI_Sequenzen,,,,,,,,,,,,,,
,Screen_3,canvas.Screen,0_0_0_2,cont,response,1,29987.10000014305,29976.062,29992.621,39101.90000009537,9109.279000095368,39102.800000190735,2021-11-04T16:50:32.703Z,39109.53,1636044587,full,ni_sequenzen,NI_Sequenzen,,,,,,,,,,,,,,
,Screen_4,canvas.Screen,0_0_0_3,back,response,1,39105.800000190735,39092.818,39109.53,43221.800000190735,4112.270000190736,43222.40000009537,2021-11-04T16:50:36.823Z,43243.015,1636044587,full,ni_sequenzen,NI_Sequenzen,,,,,,,,,,,,,,
,Sequence,flow.Sequence,0_0_0,,completion,1,629.8000001907349,691.892,775.132,43221.800000190735,42446.66800019074,43225,2021-11-04T16:50:36.826Z,43243.015,1636044587,full,ni_sequenzen,NI_Sequenzen,,,,,,,,,,,,,,
,Screen_1,canvas.Screen,0_0_1_0,,skipped,2,43227.800000190735,,,43227.800000190735,,43228,2021-11-04T16:50:36.829Z,43243.015,1636044587,full,ni_sequenzen,NI_Sequenzen,,,,,,,,,,,,,,
,Screen_2,canvas.Screen,0_0_1_1,,skipped,2,43229.5,,,43227.800000190735,,43229.5,2021-11-04T16:50:36.830Z,43243.015,1636044587,full,ni_sequenzen,NI_Sequenzen,,,,,,,,,,,,,,
,Screen_3,canvas.Screen,0_0_1_2,cont,response,2,43230.800000190735,43226.385,43243.015,44084.60000014305,841.5850001430517,44085.700000047684,2021-11-04T16:50:37.686Z,44093.043,1636044587,full,ni_sequenzen,NI_Sequenzen,,,,,,,,,,,,,,
,Screen_4,canvas.Screen,0_0_1_3,cont,response,2,44087.40000009537,44076.35,44093.043,47115.800000190735,3022.757000190737,47116.700000047684,2021-11-04T16:50:40.718Z,47309.796,1636044587,full,ni_sequenzen,NI_Sequenzen,,,,,,,,,,,,,,
,Sequence,flow.Sequence,0_0_1,,completion,2,43225.700000047684,43226.385,43243.015,47115.800000190735,3872.7850001907354,47117.10000014305,2021-11-04T16:50:40.718Z,47309.796,1636044587,full,ni_sequenzen,NI_Sequenzen,,,,,,,,,,,,,,
,Screen_1,canvas.Screen,0_0_2_0,,skipped,3,47119,,,47119.10000014305,,47119.200000047684,2021-11-04T16:50:40.720Z,47309.796,1636044587,full,ni_sequenzen,NI_Sequenzen,,,,,,,,,,,,,,
,Screen_2,canvas.Screen,0_0_2_1,,skipped,3,47121,,,47119.10000014305,,47121.10000014305,2021-11-04T16:50:40.722Z,47309.796,1636044587,full,ni_sequenzen,NI_Sequenzen,,,,,,,,,,,,,,
,Screen_3,canvas.Screen,0_0_2_2,,skipped,3,47122.300000190735,,,47119.10000014305,,47122.40000009537,2021-11-04T16:50:40.724Z,47309.796,1636044587,full,ni_sequenzen,NI_Sequenzen,,,,,,,,,,,,,,
,Screen_4,canvas.Screen,0_0_2_3,,skipped,3,47123.5,,,47119.10000014305,,47123.60000014305,2021-11-04T16:50:40.725Z,47309.796,1636044587,full,ni_sequenzen,NI_Sequenzen,,,,,,,,,,,,,,
,Sequence,flow.Sequence,0_0_2,,completion,3,47117.700000047684,,,47119.10000014305,,47123.90000009537,2021-11-04T16:50:40.725Z,47309.796,1636044587,full,ni_sequenzen,NI_Sequenzen,,,,,,,,,,,,,,
,Screen_1,canvas.Screen,0_0_3_0,,skipped,4,47126.40000009537,,,47126.5,,47126.5,2021-11-04T16:50:40.728Z,47309.796,1636044587,full,ni_sequenzen,NI_Sequenzen,,,,,,,,,,,,,,
,Screen_2,canvas.Screen,0_0_3_1,,skipped,4,47127.60000014305,,,47126.5,,47127.60000014305,2021-11-04T16:50:40.729Z,47309.796,1636044587,full,ni_sequenzen,NI_Sequenzen,,,,,,,,,,,,,,
,Screen_3,canvas.Screen,0_0_3_2,,skipped,4,47128.5,,,47126.5,,47128.60000014305,2021-11-04T16:50:40.730Z,47309.796,1636044587,full,ni_sequenzen,NI_Sequenzen,,,,,,,,,,,,,,
,Screen_4,canvas.Screen,0_0_3_3,,skipped,4,47139.40000009537,,,47126.5,,47139.60000014305,2021-11-04T16:50:40.741Z,47309.796,1636044587,full,ni_sequenzen,NI_Sequenzen,,,,,,,,,,,,,,
,Sequence,flow.Sequence,0_0_3,,completion,4,47125.5,,,47126.5,,47139.800000190735,2021-11-04T16:50:40.741Z,47309.796,1636044587,full,ni_sequenzen,NI_Sequenzen,,,,,,,,,,,,,,
,Screen_1,canvas.Screen,0_0_4_0,,skipped,5,47142,,,47142,,47142.10000014305,2021-11-04T16:50:40.743Z,47309.796,1636044587,full,ni_sequenzen,NI_Sequenzen,,,,,,,,,,,,,,
,Screen_2,canvas.Screen,0_0_4_1,,skipped,5,47143.60000014305,,,47142,,47143.60000014305,2021-11-04T16:50:40.745Z,47309.796,1636044587,full,ni_sequenzen,NI_Sequenzen,,,,,,,,,,,,,,
,Screen_3,canvas.Screen,0_0_4_2,,skipped,5,47144.700000047684,,,47142,,47144.800000190735,2021-11-04T16:50:40.746Z,47309.796,1636044587,full,ni_sequenzen,NI_Sequenzen,,,,,,,,,,,,,,
,Screen_4,canvas.Screen,0_0_4_3,,skipped,5,47145.800000190735,,,47142,,47145.90000009537,2021-11-04T16:50:40.747Z,47309.796,1636044587,full,ni_sequenzen,NI_Sequenzen,,,,,,,,,,,,,,
,Sequence,flow.Sequence,0_0_4,,completion,5,47140.5,,,47142,,47146,2021-11-04T16:50:40.747Z,47309.796,1636044587,full,ni_sequenzen,NI_Sequenzen,,,,,,,,,,,,,,
,Screen_1,canvas.Screen,0_0_5_0,,skipped,6,47147.60000014305,,,47147.60000014305,,47147.700000047684,2021-11-04T16:50:40.749Z,47309.796,1636044587,full,ni_sequenzen,NI_Sequenzen,,,,,,,,,,,,,,
,Screen_2,canvas.Screen,0_0_5_1,,skipped,6,47148.60000014305,,,47147.60000014305,,47148.700000047684,2021-11-04T16:50:40.750Z,47309.796,1636044587,full,ni_sequenzen,NI_Sequenzen,,,,,,,,,,,,,,
,Screen_3,canvas.Screen,0_0_5_2,,skipped,6,47149.800000190735,,,47147.60000014305,,47149.800000190735,2021-11-04T16:50:40.751Z,47309.796,1636044587,full,ni_sequenzen,NI_Sequenzen,,,,,,,,,,,,,,
,Screen_4,canvas.Screen,0_0_5_3,,skipped,6,47150.700000047684,,,47147.60000014305,,47150.90000009537,2021-11-04T16:50:40.752Z,47309.796,1636044587,full,ni_sequenzen,NI_Sequenzen,,,,,,,,,,,,,,
,Sequence,flow.Sequence,0_0_5,,completion,6,47146.60000014305,,,47147.60000014305,,47151,2021-11-04T16:50:40.752Z,47309.796,1636044587,full,ni_sequenzen,NI_Sequenzen,,,,,,,,,,,,,,
,Screen_1,canvas.Screen,0_0_6_0,,skipped,7,47152.10000014305,,,47152.10000014305,,47152.200000047684,2021-11-04T16:50:40.753Z,47309.796,1636044587,full,ni_sequenzen,NI_Sequenzen,,,,,,,,,,,,,,
,Screen_2,canvas.Screen,0_0_6_1,,skipped,7,47153.10000014305,,,47152.10000014305,,47153.300000190735,2021-11-04T16:50:40.754Z,47309.796,1636044587,full,ni_sequenzen,NI_Sequenzen,,,,,,,,,,,,,,
,Screen_3,canvas.Screen,0_0_6_2,,skipped,7,47154.300000190735,,,47152.10000014305,,47154.40000009537,2021-11-04T16:50:40.755Z,47309.796,1636044587,full,ni_sequenzen,NI_Sequenzen,,,,,,,,,,,,,,
,Screen_4,canvas.Screen,0_0_6_3,,skipped,7,47155.40000009537,,,47152.10000014305,,47155.40000009537,2021-11-04T16:50:40.757Z,47309.796,1636044587,full,ni_sequenzen,NI_Sequenzen,,,,,,,,,,,,,,
,Sequence,flow.Sequence,0_0_6,,completion,7,47151.300000190735,,,47152.10000014305,,47155.700000047684,2021-11-04T16:50:40.757Z,47309.796,1636044587,full,ni_sequenzen,NI_Sequenzen,,,,,,,,,,,,,,
,Screen_1,canvas.Screen,0_0_7_0,,skipped,8,47156.90000009537,,,47156.90000009537,,47157,2021-11-04T16:50:40.758Z,47309.796,1636044587,full,ni_sequenzen,NI_Sequenzen,,,,,,,,,,,,,,
,Screen_2,canvas.Screen,0_0_7_1,,skipped,8,47157.800000190735,,,47156.90000009537,,47157.90000009537,2021-11-04T16:50:40.759Z,47309.796,1636044587,full,ni_sequenzen,NI_Sequenzen,,,,,,,,,,,,,,
,Screen_3,canvas.Screen,0_0_7_2,,skipped,8,47160.300000190735,,,47156.90000009537,,47160.40000009537,2021-11-04T16:50:40.762Z,47309.796,1636044587,full,ni_sequenzen,NI_Sequenzen,,,,,,,,,,,,,,
,Screen_4,canvas.Screen,0_0_7_3,,skipped,8,47161.90000009537,,,47156.90000009537,,47162.10000014305,2021-11-04T16:50:40.763Z,47309.796,1636044587,full,ni_sequenzen,NI_Sequenzen,,,,,,,,,,,,,,
,Sequence,flow.Sequence,0_0_7,,completion,8,47156.10000014305,,,47156.90000009537,,47162.300000190735,2021-11-04T16:50:40.763Z,47309.796,1636044587,full,ni_sequenzen,NI_Sequenzen,,,,,,,,,,,,,,
,Screen_1,canvas.Screen,0_0_8_0,,skipped,9,47163.700000047684,,,47163.700000047684,,47163.800000190735,2021-11-04T16:50:40.765Z,47309.796,1636044587,full,ni_sequenzen,NI_Sequenzen,,,,,,,,,,,,,,
,Screen_2,canvas.Screen,0_0_8_1,,skipped,9,47164.700000047684,,,47163.700000047684,,47164.800000190735,2021-11-04T16:50:40.766Z,47309.796,1636044587,full,ni_sequenzen,NI_Sequenzen,,,,,,,,,,,,,,
,Screen_3,canvas.Screen,0_0_8_2,,skipped,9,47166,,,47163.700000047684,,47166,2021-11-04T16:50:40.767Z,47309.796,1636044587,full,ni_sequenzen,NI_Sequenzen,,,,,,,,,,,,,,
,Screen_4,canvas.Screen,0_0_8_3,,skipped,9,47167,,,47163.700000047684,,47167.10000014305,2021-11-04T16:50:40.768Z,47309.796,1636044587,full,ni_sequenzen,NI_Sequenzen,,,,,,,,,,,,,,
,Sequence,flow.Sequence,0_0_8,,completion,9,47162.800000190735,,,47163.700000047684,,47167.200000047684,2021-11-04T16:50:40.768Z,47309.796,1636044587,full,ni_sequenzen,NI_Sequenzen,,,,,,,,,,,,,,
,Screen_1,canvas.Screen,0_0_9_0,,skipped,10,47168.40000009537,,,47168.5,,47168.5,2021-11-04T16:50:40.770Z,47309.796,1636044587,full,ni_sequenzen,NI_Sequenzen,,,,,,,,,,,,,,
,Screen_2,canvas.Screen,0_0_9_1,,skipped,10,47169.300000190735,,,47168.5,,47169.40000009537,2021-11-04T16:50:40.770Z,47309.796,1636044587,full,ni_sequenzen,NI_Sequenzen,,,,,,,,,,,,,,
,Screen_3,canvas.Screen,0_0_9_2,,skipped,10,47170.40000009537,,,47168.5,,47170.5,2021-11-04T16:50:40.772Z,47309.796,1636044587,full,ni_sequenzen,NI_Sequenzen,,,,,,,,,,,,,,
,Screen_4,canvas.Screen,0_0_9_3,,skipped,10,47171.5,,,47168.5,,47171.5,2021-11-04T16:50:40.773Z,47309.796,1636044587,full,ni_sequenzen,NI_Sequenzen,,,,,,,,,,,,,,
,Sequence,flow.Sequence,0_0_9,,completion,10,47167.60000014305,,,47168.5,,47171.700000047684,2021-11-04T16:50:40.773Z,47309.796,1636044587,full,ni_sequenzen,NI_Sequenzen,,,,,,,,,,,,,,
,Screen_1,canvas.Screen,0_0_10_0,,skipped,11,47173,,,47173,,47173.10000014305,2021-11-04T16:50:40.774Z,47309.796,1636044587,full,ni_sequenzen,NI_Sequenzen,,,,,,,,,,,,,,
,Screen_2,canvas.Screen,0_0_10_1,,skipped,11,47174,,,47173,,47174.200000047684,2021-11-04T16:50:40.775Z,47309.796,1636044587,full,ni_sequenzen,NI_Sequenzen,,,,,,,,,,,,,,
,Screen_3,canvas.Screen,0_0_10_2,,skipped,11,47175.10000014305,,,47173,,47175.10000014305,2021-11-04T16:50:40.776Z,47309.796,1636044587,full,ni_sequenzen,NI_Sequenzen,,,,,,,,,,,,,,
,Screen_4,canvas.Screen,0_0_10_3,,skipped,11,47183.40000009537,,,47173,,47183.700000047684,2021-11-04T16:50:40.785Z,47309.796,1636044587,full,ni_sequenzen,NI_Sequenzen,,,,,,,,,,,,,,
,Sequence,flow.Sequence,0_0_10,,completion,11,47172.10000014305,,,47173,,47183.90000009537,2021-11-04T16:50:40.785Z,47309.796,1636044587,full,ni_sequenzen,NI_Sequenzen,,,,,,,,,,,,,,
,Screen_1,canvas.Screen,0_0_11_0,,skipped,12,47185.700000047684,,,47185.800000190735,,47185.90000009537,2021-11-04T16:50:40.787Z,47309.796,1636044587,full,ni_sequenzen,NI_Sequenzen,,,,,,,,,,,,,,
,Screen_2,canvas.Screen,0_0_11_1,,skipped,12,47187.700000047684,,,47185.800000190735,,47187.800000190735,2021-11-04T16:50:40.789Z,47309.796,1636044587,full,ni_sequenzen,NI_Sequenzen,,,,,,,,,,,,,,
,Screen_3,canvas.Screen,0_0_11_2,,skipped,12,47189.5,,,47185.800000190735,,47189.5,2021-11-04T16:50:40.791Z,47309.796,1636044587,full,ni_sequenzen,NI_Sequenzen,,,,,,,,,,,,,,
,Screen_4,canvas.Screen,0_0_11_3,,skipped,12,47191.300000190735,,,47185.800000190735,,47191.40000009537,2021-11-04T16:50:40.793Z,47309.796,1636044587,full,ni_sequenzen,NI_Sequenzen,,,,,,,,,,,,,,
,Sequence,flow.Sequence,0_0_11,,completion,12,47184.40000009537,,,47185.800000190735,,47191.5,2021-11-04T16:50:40.793Z,47309.796,1636044587,full,ni_sequenzen,NI_Sequenzen,,,,,,,,,,,,,,
,Screen_1,canvas.Screen,0_0_12_0,,skipped,13,47193.10000014305,,,47193.10000014305,,47193.200000047684,2021-11-04T16:50:40.794Z,47309.796,1636044587,full,ni_sequenzen,NI_Sequenzen,,,,,,,,,,,,,,
,Screen_2,canvas.Screen,0_0_12_1,,skipped,13,47194.10000014305,,,47193.10000014305,,47194.200000047684,2021-11-04T16:50:40.795Z,47309.796,1636044587,full,ni_sequenzen,NI_Sequenzen,,,,,,,,,,,,,,
,Screen_3,canvas.Screen,0_0_12_2,,skipped,13,47195.300000190735,,,47193.10000014305,,47195.40000009537,2021-11-04T16:50:40.797Z,47309.796,1636044587,full,ni_sequenzen,NI_Sequenzen,,,,,,,,,,,,,,
,Screen_4,canvas.Screen,0_0_12_3,,skipped,13,47196.5,,,47193.10000014305,,47196.60000014305,2021-11-04T16:50:40.798Z,47309.796,1636044587,full,ni_sequenzen,NI_Sequenzen,,,,,,,,,,,,,,
,Sequence,flow.Sequence,0_0_12,,completion,13,47192,,,47193.10000014305,,47196.700000047684,2021-11-04T16:50:40.798Z,47309.796,1636044587,full,ni_sequenzen,NI_Sequenzen,,,,,,,,,,,,,,
,Screen_1,canvas.Screen,0_0_13_0,,skipped,14,47198,,,47198.10000014305,,47198.10000014305,2021-11-04T16:50:40.799Z,47309.796,1636044587,full,ni_sequenzen,NI_Sequenzen,,,,,,,,,,,,,,
,Screen_2,canvas.Screen,0_0_13_1,,skipped,14,47198.90000009537,,,47198.10000014305,,47199,2021-11-04T16:50:40.800Z,47309.796,1636044587,full,ni_sequenzen,NI_Sequenzen,,,,,,,,,,,,,,
,Screen_3,canvas.Screen,0_0_13_2,,skipped,14,47199.800000190735,,,47198.10000014305,,47199.90000009537,2021-11-04T16:50:40.801Z,47309.796,1636044587,full,ni_sequenzen,NI_Sequenzen,,,,,,,,,,,,,,
,Screen_4,canvas.Screen,0_0_13_3,,skipped,14,47200.800000190735,,,47198.10000014305,,47200.90000009537,2021-11-04T16:50:40.802Z,47309.796,1636044587,full,ni_sequenzen,NI_Sequenzen,,,,,,,,,,,,,,
,Sequence,flow.Sequence,0_0_13,,completion,14,47197.300000190735,,,47198.10000014305,,47200.90000009537,2021-11-04T16:50:40.802Z,47309.796,1636044587,full,ni_sequenzen,NI_Sequenzen,,,,,,,,,,,,,,
,Screen_1,canvas.Screen,0_0_14_0,,skipped,15,47203.200000047684,,,47203.200000047684,,47203.300000190735,2021-11-04T16:50:40.804Z,47309.796,1636044587,full,ni_sequenzen,NI_Sequenzen,,,,,,,,,,,,,,
,Screen_2,canvas.Screen,0_0_14_1,,skipped,15,47204.10000014305,,,47203.200000047684,,47204.200000047684,2021-11-04T16:50:40.805Z,47309.796,1636044587,full,ni_sequenzen,NI_Sequenzen,,,,,,,,,,,,,,
,Screen_3,canvas.Screen,0_0_14_2,,skipped,15,47205,,,47203.200000047684,,47205.10000014305,2021-11-04T16:50:40.806Z,47309.796,1636044587,full,ni_sequenzen,NI_Sequenzen,,,,,,,,,,,,,,
,Screen_4,canvas.Screen,0_0_14_3,,skipped,15,47205.90000009537,,,47203.200000047684,,47206,2021-11-04T16:50:40.807Z,47309.796,1636044587,full,ni_sequenzen,NI_Sequenzen,,,,,,,,,,,,,,
,Sequence,flow.Sequence,0_0_14,,completion,15,47201.40000009537,,,47203.200000047684,,47207,2021-11-04T16:50:40.808Z,47309.796,1636044587,full,ni_sequenzen,NI_Sequenzen,,,,,,,,,,,,,,
,Screen_1,canvas.Screen,0_0_15_0,,skipped,16,47208.300000190735,,,47208.300000190735,,47208.40000009537,2021-11-04T16:50:40.810Z,47309.796,1636044587,full,ni_sequenzen,NI_Sequenzen,,,,,,,,,,,,,,
,Screen_2,canvas.Screen,0_0_15_1,,skipped,16,47209.200000047684,,,47208.300000190735,,47209.300000190735,2021-11-04T16:50:40.810Z,47309.796,1636044587,full,ni_sequenzen,NI_Sequenzen,,,,,,,,,,,,,,
,Screen_3,canvas.Screen,0_0_15_2,,skipped,16,47210.5,,,47208.300000190735,,47210.60000014305,2021-11-04T16:50:40.812Z,47309.796,1636044587,full,ni_sequenzen,NI_Sequenzen,,,,,,,,,,,,,,
,Screen_4,canvas.Screen,0_0_15_3,,skipped,16,47212.800000190735,,,47208.300000190735,,47213,2021-11-04T16:50:40.814Z,47309.796,1636044587,full,ni_sequenzen,NI_Sequenzen,,,,,,,,,,,,,,
,Sequence,flow.Sequence,0_0_15,,completion,16,47207.5,,,47208.300000190735,,47213.300000190735,2021-11-04T16:50:40.814Z,47309.796,1636044587,full,ni_sequenzen,NI_Sequenzen,,,,,,,,,,,,,,
,Screen_1,canvas.Screen,0_0_16_0,,skipped,17,47215.5,,,47215.5,,47215.60000014305,2021-11-04T16:50:40.817Z,47309.796,1636044587,full,ni_sequenzen,NI_Sequenzen,,,,,,,,,,,,,,
,Screen_2,canvas.Screen,0_0_16_1,,skipped,17,47217,,,47215.5,,47217.200000047684,2021-11-04T16:50:40.818Z,47309.796,1636044587,full,ni_sequenzen,NI_Sequenzen,,,,,,,,,,,,,,
,Screen_3,canvas.Screen,0_0_16_2,,skipped,17,47218.90000009537,,,47215.5,,47219.10000014305,2021-11-04T16:50:40.820Z,47309.796,1636044587,full,ni_sequenzen,NI_Sequenzen,,,,,,,,,,,,,,
,Screen_4,canvas.Screen,0_0_16_3,,skipped,17,47220.10000014305,,,47215.5,,47220.200000047684,2021-11-04T16:50:40.821Z,47309.796,1636044587,full,ni_sequenzen,NI_Sequenzen,,,,,,,,,,,,,,
,Sequence,flow.Sequence,0_0_16,,completion,17,47214,,,47215.5,,47220.300000190735,2021-11-04T16:50:40.821Z,47309.796,1636044587,full,ni_sequenzen,NI_Sequenzen,,,,,,,,,,,,,,
,Screen_1,canvas.Screen,0_0_17_0,,skipped,18,47221.5,,,47221.5,,47221.700000047684,2021-11-04T16:50:40.823Z,47309.796,1636044587,full,ni_sequenzen,NI_Sequenzen,,,,,,,,,,,,,,
,Screen_2,canvas.Screen,0_0_17_1,,skipped,18,47222.60000014305,,,47221.5,,47222.700000047684,2021-11-04T16:50:40.824Z,47309.796,1636044587,full,ni_sequenzen,NI_Sequenzen,,,,,,,,,,,,,,
,Screen_3,canvas.Screen,0_0_17_2,,skipped,18,47224.60000014305,,,47221.5,,47224.700000047684,2021-11-04T16:50:40.826Z,47309.796,1636044587,full,ni_sequenzen,NI_Sequenzen,,,,,,,,,,,,,,
,Screen_4,canvas.Screen,0_0_17_3,,skipped,18,47225.60000014305,,,47221.5,,47225.700000047684,2021-11-04T16:50:40.827Z,47309.796,1636044587,full,ni_sequenzen,NI_Sequenzen,,,,,,,,,,,,,,
,Sequence,flow.Sequence,0_0_17,,completion,18,47220.700000047684,,,47221.5,,47225.800000190735,2021-11-04T16:50:40.827Z,47309.796,1636044587,full,ni_sequenzen,NI_Sequenzen,,,,,,,,,,,,,,
,Screen_1,canvas.Screen,0_0_18_0,,skipped,19,47227.10000014305,,,47227.10000014305,,47227.200000047684,2021-11-04T16:50:40.828Z,47309.796,1636044587,full,ni_sequenzen,NI_Sequenzen,,,,,,,,,,,,,,
,Screen_2,canvas.Screen,0_0_18_1,,skipped,19,47228,,,47227.10000014305,,47228.10000014305,2021-11-04T16:50:40.829Z,47309.796,1636044587,full,ni_sequenzen,NI_Sequenzen,,,,,,,,,,,,,,
,Screen_3,canvas.Screen,0_0_18_2,,skipped,19,47229,,,47227.10000014305,,47229,2021-11-04T16:50:40.830Z,47309.796,1636044587,full,ni_sequenzen,NI_Sequenzen,,,,,,,,,,,,,,
,Screen_4,canvas.Screen,0_0_18_3,,skipped,19,47230.10000014305,,,47227.10000014305,,47230.10000014305,2021-11-04T16:50:40.831Z,47309.796,1636044587,full,ni_sequenzen,NI_Sequenzen,,,,,,,,,,,,,,
,Sequence,flow.Sequence,0_0_18,,completion,19,47226.200000047684,,,47227.10000014305,,47230.5,2021-11-04T16:50:40.832Z,47309.796,1636044587,full,ni_sequenzen,NI_Sequenzen,,,,,,,,,,,,,,
,Screen_1,canvas.Screen,0_0_19_0,,skipped,20,47231.700000047684,,,47231.700000047684,,47231.800000190735,2021-11-04T16:50:40.833Z,47309.796,1636044587,full,ni_sequenzen,NI_Sequenzen,,,,,,,,,,,,,,
,Screen_2,canvas.Screen,0_0_19_1,,skipped,20,47232.5,,,47231.700000047684,,47232.60000014305,2021-11-04T16:50:40.834Z,47309.796,1636044587,full,ni_sequenzen,NI_Sequenzen,,,,,,,,,,,,,,
,Screen_3,canvas.Screen,0_0_19_2,,skipped,20,47233.40000009537,,,47231.700000047684,,47233.5,2021-11-04T16:50:40.835Z,47309.796,1636044587,full,ni_sequenzen,NI_Sequenzen,,,,,,,,,,,,,,
,Screen_4,canvas.Screen,0_0_19_3,,skipped,20,47234.40000009537,,,47231.700000047684,,47234.40000009537,2021-11-04T16:50:40.836Z,47309.796,1636044587,full,ni_sequenzen,NI_Sequenzen,,,,,,,,,,,,,,
,Sequence,flow.Sequence,0_0_19,,completion,20,47230.90000009537,,,47231.700000047684,,47234.60000014305,2021-11-04T16:50:40.836Z,47309.796,1636044587,full,ni_sequenzen,NI_Sequenzen,,,,,,,,,,,,,,
,Instructions_I,flow.Loop,0_0,,completion,,627.3000001907349,691.892,775.132,47231.700000047684,46456.568000047686,47234.700000047684,2021-11-04T16:50:40.836Z,47309.796,1636044587,full,ni_sequenzen,NI_Sequenzen,,,,,,,,,,,,,,
,Move,canvas.Screen,0_1_0_0,down,response,,47304.5,47293.176,47309.796,48545.700000047684,1235.9040000476816,48546.5,2021-11-04T16:50:42.148Z,48559.854,1636044587,full,ni_sequenzen,NI_Sequenzen,1,,,,,,,,,,,,,
,Move,canvas.Screen,0_1_0_1,down,response,,48549.300000190735,48543.162,48559.854,48912.300000190735,352.4460001907355,48914.700000047684,2021-11-04T16:50:42.516Z,48926.609,1636044587,full,ni_sequenzen,NI_Sequenzen,2,,,,,,,,,,,,,
,Move,canvas.Screen,0_1_0_2,right,response,,48917.90000009537,48909.804,48926.609,49739.5,812.8910000000033,49740.40000009537,2021-11-04T16:50:43.342Z,49775.155,1636044587,full,ni_sequenzen,NI_Sequenzen,3,,,,,,,,,,,,,
,Move,canvas.Screen,0_1_0_3,right,response,,49742.300000190735,49726.525,49775.155,49963.700000047684,188.54500004768488,49964.5,2021-11-04T16:50:43.566Z,49976.561,1636044587,full,ni_sequenzen,NI_Sequenzen,4,,,,,,,,,,,,,
,Move,canvas.Screen,0_1_0_4,left,response,,49966.40000009537,49959.938,49976.561,50456.800000190735,480.23900019073335,50457.60000014305,2021-11-04T16:50:44.059Z,50492.239,1636044587,full,ni_sequenzen,NI_Sequenzen,5,,,,,,,,,,,,,
,Move,canvas.Screen,0_1_0_5,left,response,,50459.5,50443.258,50492.239,50827.40000009537,335.16100009536603,50828.10000014305,2021-11-04T16:50:44.429Z,50843.279,1636044587,full,ni_sequenzen,NI_Sequenzen,6,,,,,,,,,,,,,
,Move,canvas.Screen,0_1_0_6,down,response,,50829.800000190735,50826.631,50843.279,51177.90000009537,334.62100009536516,51178.700000047684,2021-11-04T16:50:44.780Z,51193.233,1636044587,full,ni_sequenzen,NI_Sequenzen,7,,,,,,,,,,,,,
,Move,canvas.Screen,0_1_0_7,down,response,,51181.200000047684,51176.61,51193.233,51373.5,180.26699999999983,51374.40000009537,2021-11-04T16:50:44.975Z,51393.274,1636044587,full,ni_sequenzen,NI_Sequenzen,8,,,,,,,,,,,,,
,Move,canvas.Screen,0_1_0_8,right,response,,51376.300000190735,51359.994,51393.274,52022.40000009537,629.1260000953698,52023.200000047684,2021-11-04T16:50:45.624Z,52026.555,1636044587,full,ni_sequenzen,NI_Sequenzen,9,,,,,,,,,,,,,
,Move,canvas.Screen,0_1_0_9,left,response,,52025.200000047684,52009.985,52026.555,52598.10000014305,571.5450001430509,52598.800000190735,2021-11-04T16:50:46.200Z,52609.997,1636044587,full,ni_sequenzen,NI_Sequenzen,10,,,,,,,,,,,,,
,Move,canvas.Screen,0_1_0_10,right,response,,52600.90000009537,52593.338,52609.997,53687,1077.002999999997,53687.90000009537,2021-11-04T16:50:47.289Z,53693.291,1636044587,full,ni_sequenzen,NI_Sequenzen,11,,,,,,,,,,,,,
,Move,canvas.Screen,0_1_0_11,right,response,,53689.90000009537,53676.686,53693.291,53870.10000014305,176.8090001430537,53870.800000190735,2021-11-04T16:50:47.472Z,53876.615,1636044587,full,ni_sequenzen,NI_Sequenzen,12,,,,,,,,,,,,,
,Move,canvas.Screen,0_1_0_12,down,response,,53872.700000047684,53860.032,53876.615,54796.10000014305,919.4850001430532,54797.200000047684,2021-11-04T16:50:48.398Z,54810.053,1636044587,full,ni_sequenzen,NI_Sequenzen,13,,,,,,,,,,,,,
,Move,canvas.Screen,0_1_0_13,down,response,,54799,54793.383,54810.053,55166.90000009537,356.84700009536755,55167.60000014305,2021-11-04T16:50:48.769Z,55176.706,1636044587,full,ni_sequenzen,NI_Sequenzen,14,,,,,,,,,,,,,
,Move,canvas.Screen,0_1_0_14,right,response,,55169.300000190735,55160.087,55176.706,55484.700000047684,307.9940000476854,55485.5,2021-11-04T16:50:49.087Z,55493.38,1636044587,full,ni_sequenzen,NI_Sequenzen,15,,,,,,,,,,,,,
,Move,canvas.Screen,0_1_0_15,right,response,,55487.300000190735,55476.729,55493.38,55703.800000190735,210.42000019073748,55704.5,2021-11-04T16:50:49.306Z,55709.985,1636044587,full,ni_sequenzen,NI_Sequenzen,16,,,,,,,,,,,,,
,Move,canvas.Screen,0_1_0_16,down,response,,55706.5,55693.425,55709.985,56134.700000047684,424.71500004768313,56135.40000009537,2021-11-04T16:50:49.737Z,56143.345,1636044587,full,ni_sequenzen,NI_Sequenzen,17,,,,,,,,,,,,,
,Move,canvas.Screen,0_1_0_17,down,response,,56137.40000009537,56126.776,56143.345,56318,174.65499999999884,56318.800000190735,2021-11-04T16:50:49.920Z,56326.792,1636044587,full,ni_sequenzen,NI_Sequenzen,18,,,,,,,,,,,,,
,Move,canvas.Screen,0_1_0_18,down,response,,56320.800000190735,56310.136,56326.792,56482,155.20799999999872,56482.700000047684,2021-11-04T16:50:50.084Z,56493.426,1636044587,full,ni_sequenzen,NI_Sequenzen,19,,,,,,,,,,,,,
,Move,canvas.Screen,0_1_0_19,down,response,,56484.60000014305,56476.77,56493.426,56669.5,176.07400000000052,56670.300000190735,2021-11-04T16:50:50.271Z,56676.774,1636044587,full,ni_sequenzen,NI_Sequenzen,20,,,,,,,,,,,,,
,Move,canvas.Screen,0_1_0_20,down,response,,56672,56660.099,56676.774,56832.40000009537,155.62600009536982,56833.200000047684,2021-11-04T16:50:50.434Z,56843.371,1636044587,full,ni_sequenzen,NI_Sequenzen,21,,,,,,,,,,,,,
,Move,canvas.Screen,0_1_0_21,left,response,,56835,56826.795,56843.371,57035.90000009537,192.52900009536825,57036.800000190735,2021-11-04T16:50:50.638Z,57043.369,1636044587,full,ni_sequenzen,NI_Sequenzen,22,,,,,,,,,,,,,
,Move,canvas.Screen,0_1_0_22,left,response,,57038.800000190735,57026.773,57043.369,57345.60000014305,302.23100014305237,57346.60000014305,2021-11-04T16:50:50.948Z,57360.072,1636044587,full,ni_sequenzen,NI_Sequenzen,23,,,,,,,,,,,,,
,Move,canvas.Screen,0_1_0_23,left,response,,57348.800000190735,57343.434,57360.072,57500.40000009537,140.32800009536732,57501.200000047684,2021-11-04T16:50:51.102Z,57510.137,1636044587,full,ni_sequenzen,NI_Sequenzen,24,,,,,,,,,,,,,
,Move,canvas.Screen,0_1_0_24,left,response,,57504.200000047684,57493.445,57510.137,57656.300000190735,146.16300019073242,57657,2021-11-04T16:50:51.258Z,57691.654,1636044587,full,ni_sequenzen,NI_Sequenzen,25,,,,,,,,,,,,,
,Move,canvas.Screen,0_1_0_25,left,response,,57659,57643.47,57691.654,57809,117.34599999999773,57809.700000047684,2021-11-04T16:50:51.411Z,57826.745,1636044587,full,ni_sequenzen,NI_Sequenzen,26,,,,,,,,,,,,,
,Move,canvas.Screen,0_1_0_26,right,response,,57812.40000009537,57810.073,57826.745,58506.700000047684,679.9550000476811,58507.5,2021-11-04T16:50:52.109Z,58527.65,1636044587,full,ni_sequenzen,NI_Sequenzen,27,,,,,,,,,,,,,
,Move,canvas.Screen,0_1_0_27,down,response,,58509.5,58493.423,58527.65,59071.200000047684,543.5500000476823,59072.10000014305,2021-11-04T16:50:52.673Z,59076.749,1636044587,full,ni_sequenzen,NI_Sequenzen,28,,,,,,,,,,,,,
,Move,canvas.Screen,0_1_0_28,right,response,,59074,59060.13,59076.749,59987.10000014305,910.3510001430477,59988,2021-11-04T16:50:53.589Z,59993.453,1636044587,full,ni_sequenzen,NI_Sequenzen,29,,,,,,,,,,,,,
,Move,canvas.Screen,0_1_0_29,down,response,,59989.800000190735,59976.808,59993.453,60738.800000190735,745.3470001907335,60739.60000014305,2021-11-04T16:50:54.341Z,60793.571,1636044587,full,ni_sequenzen,NI_Sequenzen,30,,,,,,,,,,,,,
,Loop,flow.Loop,0_1_0,-999,completion,,47249,47293.176,47309.796,60738.800000190735,13429.004000190733,60740,2021-11-04T16:50:54.341Z,60793.571,1636044587,full,ni_sequenzen,NI_Sequenzen,,,,,,,,,,,,,,
,Training_I,flow.Sequence,0_1,,completion,,47236.200000047684,47293.176,47309.796,60738.800000190735,13429.004000190733,60740.10000014305,2021-11-04T16:50:54.341Z,60793.571,1636044587,full,ni_sequenzen,NI_Sequenzen,,,,,,,,,,,,,,
,Screen_1,canvas.Screen,0_2_0_0,cont,response,1,60788.40000009537,60776.897,60793.571,62195.800000190735,1402.2290001907313,62196.700000047684,2021-11-04T16:50:55.798Z,62343.515,1636044587,full,ni_sequenzen,NI_Sequenzen,,,,,,,,,,,,,,
,Screen_2,canvas.Screen,0_2_0_1,cont,response,1,62340,62326.938,62343.515,71272,8928.485,71273,2021-11-04T16:51:04.874Z,71309.39,1636044587,full,ni_sequenzen,NI_Sequenzen,,,,,,,,,,,,,,
,Screen_3,canvas.Screen,0_2_0_2,cont,response,1,71276.60000014305,71260.4,71309.39,79218.90000009537,7909.510000095368,79219.70000004768,2021-11-04T16:51:12.821Z,79327.353,1636044587,full,ni_sequenzen,NI_Sequenzen,,,,,,,,,,,,,,
,Screen_4,canvas.Screen,0_2_0_3,cont,response,1,79316.30000019073,79310.625,79327.353,84348.20000004768,5020.847000047681,84349,2021-11-04T16:51:17.950Z,84360.81,1636044587,full,ni_sequenzen,NI_Sequenzen,,,,,,,,,,,,,,
,Screen_5,canvas.Screen,0_2_0_4,cont,response,1,84351.90000009537,84344.185,84360.81,87875.90000009537,3515.0900000953698,87876.70000004768,2021-11-04T16:51:21.478Z,87944.242,1636044587,full,ni_sequenzen,NI_Sequenzen,,,,,,,,,,,,,,
,Screen_6,canvas.Screen,0_2_0_5,cont,response,1,87928.40000009537,87927.551,87944.242,93212.60000014305,5268.358000143053,93213.30000019073,2021-11-04T16:51:26.814Z,93461.071,1636044587,full,ni_sequenzen,NI_Sequenzen,,,,,,,,,,,,,,
,Sequence,flow.Sequence,0_2_0,,completion,1,60787.200000047684,60776.897,60793.571,93212.60000014305,32419.029000143048,93215,2021-11-04T16:51:26.816Z,93461.071,1636044587,full,ni_sequenzen,NI_Sequenzen,,,,,,,,,,,,,,
,Screen_1,canvas.Screen,0_2_1_0,,skipped,2,93218.10000014305,,,93218.10000014305,,93218.30000019073,2021-11-04T16:51:26.819Z,93461.071,1636044587,full,ni_sequenzen,NI_Sequenzen,,,,,,,,,,,,,,
,Screen_2,canvas.Screen,0_2_1_1,,skipped,2,93219.30000019073,,,93218.10000014305,,93219.30000019073,2021-11-04T16:51:26.820Z,93461.071,1636044587,full,ni_sequenzen,NI_Sequenzen,,,,,,,,,,,,,,
,Screen_3,canvas.Screen,0_2_1_2,,skipped,2,93220.40000009537,,,93218.10000014305,,93220.40000009537,2021-11-04T16:51:26.822Z,93461.071,1636044587,full,ni_sequenzen,NI_Sequenzen,,,,,,,,,,,,,,
,Screen_4,canvas.Screen,0_2_1_3,,skipped,2,93221.30000019073,,,93218.10000014305,,93221.40000009537,2021-11-04T16:51:26.823Z,93461.071,1636044587,full,ni_sequenzen,NI_Sequenzen,,,,,,,,,,,,,,
,Screen_5,canvas.Screen,0_2_1_4,,skipped,2,93223.20000004768,,,93218.10000014305,,93223.20000004768,2021-11-04T16:51:26.824Z,93461.071,1636044587,full,ni_sequenzen,NI_Sequenzen,,,,,,,,,,,,,,
,Screen_6,canvas.Screen,0_2_1_5,,skipped,2,93224.20000004768,,,93218.10000014305,,93224.40000009537,2021-11-04T16:51:26.825Z,93461.071,1636044587,full,ni_sequenzen,NI_Sequenzen,,,,,,,,,,,,,,
,Sequence,flow.Sequence,0_2_1,,completion,2,93216.60000014305,,,93218.10000014305,,93224.5,2021-11-04T16:51:26.826Z,93461.071,1636044587,full,ni_sequenzen,NI_Sequenzen,,,,,,,,,,,,,,
,Screen_1,canvas.Screen,0_2_2_0,,skipped,3,93225.70000004768,,,93225.70000004768,,93225.80000019073,2021-11-04T16:51:26.827Z,93461.071,1636044587,full,ni_sequenzen,NI_Sequenzen,,,,,,,,,,,,,,
,Screen_2,canvas.Screen,0_2_2_1,,skipped,3,93226.60000014305,,,93225.70000004768,,93226.60000014305,2021-11-04T16:51:26.828Z,93461.071,1636044587,full,ni_sequenzen,NI_Sequenzen,,,,,,,,,,,,,,
,Screen_3,canvas.Screen,0_2_2_2,,skipped,3,93227.40000009537,,,93225.70000004768,,93227.5,2021-11-04T16:51:26.829Z,93461.071,1636044587,full,ni_sequenzen,NI_Sequenzen,,,,,,,,,,,,,,
,Screen_4,canvas.Screen,0_2_2_3,,skipped,3,93228.30000019073,,,93225.70000004768,,93228.30000019073,2021-11-04T16:51:26.829Z,93461.071,1636044587,full,ni_sequenzen,NI_Sequenzen,,,,,,,,,,,,,,
,Screen_5,canvas.Screen,0_2_2_4,,skipped,3,93229.20000004768,,,93225.70000004768,,93229.30000019073,2021-11-04T16:51:26.830Z,93461.071,1636044587,full,ni_sequenzen,NI_Sequenzen,,,,,,,,,,,,,,
,Screen_6,canvas.Screen,0_2_2_5,,skipped,3,93230,,,93225.70000004768,,93230,2021-11-04T16:51:26.831Z,93461.071,1636044587,full,ni_sequenzen,NI_Sequenzen,,,,,,,,,,,,,,
,Sequence,flow.Sequence,0_2_2,,completion,3,93224.90000009537,,,93225.70000004768,,93230.20000004768,2021-11-04T16:51:26.831Z,93461.071,1636044587,full,ni_sequenzen,NI_Sequenzen,,,,,,,,,,,,,,
,Screen_1,canvas.Screen,0_2_3_0,,skipped,4,93231.30000019073,,,93231.30000019073,,93231.30000019073,2021-11-04T16:51:26.832Z,93461.071,1636044587,full,ni_sequenzen,NI_Sequenzen,,,,,,,,,,,,,,
,Screen_2,canvas.Screen,0_2_3_1,,skipped,4,93232.20000004768,,,93231.30000019073,,93232.30000019073,2021-11-04T16:51:26.833Z,93461.071,1636044587,full,ni_sequenzen,NI_Sequenzen,,,,,,,,,,,,,,
,Screen_3,canvas.Screen,0_2_3_2,,skipped,4,93232.90000009537,,,93231.30000019073,,93233.10000014305,2021-11-04T16:51:26.834Z,93461.071,1636044587,full,ni_sequenzen,NI_Sequenzen,,,,,,,,,,,,,,
,Screen_4,canvas.Screen,0_2_3_3,,skipped,4,93233.90000009537,,,93231.30000019073,,93233.90000009537,2021-11-04T16:51:26.835Z,93461.071,1636044587,full,ni_sequenzen,NI_Sequenzen,,,,,,,,,,,,,,
,Screen_5,canvas.Screen,0_2_3_4,,skipped,4,93234.60000014305,,,93231.30000019073,,93234.80000019073,2021-11-04T16:51:26.836Z,93461.071,1636044587,full,ni_sequenzen,NI_Sequenzen,,,,,,,,,,,,,,
,Screen_6,canvas.Screen,0_2_3_5,,skipped,4,93235.5,,,93231.30000019073,,93235.5,2021-11-04T16:51:26.837Z,93461.071,1636044587,full,ni_sequenzen,NI_Sequenzen,,,,,,,,,,,,,,
,Sequence,flow.Sequence,0_2_3,,completion,4,93230.5,,,93231.30000019073,,93235.60000014305,2021-11-04T16:51:26.837Z,93461.071,1636044587,full,ni_sequenzen,NI_Sequenzen,,,,,,,,,,,,,,
,Screen_1,canvas.Screen,0_2_4_0,,skipped,5,93236.80000019073,,,93236.80000019073,,93236.90000009537,2021-11-04T16:51:26.838Z,93461.071,1636044587,full,ni_sequenzen,NI_Sequenzen,,,,,,,,,,,,,,
,Screen_2,canvas.Screen,0_2_4_1,,skipped,5,93238.5,,,93236.80000019073,,93238.60000014305,2021-11-04T16:51:26.840Z,93461.071,1636044587,full,ni_sequenzen,NI_Sequenzen,,,,,,,,,,,,,,
,Screen_3,canvas.Screen,0_2_4_2,,skipped,5,93239.40000009537,,,93236.80000019073,,93239.5,2021-11-04T16:51:26.841Z,93461.071,1636044587,full,ni_sequenzen,NI_Sequenzen,,,,,,,,,,,,,,
,Screen_4,canvas.Screen,0_2_4_3,,skipped,5,93240.30000019073,,,93236.80000019073,,93240.30000019073,2021-11-04T16:51:26.841Z,93461.071,1636044587,full,ni_sequenzen,NI_Sequenzen,,,,,,,,,,,,,,
,Screen_5,canvas.Screen,0_2_4_4,,skipped,5,93241.20000004768,,,93236.80000019073,,93241.30000019073,2021-11-04T16:51:26.842Z,93461.071,1636044587,full,ni_sequenzen,NI_Sequenzen,,,,,,,,,,,,,,
,Screen_6,canvas.Screen,0_2_4_5,,skipped,5,93242,,,93236.80000019073,,93242,2021-11-04T16:51:26.843Z,93461.071,1636044587,full,ni_sequenzen,NI_Sequenzen,,,,,,,,,,,,,,
,Sequence,flow.Sequence,0_2_4,,completion,5,93236,,,93236.80000019073,,93242.10000014305,2021-11-04T16:51:26.843Z,93461.071,1636044587,full,ni_sequenzen,NI_Sequenzen,,,,,,,,,,,,,,
,Screen_1,canvas.Screen,0_2_5_0,,skipped,6,93243.30000019073,,,93243.40000009537,,93243.40000009537,2021-11-04T16:51:26.845Z,93461.071,1636044587,full,ni_sequenzen,NI_Sequenzen,,,,,,,,,,,,,,
,Screen_2,canvas.Screen,0_2_5_1,,skipped,6,93244.30000019073,,,93243.40000009537,,93244.40000009537,2021-11-04T16:51:26.846Z,93461.071,1636044587,full,ni_sequenzen,NI_Sequenzen,,,,,,,,,,,,,,
,Screen_3,canvas.Screen,0_2_5_2,,skipped,6,93245.20000004768,,,93243.40000009537,,93245.30000019073,2021-11-04T16:51:26.846Z,93461.071,1636044587,full,ni_sequenzen,NI_Sequenzen,,,,,,,,,,,,,,
,Screen_4,canvas.Screen,0_2_5_3,,skipped,6,93246,,,93243.40000009537,,93246.10000014305,2021-11-04T16:51:26.847Z,93461.071,1636044587,full,ni_sequenzen,NI_Sequenzen,,,,,,,,,,,,,,
,Screen_5,canvas.Screen,0_2_5_4,,skipped,6,93247,,,93243.40000009537,,93247,2021-11-04T16:51:26.848Z,93461.071,1636044587,full,ni_sequenzen,NI_Sequenzen,,,,,,,,,,,,,,
,Screen_6,canvas.Screen,0_2_5_5,,skipped,6,93247.70000004768,,,93243.40000009537,,93247.80000019073,2021-11-04T16:51:26.849Z,93461.071,1636044587,full,ni_sequenzen,NI_Sequenzen,,,,,,,,,,,,,,
,Sequence,flow.Sequence,0_2_5,,completion,6,93242.60000014305,,,93243.40000009537,,93247.90000009537,2021-11-04T16:51:26.849Z,93461.071,1636044587,full,ni_sequenzen,NI_Sequenzen,,,,,,,,,,,,,,
,Screen_1,canvas.Screen,0_2_6_0,,skipped,7,93249,,,93249,,93249.10000014305,2021-11-04T16:51:26.850Z,93461.071,1636044587,full,ni_sequenzen,NI_Sequenzen,,,,,,,,,,,,,,
,Screen_2,canvas.Screen,0_2_6_1,,skipped,7,93250,,,93249,,93250.10000014305,2021-11-04T16:51:26.851Z,93461.071,1636044587,full,ni_sequenzen,NI_Sequenzen,,,,,,,,,,,,,,
,Screen_3,canvas.Screen,0_2_6_2,,skipped,7,93250.80000019073,,,93249,,93250.80000019073,2021-11-04T16:51:26.852Z,93461.071,1636044587,full,ni_sequenzen,NI_Sequenzen,,,,,,,,,,,,,,
,Screen_4,canvas.Screen,0_2_6_3,,skipped,7,93251.60000014305,,,93249,,93251.70000004768,2021-11-04T16:51:26.853Z,93461.071,1636044587,full,ni_sequenzen,NI_Sequenzen,,,,,,,,,,,,,,
,Screen_5,canvas.Screen,0_2_6_4,,skipped,7,93253.30000019073,,,93249,,93253.40000009537,2021-11-04T16:51:26.854Z,93461.071,1636044587,full,ni_sequenzen,NI_Sequenzen,,,,,,,,,,,,,,
,Screen_6,canvas.Screen,0_2_6_5,,skipped,7,93254.30000019073,,,93249,,93254.40000009537,2021-11-04T16:51:26.855Z,93461.071,1636044587,full,ni_sequenzen,NI_Sequenzen,,,,,,,,,,,,,,
,Sequence,flow.Sequence,0_2_6,,completion,7,93248.30000019073,,,93249,,93254.5,2021-11-04T16:51:26.856Z,93461.071,1636044587,full,ni_sequenzen,NI_Sequenzen,,,,,,,,,,,,,,
,Screen_1,canvas.Screen,0_2_7_0,,skipped,8,93255.70000004768,,,93255.70000004768,,93255.80000019073,2021-11-04T16:51:26.857Z,93461.071,1636044587,full,ni_sequenzen,NI_Sequenzen,,,,,,,,,,,,,,
,Screen_2,canvas.Screen,0_2_7_1,,skipped,8,93256.60000014305,,,93255.70000004768,,93256.60000014305,2021-11-04T16:51:26.858Z,93461.071,1636044587,full,ni_sequenzen,NI_Sequenzen,,,,,,,,,,,,,,
,Screen_3,canvas.Screen,0_2_7_2,,skipped,8,93257.5,,,93255.70000004768,,93257.5,2021-11-04T16:51:26.859Z,93461.071,1636044587,full,ni_sequenzen,NI_Sequenzen,,,,,,,,,,,,,,
,Screen_4,canvas.Screen,0_2_7_3,,skipped,8,93258.30000019073,,,93255.70000004768,,93258.40000009537,2021-11-04T16:51:26.859Z,93461.071,1636044587,full,ni_sequenzen,NI_Sequenzen,,,,,,,,,,,,,,
,Screen_5,canvas.Screen,0_2_7_4,,skipped,8,93259.20000004768,,,93255.70000004768,,93259.30000019073,2021-11-04T16:51:26.860Z,93461.071,1636044587,full,ni_sequenzen,NI_Sequenzen,,,,,,,,,,,,,,
,Screen_6,canvas.Screen,0_2_7_5,,skipped,8,93260.10000014305,,,93255.70000004768,,93260.10000014305,2021-11-04T16:51:26.861Z,93461.071,1636044587,full,ni_sequenzen,NI_Sequenzen,,,,,,,,,,,,,,
,Sequence,flow.Sequence,0_2_7,,completion,8,93254.90000009537,,,93255.70000004768,,93260.40000009537,2021-11-04T16:51:26.861Z,93461.071,1636044587,full,ni_sequenzen,NI_Sequenzen,,,,,,,,,,,,,,
,Screen_1,canvas.Screen,0_2_8_0,,skipped,9,93261.70000004768,,,93261.70000004768,,93261.80000019073,2021-11-04T16:51:26.863Z,93461.071,1636044587,full,ni_sequenzen,NI_Sequenzen,,,,,,,,,,,,,,
,Screen_2,canvas.Screen,0_2_8_1,,skipped,9,93262.70000004768,,,93261.70000004768,,93262.80000019073,2021-11-04T16:51:26.864Z,93461.071,1636044587,full,ni_sequenzen,NI_Sequenzen,,,,,,,,,,,,,,
,Screen_3,canvas.Screen,0_2_8_2,,skipped,9,93263.70000004768,,,93261.70000004768,,93263.70000004768,2021-11-04T16:51:26.865Z,93461.071,1636044587,full,ni_sequenzen,NI_Sequenzen,,,,,,,,,,,,,,
,Screen_4,canvas.Screen,0_2_8_3,,skipped,9,93264.5,,,93261.70000004768,,93264.60000014305,2021-11-04T16:51:26.866Z,93461.071,1636044587,full,ni_sequenzen,NI_Sequenzen,,,,,,,,,,,,,,
,Screen_5,canvas.Screen,0_2_8_4,,skipped,9,93265.30000019073,,,93261.70000004768,,93265.30000019073,2021-11-04T16:51:26.866Z,93461.071,1636044587,full,ni_sequenzen,NI_Sequenzen,,,,,,,,,,,,,,
,Screen_6,canvas.Screen,0_2_8_5,,skipped,9,93267.10000014305,,,93261.70000004768,,93267.20000004768,2021-11-04T16:51:26.868Z,93461.071,1636044587,full,ni_sequenzen,NI_Sequenzen,,,,,,,,,,,,,,
,Sequence,flow.Sequence,0_2_8,,completion,9,93260.90000009537,,,93261.70000004768,,93267.30000019073,2021-11-04T16:51:26.868Z,93461.071,1636044587,full,ni_sequenzen,NI_Sequenzen,,,,,,,,,,,,,,
,Screen_1,canvas.Screen,0_2_9_0,,skipped,10,93268.60000014305,,,93268.60000014305,,93268.70000004768,2021-11-04T16:51:26.870Z,93461.071,1636044587,full,ni_sequenzen,NI_Sequenzen,,,,,,,,,,,,,,
,Screen_2,canvas.Screen,0_2_9_1,,skipped,10,93269.5,,,93268.60000014305,,93269.60000014305,2021-11-04T16:51:26.871Z,93461.071,1636044587,full,ni_sequenzen,NI_Sequenzen,,,,,,,,,,,,,,
,Screen_3,canvas.Screen,0_2_9_2,,skipped,10,93270.5,,,93268.60000014305,,93270.60000014305,2021-11-04T16:51:26.872Z,93461.071,1636044587,full,ni_sequenzen,NI_Sequenzen,,,,,,,,,,,,,,
,Screen_4,canvas.Screen,0_2_9_3,,skipped,10,93271.40000009537,,,93268.60000014305,,93271.40000009537,2021-11-04T16:51:26.873Z,93461.071,1636044587,full,ni_sequenzen,NI_Sequenzen,,,,,,,,,,,,,,
,Screen_5,canvas.Screen,0_2_9_4,,skipped,10,93272.30000019073,,,93268.60000014305,,93272.40000009537,2021-11-04T16:51:26.873Z,93461.071,1636044587,full,ni_sequenzen,NI_Sequenzen,,,,,,,,,,,,,,
,Screen_6,canvas.Screen,0_2_9_5,,skipped,10,93273.20000004768,,,93268.60000014305,,93273.30000019073,2021-11-04T16:51:26.874Z,93461.071,1636044587,full,ni_sequenzen,NI_Sequenzen,,,,,,,,,,,,,,
,Sequence,flow.Sequence,0_2_9,,completion,10,93267.70000004768,,,93268.60000014305,,93273.40000009537,2021-11-04T16:51:26.875Z,93461.071,1636044587,full,ni_sequenzen,NI_Sequenzen,,,,,,,,,,,,,,
,Screen_1,canvas.Screen,0_2_10_0,,skipped,11,93274.5,,,93274.5,,93274.5,2021-11-04T16:51:26.876Z,93461.071,1636044587,full,ni_sequenzen,NI_Sequenzen,,,,,,,,,,,,,,
,Screen_2,canvas.Screen,0_2_10_1,,skipped,11,93275.40000009537,,,93274.5,,93275.40000009537,2021-11-04T16:51:26.877Z,93461.071,1636044587,full,ni_sequenzen,NI_Sequenzen,,,,,,,,,,,,,,
,Screen_3,canvas.Screen,0_2_10_2,,skipped,11,93276.10000014305,,,93274.5,,93276.20000004768,2021-11-04T16:51:26.877Z,93461.071,1636044587,full,ni_sequenzen,NI_Sequenzen,,,,,,,,,,,,,,
,Screen_4,canvas.Screen,0_2_10_3,,skipped,11,93277,,,93274.5,,93277.10000014305,2021-11-04T16:51:26.878Z,93461.071,1636044587,full,ni_sequenzen,NI_Sequenzen,,,,,,,,,,,,,,
,Screen_5,canvas.Screen,0_2_10_4,,skipped,11,93277.80000019073,,,93274.5,,93277.90000009537,2021-11-04T16:51:26.879Z,93461.071,1636044587,full,ni_sequenzen,NI_Sequenzen,,,,,,,,,,,,,,
,Screen_6,canvas.Screen,0_2_10_5,,skipped,11,93278.60000014305,,,93274.5,,93278.80000019073,2021-11-04T16:51:26.880Z,93461.071,1636044587,full,ni_sequenzen,NI_Sequenzen,,,,,,,,,,,,,,
,Sequence,flow.Sequence,0_2_10,,completion,11,93273.80000019073,,,93274.5,,93278.80000019073,2021-11-04T16:51:26.880Z,93461.071,1636044587,full,ni_sequenzen,NI_Sequenzen,,,,,,,,,,,,,,
,Screen_1,canvas.Screen,0_2_11_0,,skipped,12,93280.80000019073,,,93280.80000019073,,93281,2021-11-04T16:51:26.882Z,93461.071,1636044587,full,ni_sequenzen,NI_Sequenzen,,,,,,,,,,,,,,
,Screen_2,canvas.Screen,0_2_11_1,,skipped,12,93281.90000009537,,,93280.80000019073,,93282.10000014305,2021-11-04T16:51:26.883Z,93461.071,1636044587,full,ni_sequenzen,NI_Sequenzen,,,,,,,,,,,,,,
,Screen_3,canvas.Screen,0_2_11_2,,skipped,12,93282.80000019073,,,93280.80000019073,,93282.90000009537,2021-11-04T16:51:26.884Z,93461.071,1636044587,full,ni_sequenzen,NI_Sequenzen,,,,,,,,,,,,,,
,Screen_4,canvas.Screen,0_2_11_3,,skipped,12,93283.70000004768,,,93280.80000019073,,93283.70000004768,2021-11-04T16:51:26.885Z,93461.071,1636044587,full,ni_sequenzen,NI_Sequenzen,,,,,,,,,,,,,,
,Screen_5,canvas.Screen,0_2_11_4,,skipped,12,93284.5,,,93280.80000019073,,93284.5,2021-11-04T16:51:26.886Z,93461.071,1636044587,full,ni_sequenzen,NI_Sequenzen,,,,,,,,,,,,,,
,Screen_6,canvas.Screen,0_2_11_5,,skipped,12,93285.30000019073,,,93280.80000019073,,93285.40000009537,2021-11-04T16:51:26.887Z,93461.071,1636044587,full,ni_sequenzen,NI_Sequenzen,,,,,,,,,,,,,,
,Sequence,flow.Sequence,0_2_11,,completion,12,93279.30000019073,,,93280.80000019073,,93285.5,2021-11-04T16:51:26.887Z,93461.071,1636044587,full,ni_sequenzen,NI_Sequenzen,,,,,,,,,,,,,,
,Screen_1,canvas.Screen,0_2_12_0,,skipped,13,93286.80000019073,,,93286.80000019073,,93286.80000019073,2021-11-04T16:51:26.888Z,93461.071,1636044587,full,ni_sequenzen,NI_Sequenzen,,,,,,,,,,,,,,
,Screen_2,canvas.Screen,0_2_12_1,,skipped,13,93287.60000014305,,,93286.80000019073,,93287.80000019073,2021-11-04T16:51:26.889Z,93461.071,1636044587,full,ni_sequenzen,NI_Sequenzen,,,,,,,,,,,,,,
,Screen_3,canvas.Screen,0_2_12_2,,skipped,13,93288.5,,,93286.80000019073,,93288.60000014305,2021-11-04T16:51:26.890Z,93461.071,1636044587,full,ni_sequenzen,NI_Sequenzen,,,,,,,,,,,,,,
,Screen_4,canvas.Screen,0_2_12_3,,skipped,13,93289.30000019073,,,93286.80000019073,,93289.40000009537,2021-11-04T16:51:26.891Z,93461.071,1636044587,full,ni_sequenzen,NI_Sequenzen,,,,,,,,,,,,,,
,Screen_5,canvas.Screen,0_2_12_4,,skipped,13,93290.40000009537,,,93286.80000019073,,93290.5,2021-11-04T16:51:26.892Z,93461.071,1636044587,full,ni_sequenzen,NI_Sequenzen,,,,,,,,,,,,,,
,Screen_6,canvas.Screen,0_2_12_5,,skipped,13,93291.5,,,93286.80000019073,,93291.60000014305,2021-11-04T16:51:26.893Z,93461.071,1636044587,full,ni_sequenzen,NI_Sequenzen,,,,,,,,,,,,,,
,Sequence,flow.Sequence,0_2_12,,completion,13,93285.90000009537,,,93286.80000019073,,93291.70000004768,2021-11-04T16:51:26.893Z,93461.071,1636044587,full,ni_sequenzen,NI_Sequenzen,,,,,,,,,,,,,,
,Screen_1,canvas.Screen,0_2_13_0,,skipped,14,93293,,,93293,,93293.10000014305,2021-11-04T16:51:26.894Z,93461.071,1636044587,full,ni_sequenzen,NI_Sequenzen,,,,,,,,,,,,,,
,Screen_2,canvas.Screen,0_2_13_1,,skipped,14,93294.70000004768,,,93293,,93294.80000019073,2021-11-04T16:51:26.896Z,93461.071,1636044587,full,ni_sequenzen,NI_Sequenzen,,,,,,,,,,,,,,
,Screen_3,canvas.Screen,0_2_13_2,,skipped,14,93295.70000004768,,,93293,,93295.80000019073,2021-11-04T16:51:26.897Z,93461.071,1636044587,full,ni_sequenzen,NI_Sequenzen,,,,,,,,,,,,,,
,Screen_4,canvas.Screen,0_2_13_3,,skipped,14,93296.60000014305,,,93293,,93296.60000014305,2021-11-04T16:51:26.898Z,93461.071,1636044587,full,ni_sequenzen,NI_Sequenzen,,,,,,,,,,,,,,
,Screen_5,canvas.Screen,0_2_13_4,,skipped,14,93297.30000019073,,,93293,,93297.30000019073,2021-11-04T16:51:26.898Z,93461.071,1636044587,full,ni_sequenzen,NI_Sequenzen,,,,,,,,,,,,,,
,Screen_6,canvas.Screen,0_2_13_5,,skipped,14,93298.20000004768,,,93293,,93298.20000004768,2021-11-04T16:51:26.899Z,93461.071,1636044587,full,ni_sequenzen,NI_Sequenzen,,,,,,,,,,,,,,
,Sequence,flow.Sequence,0_2_13,,completion,14,93292.10000014305,,,93293,,93298.30000019073,2021-11-04T16:51:26.899Z,93461.071,1636044587,full,ni_sequenzen,NI_Sequenzen,,,,,,,,,,,,,,
,Screen_1,canvas.Screen,0_2_14_0,,skipped,15,93299.40000009537,,,93299.40000009537,,93299.5,2021-11-04T16:51:26.901Z,93461.071,1636044587,full,ni_sequenzen,NI_Sequenzen,,,,,,,,,,,,,,
,Screen_2,canvas.Screen,0_2_14_1,,skipped,15,93300.30000019073,,,93299.40000009537,,93300.5,2021-11-04T16:51:26.902Z,93461.071,1636044587,full,ni_sequenzen,NI_Sequenzen,,,,,,,,,,,,,,
,Screen_3,canvas.Screen,0_2_14_2,,skipped,15,93301.40000009537,,,93299.40000009537,,93301.40000009537,2021-11-04T16:51:26.903Z,93461.071,1636044587,full,ni_sequenzen,NI_Sequenzen,,,,,,,,,,,,,,
,Screen_4,canvas.Screen,0_2_14_3,,skipped,15,93302.20000004768,,,93299.40000009537,,93302.30000019073,2021-11-04T16:51:26.903Z,93461.071,1636044587,full,ni_sequenzen,NI_Sequenzen,,,,,,,,,,,,,,
,Screen_5,canvas.Screen,0_2_14_4,,skipped,15,93303.10000014305,,,93299.40000009537,,93303.10000014305,2021-11-04T16:51:26.904Z,93461.071,1636044587,full,ni_sequenzen,NI_Sequenzen,,,,,,,,,,,,,,
,Screen_6,canvas.Screen,0_2_14_5,,skipped,15,93303.90000009537,,,93299.40000009537,,93303.90000009537,2021-11-04T16:51:26.905Z,93461.071,1636044587,full,ni_sequenzen,NI_Sequenzen,,,,,,,,,,,,,,
,Sequence,flow.Sequence,0_2_14,,completion,15,93298.70000004768,,,93299.40000009537,,93304,2021-11-04T16:51:26.905Z,93461.071,1636044587,full,ni_sequenzen,NI_Sequenzen,,,,,,,,,,,,,,
,Screen_1,canvas.Screen,0_2_15_0,,skipped,16,93305.20000004768,,,93305.20000004768,,93305.30000019073,2021-11-04T16:51:26.906Z,93461.071,1636044587,full,ni_sequenzen,NI_Sequenzen,,,,,,,,,,,,,,
,Screen_2,canvas.Screen,0_2_15_1,,skipped,16,93306.20000004768,,,93305.20000004768,,93306.20000004768,2021-11-04T16:51:26.907Z,93461.071,1636044587,full,ni_sequenzen,NI_Sequenzen,,,,,,,,,,,,,,
,Screen_3,canvas.Screen,0_2_15_2,,skipped,16,93307.10000014305,,,93305.20000004768,,93307.10000014305,2021-11-04T16:51:26.908Z,93461.071,1636044587,full,ni_sequenzen,NI_Sequenzen,,,,,,,,,,,,,,
,Screen_4,canvas.Screen,0_2_15_3,,skipped,16,93308.90000009537,,,93305.20000004768,,93309,2021-11-04T16:51:26.910Z,93461.071,1636044587,full,ni_sequenzen,NI_Sequenzen,,,,,,,,,,,,,,
,Screen_5,canvas.Screen,0_2_15_4,,skipped,16,93309.90000009537,,,93305.20000004768,,93310,2021-11-04T16:51:26.911Z,93461.071,1636044587,full,ni_sequenzen,NI_Sequenzen,,,,,,,,,,,,,,
,Screen_6,canvas.Screen,0_2_15_5,,skipped,16,93310.70000004768,,,93305.20000004768,,93310.90000009537,2021-11-04T16:51:26.912Z,93461.071,1636044587,full,ni_sequenzen,NI_Sequenzen,,,,,,,,,,,,,,
,Sequence,flow.Sequence,0_2_15,,completion,16,93304.5,,,93305.20000004768,,93310.90000009537,2021-11-04T16:51:26.912Z,93461.071,1636044587,full,ni_sequenzen,NI_Sequenzen,,,,,,,,,,,,,,
,Screen_1,canvas.Screen,0_2_16_0,,skipped,17,93312.10000014305,,,93312.10000014305,,93312.20000004768,2021-11-04T16:51:26.913Z,93461.071,1636044587,full,ni_sequenzen,NI_Sequenzen,,,,,,,,,,,,,,
,Screen_2,canvas.Screen,0_2_16_1,,skipped,17,93313,,,93312.10000014305,,93313.20000004768,2021-11-04T16:51:26.914Z,93461.071,1636044587,full,ni_sequenzen,NI_Sequenzen,,,,,,,,,,,,,,
,Screen_3,canvas.Screen,0_2_16_2,,skipped,17,93314.10000014305,,,93312.10000014305,,93314.20000004768,2021-11-04T16:51:26.915Z,93461.071,1636044587,full,ni_sequenzen,NI_Sequenzen,,,,,,,,,,,,,,
,Screen_4,canvas.Screen,0_2_16_3,,skipped,17,93315,,,93312.10000014305,,93315,2021-11-04T16:51:26.916Z,93461.071,1636044587,full,ni_sequenzen,NI_Sequenzen,,,,,,,,,,,,,,
,Screen_5,canvas.Screen,0_2_16_4,,skipped,17,93316,,,93312.10000014305,,93316.10000014305,2021-11-04T16:51:26.917Z,93461.071,1636044587,full,ni_sequenzen,NI_Sequenzen,,,,,,,,,,,,,,
,Screen_6,canvas.Screen,0_2_16_5,,skipped,17,93316.80000019073,,,93312.10000014305,,93316.90000009537,2021-11-04T16:51:26.918Z,93461.071,1636044587,full,ni_sequenzen,NI_Sequenzen,,,,,,,,,,,,,,
,Sequence,flow.Sequence,0_2_16,,completion,17,93311.30000019073,,,93312.10000014305,,93317,2021-11-04T16:51:26.918Z,93461.071,1636044587,full,ni_sequenzen,NI_Sequenzen,,,,,,,,,,,,,,
,Screen_1,canvas.Screen,0_2_17_0,,skipped,18,93318.30000019073,,,93318.30000019073,,93318.30000019073,2021-11-04T16:51:26.919Z,93461.071,1636044587,full,ni_sequenzen,NI_Sequenzen,,,,,,,,,,,,,,
,Screen_2,canvas.Screen,0_2_17_1,,skipped,18,93319.10000014305,,,93318.30000019073,,93319.20000004768,2021-11-04T16:51:26.920Z,93461.071,1636044587,full,ni_sequenzen,NI_Sequenzen,,,,,,,,,,,,,,
,Screen_3,canvas.Screen,0_2_17_2,,skipped,18,93320.10000014305,,,93318.30000019073,,93320.10000014305,2021-11-04T16:51:26.921Z,93461.071,1636044587,full,ni_sequenzen,NI_Sequenzen,,,,,,,,,,,,,,
,Screen_4,canvas.Screen,0_2_17_3,,skipped,18,93320.90000009537,,,93318.30000019073,,93321,2021-11-04T16:51:26.922Z,93461.071,1636044587,full,ni_sequenzen,NI_Sequenzen,,,,,,,,,,,,,,
,Screen_5,canvas.Screen,0_2_17_4,,skipped,18,93322.70000004768,,,93318.30000019073,,93322.80000019073,2021-11-04T16:51:26.924Z,93461.071,1636044587,full,ni_sequenzen,NI_Sequenzen,,,,,,,,,,,,,,
,Screen_6,canvas.Screen,0_2_17_5,,skipped,18,93323.70000004768,,,93318.30000019073,,93323.80000019073,2021-11-04T16:51:26.925Z,93461.071,1636044587,full,ni_sequenzen,NI_Sequenzen,,,,,,,,,,,,,,
,Sequence,flow.Sequence,0_2_17,,completion,18,93317.40000009537,,,93318.30000019073,,93323.90000009537,2021-11-04T16:51:26.925Z,93461.071,1636044587,full,ni_sequenzen,NI_Sequenzen,,,,,,,,,,,,,,
,Screen_1,canvas.Screen,0_2_18_0,,skipped,19,93325,,,93325,,93325,2021-11-04T16:51:26.926Z,93461.071,1636044587,full,ni_sequenzen,NI_Sequenzen,,,,,,,,,,,,,,
,Screen_2,canvas.Screen,0_2_18_1,,skipped,19,93325.80000019073,,,93325,,93325.90000009537,2021-11-04T16:51:26.927Z,93461.071,1636044587,full,ni_sequenzen,NI_Sequenzen,,,,,,,,,,,,,,
,Screen_3,canvas.Screen,0_2_18_2,,skipped,19,93326.60000014305,,,93325,,93326.70000004768,2021-11-04T16:51:26.928Z,93461.071,1636044587,full,ni_sequenzen,NI_Sequenzen,,,,,,,,,,,,,,
,Screen_4,canvas.Screen,0_2_18_3,,skipped,19,93327.40000009537,,,93325,,93327.5,2021-11-04T16:51:26.929Z,93461.071,1636044587,full,ni_sequenzen,NI_Sequenzen,,,,,,,,,,,,,,
,Screen_5,canvas.Screen,0_2_18_4,,skipped,19,93328.20000004768,,,93325,,93328.40000009537,2021-11-04T16:51:26.929Z,93461.071,1636044587,full,ni_sequenzen,NI_Sequenzen,,,,,,,,,,,,,,
,Screen_6,canvas.Screen,0_2_18_5,,skipped,19,93329.10000014305,,,93325,,93329.20000004768,2021-11-04T16:51:26.930Z,93461.071,1636044587,full,ni_sequenzen,NI_Sequenzen,,,,,,,,,,,,,,
,Sequence,flow.Sequence,0_2_18,,completion,19,93324.30000019073,,,93325,,93329.20000004768,2021-11-04T16:51:26.930Z,93461.071,1636044587,full,ni_sequenzen,NI_Sequenzen,,,,,,,,,,,,,,
,Screen_1,canvas.Screen,0_2_19_0,,skipped,20,93330.30000019073,,,93330.30000019073,,93330.40000009537,2021-11-04T16:51:26.931Z,93461.071,1636044587,full,ni_sequenzen,NI_Sequenzen,,,,,,,,,,,,,,
,Screen_2,canvas.Screen,0_2_19_1,,skipped,20,93331.10000014305,,,93330.30000019073,,93331.20000004768,2021-11-04T16:51:26.932Z,93461.071,1636044587,full,ni_sequenzen,NI_Sequenzen,,,,,,,,,,,,,,
,Screen_3,canvas.Screen,0_2_19_2,,skipped,20,93331.90000009537,,,93330.30000019073,,93332,2021-11-04T16:51:26.933Z,93461.071,1636044587,full,ni_sequenzen,NI_Sequenzen,,,,,,,,,,,,,,
,Screen_4,canvas.Screen,0_2_19_3,,skipped,20,93332.70000004768,,,93330.30000019073,,93332.80000019073,2021-11-04T16:51:26.934Z,93461.071,1636044587,full,ni_sequenzen,NI_Sequenzen,,,,,,,,,,,,,,
,Screen_5,canvas.Screen,0_2_19_4,,skipped,20,93333.40000009537,,,93330.30000019073,,93333.5,2021-11-04T16:51:26.935Z,93461.071,1636044587,full,ni_sequenzen,NI_Sequenzen,,,,,,,,,,,,,,
,Screen_6,canvas.Screen,0_2_19_5,,skipped,20,93334.20000004768,,,93330.30000019073,,93334.30000019073,2021-11-04T16:51:26.935Z,93461.071,1636044587,full,ni_sequenzen,NI_Sequenzen,,,,,,,,,,,,,,
,Sequence,flow.Sequence,0_2_19,,completion,20,93329.70000004768,,,93330.30000019073,,93334.40000009537,2021-11-04T16:51:26.936Z,93461.071,1636044587,full,ni_sequenzen,NI_Sequenzen,,,,,,,,,,,,,,
,Screen_1,canvas.Screen,0_2_20_0,,skipped,21,93336.20000004768,,,93336.20000004768,,93336.30000019073,2021-11-04T16:51:26.937Z,93461.071,1636044587,full,ni_sequenzen,NI_Sequenzen,,,,,,,,,,,,,,
,Screen_2,canvas.Screen,0_2_20_1,,skipped,21,93337.10000014305,,,93336.20000004768,,93337.20000004768,2021-11-04T16:51:26.938Z,93461.071,1636044587,full,ni_sequenzen,NI_Sequenzen,,,,,,,,,,,,,,
,Screen_3,canvas.Screen,0_2_20_2,,skipped,21,93338,,,93336.20000004768,,93338.10000014305,2021-11-04T16:51:26.939Z,93461.071,1636044587,full,ni_sequenzen,NI_Sequenzen,,,,,,,,,,,,,,
,Screen_4,canvas.Screen,0_2_20_3,,skipped,21,93338.80000019073,,,93336.20000004768,,93338.90000009537,2021-11-04T16:51:26.940Z,93461.071,1636044587,full,ni_sequenzen,NI_Sequenzen,,,,,,,,,,,,,,
,Screen_5,canvas.Screen,0_2_20_4,,skipped,21,93339.60000014305,,,93336.20000004768,,93339.70000004768,2021-11-04T16:51:26.941Z,93461.071,1636044587,full,ni_sequenzen,NI_Sequenzen,,,,,,,,,,,,,,
,Screen_6,canvas.Screen,0_2_20_5,,skipped,21,93340.5,,,93336.20000004768,,93340.5,2021-11-04T16:51:26.942Z,93461.071,1636044587,full,ni_sequenzen,NI_Sequenzen,,,,,,,,,,,,,,
,Sequence,flow.Sequence,0_2_20,,completion,21,93334.70000004768,,,93336.20000004768,,93340.70000004768,2021-11-04T16:51:26.942Z,93461.071,1636044587,full,ni_sequenzen,NI_Sequenzen,,,,,,,,,,,,,,
,Screen_1,canvas.Screen,0_2_21_0,,skipped,22,93341.80000019073,,,93341.80000019073,,93341.80000019073,2021-11-04T16:51:26.943Z,93461.071,1636044587,full,ni_sequenzen,NI_Sequenzen,,,,,,,,,,,,,,
,Screen_2,canvas.Screen,0_2_21_1,,skipped,22,93342.60000014305,,,93341.80000019073,,93342.70000004768,2021-11-04T16:51:26.944Z,93461.071,1636044587,full,ni_sequenzen,NI_Sequenzen,,,,,,,,,,,,,,
,Screen_3,canvas.Screen,0_2_21_2,,skipped,22,93343.5,,,93341.80000019073,,93343.60000014305,2021-11-04T16:51:26.945Z,93461.071,1636044587,full,ni_sequenzen,NI_Sequenzen,,,,,,,,,,,,,,
,Screen_4,canvas.Screen,0_2_21_3,,skipped,22,93344.70000004768,,,93341.80000019073,,93344.80000019073,2021-11-04T16:51:26.946Z,93461.071,1636044587,full,ni_sequenzen,NI_Sequenzen,,,,,,,,,,,,,,
,Screen_5,canvas.Screen,0_2_21_4,,skipped,22,93345.80000019073,,,93341.80000019073,,93345.80000019073,2021-11-04T16:51:26.947Z,93461.071,1636044587,full,ni_sequenzen,NI_Sequenzen,,,,,,,,,,,,,,
,Screen_6,canvas.Screen,0_2_21_5,,skipped,22,93347.30000019073,,,93341.80000019073,,93347.40000009537,2021-11-04T16:51:26.949Z,93461.071,1636044587,full,ni_sequenzen,NI_Sequenzen,,,,,,,,,,,,,,
,Sequence,flow.Sequence,0_2_21,,completion,22,93340.90000009537,,,93341.80000019073,,93347.60000014305,2021-11-04T16:51:26.949Z,93461.071,1636044587,full,ni_sequenzen,NI_Sequenzen,,,,,,,,,,,,,,
,Screen_1,canvas.Screen,0_2_22_0,,skipped,23,93348.60000014305,,,93348.60000014305,,93348.80000019073,2021-11-04T16:51:26.950Z,93461.071,1636044587,full,ni_sequenzen,NI_Sequenzen,,,,,,,,,,,,,,
,Screen_2,canvas.Screen,0_2_22_1,,skipped,23,93349.5,,,93348.60000014305,,93349.70000004768,2021-11-04T16:51:26.951Z,93461.071,1636044587,full,ni_sequenzen,NI_Sequenzen,,,,,,,,,,,,,,
,Screen_3,canvas.Screen,0_2_22_2,,skipped,23,93350.40000009537,,,93348.60000014305,,93350.5,2021-11-04T16:51:26.952Z,93461.071,1636044587,full,ni_sequenzen,NI_Sequenzen,,,,,,,,,,,,,,
,Screen_4,canvas.Screen,0_2_22_3,,skipped,23,93351.5,,,93348.60000014305,,93351.60000014305,2021-11-04T16:51:26.953Z,93461.071,1636044587,full,ni_sequenzen,NI_Sequenzen,,,,,,,,,,,,,,
,Screen_5,canvas.Screen,0_2_22_4,,skipped,23,93366,,,93348.60000014305,,93366.10000014305,2021-11-04T16:51:26.967Z,93461.071,1636044587,full,ni_sequenzen,NI_Sequenzen,,,,,,,,,,,,,,
,Screen_6,canvas.Screen,0_2_22_5,,skipped,23,93367.40000009537,,,93348.60000014305,,93367.5,2021-11-04T16:51:26.969Z,93461.071,1636044587,full,ni_sequenzen,NI_Sequenzen,,,,,,,,,,,,,,
,Sequence,flow.Sequence,0_2_22,,completion,23,93347.90000009537,,,93348.60000014305,,93367.70000004768,2021-11-04T16:51:26.969Z,93461.071,1636044587,full,ni_sequenzen,NI_Sequenzen,,,,,,,,,,,,,,
,Screen_1,canvas.Screen,0_2_23_0,,skipped,24,93368.90000009537,,,93368.90000009537,,93369,2021-11-04T16:51:26.970Z,93461.071,1636044587,full,ni_sequenzen,NI_Sequenzen,,,,,,,,,,,,,,
,Screen_2,canvas.Screen,0_2_23_1,,skipped,24,93370.20000004768,,,93368.90000009537,,93370.30000019073,2021-11-04T16:51:26.971Z,93461.071,1636044587,full,ni_sequenzen,NI_Sequenzen,,,,,,,,,,,,,,
,Screen_3,canvas.Screen,0_2_23_2,,skipped,24,93371.60000014305,,,93368.90000009537,,93371.70000004768,2021-11-04T16:51:26.973Z,93461.071,1636044587,full,ni_sequenzen,NI_Sequenzen,,,,,,,,,,,,,,
,Screen_4,canvas.Screen,0_2_23_3,,skipped,24,93372.5,,,93368.90000009537,,93372.5,2021-11-04T16:51:26.974Z,93461.071,1636044587,full,ni_sequenzen,NI_Sequenzen,,,,,,,,,,,,,,
,Screen_5,canvas.Screen,0_2_23_4,,skipped,24,93373.20000004768,,,93368.90000009537,,93373.40000009537,2021-11-04T16:51:26.974Z,93461.071,1636044587,full,ni_sequenzen,NI_Sequenzen,,,,,,,,,,,,,,
,Screen_6,canvas.Screen,0_2_23_5,,skipped,24,93374,,,93368.90000009537,,93374.10000014305,2021-11-04T16:51:26.975Z,93461.071,1636044587,full,ni_sequenzen,NI_Sequenzen,,,,,,,,,,,,,,
,Sequence,flow.Sequence,0_2_23,,completion,24,93368.10000014305,,,93368.90000009537,,93374.20000004768,2021-11-04T16:51:26.975Z,93461.071,1636044587,full,ni_sequenzen,NI_Sequenzen,,,,,,,,,,,,,,
,Screen_1,canvas.Screen,0_2_24_0,,skipped,25,93375.40000009537,,,93375.40000009537,,93375.5,2021-11-04T16:51:26.977Z,93461.071,1636044587,full,ni_sequenzen,NI_Sequenzen,,,,,,,,,,,,,,
,Screen_2,canvas.Screen,0_2_24_1,,skipped,25,93376.5,,,93375.40000009537,,93376.5,2021-11-04T16:51:26.978Z,93461.071,1636044587,full,ni_sequenzen,NI_Sequenzen,,,,,,,,,,,,,,
,Screen_3,canvas.Screen,0_2_24_2,,skipped,25,93377.40000009537,,,93375.40000009537,,93377.40000009537,2021-11-04T16:51:26.978Z,93461.071,1636044587,full,ni_sequenzen,NI_Sequenzen,,,,,,,,,,,,,,
,Screen_4,canvas.Screen,0_2_24_3,,skipped,25,93378.10000014305,,,93375.40000009537,,93378.30000019073,2021-11-04T16:51:26.979Z,93461.071,1636044587,full,ni_sequenzen,NI_Sequenzen,,,,,,,,,,,,,,
,Screen_5,canvas.Screen,0_2_24_4,,skipped,25,93379.20000004768,,,93375.40000009537,,93379.20000004768,2021-11-04T16:51:26.980Z,93461.071,1636044587,full,ni_sequenzen,NI_Sequenzen,,,,,,,,,,,,,,
,Screen_6,canvas.Screen,0_2_24_5,,skipped,25,93380.10000014305,,,93375.40000009537,,93380.30000019073,2021-11-04T16:51:26.981Z,93461.071,1636044587,full,ni_sequenzen,NI_Sequenzen,,,,,,,,,,,,,,
,Sequence,flow.Sequence,0_2_24,,completion,25,93374.60000014305,,,93375.40000009537,,93380.40000009537,2021-11-04T16:51:26.982Z,93461.071,1636044587,full,ni_sequenzen,NI_Sequenzen,,,,,,,,,,,,,,
,Screen_1,canvas.Screen,0_2_25_0,,skipped,26,93382.30000019073,,,93382.30000019073,,93382.40000009537,2021-11-04T16:51:26.983Z,93461.071,1636044587,full,ni_sequenzen,NI_Sequenzen,,,,,,,,,,,,,,
,Screen_2,canvas.Screen,0_2_25_1,,skipped,26,93383.20000004768,,,93382.30000019073,,93383.40000009537,2021-11-04T16:51:26.984Z,93461.071,1636044587,full,ni_sequenzen,NI_Sequenzen,,,,,,,,,,,,,,
,Screen_3,canvas.Screen,0_2_25_2,,skipped,26,93384.10000014305,,,93382.30000019073,,93384.20000004768,2021-11-04T16:51:26.985Z,93461.071,1636044587,full,ni_sequenzen,NI_Sequenzen,,,,,,,,,,,,,,
,Screen_4,canvas.Screen,0_2_25_3,,skipped,26,93385.10000014305,,,93382.30000019073,,93385.20000004768,2021-11-04T16:51:26.986Z,93461.071,1636044587,full,ni_sequenzen,NI_Sequenzen,,,,,,,,,,,,,,
,Screen_5,canvas.Screen,0_2_25_4,,skipped,26,93386.10000014305,,,93382.30000019073,,93386.10000014305,2021-11-04T16:51:26.987Z,93461.071,1636044587,full,ni_sequenzen,NI_Sequenzen,,,,,,,,,,,,,,
,Screen_6,canvas.Screen,0_2_25_5,,skipped,26,93387,,,93382.30000019073,,93387.10000014305,2021-11-04T16:51:26.988Z,93461.071,1636044587,full,ni_sequenzen,NI_Sequenzen,,,,,,,,,,,,,,
,Sequence,flow.Sequence,0_2_25,,completion,26,93380.90000009537,,,93382.30000019073,,93387.30000019073,2021-11-04T16:51:26.988Z,93461.071,1636044587,full,ni_sequenzen,NI_Sequenzen,,,,,,,,,,,,,,
,Screen_1,canvas.Screen,0_2_26_0,,skipped,27,93388.40000009537,,,93388.40000009537,,93388.5,2021-11-04T16:51:26.990Z,93461.071,1636044587,full,ni_sequenzen,NI_Sequenzen,,,,,,,,,,,,,,
,Screen_2,canvas.Screen,0_2_26_1,,skipped,27,93389.5,,,93388.40000009537,,93389.60000014305,2021-11-04T16:51:26.991Z,93461.071,1636044587,full,ni_sequenzen,NI_Sequenzen,,,,,,,,,,,,,,
,Screen_3,canvas.Screen,0_2_26_2,,skipped,27,93390.70000004768,,,93388.40000009537,,93390.80000019073,2021-11-04T16:51:26.992Z,93461.071,1636044587,full,ni_sequenzen,NI_Sequenzen,,,,,,,,,,,,,,
,Screen_4,canvas.Screen,0_2_26_3,,skipped,27,93391.70000004768,,,93388.40000009537,,93391.80000019073,2021-11-04T16:51:26.993Z,93461.071,1636044587,full,ni_sequenzen,NI_Sequenzen,,,,,,,,,,,,,,
,Screen_5,canvas.Screen,0_2_26_4,,skipped,27,93392.70000004768,,,93388.40000009537,,93392.80000019073,2021-11-04T16:51:26.994Z,93461.071,1636044587,full,ni_sequenzen,NI_Sequenzen,,,,,,,,,,,,,,
,Screen_6,canvas.Screen,0_2_26_5,,skipped,27,93393.60000014305,,,93388.40000009537,,93393.70000004768,2021-11-04T16:51:26.995Z,93461.071,1636044587,full,ni_sequenzen,NI_Sequenzen,,,,,,,,,,,,,,
,Sequence,flow.Sequence,0_2_26,,completion,27,93387.70000004768,,,93388.40000009537,,93394,2021-11-04T16:51:26.995Z,93461.071,1636044587,full,ni_sequenzen,NI_Sequenzen,,,,,,,,,,,,,,
,Screen_1,canvas.Screen,0_2_27_0,,skipped,28,93395.40000009537,,,93395.40000009537,,93395.5,2021-11-04T16:51:26.997Z,93461.071,1636044587,full,ni_sequenzen,NI_Sequenzen,,,,,,,,,,,,,,
,Screen_2,canvas.Screen,0_2_27_1,,skipped,28,93396.30000019073,,,93395.40000009537,,93396.30000019073,2021-11-04T16:51:26.997Z,93461.071,1636044587,full,ni_sequenzen,NI_Sequenzen,,,,,,,,,,,,,,
,Screen_3,canvas.Screen,0_2_27_2,,skipped,28,93397.10000014305,,,93395.40000009537,,93397.20000004768,2021-11-04T16:51:26.998Z,93461.071,1636044587,full,ni_sequenzen,NI_Sequenzen,,,,,,,,,,,,,,
,Screen_4,canvas.Screen,0_2_27_3,,skipped,28,93397.90000009537,,,93395.40000009537,,93398,2021-11-04T16:51:26.999Z,93461.071,1636044587,full,ni_sequenzen,NI_Sequenzen,,,,,,,,,,,,,,
,Screen_5,canvas.Screen,0_2_27_4,,skipped,28,93399.5,,,93395.40000009537,,93399.5,2021-11-04T16:51:27.001Z,93461.071,1636044587,full,ni_sequenzen,NI_Sequenzen,,,,,,,,,,,,,,
,Screen_6,canvas.Screen,0_2_27_5,,skipped,28,93400.20000004768,,,93395.40000009537,,93400.30000019073,2021-11-04T16:51:27.001Z,93461.071,1636044587,full,ni_sequenzen,NI_Sequenzen,,,,,,,,,,,,,,
,Sequence,flow.Sequence,0_2_27,,completion,28,93394.40000009537,,,93395.40000009537,,93400.40000009537,2021-11-04T16:51:27.002Z,93461.071,1636044587,full,ni_sequenzen,NI_Sequenzen,,,,,,,,,,,,,,
,Screen_1,canvas.Screen,0_2_28_0,,skipped,29,93401.5,,,93401.5,,93401.60000014305,2021-11-04T16:51:27.003Z,93461.071,1636044587,full,ni_sequenzen,NI_Sequenzen,,,,,,,,,,,,,,
,Screen_2,canvas.Screen,0_2_28_1,,skipped,29,93402.30000019073,,,93401.5,,93402.30000019073,2021-11-04T16:51:27.003Z,93461.071,1636044587,full,ni_sequenzen,NI_Sequenzen,,,,,,,,,,,,,,
,Screen_3,canvas.Screen,0_2_28_2,,skipped,29,93403,,,93401.5,,93403,2021-11-04T16:51:27.004Z,93461.071,1636044587,full,ni_sequenzen,NI_Sequenzen,,,,,,,,,,,,,,
,Screen_4,canvas.Screen,0_2_28_3,,skipped,29,93403.80000019073,,,93401.5,,93403.80000019073,2021-11-04T16:51:27.005Z,93461.071,1636044587,full,ni_sequenzen,NI_Sequenzen,,,,,,,,,,,,,,
,Screen_5,canvas.Screen,0_2_28_4,,skipped,29,93404.60000014305,,,93401.5,,93404.60000014305,2021-11-04T16:51:27.006Z,93461.071,1636044587,full,ni_sequenzen,NI_Sequenzen,,,,,,,,,,,,,,
,Screen_6,canvas.Screen,0_2_28_5,,skipped,29,93405.40000009537,,,93401.5,,93405.40000009537,2021-11-04T16:51:27.007Z,93461.071,1636044587,full,ni_sequenzen,NI_Sequenzen,,,,,,,,,,,,,,
,Sequence,flow.Sequence,0_2_28,,completion,29,93400.70000004768,,,93401.5,,93405.5,2021-11-04T16:51:27.007Z,93461.071,1636044587,full,ni_sequenzen,NI_Sequenzen,,,,,,,,,,,,,,
,Screen_1,canvas.Screen,0_2_29_0,,skipped,30,93406.70000004768,,,93406.70000004768,,93406.80000019073,2021-11-04T16:51:27.008Z,93461.071,1636044587,full,ni_sequenzen,NI_Sequenzen,,,,,,,,,,,,,,
,Screen_2,canvas.Screen,0_2_29_1,,skipped,30,93407.70000004768,,,93406.70000004768,,93407.80000019073,2021-11-04T16:51:27.009Z,93461.071,1636044587,full,ni_sequenzen,NI_Sequenzen,,,,,,,,,,,,,,
,Screen_3,canvas.Screen,0_2_29_2,,skipped,30,93408.60000014305,,,93406.70000004768,,93408.70000004768,2021-11-04T16:51:27.010Z,93461.071,1636044587,full,ni_sequenzen,NI_Sequenzen,,,,,,,,,,,,,,
,Screen_4,canvas.Screen,0_2_29_3,,skipped,30,93409.40000009537,,,93406.70000004768,,93409.5,2021-11-04T16:51:27.011Z,93461.071,1636044587,full,ni_sequenzen,NI_Sequenzen,,,,,,,,,,,,,,
,Screen_5,canvas.Screen,0_2_29_4,,skipped,30,93410.20000004768,,,93406.70000004768,,93410.30000019073,2021-11-04T16:51:27.011Z,93461.071,1636044587,full,ni_sequenzen,NI_Sequenzen,,,,,,,,,,,,,,
,Screen_6,canvas.Screen,0_2_29_5,,skipped,30,93411.5,,,93406.70000004768,,93411.5,2021-11-04T16:51:27.013Z,93461.071,1636044587,full,ni_sequenzen,NI_Sequenzen,,,,,,,,,,,,,,
,Sequence,flow.Sequence,0_2_29,,completion,30,93405.90000009537,,,93406.70000004768,,93411.70000004768,2021-11-04T16:51:27.013Z,93461.071,1636044587,full,ni_sequenzen,NI_Sequenzen,,,,,,,,,,,,,,
,Instructions_II,flow.Loop,0_2,,completion,,60786.700000047684,60776.897,60793.571,93406.70000004768,32613.12900004768,93411.80000019073,2021-11-04T16:51:27.013Z,93461.071,1636044587,full,ni_sequenzen,NI_Sequenzen,,,,,,,,,,,,,,
,Move,canvas.Screen,0_3_0_0_0_0,right,response,,93450.90000009537,93444.368,93461.071,94292.5,831.4290000000037,94293.40000009537,2021-11-04T16:51:27.895Z,94311.068,1636044587,full,ni_sequenzen,NI_Sequenzen,1,0,,,,,,,,,,,,
,Move,canvas.Screen,0_3_0_0_0_1,down,response,,94300.40000009537,94294.433,94311.068,99564.60000014305,5253.532000143052,99565.80000019073,2021-11-04T16:51:33.167Z,99577.983,1636044587,full,ni_sequenzen,NI_Sequenzen,2,0,,,,,,,,,,,,
,Move,canvas.Screen,0_3_0_0_0_2,left,response,,99569,99561.225,99577.983,101960.70000004768,2382.717000047691,101961.60000014305,2021-11-04T16:51:35.563Z,101977.977,1636044587,full,ni_sequenzen,NI_Sequenzen,3,0,,,,,,,,,,,,
,Move,canvas.Screen,0_3_0_0_0_3,down,response,,101964.80000019073,101961.283,101977.977,103922,1944.023000000001,103922.70000004768,2021-11-04T16:51:37.524Z,103928.002,1636044587,full,ni_sequenzen,NI_Sequenzen,4,0,,,,,,,,,,,,
,Move,canvas.Screen,0_3_0_0_0_4,right,response,,103926.10000014305,103911.653,103928.002,108931,5002.998000000007,108931.70000004768,2021-11-04T16:51:42.533Z,108978.139,1636044587,full,ni_sequenzen,NI_Sequenzen,5,0,,,,,,,,,,,,
,Move,canvas.Screen,0_3_0_0_0_5,-999,skipped,,108935.20000004768,,,108931,,108935.30000019073,2021-11-04T16:51:42.536Z,108978.139,1636044587,full,ni_sequenzen,NI_Sequenzen,6,0,,,,,,,,,,,,
,Move,canvas.Screen,0_3_0_0_0_6,-999,skipped,,108938.20000004768,,,108931,,108938.30000019073,2021-11-04T16:51:42.539Z,108978.139,1636044587,full,ni_sequenzen,NI_Sequenzen,7,0,,,,,,,,,,,,
,Move,canvas.Screen,0_3_0_0_0_7,-999,skipped,,108940.5,,,108931,,108941.40000009537,2021-11-04T16:51:42.543Z,108978.139,1636044587,full,ni_sequenzen,NI_Sequenzen,8,0,,,,,,,,,,,,
,Move,canvas.Screen,0_3_0_0_0_8,-999,skipped,,108943.60000014305,,,108931,,108943.70000004768,2021-11-04T16:51:42.545Z,108978.139,1636044587,full,ni_sequenzen,NI_Sequenzen,9,0,,,,,,,,,,,,
,Move,canvas.Screen,0_3_0_0_0_9,-999,skipped,,108946,,,108931,,108946.10000014305,2021-11-04T16:51:42.547Z,108978.139,1636044587,full,ni_sequenzen,NI_Sequenzen,10,0,,,,,,,,,,,,
,Move,canvas.Screen,0_3_0_0_0_10,-999,skipped,,108948.70000004768,,,108931,,108948.70000004768,2021-11-04T16:51:42.550Z,108978.139,1636044587,full,ni_sequenzen,NI_Sequenzen,11,0,,,,,,,,,,,,
,Move,canvas.Screen,0_3_0_0_0_11,-999,skipped,,108952.5,,,108931,,108952.60000014305,2021-11-04T16:51:42.554Z,108978.139,1636044587,full,ni_sequenzen,NI_Sequenzen,12,0,,,,,,,,,,,,
,Move,canvas.Screen,0_3_0_0_0_12,-999,skipped,,108954.70000004768,,,108931,,108954.70000004768,2021-11-04T16:51:42.556Z,108978.139,1636044587,full,ni_sequenzen,NI_Sequenzen,13,0,,,,,,,,,,,,
,Move,canvas.Screen,0_3_0_0_0_13,-999,skipped,,108956.60000014305,,,108931,,108956.80000019073,2021-11-04T16:51:42.558Z,108978.139,1636044587,full,ni_sequenzen,NI_Sequenzen,14,0,,,,,,,,,,,,
,Move,canvas.Screen,0_3_0_0_0_14,-999,skipped,,108960.60000014305,,,108931,,108960.70000004768,2021-11-04T16:51:42.562Z,108978.139,1636044587,full,ni_sequenzen,NI_Sequenzen,15,0,,,,,,,,,,,,
,Loop,flow.Loop,0_3_0_0_0,-999,completion,,93444.60000014305,93444.368,93461.071,108931,15469.929000000004,108960.80000019073,2021-11-04T16:51:42.562Z,108978.139,1636044587,full,ni_sequenzen,NI_Sequenzen,,0,,,,,,,,,,,,
,Feedback,canvas.Screen,0_3_0_0_1,,timeout,,108964,108961.451,108978.139,112961.571,4000.2839999999997,112962.20000004768,2021-11-04T16:51:46.563Z,112978.423,1636044587,full,ni_sequenzen,NI_Sequenzen,,0,,,,,,,,,,,,
,Trial,flow.Sequence,0_3_0_0,,completion,,93431.90000009537,93444.368,93461.071,112961.571,19500.5,112962.5,2021-11-04T16:51:46.564Z,112994.984,1636044587,full,ni_sequenzen,NI_Sequenzen,,0,,,,,,,,,,,,
,Move,canvas.Screen,0_3_0_1_0_0,down,response,,112971.80000019073,112978.423,112994.984,125582.80000019073,12587.816000190738,125583.60000014305,2021-11-04T16:51:59.185Z,125595.269,1636044587,full,ni_sequenzen,NI_Sequenzen,1,1,,,,,,,,,,,,
,Move,canvas.Screen,0_3_0_1_0_1,right,response,,125589.40000009537,125578.509,125595.269,126261,665.7309999999998,126261.80000019073,2021-11-04T16:51:59.863Z,126278.635,1636044587,full,ni_sequenzen,NI_Sequenzen,2,1,,,,,,,,,,,,
,Move,canvas.Screen,0_3_0_1_0_2,right,response,,126265.60000014305,126261.972,126278.635,129484.60000014305,3205.9650001430564,129485.40000009537,2021-11-04T16:52:03.087Z,129495.373,1636044587,full,ni_sequenzen,NI_Sequenzen,3,1,,,,,,,,,,,,
,Move,canvas.Screen,0_3_0_1_0_3,down,response,,129489.90000009537,129478.689,129495.373,129832.30000019073,336.927000190728,129833,2021-11-04T16:52:03.434Z,129878.894,1636044587,full,ni_sequenzen,NI_Sequenzen,4,1,,,,,,,,,,,,
,Move,canvas.Screen,0_3_0_1_0_4,-999,skipped,,129836.40000009537,,,129832.30000019073,,129836.60000014305,2021-11-04T16:52:03.438Z,129878.894,1636044587,full,ni_sequenzen,NI_Sequenzen,5,1,,,,,,,,,,,,
,Move,canvas.Screen,0_3_0_1_0_5,-999,skipped,,129840.20000004768,,,129832.30000019073,,129840.30000019073,2021-11-04T16:52:03.441Z,129878.894,1636044587,full,ni_sequenzen,NI_Sequenzen,6,1,,,,,,,,,,,,
,Move,canvas.Screen,0_3_0_1_0_6,-999,skipped,,129843.70000004768,,,129832.30000019073,,129843.90000009537,2021-11-04T16:52:03.445Z,129878.894,1636044587,full,ni_sequenzen,NI_Sequenzen,7,1,,,,,,,,,,,,
,Move,canvas.Screen,0_3_0_1_0_7,-999,skipped,,129847.20000004768,,,129832.30000019073,,129847.30000019073,2021-11-04T16:52:03.448Z,129878.894,1636044587,full,ni_sequenzen,NI_Sequenzen,8,1,,,,,,,,,,,,
,Move,canvas.Screen,0_3_0_1_0_8,-999,skipped,,129849.40000009537,,,129832.30000019073,,129849.40000009537,2021-11-04T16:52:03.451Z,129878.894,1636044587,full,ni_sequenzen,NI_Sequenzen,9,1,,,,,,,,,,,,
,Move,canvas.Screen,0_3_0_1_0_9,-999,skipped,,129851.5,,,129832.30000019073,,129851.60000014305,2021-11-04T16:52:03.453Z,129878.894,1636044587,full,ni_sequenzen,NI_Sequenzen,10,1,,,,,,,,,,,,
,Move,canvas.Screen,0_3_0_1_0_10,-999,skipped,,129856,,,129832.30000019073,,129856.10000014305,2021-11-04T16:52:03.457Z,129878.894,1636044587,full,ni_sequenzen,NI_Sequenzen,11,1,,,,,,,,,,,,
,Move,canvas.Screen,0_3_0_1_0_11,-999,skipped,,129858.20000004768,,,129832.30000019073,,129858.20000004768,2021-11-04T16:52:03.459Z,129878.894,1636044587,full,ni_sequenzen,NI_Sequenzen,12,1,,,,,,,,,,,,
,Move,canvas.Screen,0_3_0_1_0_12,-999,skipped,,129860.20000004768,,,129832.30000019073,,129860.30000019073,2021-11-04T16:52:03.461Z,129878.894,1636044587,full,ni_sequenzen,NI_Sequenzen,13,1,,,,,,,,,,,,
,Move,canvas.Screen,0_3_0_1_0_13,-999,skipped,,129862.90000009537,,,129832.30000019073,,129863,2021-11-04T16:52:03.464Z,129878.894,1636044587,full,ni_sequenzen,NI_Sequenzen,14,1,,,,,,,,,,,,
,Move,canvas.Screen,0_3_0_1_0_14,-999,skipped,,129866.40000009537,,,129832.30000019073,,129866.60000014305,2021-11-04T16:52:03.468Z,129878.894,1636044587,full,ni_sequenzen,NI_Sequenzen,15,1,,,,,,,,,,,,
,Loop,flow.Loop,0_3_0_1_0,-999,completion,,112968.60000014305,112978.423,112994.984,129832.30000019073,16837.316000190738,129866.90000009537,2021-11-04T16:52:03.468Z,129878.894,1636044587,full,ni_sequenzen,NI_Sequenzen,,1,,,,,,,,,,,,
,Feedback,canvas.Screen,0_3_0_1_1,,timeout,,129868.90000009537,129862.067,129878.894,133862.158,3999.935999999987,133862.5,2021-11-04T16:52:07.464Z,133878.83,1636044587,full,ni_sequenzen,NI_Sequenzen,,1,,,,,,,,,,,,
,Trial,flow.Sequence,0_3_0_1,,completion,,112962.80000019073,112978.423,112994.984,133862.158,20867.174,133862.60000014305,2021-11-04T16:52:07.464Z,133895.501,1636044587,full,ni_sequenzen,NI_Sequenzen,,1,,,,,,,,,,,,
,Move,canvas.Screen,0_3_0_2_0_0,down,response,,133880.90000009537,133878.83,133895.501,136878.60000014305,2983.099000143062,136879.30000019073,2021-11-04T16:52:10.480Z,136895.662,1636044587,full,ni_sequenzen,NI_Sequenzen,1,2,,,,,,,,,,,,
,Move,canvas.Screen,0_3_0_2_0_1,right,response,,136882.70000004768,136878.89,136895.662,138593.60000014305,1697.93800014304,138594.20000004768,2021-11-04T16:52:12.195Z,138612.282,1636044587,full,ni_sequenzen,NI_Sequenzen,2,2,,,,,,,,,,,,
,Move,canvas.Screen,0_3_0_2_0_2,right,response,,138597.10000014305,138595.676,138612.282,140097.20000004768,1484.9180000476772,140098.10000014305,2021-11-04T16:52:13.699Z,140112.343,1636044587,full,ni_sequenzen,NI_Sequenzen,3,2,,,,,,,,,,,,
,Move,canvas.Screen,0_3_0_2_0_3,down,response,,140101.10000014305,140095.653,140112.343,140416.40000009537,304.05700009537395,140417.10000014305,2021-11-04T16:52:14.018Z,140477.313,1636044587,full,ni_sequenzen,NI_Sequenzen,4,2,,,,,,,,,,,,
,Move,canvas.Screen,0_3_0_2_0_4,-999,skipped,,140419.70000004768,,,140416.40000009537,,140419.80000019073,2021-11-04T16:52:14.021Z,140477.313,1636044587,full,ni_sequenzen,NI_Sequenzen,5,2,,,,,,,,,,,,
,Move,canvas.Screen,0_3_0_2_0_5,-999,skipped,,140422.30000019073,,,140416.40000009537,,140422.40000009537,2021-11-04T16:52:14.024Z,140477.313,1636044587,full,ni_sequenzen,NI_Sequenzen,6,2,,,,,,,,,,,,
,Move,canvas.Screen,0_3_0_2_0_6,-999,skipped,,140425.10000014305,,,140416.40000009537,,140425.20000004768,2021-11-04T16:52:14.026Z,140477.313,1636044587,full,ni_sequenzen,NI_Sequenzen,7,2,,,,,,,,,,,,
,Move,canvas.Screen,0_3_0_2_0_7,-999,skipped,,140427.90000009537,,,140416.40000009537,,140428,2021-11-04T16:52:14.029Z,140477.313,1636044587,full,ni_sequenzen,NI_Sequenzen,8,2,,,,,,,,,,,,
,Move,canvas.Screen,0_3_0_2_0_8,-999,skipped,,140430,,,140416.40000009537,,140430.10000014305,2021-11-04T16:52:14.031Z,140477.313,1636044587,full,ni_sequenzen,NI_Sequenzen,9,2,,,,,,,,,,,,
,Move,canvas.Screen,0_3_0_2_0_9,-999,skipped,,140432.60000014305,,,140416.40000009537,,140432.70000004768,2021-11-04T16:52:14.034Z,140477.313,1636044587,full,ni_sequenzen,NI_Sequenzen,10,2,,,,,,,,,,,,
,Move,canvas.Screen,0_3_0_2_0_10,-999,skipped,,140434.5,,,140416.40000009537,,140434.60000014305,2021-11-04T16:52:14.036Z,140477.313,1636044587,full,ni_sequenzen,NI_Sequenzen,11,2,,,,,,,,,,,,
,Move,canvas.Screen,0_3_0_2_0_11,-999,skipped,,140436.30000019073,,,140416.40000009537,,140436.40000009537,2021-11-04T16:52:14.038Z,140477.313,1636044587,full,ni_sequenzen,NI_Sequenzen,12,2,,,,,,,,,,,,
,Move,canvas.Screen,0_3_0_2_0_12,-999,skipped,,140439.10000014305,,,140416.40000009537,,140439.20000004768,2021-11-04T16:52:14.040Z,140477.313,1636044587,full,ni_sequenzen,NI_Sequenzen,13,2,,,,,,,,,,,,
,Move,canvas.Screen,0_3_0_2_0_13,-999,skipped,,140440.90000009537,,,140416.40000009537,,140441,2021-11-04T16:52:14.042Z,140477.313,1636044587,full,ni_sequenzen,NI_Sequenzen,14,2,,,,,,,,,,,,
,Move,canvas.Screen,0_3_0_2_0_14,-999,skipped,,140442.80000019073,,,140416.40000009537,,140442.90000009537,2021-11-04T16:52:14.044Z,140477.313,1636044587,full,ni_sequenzen,NI_Sequenzen,15,2,,,,,,,,,,,,
,Loop,flow.Loop,0_3_0_2_0,-999,completion,,133877.20000004768,133878.83,133895.501,140416.40000009537,6520.899000095378,140443,2021-11-04T16:52:14.044Z,140477.313,1636044587,full,ni_sequenzen,NI_Sequenzen,,2,,,,,,,,,,,,
,Feedback,canvas.Screen,0_3_0_2_1,,timeout,,140444.60000014305,140429.043,140477.313,144462.508,4001.8129999999946,144463,2021-11-04T16:52:18.064Z,144479.126,1636044587,full,ni_sequenzen,NI_Sequenzen,,2,,,,,,,,,,,,
,Trial,flow.Sequence,0_3_0_2,,completion,,133862.90000009537,133878.83,133895.501,144462.508,10567.007000000012,144463.20000004768,2021-11-04T16:52:18.064Z,144495.767,1636044587,full,ni_sequenzen,NI_Sequenzen,,2,,,,,,,,,,,,
,Move,canvas.Screen,0_3_0_3_0_0,left,response,,144487.5,144479.126,144495.767,144645.60000014305,149.8330001430586,144646.20000004768,2021-11-04T16:52:18.247Z,144662.472,1636044587,full,ni_sequenzen,NI_Sequenzen,1,3,,,,,,,,,,,,
,Move,canvas.Screen,0_3_0_3_0_1,left,response,,144648.80000019073,144645.893,144662.472,144914.10000014305,251.6280001430423,144915.20000004768,2021-11-04T16:52:18.516Z,144929.153,1636044587,full,ni_sequenzen,NI_Sequenzen,2,3,,,,,,,,,,,,
,Move,canvas.Screen,0_3_0_3_0_2,down,response,,144918.40000009537,144912.539,144929.153,149868.20000004768,4939.047000047693,149869,2021-11-04T16:52:23.470Z,149879.257,1636044587,full,ni_sequenzen,NI_Sequenzen,3,3,,,,,,,,,,,,
,Move,canvas.Screen,0_3_0_3_0_3,down,response,,149872,149862.628,149879.257,154095.30000019073,4216.0430001907225,154096,2021-11-04T16:52:27.697Z,154146.052,1636044587,full,ni_sequenzen,NI_Sequenzen,4,3,,,,,,,,,,,,
,Move,canvas.Screen,0_3_0_3_0_4,-999,skipped,,154100.20000004768,,,154095.30000019073,,154100.40000009537,2021-11-04T16:52:27.702Z,154146.052,1636044587,full,ni_sequenzen,NI_Sequenzen,5,3,,,,,,,,,,,,
,Move,canvas.Screen,0_3_0_3_0_5,-999,skipped,,154106.20000004768,,,154095.30000019073,,154106.30000019073,2021-11-04T16:52:27.707Z,154146.052,1636044587,full,ni_sequenzen,NI_Sequenzen,6,3,,,,,,,,,,,,
,Move,canvas.Screen,0_3_0_3_0_6,-999,skipped,,154111.80000019073,,,154095.30000019073,,154111.80000019073,2021-11-04T16:52:27.713Z,154146.052,1636044587,full,ni_sequenzen,NI_Sequenzen,7,3,,,,,,,,,,,,
,Move,canvas.Screen,0_3_0_3_0_7,-999,skipped,,154120.40000009537,,,154095.30000019073,,154120.60000014305,2021-11-04T16:52:27.722Z,154146.052,1636044587,full,ni_sequenzen,NI_Sequenzen,8,3,,,,,,,,,,,,
,Move,canvas.Screen,0_3_0_3_0_8,-999,skipped,,154123.70000004768,,,154095.30000019073,,154123.70000004768,2021-11-04T16:52:27.725Z,154146.052,1636044587,full,ni_sequenzen,NI_Sequenzen,9,3,,,,,,,,,,,,
,Move,canvas.Screen,0_3_0_3_0_9,-999,skipped,,154125.70000004768,,,154095.30000019073,,154125.70000004768,2021-11-04T16:52:27.727Z,154146.052,1636044587,full,ni_sequenzen,NI_Sequenzen,10,3,,,,,,,,,,,,
,Move,canvas.Screen,0_3_0_3_0_10,-999,skipped,,154127.60000014305,,,154095.30000019073,,154127.70000004768,2021-11-04T16:52:27.729Z,154146.052,1636044587,full,ni_sequenzen,NI_Sequenzen,11,3,,,,,,,,,,,,
,Move,canvas.Screen,0_3_0_3_0_11,-999,skipped,,154131.10000014305,,,154095.30000019073,,154131.20000004768,2021-11-04T16:52:27.732Z,154146.052,1636044587,full,ni_sequenzen,NI_Sequenzen,12,3,,,,,,,,,,,,
,Move,canvas.Screen,0_3_0_3_0_12,-999,skipped,,154134.10000014305,,,154095.30000019073,,154134.20000004768,2021-11-04T16:52:27.735Z,154146.052,1636044587,full,ni_sequenzen,NI_Sequenzen,13,3,,,,,,,,,,,,
,Move,canvas.Screen,0_3_0_3_0_13,-999,skipped,,154137,,,154095.30000019073,,154137.10000014305,2021-11-04T16:52:27.738Z,154146.052,1636044587,full,ni_sequenzen,NI_Sequenzen,14,3,,,,,,,,,,,,
,Move,canvas.Screen,0_3_0_3_0_14,-999,skipped,,154140.80000019073,,,154095.30000019073,,154140.90000009537,2021-11-04T16:52:27.742Z,154146.052,1636044587,full,ni_sequenzen,NI_Sequenzen,15,3,,,,,,,,,,,,
,Loop,flow.Loop,0_3_0_3_0,-999,completion,,144480.70000004768,144479.126,144495.767,154095.30000019073,9599.533000190742,154141.10000014305,2021-11-04T16:52:27.742Z,154146.052,1636044587,full,ni_sequenzen,NI_Sequenzen,,3,,,,,,,,,,,,
,Feedback,canvas.Screen,0_3_0_3_1,,timeout,,154143.70000004768,154129.359,154146.052,158129.51,4000.1260000000184,158131.10000014305,2021-11-04T16:52:31.732Z,158146.178,1636044587,full,ni_sequenzen,NI_Sequenzen,,3,,,,,,,,,,,,
,Trial,flow.Sequence,0_3_0_3,,completion,,144463.5,144479.126,144495.767,158129.51,13633.743000000017,158131.10000014305,2021-11-04T16:52:31.732Z,158162.845,1636044587,full,ni_sequenzen,NI_Sequenzen,,3,,,,,,,,,,,,
,Move,canvas.Screen,0_3_0_4_0_0,right,response,,158139.60000014305,158146.178,158162.845,160803.30000019073,2640.4550001907337,160804.10000014305,2021-11-04T16:52:34.405Z,160812.887,1636044587,full,ni_sequenzen,NI_Sequenzen,1,4,,,,,,,,,,,,
,Move,canvas.Screen,0_3_0_4_0_1,down,response,,160809.10000014305,160796.213,160812.887,161145.20000004768,332.3130000476958,161145.90000009537,2021-11-04T16:52:34.747Z,161162.907,1636044587,full,ni_sequenzen,NI_Sequenzen,2,4,,,,,,,,,,,,
,Move,canvas.Screen,0_3_0_4_0_2,right,response,,161148.70000004768,161146.267,161162.907,162245.5,1082.5929999999935,162246.40000009537,2021-11-04T16:52:35.848Z,162263.082,1636044587,full,ni_sequenzen,NI_Sequenzen,3,4,,,,,,,,,,,,
,Move,canvas.Screen,0_3_0_4_0_3,down,response,,162249.40000009537,162246.277,162263.082,162896.70000004768,633.6180000476888,162897.5,2021-11-04T16:52:36.499Z,162929.638,1636044587,full,ni_sequenzen,NI_Sequenzen,4,4,,,,,,,,,,,,
,Move,canvas.Screen,0_3_0_4_0_4,-999,skipped,,162900.5,,,162896.70000004768,,162900.70000004768,2021-11-04T16:52:36.502Z,162929.638,1636044587,full,ni_sequenzen,NI_Sequenzen,5,4,,,,,,,,,,,,
,Move,canvas.Screen,0_3_0_4_0_5,-999,skipped,,162902.70000004768,,,162896.70000004768,,162902.80000019073,2021-11-04T16:52:36.504Z,162929.638,1636044587,full,ni_sequenzen,NI_Sequenzen,6,4,,,,,,,,,,,,
,Move,canvas.Screen,0_3_0_4_0_6,-999,skipped,,162904.70000004768,,,162896.70000004768,,162904.70000004768,2021-11-04T16:52:36.506Z,162929.638,1636044587,full,ni_sequenzen,NI_Sequenzen,7,4,,,,,,,,,,,,
,Move,canvas.Screen,0_3_0_4_0_7,-999,skipped,,162907.30000019073,,,162896.70000004768,,162907.5,2021-11-04T16:52:36.509Z,162929.638,1636044587,full,ni_sequenzen,NI_Sequenzen,8,4,,,,,,,,,,,,
,Move,canvas.Screen,0_3_0_4_0_8,-999,skipped,,162909.40000009537,,,162896.70000004768,,162909.60000014305,2021-11-04T16:52:36.511Z,162929.638,1636044587,full,ni_sequenzen,NI_Sequenzen,9,4,,,,,,,,,,,,
,Move,canvas.Screen,0_3_0_4_0_9,-999,skipped,,162911.90000009537,,,162896.70000004768,,162912,2021-11-04T16:52:36.513Z,162929.638,1636044587,full,ni_sequenzen,NI_Sequenzen,10,4,,,,,,,,,,,,
,Move,canvas.Screen,0_3_0_4_0_10,-999,skipped,,162915.60000014305,,,162896.70000004768,,162915.70000004768,2021-11-04T16:52:36.517Z,162929.638,1636044587,full,ni_sequenzen,NI_Sequenzen,11,4,,,,,,,,,,,,
,Move,canvas.Screen,0_3_0_4_0_11,-999,skipped,,162917.80000019073,,,162896.70000004768,,162917.80000019073,2021-11-04T16:52:36.519Z,162929.638,1636044587,full,ni_sequenzen,NI_Sequenzen,12,4,,,,,,,,,,,,
,Move,canvas.Screen,0_3_0_4_0_12,-999,skipped,,162919.5,,,162896.70000004768,,162919.5,2021-11-04T16:52:36.521Z,162929.638,1636044587,full,ni_sequenzen,NI_Sequenzen,13,4,,,,,,,,,,,,
,Move,canvas.Screen,0_3_0_4_0_13,-999,skipped,,162922.10000014305,,,162896.70000004768,,162922.20000004768,2021-11-04T16:52:36.523Z,162929.638,1636044587,full,ni_sequenzen,NI_Sequenzen,14,4,,,,,,,,,,,,
,Move,canvas.Screen,0_3_0_4_0_14,-999,skipped,,162925,,,162896.70000004768,,162925,2021-11-04T16:52:36.526Z,162929.638,1636044587,full,ni_sequenzen,NI_Sequenzen,15,4,,,,,,,,,,,,
,Loop,flow.Loop,0_3_0_4_0,-999,completion,,158137.40000009537,158146.178,158162.845,162896.70000004768,4733.855000047683,162925.20000004768,2021-11-04T16:52:36.526Z,162929.638,1636044587,full,ni_sequenzen,NI_Sequenzen,,4,,,,,,,,,,,,
,Feedback,canvas.Screen,0_3_0_4_1,,timeout,,162928,162913.001,162929.638,166913.058,4000.103999999992,166914.40000009537,2021-11-04T16:52:40.516Z,166929.742,1636044587,full,ni_sequenzen,NI_Sequenzen,,4,,,,,,,,,,,,
,Trial,flow.Sequence,0_3_0_4,,completion,,158131.40000009537,158146.178,158162.845,166913.058,8750.212999999989,166914.5,2021-11-04T16:52:40.516Z,166946.415,1636044587,full,ni_sequenzen,NI_Sequenzen,,4,,,,,,,,,,,,
,Move,canvas.Screen,0_3_0_5_0_0,right,response,,166923,166929.742,166946.415,170035.70000004768,3089.2850000476756,170036.40000009537,2021-11-04T16:52:43.638Z,170046.583,1636044587,full,ni_sequenzen,NI_Sequenzen,1,5,,,,,,,,,,,,
,Move,canvas.Screen,0_3_0_5_0_1,down,response,,170039.5,170029.792,170046.583,171532.90000009537,1486.3170000953542,171533.60000014305,2021-11-04T16:52:45.135Z,171546.695,1636044587,full,ni_sequenzen,NI_Sequenzen,2,5,,,,,,,,,,,,
,Move,canvas.Screen,0_3_0_5_0_2,right,response,,171537.60000014305,171529.881,171546.695,173458.90000009537,1912.2050000953604,173459.80000019073,2021-11-04T16:52:47.061Z,173479.929,1636044587,full,ni_sequenzen,NI_Sequenzen,3,5,,,,,,,,,,,,
,Move,canvas.Screen,0_3_0_5_0_3,down,response,,173463.40000009537,173463.234,173479.929,174345.40000009537,865.4710000953637,174346.20000004768,2021-11-04T16:52:47.947Z,174413.285,1636044587,full,ni_sequenzen,NI_Sequenzen,4,5,,,,,,,,,,,,
,Move,canvas.Screen,0_3_0_5_0_4,-999,skipped,,174350.30000019073,,,174345.40000009537,,174350.5,2021-11-04T16:52:47.952Z,174413.285,1636044587,full,ni_sequenzen,NI_Sequenzen,5,5,,,,,,,,,,,,
,Move,canvas.Screen,0_3_0_5_0_5,-999,skipped,,174354.10000014305,,,174345.40000009537,,174354.20000004768,2021-11-04T16:52:47.955Z,174413.285,1636044587,full,ni_sequenzen,NI_Sequenzen,6,5,,,,,,,,,,,,
,Move,canvas.Screen,0_3_0_5_0_6,-999,skipped,,174359.60000014305,,,174345.40000009537,,174360,2021-11-04T16:52:47.961Z,174413.285,1636044587,full,ni_sequenzen,NI_Sequenzen,7,5,,,,,,,,,,,,
,Move,canvas.Screen,0_3_0_5_0_7,-999,skipped,,174366.30000019073,,,174345.40000009537,,174366.40000009537,2021-11-04T16:52:47.967Z,174413.285,1636044587,full,ni_sequenzen,NI_Sequenzen,8,5,,,,,,,,,,,,
,Move,canvas.Screen,0_3_0_5_0_8,-999,skipped,,174372.30000019073,,,174345.40000009537,,174372.5,2021-11-04T16:52:47.974Z,174413.285,1636044587,full,ni_sequenzen,NI_Sequenzen,9,5,,,,,,,,,,,,
,Move,canvas.Screen,0_3_0_5_0_9,-999,skipped,,174380.40000009537,,,174345.40000009537,,174380.60000014305,2021-11-04T16:52:47.982Z,174413.285,1636044587,full,ni_sequenzen,NI_Sequenzen,10,5,,,,,,,,,,,,
,Move,canvas.Screen,0_3_0_5_0_10,-999,skipped,,174384.80000019073,,,174345.40000009537,,174384.90000009537,2021-11-04T16:52:47.986Z,174413.285,1636044587,full,ni_sequenzen,NI_Sequenzen,11,5,,,,,,,,,,,,
,Move,canvas.Screen,0_3_0_5_0_11,-999,skipped,,174388.40000009537,,,174345.40000009537,,174388.40000009537,2021-11-04T16:52:47.990Z,174413.285,1636044587,full,ni_sequenzen,NI_Sequenzen,12,5,,,,,,,,,,,,
,Move,canvas.Screen,0_3_0_5_0_12,-999,skipped,,174392.30000019073,,,174345.40000009537,,174392.40000009537,2021-11-04T16:52:47.993Z,174413.285,1636044587,full,ni_sequenzen,NI_Sequenzen,13,5,,,,,,,,,,,,
,Move,canvas.Screen,0_3_0_5_0_13,-999,skipped,,174395.40000009537,,,174345.40000009537,,174395.60000014305,2021-11-04T16:52:47.997Z,174413.285,1636044587,full,ni_sequenzen,NI_Sequenzen,14,5,,,,,,,,,,,,
,Move,canvas.Screen,0_3_0_5_0_14,-999,skipped,,174398,,,174345.40000009537,,174398.20000004768,2021-11-04T16:52:47.999Z,174413.285,1636044587,full,ni_sequenzen,NI_Sequenzen,15,5,,,,,,,,,,,,
,Loop,flow.Loop,0_3_0_5_0,-999,completion,,166920.10000014305,166929.742,166946.415,174345.40000009537,7398.985000095359,174398.30000019073,2021-11-04T16:52:47.999Z,174413.285,1636044587,full,ni_sequenzen,NI_Sequenzen,,5,,,,,,,,,,,,
,Feedback,canvas.Screen,0_3_0_5_1,,timeout,,174401.30000019073,174396.6,174413.285,178396.726,4000.1110000000044,178398.10000014305,2021-11-04T16:52:51.999Z,178413.396,1636044587,full,ni_sequenzen,NI_Sequenzen,,5,,,,,,,,,,,,
,Trial,flow.Sequence,0_3_0_5,,completion,,166914.80000019073,166929.742,166946.415,178396.726,11450.310999999987,178398.20000004768,2021-11-04T16:52:51.999Z,178430.067,1636044587,full,ni_sequenzen,NI_Sequenzen,,5,,,,,,,,,,,,
,Move,canvas.Screen,0_3_0_6_0_0,down,response,,178407.10000014305,178413.396,178430.067,180734.5,2304.43299999999,180735.20000004768,2021-11-04T16:52:54.336Z,180746.78,1636044587,full,ni_sequenzen,NI_Sequenzen,1,6,,,,,,,,,,,,
,Move,canvas.Screen,0_3_0_6_0_1,left,response,,180738.5,180730.114,180746.78,181945.20000004768,1198.4200000476849,181946,2021-11-04T16:52:55.547Z,181963.494,1636044587,full,ni_sequenzen,NI_Sequenzen,2,6,,,,,,,,,,,,
,Move,canvas.Screen,0_3_0_6_0_2,down,response,,181950.60000014305,181946.805,181963.494,183225.10000014305,1261.606000143045,183225.90000009537,2021-11-04T16:52:56.827Z,183246.86,1636044587,full,ni_sequenzen,NI_Sequenzen,3,6,,,,,,,,,,,,
,Move,canvas.Screen,0_3_0_6_0_3,right,response,,183230.5,183230.179,183246.86,183952.10000014305,705.2400001430651,183952.80000019073,2021-11-04T16:52:57.554Z,183963.619,1636044587,full,ni_sequenzen,NI_Sequenzen,4,6,,,,,,,,,,,,
,Move,canvas.Screen,0_3_0_6_0_4,left,response,,183956.90000009537,183946.878,183963.619,185713.10000014305,1749.481000143045,185714,2021-11-04T16:52:59.315Z,185747.043,1636044587,full,ni_sequenzen,NI_Sequenzen,5,6,,,,,,,,,,,,
,Move,canvas.Screen,0_3_0_6_0_5,-999,skipped,,185716.90000009537,,,185713.10000014305,,185717,2021-11-04T16:52:59.318Z,185747.043,1636044587,full,ni_sequenzen,NI_Sequenzen,6,6,,,,,,,,,,,,
,Move,canvas.Screen,0_3_0_6_0_6,-999,skipped,,185719,,,185713.10000014305,,185719.10000014305,2021-11-04T16:52:59.320Z,185747.043,1636044587,full,ni_sequenzen,NI_Sequenzen,7,6,,,,,,,,,,,,
,Move,canvas.Screen,0_3_0_6_0_7,-999,skipped,,185720.90000009537,,,185713.10000014305,,185721,2021-11-04T16:52:59.322Z,185747.043,1636044587,full,ni_sequenzen,NI_Sequenzen,8,6,,,,,,,,,,,,
,Move,canvas.Screen,0_3_0_6_0_8,-999,skipped,,185723.5,,,185713.10000014305,,185723.60000014305,2021-11-04T16:52:59.325Z,185747.043,1636044587,full,ni_sequenzen,NI_Sequenzen,9,6,,,,,,,,,,,,
,Move,canvas.Screen,0_3_0_6_0_9,-999,skipped,,185725.5,,,185713.10000014305,,185725.5,2021-11-04T16:52:59.327Z,185747.043,1636044587,full,ni_sequenzen,NI_Sequenzen,10,6,,,,,,,,,,,,
,Move,canvas.Screen,0_3_0_6_0_10,-999,skipped,,185727.30000019073,,,185713.10000014305,,185727.40000009537,2021-11-04T16:52:59.329Z,185747.043,1636044587,full,ni_sequenzen,NI_Sequenzen,11,6,,,,,,,,,,,,
,Move,canvas.Screen,0_3_0_6_0_11,-999,skipped,,185729.90000009537,,,185713.10000014305,,185730,2021-11-04T16:52:59.331Z,185747.043,1636044587,full,ni_sequenzen,NI_Sequenzen,12,6,,,,,,,,,,,,
,Move,canvas.Screen,0_3_0_6_0_12,-999,skipped,,185732,,,185713.10000014305,,185732,2021-11-04T16:52:59.333Z,185747.043,1636044587,full,ni_sequenzen,NI_Sequenzen,13,6,,,,,,,,,,,,
,Move,canvas.Screen,0_3_0_6_0_13,-999,skipped,,185734,,,185713.10000014305,,185734.10000014305,2021-11-04T16:52:59.335Z,185747.043,1636044587,full,ni_sequenzen,NI_Sequenzen,14,6,,,,,,,,,,,,
,Move,canvas.Screen,0_3_0_6_0_14,-999,skipped,,185735.90000009537,,,185713.10000014305,,185736.10000014305,2021-11-04T16:52:59.337Z,185747.043,1636044587,full,ni_sequenzen,NI_Sequenzen,15,6,,,,,,,,,,,,
,Loop,flow.Loop,0_3_0_6_0,-999,completion,,178404.80000019073,178413.396,178430.067,185713.10000014305,7283.033000143041,185736.20000004768,2021-11-04T16:52:59.337Z,185747.043,1636044587,full,ni_sequenzen,NI_Sequenzen,,6,,,,,,,,,,,,
,Feedback,canvas.Screen,0_3_0_6_1,,timeout,,185740.30000019073,185730.259,185747.043,189730.392,3999.997000000003,189730.90000009537,2021-11-04T16:53:03.332Z,189747.04,1636044587,full,ni_sequenzen,NI_Sequenzen,,6,,,,,,,,,,,,
,Trial,flow.Sequence,0_3_0_6,,completion,,178398.40000009537,178413.396,178430.067,189730.392,11300.324999999983,189731,2021-11-04T16:53:03.332Z,189763.696,1636044587,full,ni_sequenzen,NI_Sequenzen,,6,,,,,,,,,,,,
,Move,canvas.Screen,0_3_0_7_0_0,right,response,,189753.90000009537,189747.04,189763.696,190542.10000014305,778.4040001430549,190542.80000019073,2021-11-04T16:53:04.144Z,190563.746,1636044587,full,ni_sequenzen,NI_Sequenzen,1,7,,,,,,,,,,,,
,Move,canvas.Screen,0_3_0_7_0_1,down,response,,190547.60000014305,190547.043,190563.746,191348.90000009537,785.1540000953537,191349.80000019073,2021-11-04T16:53:04.951Z,191363.763,1636044587,full,ni_sequenzen,NI_Sequenzen,2,7,,,,,,,,,,,,
,Move,canvas.Screen,0_3_0_7_0_2,left,response,,191353.60000014305,191347.096,191363.763,191970.5,606.7369999999937,191971.20000004768,2021-11-04T16:53:05.572Z,191980.441,1636044587,full,ni_sequenzen,NI_Sequenzen,3,7,,,,,,,,,,,,
,Move,canvas.Screen,0_3_0_7_0_3,down,response,,191973.70000004768,191963.772,191980.441,192661.60000014305,681.1590001430595,192662.5,2021-11-04T16:53:06.264Z,192680.518,1636044587,full,ni_sequenzen,NI_Sequenzen,4,7,,,,,,,,,,,,
,Move,canvas.Screen,0_3_0_7_0_4,right,response,,192666.5,192663.808,192680.518,193190.60000014305,510.0820001430402,193191.40000009537,2021-11-04T16:53:06.792Z,193247.128,1636044587,full,ni_sequenzen,NI_Sequenzen,5,7,,,,,,,,,,,,
,Move,canvas.Screen,0_3_0_7_0_5,-999,skipped,,193193.80000019073,,,193190.60000014305,,193194,2021-11-04T16:53:06.795Z,193247.128,1636044587,full,ni_sequenzen,NI_Sequenzen,6,7,,,,,,,,,,,,
,Move,canvas.Screen,0_3_0_7_0_6,-999,skipped,,193195.90000009537,,,193190.60000014305,,193196,2021-11-04T16:53:06.797Z,193247.128,1636044587,full,ni_sequenzen,NI_Sequenzen,7,7,,,,,,,,,,,,
,Move,canvas.Screen,0_3_0_7_0_7,-999,skipped,,193199.20000004768,,,193190.60000014305,,193199.60000014305,2021-11-04T16:53:06.801Z,193247.128,1636044587,full,ni_sequenzen,NI_Sequenzen,8,7,,,,,,,,,,,,
,Move,canvas.Screen,0_3_0_7_0_8,-999,skipped,,193205.10000014305,,,193190.60000014305,,193205.30000019073,2021-11-04T16:53:06.806Z,193247.128,1636044587,full,ni_sequenzen,NI_Sequenzen,9,7,,,,,,,,,,,,
,Move,canvas.Screen,0_3_0_7_0_9,-999,skipped,,193211.10000014305,,,193190.60000014305,,193211.20000004768,2021-11-04T16:53:06.812Z,193247.128,1636044587,full,ni_sequenzen,NI_Sequenzen,10,7,,,,,,,,,,,,
,Move,canvas.Screen,0_3_0_7_0_10,-999,skipped,,193218.30000019073,,,193190.60000014305,,193218.5,2021-11-04T16:53:06.820Z,193247.128,1636044587,full,ni_sequenzen,NI_Sequenzen,11,7,,,,,,,,,,,,
,Move,canvas.Screen,0_3_0_7_0_11,-999,skipped,,193221.70000004768,,,193190.60000014305,,193221.80000019073,2021-11-04T16:53:06.823Z,193247.128,1636044587,full,ni_sequenzen,NI_Sequenzen,12,7,,,,,,,,,,,,
,Move,canvas.Screen,0_3_0_7_0_12,-999,skipped,,193223.70000004768,,,193190.60000014305,,193223.80000019073,2021-11-04T16:53:06.825Z,193247.128,1636044587,full,ni_sequenzen,NI_Sequenzen,13,7,,,,,,,,,,,,
,Move,canvas.Screen,0_3_0_7_0_13,-999,skipped,,193225.70000004768,,,193190.60000014305,,193225.80000019073,2021-11-04T16:53:06.827Z,193247.128,1636044587,full,ni_sequenzen,NI_Sequenzen,14,7,,,,,,,,,,,,
,Move,canvas.Screen,0_3_0_7_0_14,-999,skipped,,193228.30000019073,,,193190.60000014305,,193228.30000019073,2021-11-04T16:53:06.829Z,193247.128,1636044587,full,ni_sequenzen,NI_Sequenzen,15,7,,,,,,,,,,,,
,Loop,flow.Loop,0_3_0_7_0,-999,completion,,189746.5,189747.04,189763.696,193190.60000014305,3426.904000143055,193228.5,2021-11-04T16:53:06.830Z,193247.128,1636044587,full,ni_sequenzen,NI_Sequenzen,,7,,,,,,,,,,,,
,Feedback,canvas.Screen,0_3_0_7_1,,timeout,,193231,193230.481,193247.128,197230.579,4000.113000000012,197232.70000004768,2021-11-04T16:53:10.834Z,197247.241,1636044587,full,ni_sequenzen,NI_Sequenzen,,7,,,,,,,,,,,,
,Trial,flow.Sequence,0_3_0_7,,completion,,189731.20000004768,189747.04,189763.696,197230.579,7466.883000000002,197233,2021-11-04T16:53:10.834Z,197263.907,1636044587,full,ni_sequenzen,NI_Sequenzen,,7,,,,,,,,,,,,
,Move,canvas.Screen,0_3_0_8_0_0,right,response,,197242.20000004768,197247.241,197263.907,198283.70000004768,1019.7930000476772,198284.5,2021-11-04T16:53:11.886Z,198297.279,1636044587,full,ni_sequenzen,NI_Sequenzen,1,8,,,,,,,,,,,,
,Move,canvas.Screen,0_3_0_8_0_1,down,response,,198288.90000009537,198280.604,198297.279,199195.40000009537,898.1210000953579,199196.30000019073,2021-11-04T16:53:12.797Z,199213.97,1636044587,full,ni_sequenzen,NI_Sequenzen,2,8,,,,,,,,,,,,
,Move,canvas.Screen,0_3_0_8_0_2,right,response,,199201.10000014305,199197.32,199213.97,200939.60000014305,1725.63000014305,200940.70000004768,2021-11-04T16:53:14.542Z,200947.356,1636044587,full,ni_sequenzen,NI_Sequenzen,3,8,,,,,,,,,,,,
,Move,canvas.Screen,0_3_0_8_0_3,down,response,,200945.80000019073,200930.658,200947.356,201671.10000014305,723.7440001430514,201672.10000014305,2021-11-04T16:53:15.273Z,201730.796,1636044587,full,ni_sequenzen,NI_Sequenzen,4,8,,,,,,,,,,,,
,Move,canvas.Screen,0_3_0_8_0_4,-999,skipped,,201677.40000009537,,,201671.10000014305,,201677.5,2021-11-04T16:53:15.279Z,201730.796,1636044587,full,ni_sequenzen,NI_Sequenzen,5,8,,,,,,,,,,,,
,Move,canvas.Screen,0_3_0_8_0_5,-999,skipped,,201680.60000014305,,,201671.10000014305,,201680.80000019073,2021-11-04T16:53:15.282Z,201730.796,1636044587,full,ni_sequenzen,NI_Sequenzen,6,8,,,,,,,,,,,,
,Move,canvas.Screen,0_3_0_8_0_6,-999,skipped,,201685,,,201671.10000014305,,201685.10000014305,2021-11-04T16:53:15.286Z,201730.796,1636044587,full,ni_sequenzen,NI_Sequenzen,7,8,,,,,,,,,,,,
,Move,canvas.Screen,0_3_0_8_0_7,-999,skipped,,201689.90000009537,,,201671.10000014305,,201690,2021-11-04T16:53:15.291Z,201730.796,1636044587,full,ni_sequenzen,NI_Sequenzen,8,8,,,,,,,,,,,,
,Move,canvas.Screen,0_3_0_8_0_8,-999,skipped,,201693.5,,,201671.10000014305,,201693.60000014305,2021-11-04T16:53:15.295Z,201730.796,1636044587,full,ni_sequenzen,NI_Sequenzen,9,8,,,,,,,,,,,,
,Move,canvas.Screen,0_3_0_8_0_9,-999,skipped,,201696.90000009537,,,201671.10000014305,,201697.10000014305,2021-11-04T16:53:15.298Z,201730.796,1636044587,full,ni_sequenzen,NI_Sequenzen,10,8,,,,,,,,,,,,
,Move,canvas.Screen,0_3_0_8_0_10,-999,skipped,,201701,,,201671.10000014305,,201701.20000004768,2021-11-04T16:53:15.302Z,201730.796,1636044587,full,ni_sequenzen,NI_Sequenzen,11,8,,,,,,,,,,,,
,Move,canvas.Screen,0_3_0_8_0_11,-999,skipped,,201704.20000004768,,,201671.10000014305,,201704.30000019073,2021-11-04T16:53:15.305Z,201730.796,1636044587,full,ni_sequenzen,NI_Sequenzen,12,8,,,,,,,,,,,,
,Move,canvas.Screen,0_3_0_8_0_12,-999,skipped,,201706.5,,,201671.10000014305,,201706.60000014305,2021-11-04T16:53:15.308Z,201730.796,1636044587,full,ni_sequenzen,NI_Sequenzen,13,8,,,,,,,,,,,,
,Move,canvas.Screen,0_3_0_8_0_13,-999,skipped,,201711.70000004768,,,201671.10000014305,,201711.80000019073,2021-11-04T16:53:15.313Z,201730.796,1636044587,full,ni_sequenzen,NI_Sequenzen,14,8,,,,,,,,,,,,
,Move,canvas.Screen,0_3_0_8_0_14,-999,skipped,,201713.80000019073,,,201671.10000014305,,201713.80000019073,2021-11-04T16:53:15.315Z,201730.796,1636044587,full,ni_sequenzen,NI_Sequenzen,15,8,,,,,,,,,,,,
,Loop,flow.Loop,0_3_0_8_0,-999,completion,,197239.90000009537,197247.241,197263.907,201671.10000014305,4407.193000143045,201714,2021-11-04T16:53:15.315Z,201730.796,1636044587,full,ni_sequenzen,NI_Sequenzen,,8,,,,,,,,,,,,
,Feedback,canvas.Screen,0_3_0_8_1,,timeout,,201717.80000019073,201714.03,201730.796,205714.132,4000.021000000008,205715.40000009537,2021-11-04T16:53:19.317Z,205730.817,1636044587,full,ni_sequenzen,NI_Sequenzen,,8,,,,,,,,,,,,
