meta,sender,sender_type,sender_id,response,ended_on,instrCount,time_run,time_render,time_show,time_end,duration,time_commit,timestamp,time_switch,openLabId,type,task,project,move,trialN,blockN_Train,blockN,moveCount,currPP,points,movesTrial,visitedFields,diff,reward,Strategie,Zweck,Probleme
[object Object],Screen_1,canvas.Screen,0_0_0_0,cont,response,1,461,466.3,482.96,16029,15546.04,16036,2021-11-05T00:08:10.552Z,16127.86,1636070864,full,ni_sequenzen,NI_Sequenzen,,,,,,,,,,,,,,
,Screen_2,canvas.Screen,0_0_0_1,cont,response,1,16118,16118.14,16127.86,51967,35839.14,51979,2021-11-05T00:08:46.494Z,52048.86,1636070864,full,ni_sequenzen,NI_Sequenzen,,,,,,,,,,,,,,
,Screen_3,canvas.Screen,0_0_0_2,cont,response,1,52044,52044.16,52048.86,69452,17403.14,69468,2021-11-05T00:09:03.985Z,69493,1636070864,full,ni_sequenzen,NI_Sequenzen,,,,,,,,,,,,,,
,Screen_4,canvas.Screen,0_0_0_3,cont,response,1,69473,69476.34,69493,74951,5458,74967,2021-11-05T00:09:09.482Z,75191.18,1636070864,full,ni_sequenzen,NI_Sequenzen,,,,,,,,,,,,,,
,Sequence,flow.Sequence,0_0_0,,completion,1,427,466.3,482.96,74951,74468.04,74969,2021-11-05T00:09:09.485Z,75191.18,1636070864,full,ni_sequenzen,NI_Sequenzen,,,,,,,,,,,,,,
,Screen_1,canvas.Screen,0_0_1_0,,skipped,2,74980,,,74980,,74981,2021-11-05T00:09:09.496Z,75191.18,1636070864,full,ni_sequenzen,NI_Sequenzen,,,,,,,,,,,,,,
,Screen_2,canvas.Screen,0_0_1_1,,skipped,2,74985,,,74980,,74985,2021-11-05T00:09:09.501Z,75191.18,1636070864,full,ni_sequenzen,NI_Sequenzen,,,,,,,,,,,,,,
,Screen_3,canvas.Screen,0_0_1_2,,skipped,2,74988,,,74980,,74988,2021-11-05T00:09:09.504Z,75191.18,1636070864,full,ni_sequenzen,NI_Sequenzen,,,,,,,,,,,,,,
,Screen_4,canvas.Screen,0_0_1_3,,skipped,2,74990,,,74980,,74990,2021-11-05T00:09:09.506Z,75191.18,1636070864,full,ni_sequenzen,NI_Sequenzen,,,,,,,,,,,,,,
,Sequence,flow.Sequence,0_0_1,,completion,2,74974,,,74980,,74990,2021-11-05T00:09:09.506Z,75191.18,1636070864,full,ni_sequenzen,NI_Sequenzen,,,,,,,,,,,,,,
,Screen_1,canvas.Screen,0_0_2_0,,skipped,3,74996,,,74996,,74997,2021-11-05T00:09:09.512Z,75191.18,1636070864,full,ni_sequenzen,NI_Sequenzen,,,,,,,,,,,,,,
,Screen_2,canvas.Screen,0_0_2_1,,skipped,3,74999,,,74996,,74999,2021-11-05T00:09:09.515Z,75191.18,1636070864,full,ni_sequenzen,NI_Sequenzen,,,,,,,,,,,,,,
,Screen_3,canvas.Screen,0_0_2_2,,skipped,3,75001,,,74996,,75001,2021-11-05T00:09:09.517Z,75191.18,1636070864,full,ni_sequenzen,NI_Sequenzen,,,,,,,,,,,,,,
,Screen_4,canvas.Screen,0_0_2_3,,skipped,3,75003,,,74996,,75003,2021-11-05T00:09:09.518Z,75191.18,1636070864,full,ni_sequenzen,NI_Sequenzen,,,,,,,,,,,,,,
,Sequence,flow.Sequence,0_0_2,,completion,3,74991,,,74996,,75003,2021-11-05T00:09:09.518Z,75191.18,1636070864,full,ni_sequenzen,NI_Sequenzen,,,,,,,,,,,,,,
,Screen_1,canvas.Screen,0_0_3_0,,skipped,4,75005,,,75005,,75005,2021-11-05T00:09:09.520Z,75191.18,1636070864,full,ni_sequenzen,NI_Sequenzen,,,,,,,,,,,,,,
,Screen_2,canvas.Screen,0_0_3_1,,skipped,4,75006,,,75005,,75006,2021-11-05T00:09:09.521Z,75191.18,1636070864,full,ni_sequenzen,NI_Sequenzen,,,,,,,,,,,,,,
,Screen_3,canvas.Screen,0_0_3_2,,skipped,4,75007,,,75005,,75007,2021-11-05T00:09:09.523Z,75191.18,1636070864,full,ni_sequenzen,NI_Sequenzen,,,,,,,,,,,,,,
,Screen_4,canvas.Screen,0_0_3_3,,skipped,4,75009,,,75005,,75009,2021-11-05T00:09:09.525Z,75191.18,1636070864,full,ni_sequenzen,NI_Sequenzen,,,,,,,,,,,,,,
,Sequence,flow.Sequence,0_0_3,,completion,4,75004,,,75005,,75009,2021-11-05T00:09:09.526Z,75191.18,1636070864,full,ni_sequenzen,NI_Sequenzen,,,,,,,,,,,,,,
,Screen_1,canvas.Screen,0_0_4_0,,skipped,5,75015,,,75015,,75015,2021-11-05T00:09:09.530Z,75191.18,1636070864,full,ni_sequenzen,NI_Sequenzen,,,,,,,,,,,,,,
,Screen_2,canvas.Screen,0_0_4_1,,skipped,5,75016,,,75015,,75016,2021-11-05T00:09:09.532Z,75191.18,1636070864,full,ni_sequenzen,NI_Sequenzen,,,,,,,,,,,,,,
,Screen_3,canvas.Screen,0_0_4_2,,skipped,5,75018,,,75015,,75018,2021-11-05T00:09:09.533Z,75191.18,1636070864,full,ni_sequenzen,NI_Sequenzen,,,,,,,,,,,,,,
,Screen_4,canvas.Screen,0_0_4_3,,skipped,5,75019,,,75015,,75019,2021-11-05T00:09:09.535Z,75191.18,1636070864,full,ni_sequenzen,NI_Sequenzen,,,,,,,,,,,,,,
,Sequence,flow.Sequence,0_0_4,,completion,5,75013,,,75015,,75019,2021-11-05T00:09:09.535Z,75191.18,1636070864,full,ni_sequenzen,NI_Sequenzen,,,,,,,,,,,,,,
,Screen_1,canvas.Screen,0_0_5_0,,skipped,6,75021,,,75021,,75021,2021-11-05T00:09:09.536Z,75191.18,1636070864,full,ni_sequenzen,NI_Sequenzen,,,,,,,,,,,,,,
,Screen_2,canvas.Screen,0_0_5_1,,skipped,6,75022,,,75021,,75022,2021-11-05T00:09:09.537Z,75191.18,1636070864,full,ni_sequenzen,NI_Sequenzen,,,,,,,,,,,,,,
,Screen_3,canvas.Screen,0_0_5_2,,skipped,6,75022,,,75021,,75023,2021-11-05T00:09:09.539Z,75191.18,1636070864,full,ni_sequenzen,NI_Sequenzen,,,,,,,,,,,,,,
,Screen_4,canvas.Screen,0_0_5_3,,skipped,6,75024,,,75021,,75024,2021-11-05T00:09:09.539Z,75191.18,1636070864,full,ni_sequenzen,NI_Sequenzen,,,,,,,,,,,,,,
,Sequence,flow.Sequence,0_0_5,,completion,6,75020,,,75021,,75025,2021-11-05T00:09:09.539Z,75191.18,1636070864,full,ni_sequenzen,NI_Sequenzen,,,,,,,,,,,,,,
,Screen_1,canvas.Screen,0_0_6_0,,skipped,7,75028,,,75028,,75029,2021-11-05T00:09:09.544Z,75191.18,1636070864,full,ni_sequenzen,NI_Sequenzen,,,,,,,,,,,,,,
,Screen_2,canvas.Screen,0_0_6_1,,skipped,7,75031,,,75028,,75031,2021-11-05T00:09:09.546Z,75191.18,1636070864,full,ni_sequenzen,NI_Sequenzen,,,,,,,,,,,,,,
,Screen_3,canvas.Screen,0_0_6_2,,skipped,7,75033,,,75028,,75033,2021-11-05T00:09:09.549Z,75191.18,1636070864,full,ni_sequenzen,NI_Sequenzen,,,,,,,,,,,,,,
,Screen_4,canvas.Screen,0_0_6_3,,skipped,7,75034,,,75028,,75034,2021-11-05T00:09:09.550Z,75191.18,1636070864,full,ni_sequenzen,NI_Sequenzen,,,,,,,,,,,,,,
,Sequence,flow.Sequence,0_0_6,,completion,7,75025,,,75028,,75034,2021-11-05T00:09:09.550Z,75191.18,1636070864,full,ni_sequenzen,NI_Sequenzen,,,,,,,,,,,,,,
,Screen_1,canvas.Screen,0_0_7_0,,skipped,8,75035,,,75035,,75035,2021-11-05T00:09:09.550Z,75191.18,1636070864,full,ni_sequenzen,NI_Sequenzen,,,,,,,,,,,,,,
,Screen_2,canvas.Screen,0_0_7_1,,skipped,8,75036,,,75035,,75036,2021-11-05T00:09:09.552Z,75191.18,1636070864,full,ni_sequenzen,NI_Sequenzen,,,,,,,,,,,,,,
,Screen_3,canvas.Screen,0_0_7_2,,skipped,8,75037,,,75035,,75037,2021-11-05T00:09:09.553Z,75191.18,1636070864,full,ni_sequenzen,NI_Sequenzen,,,,,,,,,,,,,,
,Screen_4,canvas.Screen,0_0_7_3,,skipped,8,75039,,,75035,,75039,2021-11-05T00:09:09.555Z,75191.18,1636070864,full,ni_sequenzen,NI_Sequenzen,,,,,,,,,,,,,,
,Sequence,flow.Sequence,0_0_7,,completion,8,75035,,,75035,,75039,2021-11-05T00:09:09.555Z,75191.18,1636070864,full,ni_sequenzen,NI_Sequenzen,,,,,,,,,,,,,,
,Screen_1,canvas.Screen,0_0_8_0,,skipped,9,75041,,,75041,,75042,2021-11-05T00:09:09.557Z,75191.18,1636070864,full,ni_sequenzen,NI_Sequenzen,,,,,,,,,,,,,,
,Screen_2,canvas.Screen,0_0_8_1,,skipped,9,75044,,,75041,,75045,2021-11-05T00:09:09.560Z,75191.18,1636070864,full,ni_sequenzen,NI_Sequenzen,,,,,,,,,,,,,,
,Screen_3,canvas.Screen,0_0_8_2,,skipped,9,75047,,,75041,,75047,2021-11-05T00:09:09.563Z,75191.18,1636070864,full,ni_sequenzen,NI_Sequenzen,,,,,,,,,,,,,,
,Screen_4,canvas.Screen,0_0_8_3,,skipped,9,75048,,,75041,,75049,2021-11-05T00:09:09.564Z,75191.18,1636070864,full,ni_sequenzen,NI_Sequenzen,,,,,,,,,,,,,,
,Sequence,flow.Sequence,0_0_8,,completion,9,75039,,,75041,,75049,2021-11-05T00:09:09.564Z,75191.18,1636070864,full,ni_sequenzen,NI_Sequenzen,,,,,,,,,,,,,,
,Screen_1,canvas.Screen,0_0_9_0,,skipped,10,75050,,,75050,,75050,2021-11-05T00:09:09.565Z,75191.18,1636070864,full,ni_sequenzen,NI_Sequenzen,,,,,,,,,,,,,,
,Screen_2,canvas.Screen,0_0_9_1,,skipped,10,75051,,,75050,,75051,2021-11-05T00:09:09.567Z,75191.18,1636070864,full,ni_sequenzen,NI_Sequenzen,,,,,,,,,,,,,,
,Screen_3,canvas.Screen,0_0_9_2,,skipped,10,75052,,,75050,,75052,2021-11-05T00:09:09.568Z,75191.18,1636070864,full,ni_sequenzen,NI_Sequenzen,,,,,,,,,,,,,,
,Screen_4,canvas.Screen,0_0_9_3,,skipped,10,75053,,,75050,,75053,2021-11-05T00:09:09.569Z,75191.18,1636070864,full,ni_sequenzen,NI_Sequenzen,,,,,,,,,,,,,,
,Sequence,flow.Sequence,0_0_9,,completion,10,75050,,,75050,,75054,2021-11-05T00:09:09.569Z,75191.18,1636070864,full,ni_sequenzen,NI_Sequenzen,,,,,,,,,,,,,,
,Screen_1,canvas.Screen,0_0_10_0,,skipped,11,75055,,,75055,,75055,2021-11-05T00:09:09.571Z,75191.18,1636070864,full,ni_sequenzen,NI_Sequenzen,,,,,,,,,,,,,,
,Screen_2,canvas.Screen,0_0_10_1,,skipped,11,75056,,,75055,,75056,2021-11-05T00:09:09.572Z,75191.18,1636070864,full,ni_sequenzen,NI_Sequenzen,,,,,,,,,,,,,,
,Screen_3,canvas.Screen,0_0_10_2,,skipped,11,75057,,,75055,,75057,2021-11-05T00:09:09.573Z,75191.18,1636070864,full,ni_sequenzen,NI_Sequenzen,,,,,,,,,,,,,,
,Screen_4,canvas.Screen,0_0_10_3,,skipped,11,75059,,,75055,,75059,2021-11-05T00:09:09.574Z,75191.18,1636070864,full,ni_sequenzen,NI_Sequenzen,,,,,,,,,,,,,,
,Sequence,flow.Sequence,0_0_10,,completion,11,75054,,,75055,,75059,2021-11-05T00:09:09.574Z,75191.18,1636070864,full,ni_sequenzen,NI_Sequenzen,,,,,,,,,,,,,,
,Screen_1,canvas.Screen,0_0_11_0,,skipped,12,75064,,,75064,,75064,2021-11-05T00:09:09.580Z,75191.18,1636070864,full,ni_sequenzen,NI_Sequenzen,,,,,,,,,,,,,,
,Screen_2,canvas.Screen,0_0_11_1,,skipped,12,75065,,,75064,,75065,2021-11-05T00:09:09.581Z,75191.18,1636070864,full,ni_sequenzen,NI_Sequenzen,,,,,,,,,,,,,,
,Screen_3,canvas.Screen,0_0_11_2,,skipped,12,75066,,,75064,,75066,2021-11-05T00:09:09.582Z,75191.18,1636070864,full,ni_sequenzen,NI_Sequenzen,,,,,,,,,,,,,,
,Screen_4,canvas.Screen,0_0_11_3,,skipped,12,75068,,,75064,,75068,2021-11-05T00:09:09.583Z,75191.18,1636070864,full,ni_sequenzen,NI_Sequenzen,,,,,,,,,,,,,,
,Sequence,flow.Sequence,0_0_11,,completion,12,75063,,,75064,,75068,2021-11-05T00:09:09.583Z,75191.18,1636070864,full,ni_sequenzen,NI_Sequenzen,,,,,,,,,,,,,,
,Screen_1,canvas.Screen,0_0_12_0,,skipped,13,75070,,,75070,,75070,2021-11-05T00:09:09.585Z,75191.18,1636070864,full,ni_sequenzen,NI_Sequenzen,,,,,,,,,,,,,,
,Screen_2,canvas.Screen,0_0_12_1,,skipped,13,75071,,,75070,,75071,2021-11-05T00:09:09.586Z,75191.18,1636070864,full,ni_sequenzen,NI_Sequenzen,,,,,,,,,,,,,,
,Screen_3,canvas.Screen,0_0_12_2,,skipped,13,75072,,,75070,,75072,2021-11-05T00:09:09.587Z,75191.18,1636070864,full,ni_sequenzen,NI_Sequenzen,,,,,,,,,,,,,,
,Screen_4,canvas.Screen,0_0_12_3,,skipped,13,75073,,,75070,,75073,2021-11-05T00:09:09.588Z,75191.18,1636070864,full,ni_sequenzen,NI_Sequenzen,,,,,,,,,,,,,,
,Sequence,flow.Sequence,0_0_12,,completion,13,75069,,,75070,,75073,2021-11-05T00:09:09.588Z,75191.18,1636070864,full,ni_sequenzen,NI_Sequenzen,,,,,,,,,,,,,,
,Screen_1,canvas.Screen,0_0_13_0,,skipped,14,75074,,,75074,,75074,2021-11-05T00:09:09.590Z,75191.18,1636070864,full,ni_sequenzen,NI_Sequenzen,,,,,,,,,,,,,,
,Screen_2,canvas.Screen,0_0_13_1,,skipped,14,75076,,,75074,,75076,2021-11-05T00:09:09.592Z,75191.18,1636070864,full,ni_sequenzen,NI_Sequenzen,,,,,,,,,,,,,,
,Screen_3,canvas.Screen,0_0_13_2,,skipped,14,75080,,,75074,,75080,2021-11-05T00:09:09.596Z,75191.18,1636070864,full,ni_sequenzen,NI_Sequenzen,,,,,,,,,,,,,,
,Screen_4,canvas.Screen,0_0_13_3,,skipped,14,75082,,,75074,,75082,2021-11-05T00:09:09.598Z,75191.18,1636070864,full,ni_sequenzen,NI_Sequenzen,,,,,,,,,,,,,,
,Sequence,flow.Sequence,0_0_13,,completion,14,75073,,,75074,,75082,2021-11-05T00:09:09.598Z,75191.18,1636070864,full,ni_sequenzen,NI_Sequenzen,,,,,,,,,,,,,,
,Screen_1,canvas.Screen,0_0_14_0,,skipped,15,75083,,,75083,,75083,2021-11-05T00:09:09.598Z,75191.18,1636070864,full,ni_sequenzen,NI_Sequenzen,,,,,,,,,,,,,,
,Screen_2,canvas.Screen,0_0_14_1,,skipped,15,75085,,,75083,,75085,2021-11-05T00:09:09.600Z,75191.18,1636070864,full,ni_sequenzen,NI_Sequenzen,,,,,,,,,,,,,,
,Screen_3,canvas.Screen,0_0_14_2,,skipped,15,75086,,,75083,,75086,2021-11-05T00:09:09.601Z,75191.18,1636070864,full,ni_sequenzen,NI_Sequenzen,,,,,,,,,,,,,,
,Screen_4,canvas.Screen,0_0_14_3,,skipped,15,75086,,,75083,,75086,2021-11-05T00:09:09.602Z,75191.18,1636070864,full,ni_sequenzen,NI_Sequenzen,,,,,,,,,,,,,,
,Sequence,flow.Sequence,0_0_14,,completion,15,75082,,,75083,,75086,2021-11-05T00:09:09.602Z,75191.18,1636070864,full,ni_sequenzen,NI_Sequenzen,,,,,,,,,,,,,,
,Screen_1,canvas.Screen,0_0_15_0,,skipped,16,75087,,,75087,,75088,2021-11-05T00:09:09.603Z,75191.18,1636070864,full,ni_sequenzen,NI_Sequenzen,,,,,,,,,,,,,,
,Screen_2,canvas.Screen,0_0_15_1,,skipped,16,75089,,,75087,,75089,2021-11-05T00:09:09.604Z,75191.18,1636070864,full,ni_sequenzen,NI_Sequenzen,,,,,,,,,,,,,,
,Screen_3,canvas.Screen,0_0_15_2,,skipped,16,75090,,,75087,,75090,2021-11-05T00:09:09.605Z,75191.18,1636070864,full,ni_sequenzen,NI_Sequenzen,,,,,,,,,,,,,,
,Screen_4,canvas.Screen,0_0_15_3,,skipped,16,75092,,,75087,,75092,2021-11-05T00:09:09.607Z,75191.18,1636070864,full,ni_sequenzen,NI_Sequenzen,,,,,,,,,,,,,,
,Sequence,flow.Sequence,0_0_15,,completion,16,75087,,,75087,,75092,2021-11-05T00:09:09.607Z,75191.18,1636070864,full,ni_sequenzen,NI_Sequenzen,,,,,,,,,,,,,,
,Screen_1,canvas.Screen,0_0_16_0,,skipped,17,75099,,,75099,,75099,2021-11-05T00:09:09.614Z,75191.18,1636070864,full,ni_sequenzen,NI_Sequenzen,,,,,,,,,,,,,,
,Screen_2,canvas.Screen,0_0_16_1,,skipped,17,75099,,,75099,,75099,2021-11-05T00:09:09.614Z,75191.18,1636070864,full,ni_sequenzen,NI_Sequenzen,,,,,,,,,,,,,,
,Screen_3,canvas.Screen,0_0_16_2,,skipped,17,75100,,,75099,,75100,2021-11-05T00:09:09.616Z,75191.18,1636070864,full,ni_sequenzen,NI_Sequenzen,,,,,,,,,,,,,,
,Screen_4,canvas.Screen,0_0_16_3,,skipped,17,75101,,,75099,,75101,2021-11-05T00:09:09.617Z,75191.18,1636070864,full,ni_sequenzen,NI_Sequenzen,,,,,,,,,,,,,,
,Sequence,flow.Sequence,0_0_16,,completion,17,75092,,,75099,,75101,2021-11-05T00:09:09.617Z,75191.18,1636070864,full,ni_sequenzen,NI_Sequenzen,,,,,,,,,,,,,,
,Screen_1,canvas.Screen,0_0_17_0,,skipped,18,75103,,,75103,,75103,2021-11-05T00:09:09.618Z,75191.18,1636070864,full,ni_sequenzen,NI_Sequenzen,,,,,,,,,,,,,,
,Screen_2,canvas.Screen,0_0_17_1,,skipped,18,75103,,,75103,,75103,2021-11-05T00:09:09.619Z,75191.18,1636070864,full,ni_sequenzen,NI_Sequenzen,,,,,,,,,,,,,,
,Screen_3,canvas.Screen,0_0_17_2,,skipped,18,75105,,,75103,,75105,2021-11-05T00:09:09.620Z,75191.18,1636070864,full,ni_sequenzen,NI_Sequenzen,,,,,,,,,,,,,,
,Screen_4,canvas.Screen,0_0_17_3,,skipped,18,75106,,,75103,,75106,2021-11-05T00:09:09.621Z,75191.18,1636070864,full,ni_sequenzen,NI_Sequenzen,,,,,,,,,,,,,,
,Sequence,flow.Sequence,0_0_17,,completion,18,75102,,,75103,,75106,2021-11-05T00:09:09.622Z,75191.18,1636070864,full,ni_sequenzen,NI_Sequenzen,,,,,,,,,,,,,,
,Screen_1,canvas.Screen,0_0_18_0,,skipped,19,75107,,,75107,,75107,2021-11-05T00:09:09.623Z,75191.18,1636070864,full,ni_sequenzen,NI_Sequenzen,,,,,,,,,,,,,,
,Screen_2,canvas.Screen,0_0_18_1,,skipped,19,75108,,,75107,,75108,2021-11-05T00:09:09.623Z,75191.18,1636070864,full,ni_sequenzen,NI_Sequenzen,,,,,,,,,,,,,,
,Screen_3,canvas.Screen,0_0_18_2,,skipped,19,75112,,,75107,,75112,2021-11-05T00:09:09.628Z,75191.18,1636070864,full,ni_sequenzen,NI_Sequenzen,,,,,,,,,,,,,,
,Screen_4,canvas.Screen,0_0_18_3,,skipped,19,75113,,,75107,,75113,2021-11-05T00:09:09.629Z,75191.18,1636070864,full,ni_sequenzen,NI_Sequenzen,,,,,,,,,,,,,,
,Sequence,flow.Sequence,0_0_18,,completion,19,75107,,,75107,,75113,2021-11-05T00:09:09.629Z,75191.18,1636070864,full,ni_sequenzen,NI_Sequenzen,,,,,,,,,,,,,,
,Screen_1,canvas.Screen,0_0_19_0,,skipped,20,75115,,,75115,,75115,2021-11-05T00:09:09.631Z,75191.18,1636070864,full,ni_sequenzen,NI_Sequenzen,,,,,,,,,,,,,,
,Screen_2,canvas.Screen,0_0_19_1,,skipped,20,75116,,,75115,,75116,2021-11-05T00:09:09.631Z,75191.18,1636070864,full,ni_sequenzen,NI_Sequenzen,,,,,,,,,,,,,,
,Screen_3,canvas.Screen,0_0_19_2,,skipped,20,75117,,,75115,,75117,2021-11-05T00:09:09.632Z,75191.18,1636070864,full,ni_sequenzen,NI_Sequenzen,,,,,,,,,,,,,,
,Screen_4,canvas.Screen,0_0_19_3,,skipped,20,75118,,,75115,,75118,2021-11-05T00:09:09.633Z,75191.18,1636070864,full,ni_sequenzen,NI_Sequenzen,,,,,,,,,,,,,,
,Sequence,flow.Sequence,0_0_19,,completion,20,75114,,,75115,,75118,2021-11-05T00:09:09.633Z,75191.18,1636070864,full,ni_sequenzen,NI_Sequenzen,,,,,,,,,,,,,,
,Instructions_I,flow.Loop,0_0,,completion,,426,466.3,482.96,75115,74632.04,75119,2021-11-05T00:09:09.634Z,75191.18,1636070864,full,ni_sequenzen,NI_Sequenzen,,,,,,,,,,,,,,
,Move,canvas.Screen,0_1_0_0,right,response,,75189,75189.16,75191.18,76998,1806.820000000007,77002,2021-11-05T00:09:11.517Z,77006.98,1636070864,full,ni_sequenzen,NI_Sequenzen,1,,,,,,,,,,,,,
,Move,canvas.Screen,0_1_0_1,left,response,,77007,77006.82,77006.98,77873,866.0200000000041,77882,2021-11-05T00:09:12.398Z,77898.42,1636070864,full,ni_sequenzen,NI_Sequenzen,2,,,,,,,,,,,,,
,Move,canvas.Screen,0_1_0_2,down,response,,77898,77897.96,77898.42,78263,364.58000000000175,78282,2021-11-05T00:09:12.797Z,78290.02,1636070864,full,ni_sequenzen,NI_Sequenzen,3,,,,,,,,,,,,,
,Move,canvas.Screen,0_1_0_3,down,response,,78288,78288.22,78290.02,78702,411.9799999999959,78715,2021-11-05T00:09:13.230Z,78729.68,1636070864,full,ni_sequenzen,NI_Sequenzen,4,,,,,,,,,,,,,
,Move,canvas.Screen,0_1_0_4,down,response,,78728,78728.54,78729.68,79077,347.320000000007,79090,2021-11-05T00:09:13.606Z,79103.34,1636070864,full,ni_sequenzen,NI_Sequenzen,5,,,,,,,,,,,,,
,Move,canvas.Screen,0_1_0_5,left,response,,79103,79103.02,79103.34,79435,331.6600000000035,79449,2021-11-05T00:09:13.964Z,79466.68,1636070864,full,ni_sequenzen,NI_Sequenzen,6,,,,,,,,,,,,,
,Move,canvas.Screen,0_1_0_6,right,response,,79466,79466.3,79466.68,79857,390.320000000007,79867,2021-11-05T00:09:14.382Z,79881.42,1636070864,full,ni_sequenzen,NI_Sequenzen,7,,,,,,,,,,,,,
,Move,canvas.Screen,0_1_0_7,down,response,,79882,79881.12,79881.42,80217,335.58000000000175,80223,2021-11-05T00:09:14.739Z,80234.34,1636070864,full,ni_sequenzen,NI_Sequenzen,8,,,,,,,,,,,,,
,Move,canvas.Screen,0_1_0_8,down,response,,80234,80233.98,80234.34,80436,201.6600000000035,80445,2021-11-05T00:09:14.960Z,80448.1,1636070864,full,ni_sequenzen,NI_Sequenzen,9,,,,,,,,,,,,,
,Move,canvas.Screen,0_1_0_9,down,response,,80448,80447.92,80448.1,80905,456.8999999999942,80918,2021-11-05T00:09:15.434Z,80931.64,1636070864,full,ni_sequenzen,NI_Sequenzen,10,,,,,,,,,,,,,
,Move,canvas.Screen,0_1_0_10,right,response,,80932,80931.28,80931.64,81327,395.3600000000006,81341,2021-11-05T00:09:15.856Z,81355.58,1636070864,full,ni_sequenzen,NI_Sequenzen,11,,,,,,,,,,,,,
,Move,canvas.Screen,0_1_0_11,right,response,,81354,81353.46,81355.58,81748,392.41999999999825,81762,2021-11-05T00:09:16.278Z,81778.74,1636070864,full,ni_sequenzen,NI_Sequenzen,12,,,,,,,,,,,,,
,Move,canvas.Screen,0_1_0_12,left,response,,81778,81778.12,81778.74,82108,329.25999999999476,82124,2021-11-05T00:09:16.640Z,82139.32,1636070864,full,ni_sequenzen,NI_Sequenzen,13,,,,,,,,,,,,,
,Move,canvas.Screen,0_1_0_13,left,response,,82139,82138.9,82139.32,82483,343.679999999993,82488,2021-11-05T00:09:17.004Z,82495.82,1636070864,full,ni_sequenzen,NI_Sequenzen,14,,,,,,,,,,,,,
,Move,canvas.Screen,0_1_0_14,down,response,,82496,82495.54,82495.82,82764,268.179999999993,82780,2021-11-05T00:09:17.295Z,82795.32,1636070864,full,ni_sequenzen,NI_Sequenzen,15,,,,,,,,,,,,,
,Move,canvas.Screen,0_1_0_15,down,response,,82795,82794.72,82795.32,83030,234.67999999999302,83039,2021-11-05T00:09:17.554Z,83047.9,1636070864,full,ni_sequenzen,NI_Sequenzen,16,,,,,,,,,,,,,
,Move,canvas.Screen,0_1_0_16,right,response,,83048,83047.6,83047.9,83341,293.1000000000058,83356,2021-11-05T00:09:17.872Z,83368.88,1636070864,full,ni_sequenzen,NI_Sequenzen,17,,,,,,,,,,,,,
,Move,canvas.Screen,0_1_0_17,down,response,,83368,83368.48,83368.88,83826,457.11999999999534,83847,2021-11-05T00:09:18.362Z,83861.26,1636070864,full,ni_sequenzen,NI_Sequenzen,18,,,,,,,,,,,,,
,Move,canvas.Screen,0_1_0_18,left,response,,83860,83860.32,83861.26,84138,276.74000000000524,84146,2021-11-05T00:09:18.661Z,84156.28,1636070864,full,ni_sequenzen,NI_Sequenzen,19,,,,,,,,,,,,,
,Move,canvas.Screen,0_1_0_19,down,response,,84156,84155.78,84156.28,84608,451.72000000000116,84619,2021-11-05T00:09:19.135Z,84629.34,1636070864,full,ni_sequenzen,NI_Sequenzen,20,,,,,,,,,,,,,
,Move,canvas.Screen,0_1_0_20,right,response,,84629,84629.1,84629.34,84873,243.6600000000035,84890,2021-11-05T00:09:19.405Z,84904.48,1636070864,full,ni_sequenzen,NI_Sequenzen,21,,,,,,,,,,,,,
,Move,canvas.Screen,0_1_0_21,down,response,,84903,84902.68,84904.48,85310,405.5200000000041,85321,2021-11-05T00:09:19.836Z,85333.68,1636070864,full,ni_sequenzen,NI_Sequenzen,22,,,,,,,,,,,,,
,Move,canvas.Screen,0_1_0_22,left,response,,85333,85333.34,85333.68,85608,274.320000000007,85627,2021-11-05T00:09:20.143Z,85633.6,1636070864,full,ni_sequenzen,NI_Sequenzen,23,,,,,,,,,,,,,
,Move,canvas.Screen,0_1_0_23,down,response,,85634,85633.28,85633.6,86280,646.3999999999942,86295,2021-11-05T00:09:20.810Z,86306,1636070864,full,ni_sequenzen,NI_Sequenzen,24,,,,,,,,,,,,,
,Move,canvas.Screen,0_1_0_24,down,response,,86306,86305.6,86306,87388,1082,87407,2021-11-05T00:09:21.923Z,87420.72,1636070864,full,ni_sequenzen,NI_Sequenzen,25,,,,,,,,,,,,,
,Move,canvas.Screen,0_1_0_25,down,response,,87421,87420.38,87420.72,87607,186.27999999999884,87622,2021-11-05T00:09:22.138Z,87636.98,1636070864,full,ni_sequenzen,NI_Sequenzen,26,,,,,,,,,,,,,
,Move,canvas.Screen,0_1_0_26,down,response,,87633,87633.4,87636.98,87889,252.02000000000407,87897,2021-11-05T00:09:22.412Z,87903.7,1636070864,full,ni_sequenzen,NI_Sequenzen,27,,,,,,,,,,,,,
,Move,canvas.Screen,0_1_0_27,right,response,,87901,87900.6,87903.7,89029,1125.300000000003,89038,2021-11-05T00:09:23.553Z,89050.78,1636070864,full,ni_sequenzen,NI_Sequenzen,28,,,,,,,,,,,,,
,Move,canvas.Screen,0_1_0_28,right,response,,89051,89050.34,89050.78,89341,290.22000000000116,89349,2021-11-05T00:09:23.865Z,89354,1636070864,full,ni_sequenzen,NI_Sequenzen,29,,,,,,,,,,,,,
,Move,canvas.Screen,0_1_0_29,left,response,,89354,89353.78,89354,89685,331,89694,2021-11-05T00:09:24.210Z,89753.72,1636070864,full,ni_sequenzen,NI_Sequenzen,30,,,,,,,,,,,,,
,Loop,flow.Loop,0_1_0,-999,completion,,75134,75189.16,75191.18,89685,14493.820000000007,89695,2021-11-05T00:09:24.211Z,89753.72,1636070864,full,ni_sequenzen,NI_Sequenzen,,,,,,,,,,,,,,
,Training_I,flow.Sequence,0_1,,completion,,75119,75189.16,75191.18,89685,14493.820000000007,89695,2021-11-05T00:09:24.211Z,89753.72,1636070864,full,ni_sequenzen,NI_Sequenzen,,,,,,,,,,,,,,
,Screen_1,canvas.Screen,0_2_0_0,cont,response,1,89753,89753.52,89753.72,104623,14869.279999999999,104631,2021-11-05T00:09:39.147Z,104714.54,1636070864,full,ni_sequenzen,NI_Sequenzen,,,,,,,,,,,,,,
,Screen_2,canvas.Screen,0_2_0_1,cont,response,1,104711,104710.52,104714.54,123030,18315.460000000006,123047,2021-11-05T00:09:57.563Z,123053.72,1636070864,full,ni_sequenzen,NI_Sequenzen,,,,,,,,,,,,,,
,Screen_3,canvas.Screen,0_2_0_2,cont,response,1,123054,123053.22,123053.72,133951,10897.279999999999,133954,2021-11-05T00:10:08.469Z,134037.76,1636070864,full,ni_sequenzen,NI_Sequenzen,,,,,,,,,,,,,,
,Screen_4,canvas.Screen,0_2_0_3,cont,response,1,134030,134030.28,134037.76,142842,8804.23999999999,142852,2021-11-05T00:10:17.367Z,142868.08,1636070864,full,ni_sequenzen,NI_Sequenzen,,,,,,,,,,,,,,
,Screen_5,canvas.Screen,0_2_0_4,cont,response,1,142867,142866.88,142868.08,165952,23083.920000000013,165956,2021-11-05T00:10:40.471Z,166027,1636070864,full,ni_sequenzen,NI_Sequenzen,,,,,,,,,,,,,,
,Screen_6,canvas.Screen,0_2_0_5,cont,response,1,166019,166018.82,166027,172780,6753,172796,2021-11-05T00:10:47.312Z,173124.52,1636070864,full,ni_sequenzen,NI_Sequenzen,,,,,,,,,,,,,,
,Sequence,flow.Sequence,0_2_0,,completion,1,89753,89753.52,89753.72,172780,83026.28,172800,2021-11-05T00:10:47.315Z,173124.52,1636070864,full,ni_sequenzen,NI_Sequenzen,,,,,,,,,,,,,,
,Screen_1,canvas.Screen,0_2_1_0,,skipped,2,172810,,,172810,,172812,2021-11-05T00:10:47.328Z,173124.52,1636070864,full,ni_sequenzen,NI_Sequenzen,,,,,,,,,,,,,,
,Screen_2,canvas.Screen,0_2_1_1,,skipped,2,172818,,,172810,,172818,2021-11-05T00:10:47.333Z,173124.52,1636070864,full,ni_sequenzen,NI_Sequenzen,,,,,,,,,,,,,,
,Screen_3,canvas.Screen,0_2_1_2,,skipped,2,172821,,,172810,,172821,2021-11-05T00:10:47.337Z,173124.52,1636070864,full,ni_sequenzen,NI_Sequenzen,,,,,,,,,,,,,,
,Screen_4,canvas.Screen,0_2_1_3,,skipped,2,172822,,,172810,,172822,2021-11-05T00:10:47.339Z,173124.52,1636070864,full,ni_sequenzen,NI_Sequenzen,,,,,,,,,,,,,,
,Screen_5,canvas.Screen,0_2_1_4,,skipped,2,172825,,,172810,,172825,2021-11-05T00:10:47.340Z,173124.52,1636070864,full,ni_sequenzen,NI_Sequenzen,,,,,,,,,,,,,,
,Screen_6,canvas.Screen,0_2_1_5,,skipped,2,172829,,,172810,,172830,2021-11-05T00:10:47.346Z,173124.52,1636070864,full,ni_sequenzen,NI_Sequenzen,,,,,,,,,,,,,,
,Sequence,flow.Sequence,0_2_1,,completion,2,172803,,,172810,,172831,2021-11-05T00:10:47.347Z,173124.52,1636070864,full,ni_sequenzen,NI_Sequenzen,,,,,,,,,,,,,,
,Screen_1,canvas.Screen,0_2_2_0,,skipped,3,172833,,,172833,,172834,2021-11-05T00:10:47.349Z,173124.52,1636070864,full,ni_sequenzen,NI_Sequenzen,,,,,,,,,,,,,,
,Screen_2,canvas.Screen,0_2_2_1,,skipped,3,172836,,,172833,,172836,2021-11-05T00:10:47.351Z,173124.52,1636070864,full,ni_sequenzen,NI_Sequenzen,,,,,,,,,,,,,,
,Screen_3,canvas.Screen,0_2_2_2,,skipped,3,172837,,,172833,,172837,2021-11-05T00:10:47.352Z,173124.52,1636070864,full,ni_sequenzen,NI_Sequenzen,,,,,,,,,,,,,,
,Screen_4,canvas.Screen,0_2_2_3,,skipped,3,172838,,,172833,,172838,2021-11-05T00:10:47.353Z,173124.52,1636070864,full,ni_sequenzen,NI_Sequenzen,,,,,,,,,,,,,,
,Screen_5,canvas.Screen,0_2_2_4,,skipped,3,172839,,,172833,,172839,2021-11-05T00:10:47.354Z,173124.52,1636070864,full,ni_sequenzen,NI_Sequenzen,,,,,,,,,,,,,,
,Screen_6,canvas.Screen,0_2_2_5,,skipped,3,172840,,,172833,,172840,2021-11-05T00:10:47.356Z,173124.52,1636070864,full,ni_sequenzen,NI_Sequenzen,,,,,,,,,,,,,,
,Sequence,flow.Sequence,0_2_2,,completion,3,172831,,,172833,,172840,2021-11-05T00:10:47.356Z,173124.52,1636070864,full,ni_sequenzen,NI_Sequenzen,,,,,,,,,,,,,,
,Screen_1,canvas.Screen,0_2_3_0,,skipped,4,172842,,,172842,,172842,2021-11-05T00:10:47.358Z,173124.52,1636070864,full,ni_sequenzen,NI_Sequenzen,,,,,,,,,,,,,,
,Screen_2,canvas.Screen,0_2_3_1,,skipped,4,172847,,,172842,,172847,2021-11-05T00:10:47.363Z,173124.52,1636070864,full,ni_sequenzen,NI_Sequenzen,,,,,,,,,,,,,,
,Screen_3,canvas.Screen,0_2_3_2,,skipped,4,172848,,,172842,,172848,2021-11-05T00:10:47.364Z,173124.52,1636070864,full,ni_sequenzen,NI_Sequenzen,,,,,,,,,,,,,,
,Screen_4,canvas.Screen,0_2_3_3,,skipped,4,172849,,,172842,,172849,2021-11-05T00:10:47.365Z,173124.52,1636070864,full,ni_sequenzen,NI_Sequenzen,,,,,,,,,,,,,,
,Screen_5,canvas.Screen,0_2_3_4,,skipped,4,172850,,,172842,,172850,2021-11-05T00:10:47.366Z,173124.52,1636070864,full,ni_sequenzen,NI_Sequenzen,,,,,,,,,,,,,,
,Screen_6,canvas.Screen,0_2_3_5,,skipped,4,172850,,,172842,,172851,2021-11-05T00:10:47.367Z,173124.52,1636070864,full,ni_sequenzen,NI_Sequenzen,,,,,,,,,,,,,,
,Sequence,flow.Sequence,0_2_3,,completion,4,172841,,,172842,,172851,2021-11-05T00:10:47.367Z,173124.52,1636070864,full,ni_sequenzen,NI_Sequenzen,,,,,,,,,,,,,,
,Screen_1,canvas.Screen,0_2_4_0,,skipped,5,172852,,,172852,,172852,2021-11-05T00:10:47.368Z,173124.52,1636070864,full,ni_sequenzen,NI_Sequenzen,,,,,,,,,,,,,,
,Screen_2,canvas.Screen,0_2_4_1,,skipped,5,172853,,,172852,,172854,2021-11-05T00:10:47.369Z,173124.52,1636070864,full,ni_sequenzen,NI_Sequenzen,,,,,,,,,,,,,,
,Screen_3,canvas.Screen,0_2_4_2,,skipped,5,172855,,,172852,,172855,2021-11-05T00:10:47.371Z,173124.52,1636070864,full,ni_sequenzen,NI_Sequenzen,,,,,,,,,,,,,,
,Screen_4,canvas.Screen,0_2_4_3,,skipped,5,172856,,,172852,,172856,2021-11-05T00:10:47.372Z,173124.52,1636070864,full,ni_sequenzen,NI_Sequenzen,,,,,,,,,,,,,,
,Screen_5,canvas.Screen,0_2_4_4,,skipped,5,172858,,,172852,,172858,2021-11-05T00:10:47.373Z,173124.52,1636070864,full,ni_sequenzen,NI_Sequenzen,,,,,,,,,,,,,,
,Screen_6,canvas.Screen,0_2_4_5,,skipped,5,172859,,,172852,,172859,2021-11-05T00:10:47.374Z,173124.52,1636070864,full,ni_sequenzen,NI_Sequenzen,,,,,,,,,,,,,,
,Sequence,flow.Sequence,0_2_4,,completion,5,172851,,,172852,,172859,2021-11-05T00:10:47.375Z,173124.52,1636070864,full,ni_sequenzen,NI_Sequenzen,,,,,,,,,,,,,,
,Screen_1,canvas.Screen,0_2_5_0,,skipped,6,172866,,,172866,,172866,2021-11-05T00:10:47.381Z,173124.52,1636070864,full,ni_sequenzen,NI_Sequenzen,,,,,,,,,,,,,,
,Screen_2,canvas.Screen,0_2_5_1,,skipped,6,172867,,,172866,,172867,2021-11-05T00:10:47.383Z,173124.52,1636070864,full,ni_sequenzen,NI_Sequenzen,,,,,,,,,,,,,,
,Screen_3,canvas.Screen,0_2_5_2,,skipped,6,172868,,,172866,,172868,2021-11-05T00:10:47.384Z,173124.52,1636070864,full,ni_sequenzen,NI_Sequenzen,,,,,,,,,,,,,,
,Screen_4,canvas.Screen,0_2_5_3,,skipped,6,172869,,,172866,,172870,2021-11-05T00:10:47.385Z,173124.52,1636070864,full,ni_sequenzen,NI_Sequenzen,,,,,,,,,,,,,,
,Screen_5,canvas.Screen,0_2_5_4,,skipped,6,172871,,,172866,,172871,2021-11-05T00:10:47.386Z,173124.52,1636070864,full,ni_sequenzen,NI_Sequenzen,,,,,,,,,,,,,,
,Screen_6,canvas.Screen,0_2_5_5,,skipped,6,172872,,,172866,,172872,2021-11-05T00:10:47.387Z,173124.52,1636070864,full,ni_sequenzen,NI_Sequenzen,,,,,,,,,,,,,,
,Sequence,flow.Sequence,0_2_5,,completion,6,172865,,,172866,,172872,2021-11-05T00:10:47.387Z,173124.52,1636070864,full,ni_sequenzen,NI_Sequenzen,,,,,,,,,,,,,,
,Screen_1,canvas.Screen,0_2_6_0,,skipped,7,172874,,,172874,,172874,2021-11-05T00:10:47.388Z,173124.52,1636070864,full,ni_sequenzen,NI_Sequenzen,,,,,,,,,,,,,,
,Screen_2,canvas.Screen,0_2_6_1,,skipped,7,172875,,,172874,,172875,2021-11-05T00:10:47.390Z,173124.52,1636070864,full,ni_sequenzen,NI_Sequenzen,,,,,,,,,,,,,,
,Screen_3,canvas.Screen,0_2_6_2,,skipped,7,172876,,,172874,,172876,2021-11-05T00:10:47.392Z,173124.52,1636070864,full,ni_sequenzen,NI_Sequenzen,,,,,,,,,,,,,,
,Screen_4,canvas.Screen,0_2_6_3,,skipped,7,172881,,,172874,,172881,2021-11-05T00:10:47.396Z,173124.52,1636070864,full,ni_sequenzen,NI_Sequenzen,,,,,,,,,,,,,,
,Screen_5,canvas.Screen,0_2_6_4,,skipped,7,172881,,,172874,,172882,2021-11-05T00:10:47.397Z,173124.52,1636070864,full,ni_sequenzen,NI_Sequenzen,,,,,,,,,,,,,,
,Screen_6,canvas.Screen,0_2_6_5,,skipped,7,172882,,,172874,,172882,2021-11-05T00:10:47.398Z,173124.52,1636070864,full,ni_sequenzen,NI_Sequenzen,,,,,,,,,,,,,,
,Sequence,flow.Sequence,0_2_6,,completion,7,172872,,,172874,,172883,2021-11-05T00:10:47.398Z,173124.52,1636070864,full,ni_sequenzen,NI_Sequenzen,,,,,,,,,,,,,,
,Screen_1,canvas.Screen,0_2_7_0,,skipped,8,172884,,,172884,,172884,2021-11-05T00:10:47.399Z,173124.52,1636070864,full,ni_sequenzen,NI_Sequenzen,,,,,,,,,,,,,,
,Screen_2,canvas.Screen,0_2_7_1,,skipped,8,172885,,,172884,,172885,2021-11-05T00:10:47.400Z,173124.52,1636070864,full,ni_sequenzen,NI_Sequenzen,,,,,,,,,,,,,,
,Screen_3,canvas.Screen,0_2_7_2,,skipped,8,172886,,,172884,,172886,2021-11-05T00:10:47.401Z,173124.52,1636070864,full,ni_sequenzen,NI_Sequenzen,,,,,,,,,,,,,,
,Screen_4,canvas.Screen,0_2_7_3,,skipped,8,172887,,,172884,,172887,2021-11-05T00:10:47.402Z,173124.52,1636070864,full,ni_sequenzen,NI_Sequenzen,,,,,,,,,,,,,,
,Screen_5,canvas.Screen,0_2_7_4,,skipped,8,172888,,,172884,,172888,2021-11-05T00:10:47.404Z,173124.52,1636070864,full,ni_sequenzen,NI_Sequenzen,,,,,,,,,,,,,,
,Screen_6,canvas.Screen,0_2_7_5,,skipped,8,172889,,,172884,,172889,2021-11-05T00:10:47.405Z,173124.52,1636070864,full,ni_sequenzen,NI_Sequenzen,,,,,,,,,,,,,,
,Sequence,flow.Sequence,0_2_7,,completion,8,172883,,,172884,,172889,2021-11-05T00:10:47.405Z,173124.52,1636070864,full,ni_sequenzen,NI_Sequenzen,,,,,,,,,,,,,,
,Screen_1,canvas.Screen,0_2_8_0,,skipped,9,172890,,,172890,,172891,2021-11-05T00:10:47.406Z,173124.52,1636070864,full,ni_sequenzen,NI_Sequenzen,,,,,,,,,,,,,,
,Screen_2,canvas.Screen,0_2_8_1,,skipped,9,172893,,,172890,,172893,2021-11-05T00:10:47.408Z,173124.52,1636070864,full,ni_sequenzen,NI_Sequenzen,,,,,,,,,,,,,,
,Screen_3,canvas.Screen,0_2_8_2,,skipped,9,172897,,,172890,,172897,2021-11-05T00:10:47.413Z,173124.52,1636070864,full,ni_sequenzen,NI_Sequenzen,,,,,,,,,,,,,,
,Screen_4,canvas.Screen,0_2_8_3,,skipped,9,172898,,,172890,,172898,2021-11-05T00:10:47.414Z,173124.52,1636070864,full,ni_sequenzen,NI_Sequenzen,,,,,,,,,,,,,,
,Screen_5,canvas.Screen,0_2_8_4,,skipped,9,172899,,,172890,,172899,2021-11-05T00:10:47.415Z,173124.52,1636070864,full,ni_sequenzen,NI_Sequenzen,,,,,,,,,,,,,,
,Screen_6,canvas.Screen,0_2_8_5,,skipped,9,172901,,,172890,,172901,2021-11-05T00:10:47.416Z,173124.52,1636070864,full,ni_sequenzen,NI_Sequenzen,,,,,,,,,,,,,,
,Sequence,flow.Sequence,0_2_8,,completion,9,172890,,,172890,,172901,2021-11-05T00:10:47.416Z,173124.52,1636070864,full,ni_sequenzen,NI_Sequenzen,,,,,,,,,,,,,,
,Screen_1,canvas.Screen,0_2_9_0,,skipped,10,172903,,,172903,,172903,2021-11-05T00:10:47.418Z,173124.52,1636070864,full,ni_sequenzen,NI_Sequenzen,,,,,,,,,,,,,,
,Screen_2,canvas.Screen,0_2_9_1,,skipped,10,172904,,,172903,,172904,2021-11-05T00:10:47.420Z,173124.52,1636070864,full,ni_sequenzen,NI_Sequenzen,,,,,,,,,,,,,,
,Screen_3,canvas.Screen,0_2_9_2,,skipped,10,172905,,,172903,,172905,2021-11-05T00:10:47.421Z,173124.52,1636070864,full,ni_sequenzen,NI_Sequenzen,,,,,,,,,,,,,,
,Screen_4,canvas.Screen,0_2_9_3,,skipped,10,172906,,,172903,,172906,2021-11-05T00:10:47.422Z,173124.52,1636070864,full,ni_sequenzen,NI_Sequenzen,,,,,,,,,,,,,,
,Screen_5,canvas.Screen,0_2_9_4,,skipped,10,172907,,,172903,,172907,2021-11-05T00:10:47.423Z,173124.52,1636070864,full,ni_sequenzen,NI_Sequenzen,,,,,,,,,,,,,,
,Screen_6,canvas.Screen,0_2_9_5,,skipped,10,172910,,,172903,,172910,2021-11-05T00:10:47.425Z,173124.52,1636070864,full,ni_sequenzen,NI_Sequenzen,,,,,,,,,,,,,,
,Sequence,flow.Sequence,0_2_9,,completion,10,172902,,,172903,,172912,2021-11-05T00:10:47.427Z,173124.52,1636070864,full,ni_sequenzen,NI_Sequenzen,,,,,,,,,,,,,,
,Screen_1,canvas.Screen,0_2_10_0,,skipped,11,172914,,,172914,,172914,2021-11-05T00:10:47.430Z,173124.52,1636070864,full,ni_sequenzen,NI_Sequenzen,,,,,,,,,,,,,,
,Screen_2,canvas.Screen,0_2_10_1,,skipped,11,172915,,,172914,,172915,2021-11-05T00:10:47.431Z,173124.52,1636070864,full,ni_sequenzen,NI_Sequenzen,,,,,,,,,,,,,,
,Screen_3,canvas.Screen,0_2_10_2,,skipped,11,172916,,,172914,,172916,2021-11-05T00:10:47.432Z,173124.52,1636070864,full,ni_sequenzen,NI_Sequenzen,,,,,,,,,,,,,,
,Screen_4,canvas.Screen,0_2_10_3,,skipped,11,172917,,,172914,,172917,2021-11-05T00:10:47.433Z,173124.52,1636070864,full,ni_sequenzen,NI_Sequenzen,,,,,,,,,,,,,,
,Screen_5,canvas.Screen,0_2_10_4,,skipped,11,172919,,,172914,,172919,2021-11-05T00:10:47.434Z,173124.52,1636070864,full,ni_sequenzen,NI_Sequenzen,,,,,,,,,,,,,,
,Screen_6,canvas.Screen,0_2_10_5,,skipped,11,172920,,,172914,,172920,2021-11-05T00:10:47.435Z,173124.52,1636070864,full,ni_sequenzen,NI_Sequenzen,,,,,,,,,,,,,,
,Sequence,flow.Sequence,0_2_10,,completion,11,172913,,,172914,,172920,2021-11-05T00:10:47.435Z,173124.52,1636070864,full,ni_sequenzen,NI_Sequenzen,,,,,,,,,,,,,,
,Screen_1,canvas.Screen,0_2_11_0,,skipped,12,172921,,,172921,,172921,2021-11-05T00:10:47.436Z,173124.52,1636070864,full,ni_sequenzen,NI_Sequenzen,,,,,,,,,,,,,,
,Screen_2,canvas.Screen,0_2_11_1,,skipped,12,172923,,,172921,,172923,2021-11-05T00:10:47.438Z,173124.52,1636070864,full,ni_sequenzen,NI_Sequenzen,,,,,,,,,,,,,,
,Screen_3,canvas.Screen,0_2_11_2,,skipped,12,172924,,,172921,,172924,2021-11-05T00:10:47.439Z,173124.52,1636070864,full,ni_sequenzen,NI_Sequenzen,,,,,,,,,,,,,,
,Screen_4,canvas.Screen,0_2_11_3,,skipped,12,172925,,,172921,,172925,2021-11-05T00:10:47.440Z,173124.52,1636070864,full,ni_sequenzen,NI_Sequenzen,,,,,,,,,,,,,,
,Screen_5,canvas.Screen,0_2_11_4,,skipped,12,172926,,,172921,,172927,2021-11-05T00:10:47.443Z,173124.52,1636070864,full,ni_sequenzen,NI_Sequenzen,,,,,,,,,,,,,,
,Screen_6,canvas.Screen,0_2_11_5,,skipped,12,172932,,,172921,,172932,2021-11-05T00:10:47.447Z,173124.52,1636070864,full,ni_sequenzen,NI_Sequenzen,,,,,,,,,,,,,,
,Sequence,flow.Sequence,0_2_11,,completion,12,172920,,,172921,,172932,2021-11-05T00:10:47.447Z,173124.52,1636070864,full,ni_sequenzen,NI_Sequenzen,,,,,,,,,,,,,,
,Screen_1,canvas.Screen,0_2_12_0,,skipped,13,172933,,,172933,,172933,2021-11-05T00:10:47.449Z,173124.52,1636070864,full,ni_sequenzen,NI_Sequenzen,,,,,,,,,,,,,,
,Screen_2,canvas.Screen,0_2_12_1,,skipped,13,172934,,,172933,,172934,2021-11-05T00:10:47.450Z,173124.52,1636070864,full,ni_sequenzen,NI_Sequenzen,,,,,,,,,,,,,,
,Screen_3,canvas.Screen,0_2_12_2,,skipped,13,172935,,,172933,,172935,2021-11-05T00:10:47.451Z,173124.52,1636070864,full,ni_sequenzen,NI_Sequenzen,,,,,,,,,,,,,,
,Screen_4,canvas.Screen,0_2_12_3,,skipped,13,172936,,,172933,,172937,2021-11-05T00:10:47.451Z,173124.52,1636070864,full,ni_sequenzen,NI_Sequenzen,,,,,,,,,,,,,,
,Screen_5,canvas.Screen,0_2_12_4,,skipped,13,172937,,,172933,,172937,2021-11-05T00:10:47.452Z,173124.52,1636070864,full,ni_sequenzen,NI_Sequenzen,,,,,,,,,,,,,,
,Screen_6,canvas.Screen,0_2_12_5,,skipped,13,172937,,,172933,,172938,2021-11-05T00:10:47.453Z,173124.52,1636070864,full,ni_sequenzen,NI_Sequenzen,,,,,,,,,,,,,,
,Sequence,flow.Sequence,0_2_12,,completion,13,172933,,,172933,,172938,2021-11-05T00:10:47.453Z,173124.52,1636070864,full,ni_sequenzen,NI_Sequenzen,,,,,,,,,,,,,,
,Screen_1,canvas.Screen,0_2_13_0,,skipped,14,172939,,,172939,,172939,2021-11-05T00:10:47.455Z,173124.52,1636070864,full,ni_sequenzen,NI_Sequenzen,,,,,,,,,,,,,,
,Screen_2,canvas.Screen,0_2_13_1,,skipped,14,172940,,,172939,,172940,2021-11-05T00:10:47.456Z,173124.52,1636070864,full,ni_sequenzen,NI_Sequenzen,,,,,,,,,,,,,,
,Screen_3,canvas.Screen,0_2_13_2,,skipped,14,172941,,,172939,,172941,2021-11-05T00:10:47.457Z,173124.52,1636070864,full,ni_sequenzen,NI_Sequenzen,,,,,,,,,,,,,,
,Screen_4,canvas.Screen,0_2_13_3,,skipped,14,172942,,,172939,,172942,2021-11-05T00:10:47.457Z,173124.52,1636070864,full,ni_sequenzen,NI_Sequenzen,,,,,,,,,,,,,,
,Screen_5,canvas.Screen,0_2_13_4,,skipped,14,172944,,,172939,,172944,2021-11-05T00:10:47.460Z,173124.52,1636070864,full,ni_sequenzen,NI_Sequenzen,,,,,,,,,,,,,,
,Screen_6,canvas.Screen,0_2_13_5,,skipped,14,172947,,,172939,,172947,2021-11-05T00:10:47.462Z,173124.52,1636070864,full,ni_sequenzen,NI_Sequenzen,,,,,,,,,,,,,,
,Sequence,flow.Sequence,0_2_13,,completion,14,172939,,,172939,,172947,2021-11-05T00:10:47.462Z,173124.52,1636070864,full,ni_sequenzen,NI_Sequenzen,,,,,,,,,,,,,,
,Screen_1,canvas.Screen,0_2_14_0,,skipped,15,172948,,,172948,,172949,2021-11-05T00:10:47.463Z,173124.52,1636070864,full,ni_sequenzen,NI_Sequenzen,,,,,,,,,,,,,,
,Screen_2,canvas.Screen,0_2_14_1,,skipped,15,172949,,,172948,,172949,2021-11-05T00:10:47.464Z,173124.52,1636070864,full,ni_sequenzen,NI_Sequenzen,,,,,,,,,,,,,,
,Screen_3,canvas.Screen,0_2_14_2,,skipped,15,172950,,,172948,,172950,2021-11-05T00:10:47.465Z,173124.52,1636070864,full,ni_sequenzen,NI_Sequenzen,,,,,,,,,,,,,,
,Screen_4,canvas.Screen,0_2_14_3,,skipped,15,172951,,,172948,,172951,2021-11-05T00:10:47.466Z,173124.52,1636070864,full,ni_sequenzen,NI_Sequenzen,,,,,,,,,,,,,,
,Screen_5,canvas.Screen,0_2_14_4,,skipped,15,172952,,,172948,,172952,2021-11-05T00:10:47.467Z,173124.52,1636070864,full,ni_sequenzen,NI_Sequenzen,,,,,,,,,,,,,,
,Screen_6,canvas.Screen,0_2_14_5,,skipped,15,172953,,,172948,,172953,2021-11-05T00:10:47.469Z,173124.52,1636070864,full,ni_sequenzen,NI_Sequenzen,,,,,,,,,,,,,,
,Sequence,flow.Sequence,0_2_14,,completion,15,172948,,,172948,,172953,2021-11-05T00:10:47.469Z,173124.52,1636070864,full,ni_sequenzen,NI_Sequenzen,,,,,,,,,,,,,,
,Screen_1,canvas.Screen,0_2_15_0,,skipped,16,172954,,,172954,,172955,2021-11-05T00:10:47.471Z,173124.52,1636070864,full,ni_sequenzen,NI_Sequenzen,,,,,,,,,,,,,,
,Screen_2,canvas.Screen,0_2_15_1,,skipped,16,172956,,,172954,,172956,2021-11-05T00:10:47.472Z,173124.52,1636070864,full,ni_sequenzen,NI_Sequenzen,,,,,,,,,,,,,,
,Screen_3,canvas.Screen,0_2_15_2,,skipped,16,172957,,,172954,,172957,2021-11-05T00:10:47.472Z,173124.52,1636070864,full,ni_sequenzen,NI_Sequenzen,,,,,,,,,,,,,,
,Screen_4,canvas.Screen,0_2_15_3,,skipped,16,172958,,,172954,,172958,2021-11-05T00:10:47.473Z,173124.52,1636070864,full,ni_sequenzen,NI_Sequenzen,,,,,,,,,,,,,,
,Screen_5,canvas.Screen,0_2_15_4,,skipped,16,172958,,,172954,,172958,2021-11-05T00:10:47.473Z,173124.52,1636070864,full,ni_sequenzen,NI_Sequenzen,,,,,,,,,,,,,,
,Screen_6,canvas.Screen,0_2_15_5,,skipped,16,172963,,,172954,,172963,2021-11-05T00:10:47.479Z,173124.52,1636070864,full,ni_sequenzen,NI_Sequenzen,,,,,,,,,,,,,,
,Sequence,flow.Sequence,0_2_15,,completion,16,172954,,,172954,,172963,2021-11-05T00:10:47.480Z,173124.52,1636070864,full,ni_sequenzen,NI_Sequenzen,,,,,,,,,,,,,,
,Screen_1,canvas.Screen,0_2_16_0,,skipped,17,172965,,,172965,,172965,2021-11-05T00:10:47.480Z,173124.52,1636070864,full,ni_sequenzen,NI_Sequenzen,,,,,,,,,,,,,,
,Screen_2,canvas.Screen,0_2_16_1,,skipped,17,172966,,,172965,,172966,2021-11-05T00:10:47.481Z,173124.52,1636070864,full,ni_sequenzen,NI_Sequenzen,,,,,,,,,,,,,,
,Screen_3,canvas.Screen,0_2_16_2,,skipped,17,172967,,,172965,,172967,2021-11-05T00:10:47.482Z,173124.52,1636070864,full,ni_sequenzen,NI_Sequenzen,,,,,,,,,,,,,,
,Screen_4,canvas.Screen,0_2_16_3,,skipped,17,172968,,,172965,,172968,2021-11-05T00:10:47.483Z,173124.52,1636070864,full,ni_sequenzen,NI_Sequenzen,,,,,,,,,,,,,,
,Screen_5,canvas.Screen,0_2_16_4,,skipped,17,172969,,,172965,,172969,2021-11-05T00:10:47.485Z,173124.52,1636070864,full,ni_sequenzen,NI_Sequenzen,,,,,,,,,,,,,,
,Screen_6,canvas.Screen,0_2_16_5,,skipped,17,172970,,,172965,,172970,2021-11-05T00:10:47.486Z,173124.52,1636070864,full,ni_sequenzen,NI_Sequenzen,,,,,,,,,,,,,,
,Sequence,flow.Sequence,0_2_16,,completion,17,172964,,,172965,,172970,2021-11-05T00:10:47.486Z,173124.52,1636070864,full,ni_sequenzen,NI_Sequenzen,,,,,,,,,,,,,,
,Screen_1,canvas.Screen,0_2_17_0,,skipped,18,172971,,,172971,,172971,2021-11-05T00:10:47.487Z,173124.52,1636070864,full,ni_sequenzen,NI_Sequenzen,,,,,,,,,,,,,,
,Screen_2,canvas.Screen,0_2_17_1,,skipped,18,172972,,,172971,,172972,2021-11-05T00:10:47.488Z,173124.52,1636070864,full,ni_sequenzen,NI_Sequenzen,,,,,,,,,,,,,,
,Screen_3,canvas.Screen,0_2_17_2,,skipped,18,172973,,,172971,,172973,2021-11-05T00:10:47.488Z,173124.52,1636070864,full,ni_sequenzen,NI_Sequenzen,,,,,,,,,,,,,,
,Screen_4,canvas.Screen,0_2_17_3,,skipped,18,172973,,,172971,,172973,2021-11-05T00:10:47.489Z,173124.52,1636070864,full,ni_sequenzen,NI_Sequenzen,,,,,,,,,,,,,,
,Screen_5,canvas.Screen,0_2_17_4,,skipped,18,172975,,,172971,,172975,2021-11-05T00:10:47.490Z,173124.52,1636070864,full,ni_sequenzen,NI_Sequenzen,,,,,,,,,,,,,,
,Screen_6,canvas.Screen,0_2_17_5,,skipped,18,172976,,,172971,,172976,2021-11-05T00:10:47.491Z,173124.52,1636070864,full,ni_sequenzen,NI_Sequenzen,,,,,,,,,,,,,,
,Sequence,flow.Sequence,0_2_17,,completion,18,172970,,,172971,,172976,2021-11-05T00:10:47.491Z,173124.52,1636070864,full,ni_sequenzen,NI_Sequenzen,,,,,,,,,,,,,,
,Screen_1,canvas.Screen,0_2_18_0,,skipped,19,172980,,,172980,,172980,2021-11-05T00:10:47.496Z,173124.52,1636070864,full,ni_sequenzen,NI_Sequenzen,,,,,,,,,,,,,,
,Screen_2,canvas.Screen,0_2_18_1,,skipped,19,172981,,,172980,,172981,2021-11-05T00:10:47.497Z,173124.52,1636070864,full,ni_sequenzen,NI_Sequenzen,,,,,,,,,,,,,,
,Screen_3,canvas.Screen,0_2_18_2,,skipped,19,172982,,,172980,,172982,2021-11-05T00:10:47.498Z,173124.52,1636070864,full,ni_sequenzen,NI_Sequenzen,,,,,,,,,,,,,,
,Screen_4,canvas.Screen,0_2_18_3,,skipped,19,172984,,,172980,,172984,2021-11-05T00:10:47.499Z,173124.52,1636070864,full,ni_sequenzen,NI_Sequenzen,,,,,,,,,,,,,,
,Screen_5,canvas.Screen,0_2_18_4,,skipped,19,172985,,,172980,,172985,2021-11-05T00:10:47.500Z,173124.52,1636070864,full,ni_sequenzen,NI_Sequenzen,,,,,,,,,,,,,,
,Screen_6,canvas.Screen,0_2_18_5,,skipped,19,172986,,,172980,,172986,2021-11-05T00:10:47.501Z,173124.52,1636070864,full,ni_sequenzen,NI_Sequenzen,,,,,,,,,,,,,,
,Sequence,flow.Sequence,0_2_18,,completion,19,172979,,,172980,,172986,2021-11-05T00:10:47.501Z,173124.52,1636070864,full,ni_sequenzen,NI_Sequenzen,,,,,,,,,,,,,,
,Screen_1,canvas.Screen,0_2_19_0,,skipped,20,172987,,,172987,,172987,2021-11-05T00:10:47.502Z,173124.52,1636070864,full,ni_sequenzen,NI_Sequenzen,,,,,,,,,,,,,,
,Screen_2,canvas.Screen,0_2_19_1,,skipped,20,172987,,,172987,,172987,2021-11-05T00:10:47.503Z,173124.52,1636070864,full,ni_sequenzen,NI_Sequenzen,,,,,,,,,,,,,,
,Screen_3,canvas.Screen,0_2_19_2,,skipped,20,172988,,,172987,,172988,2021-11-05T00:10:47.504Z,173124.52,1636070864,full,ni_sequenzen,NI_Sequenzen,,,,,,,,,,,,,,
,Screen_4,canvas.Screen,0_2_19_3,,skipped,20,172989,,,172987,,172989,2021-11-05T00:10:47.505Z,173124.52,1636070864,full,ni_sequenzen,NI_Sequenzen,,,,,,,,,,,,,,
,Screen_5,canvas.Screen,0_2_19_4,,skipped,20,172990,,,172987,,172990,2021-11-05T00:10:47.506Z,173124.52,1636070864,full,ni_sequenzen,NI_Sequenzen,,,,,,,,,,,,,,
,Screen_6,canvas.Screen,0_2_19_5,,skipped,20,172991,,,172987,,172991,2021-11-05T00:10:47.507Z,173124.52,1636070864,full,ni_sequenzen,NI_Sequenzen,,,,,,,,,,,,,,
,Sequence,flow.Sequence,0_2_19,,completion,20,172986,,,172987,,172991,2021-11-05T00:10:47.507Z,173124.52,1636070864,full,ni_sequenzen,NI_Sequenzen,,,,,,,,,,,,,,
,Screen_1,canvas.Screen,0_2_20_0,,skipped,21,172997,,,172997,,172997,2021-11-05T00:10:47.513Z,173124.52,1636070864,full,ni_sequenzen,NI_Sequenzen,,,,,,,,,,,,,,
,Screen_2,canvas.Screen,0_2_20_1,,skipped,21,172998,,,172997,,172998,2021-11-05T00:10:47.514Z,173124.52,1636070864,full,ni_sequenzen,NI_Sequenzen,,,,,,,,,,,,,,
,Screen_3,canvas.Screen,0_2_20_2,,skipped,21,173000,,,172997,,173000,2021-11-05T00:10:47.515Z,173124.52,1636070864,full,ni_sequenzen,NI_Sequenzen,,,,,,,,,,,,,,
,Screen_4,canvas.Screen,0_2_20_3,,skipped,21,173000,,,172997,,173000,2021-11-05T00:10:47.516Z,173124.52,1636070864,full,ni_sequenzen,NI_Sequenzen,,,,,,,,,,,,,,
,Screen_5,canvas.Screen,0_2_20_4,,skipped,21,173001,,,172997,,173001,2021-11-05T00:10:47.517Z,173124.52,1636070864,full,ni_sequenzen,NI_Sequenzen,,,,,,,,,,,,,,
,Screen_6,canvas.Screen,0_2_20_5,,skipped,21,173002,,,172997,,173002,2021-11-05T00:10:47.518Z,173124.52,1636070864,full,ni_sequenzen,NI_Sequenzen,,,,,,,,,,,,,,
,Sequence,flow.Sequence,0_2_20,,completion,21,172991,,,172997,,173002,2021-11-05T00:10:47.518Z,173124.52,1636070864,full,ni_sequenzen,NI_Sequenzen,,,,,,,,,,,,,,
,Screen_1,canvas.Screen,0_2_21_0,,skipped,22,173005,,,173005,,173005,2021-11-05T00:10:47.520Z,173124.52,1636070864,full,ni_sequenzen,NI_Sequenzen,,,,,,,,,,,,,,
,Screen_2,canvas.Screen,0_2_21_1,,skipped,22,173006,,,173005,,173006,2021-11-05T00:10:47.521Z,173124.52,1636070864,full,ni_sequenzen,NI_Sequenzen,,,,,,,,,,,,,,
,Screen_3,canvas.Screen,0_2_21_2,,skipped,22,173007,,,173005,,173007,2021-11-05T00:10:47.522Z,173124.52,1636070864,full,ni_sequenzen,NI_Sequenzen,,,,,,,,,,,,,,
,Screen_4,canvas.Screen,0_2_21_3,,skipped,22,173007,,,173005,,173007,2021-11-05T00:10:47.523Z,173124.52,1636070864,full,ni_sequenzen,NI_Sequenzen,,,,,,,,,,,,,,
,Screen_5,canvas.Screen,0_2_21_4,,skipped,22,173008,,,173005,,173008,2021-11-05T00:10:47.524Z,173124.52,1636070864,full,ni_sequenzen,NI_Sequenzen,,,,,,,,,,,,,,
,Screen_6,canvas.Screen,0_2_21_5,,skipped,22,173013,,,173005,,173013,2021-11-05T00:10:47.528Z,173124.52,1636070864,full,ni_sequenzen,NI_Sequenzen,,,,,,,,,,,,,,
,Sequence,flow.Sequence,0_2_21,,completion,22,173004,,,173005,,173013,2021-11-05T00:10:47.528Z,173124.52,1636070864,full,ni_sequenzen,NI_Sequenzen,,,,,,,,,,,,,,
,Screen_1,canvas.Screen,0_2_22_0,,skipped,23,173015,,,173015,,173015,2021-11-05T00:10:47.530Z,173124.52,1636070864,full,ni_sequenzen,NI_Sequenzen,,,,,,,,,,,,,,
,Screen_2,canvas.Screen,0_2_22_1,,skipped,23,173016,,,173015,,173016,2021-11-05T00:10:47.531Z,173124.52,1636070864,full,ni_sequenzen,NI_Sequenzen,,,,,,,,,,,,,,
,Screen_3,canvas.Screen,0_2_22_2,,skipped,23,173017,,,173015,,173017,2021-11-05T00:10:47.532Z,173124.52,1636070864,full,ni_sequenzen,NI_Sequenzen,,,,,,,,,,,,,,
,Screen_4,canvas.Screen,0_2_22_3,,skipped,23,173019,,,173015,,173019,2021-11-05T00:10:47.534Z,173124.52,1636070864,full,ni_sequenzen,NI_Sequenzen,,,,,,,,,,,,,,
,Screen_5,canvas.Screen,0_2_22_4,,skipped,23,173020,,,173015,,173020,2021-11-05T00:10:47.534Z,173124.52,1636070864,full,ni_sequenzen,NI_Sequenzen,,,,,,,,,,,,,,
,Screen_6,canvas.Screen,0_2_22_5,,skipped,23,173020,,,173015,,173020,2021-11-05T00:10:47.536Z,173124.52,1636070864,full,ni_sequenzen,NI_Sequenzen,,,,,,,,,,,,,,
,Sequence,flow.Sequence,0_2_22,,completion,23,173014,,,173015,,173021,2021-11-05T00:10:47.536Z,173124.52,1636070864,full,ni_sequenzen,NI_Sequenzen,,,,,,,,,,,,,,
,Screen_1,canvas.Screen,0_2_23_0,,skipped,24,173022,,,173022,,173022,2021-11-05T00:10:47.537Z,173124.52,1636070864,full,ni_sequenzen,NI_Sequenzen,,,,,,,,,,,,,,
,Screen_2,canvas.Screen,0_2_23_1,,skipped,24,173023,,,173022,,173023,2021-11-05T00:10:47.538Z,173124.52,1636070864,full,ni_sequenzen,NI_Sequenzen,,,,,,,,,,,,,,
,Screen_3,canvas.Screen,0_2_23_2,,skipped,24,173028,,,173022,,173028,2021-11-05T00:10:47.544Z,173124.52,1636070864,full,ni_sequenzen,NI_Sequenzen,,,,,,,,,,,,,,
,Screen_4,canvas.Screen,0_2_23_3,,skipped,24,173031,,,173022,,173031,2021-11-05T00:10:47.547Z,173124.52,1636070864,full,ni_sequenzen,NI_Sequenzen,,,,,,,,,,,,,,
,Screen_5,canvas.Screen,0_2_23_4,,skipped,24,173032,,,173022,,173032,2021-11-05T00:10:47.548Z,173124.52,1636070864,full,ni_sequenzen,NI_Sequenzen,,,,,,,,,,,,,,
,Screen_6,canvas.Screen,0_2_23_5,,skipped,24,173033,,,173022,,173033,2021-11-05T00:10:47.549Z,173124.52,1636070864,full,ni_sequenzen,NI_Sequenzen,,,,,,,,,,,,,,
,Sequence,flow.Sequence,0_2_23,,completion,24,173021,,,173022,,173033,2021-11-05T00:10:47.550Z,173124.52,1636070864,full,ni_sequenzen,NI_Sequenzen,,,,,,,,,,,,,,
,Screen_1,canvas.Screen,0_2_24_0,,skipped,25,173035,,,173035,,173035,2021-11-05T00:10:47.550Z,173124.52,1636070864,full,ni_sequenzen,NI_Sequenzen,,,,,,,,,,,,,,
,Screen_2,canvas.Screen,0_2_24_1,,skipped,25,173036,,,173035,,173036,2021-11-05T00:10:47.552Z,173124.52,1636070864,full,ni_sequenzen,NI_Sequenzen,,,,,,,,,,,,,,
,Screen_3,canvas.Screen,0_2_24_2,,skipped,25,173037,,,173035,,173037,2021-11-05T00:10:47.552Z,173124.52,1636070864,full,ni_sequenzen,NI_Sequenzen,,,,,,,,,,,,,,
,Screen_4,canvas.Screen,0_2_24_3,,skipped,25,173038,,,173035,,173038,2021-11-05T00:10:47.554Z,173124.52,1636070864,full,ni_sequenzen,NI_Sequenzen,,,,,,,,,,,,,,
,Screen_5,canvas.Screen,0_2_24_4,,skipped,25,173039,,,173035,,173039,2021-11-05T00:10:47.554Z,173124.52,1636070864,full,ni_sequenzen,NI_Sequenzen,,,,,,,,,,,,,,
,Screen_6,canvas.Screen,0_2_24_5,,skipped,25,173040,,,173035,,173040,2021-11-05T00:10:47.555Z,173124.52,1636070864,full,ni_sequenzen,NI_Sequenzen,,,,,,,,,,,,,,
,Sequence,flow.Sequence,0_2_24,,completion,25,173034,,,173035,,173040,2021-11-05T00:10:47.555Z,173124.52,1636070864,full,ni_sequenzen,NI_Sequenzen,,,,,,,,,,,,,,
,Screen_1,canvas.Screen,0_2_25_0,,skipped,26,173041,,,173041,,173041,2021-11-05T00:10:47.556Z,173124.52,1636070864,full,ni_sequenzen,NI_Sequenzen,,,,,,,,,,,,,,
,Screen_2,canvas.Screen,0_2_25_1,,skipped,26,173043,,,173041,,173043,2021-11-05T00:10:47.557Z,173124.52,1636070864,full,ni_sequenzen,NI_Sequenzen,,,,,,,,,,,,,,
,Screen_3,canvas.Screen,0_2_25_2,,skipped,26,173046,,,173041,,173046,2021-11-05T00:10:47.562Z,173124.52,1636070864,full,ni_sequenzen,NI_Sequenzen,,,,,,,,,,,,,,
,Screen_4,canvas.Screen,0_2_25_3,,skipped,26,173047,,,173041,,173047,2021-11-05T00:10:47.563Z,173124.52,1636070864,full,ni_sequenzen,NI_Sequenzen,,,,,,,,,,,,,,
,Screen_5,canvas.Screen,0_2_25_4,,skipped,26,173048,,,173041,,173048,2021-11-05T00:10:47.563Z,173124.52,1636070864,full,ni_sequenzen,NI_Sequenzen,,,,,,,,,,,,,,
,Screen_6,canvas.Screen,0_2_25_5,,skipped,26,173049,,,173041,,173049,2021-11-05T00:10:47.564Z,173124.52,1636070864,full,ni_sequenzen,NI_Sequenzen,,,,,,,,,,,,,,
,Sequence,flow.Sequence,0_2_25,,completion,26,173040,,,173041,,173049,2021-11-05T00:10:47.564Z,173124.52,1636070864,full,ni_sequenzen,NI_Sequenzen,,,,,,,,,,,,,,
,Screen_1,canvas.Screen,0_2_26_0,,skipped,27,173050,,,173050,,173050,2021-11-05T00:10:47.566Z,173124.52,1636070864,full,ni_sequenzen,NI_Sequenzen,,,,,,,,,,,,,,
,Screen_2,canvas.Screen,0_2_26_1,,skipped,27,173051,,,173050,,173051,2021-11-05T00:10:47.567Z,173124.52,1636070864,full,ni_sequenzen,NI_Sequenzen,,,,,,,,,,,,,,
,Screen_3,canvas.Screen,0_2_26_2,,skipped,27,173053,,,173050,,173053,2021-11-05T00:10:47.568Z,173124.52,1636070864,full,ni_sequenzen,NI_Sequenzen,,,,,,,,,,,,,,
,Screen_4,canvas.Screen,0_2_26_3,,skipped,27,173054,,,173050,,173054,2021-11-05T00:10:47.569Z,173124.52,1636070864,full,ni_sequenzen,NI_Sequenzen,,,,,,,,,,,,,,
,Screen_5,canvas.Screen,0_2_26_4,,skipped,27,173054,,,173050,,173054,2021-11-05T00:10:47.569Z,173124.52,1636070864,full,ni_sequenzen,NI_Sequenzen,,,,,,,,,,,,,,
,Screen_6,canvas.Screen,0_2_26_5,,skipped,27,173055,,,173050,,173055,2021-11-05T00:10:47.571Z,173124.52,1636070864,full,ni_sequenzen,NI_Sequenzen,,,,,,,,,,,,,,
,Sequence,flow.Sequence,0_2_26,,completion,27,173049,,,173050,,173055,2021-11-05T00:10:47.571Z,173124.52,1636070864,full,ni_sequenzen,NI_Sequenzen,,,,,,,,,,,,,,
,Screen_1,canvas.Screen,0_2_27_0,,skipped,28,173056,,,173056,,173056,2021-11-05T00:10:47.572Z,173124.52,1636070864,full,ni_sequenzen,NI_Sequenzen,,,,,,,,,,,,,,
,Screen_2,canvas.Screen,0_2_27_1,,skipped,28,173057,,,173056,,173057,2021-11-05T00:10:47.573Z,173124.52,1636070864,full,ni_sequenzen,NI_Sequenzen,,,,,,,,,,,,,,
,Screen_3,canvas.Screen,0_2_27_2,,skipped,28,173058,,,173056,,173058,2021-11-05T00:10:47.574Z,173124.52,1636070864,full,ni_sequenzen,NI_Sequenzen,,,,,,,,,,,,,,
,Screen_4,canvas.Screen,0_2_27_3,,skipped,28,173059,,,173056,,173059,2021-11-05T00:10:47.575Z,173124.52,1636070864,full,ni_sequenzen,NI_Sequenzen,,,,,,,,,,,,,,
,Screen_5,canvas.Screen,0_2_27_4,,skipped,28,173065,,,173056,,173065,2021-11-05T00:10:47.580Z,173124.52,1636070864,full,ni_sequenzen,NI_Sequenzen,,,,,,,,,,,,,,
,Screen_6,canvas.Screen,0_2_27_5,,skipped,28,173067,,,173056,,173067,2021-11-05T00:10:47.582Z,173124.52,1636070864,full,ni_sequenzen,NI_Sequenzen,,,,,,,,,,,,,,
,Sequence,flow.Sequence,0_2_27,,completion,28,173055,,,173056,,173067,2021-11-05T00:10:47.582Z,173124.52,1636070864,full,ni_sequenzen,NI_Sequenzen,,,,,,,,,,,,,,
,Screen_1,canvas.Screen,0_2_28_0,,skipped,29,173069,,,173069,,173069,2021-11-05T00:10:47.584Z,173124.52,1636070864,full,ni_sequenzen,NI_Sequenzen,,,,,,,,,,,,,,
,Screen_2,canvas.Screen,0_2_28_1,,skipped,29,173069,,,173069,,173069,2021-11-05T00:10:47.585Z,173124.52,1636070864,full,ni_sequenzen,NI_Sequenzen,,,,,,,,,,,,,,
,Screen_3,canvas.Screen,0_2_28_2,,skipped,29,173070,,,173069,,173070,2021-11-05T00:10:47.586Z,173124.52,1636070864,full,ni_sequenzen,NI_Sequenzen,,,,,,,,,,,,,,
,Screen_4,canvas.Screen,0_2_28_3,,skipped,29,173071,,,173069,,173071,2021-11-05T00:10:47.587Z,173124.52,1636070864,full,ni_sequenzen,NI_Sequenzen,,,,,,,,,,,,,,
,Screen_5,canvas.Screen,0_2_28_4,,skipped,29,173072,,,173069,,173072,2021-11-05T00:10:47.588Z,173124.52,1636070864,full,ni_sequenzen,NI_Sequenzen,,,,,,,,,,,,,,
,Screen_6,canvas.Screen,0_2_28_5,,skipped,29,173073,,,173069,,173073,2021-11-05T00:10:47.589Z,173124.52,1636070864,full,ni_sequenzen,NI_Sequenzen,,,,,,,,,,,,,,
,Sequence,flow.Sequence,0_2_28,,completion,29,173067,,,173069,,173073,2021-11-05T00:10:47.589Z,173124.52,1636070864,full,ni_sequenzen,NI_Sequenzen,,,,,,,,,,,,,,
,Screen_1,canvas.Screen,0_2_29_0,,skipped,30,173074,,,173074,,173074,2021-11-05T00:10:47.590Z,173124.52,1636070864,full,ni_sequenzen,NI_Sequenzen,,,,,,,,,,,,,,
,Screen_2,canvas.Screen,0_2_29_1,,skipped,30,173075,,,173074,,173075,2021-11-05T00:10:47.590Z,173124.52,1636070864,full,ni_sequenzen,NI_Sequenzen,,,,,,,,,,,,,,
,Screen_3,canvas.Screen,0_2_29_2,,skipped,30,173078,,,173074,,173078,2021-11-05T00:10:47.593Z,173124.52,1636070864,full,ni_sequenzen,NI_Sequenzen,,,,,,,,,,,,,,
,Screen_4,canvas.Screen,0_2_29_3,,skipped,30,173080,,,173074,,173080,2021-11-05T00:10:47.595Z,173124.52,1636070864,full,ni_sequenzen,NI_Sequenzen,,,,,,,,,,,,,,
,Screen_5,canvas.Screen,0_2_29_4,,skipped,30,173080,,,173074,,173081,2021-11-05T00:10:47.596Z,173124.52,1636070864,full,ni_sequenzen,NI_Sequenzen,,,,,,,,,,,,,,
,Screen_6,canvas.Screen,0_2_29_5,,skipped,30,173081,,,173074,,173081,2021-11-05T00:10:47.597Z,173124.52,1636070864,full,ni_sequenzen,NI_Sequenzen,,,,,,,,,,,,,,
,Sequence,flow.Sequence,0_2_29,,completion,30,173073,,,173074,,173081,2021-11-05T00:10:47.597Z,173124.52,1636070864,full,ni_sequenzen,NI_Sequenzen,,,,,,,,,,,,,,
,Instructions_II,flow.Loop,0_2,,completion,,89751,89753.52,89753.72,173074,83320.28,173082,2021-11-05T00:10:47.597Z,173124.52,1636070864,full,ni_sequenzen,NI_Sequenzen,,,,,,,,,,,,,,
,Move,canvas.Screen,0_3_0_0_0_0,down,response,,173120,173120.36,173124.52,200513,27388.48000000001,200522,2021-11-05T00:11:15.037Z,200529.68,1636070864,full,ni_sequenzen,NI_Sequenzen,1,0,,,,,,,,,,,,
,Move,canvas.Screen,0_3_0_0_0_1,right,response,,200530,200529.5,200529.68,201607,1077.320000000007,201616,2021-11-05T00:11:16.131Z,201638,1636070864,full,ni_sequenzen,NI_Sequenzen,2,0,,,,,,,,,,,,
,Move,canvas.Screen,0_3_0_0_0_2,left,response,,201637,201637.64,201638,202154,516,202164,2021-11-05T00:11:16.679Z,202182.56,1636070864,full,ni_sequenzen,NI_Sequenzen,3,0,,,,,,,,,,,,
,Move,canvas.Screen,0_3_0_0_0_3,down,response,,202182,202182.3,202182.56,203529,1346.4400000000023,203540,2021-11-05T00:11:18.056Z,203558.22,1636070864,full,ni_sequenzen,NI_Sequenzen,4,0,,,,,,,,,,,,
,Move,canvas.Screen,0_3_0_0_0_4,down,response,,203558,203557.8,203558.22,206013,2454.779999999999,206029,2021-11-05T00:11:20.544Z,206046.14,1636070864,full,ni_sequenzen,NI_Sequenzen,5,0,,,,,,,,,,,,
,Move,canvas.Screen,0_3_0_0_0_5,right,response,,206046,206045.78,206046.14,210796,4749.859999999986,210804,2021-11-05T00:11:25.320Z,210871.68,1636070864,full,ni_sequenzen,NI_Sequenzen,6,0,,,,,,,,,,,,
,Move,canvas.Screen,0_3_0_0_0_6,-999,skipped,,210821,,,210796,,210821,2021-11-05T00:11:25.336Z,210871.68,1636070864,full,ni_sequenzen,NI_Sequenzen,7,0,,,,,,,,,,,,
,Move,canvas.Screen,0_3_0_0_0_7,-999,skipped,,210827,,,210796,,210827,2021-11-05T00:11:25.342Z,210871.68,1636070864,full,ni_sequenzen,NI_Sequenzen,8,0,,,,,,,,,,,,
,Move,canvas.Screen,0_3_0_0_0_8,-999,skipped,,210835,,,210796,,210835,2021-11-05T00:11:25.350Z,210871.68,1636070864,full,ni_sequenzen,NI_Sequenzen,9,0,,,,,,,,,,,,
,Move,canvas.Screen,0_3_0_0_0_9,-999,skipped,,210838,,,210796,,210838,2021-11-05T00:11:25.354Z,210871.68,1636070864,full,ni_sequenzen,NI_Sequenzen,10,0,,,,,,,,,,,,
,Move,canvas.Screen,0_3_0_0_0_10,-999,skipped,,210843,,,210796,,210843,2021-11-05T00:11:25.358Z,210871.68,1636070864,full,ni_sequenzen,NI_Sequenzen,11,0,,,,,,,,,,,,
,Move,canvas.Screen,0_3_0_0_0_11,-999,skipped,,210849,,,210796,,210851,2021-11-05T00:11:25.365Z,210871.68,1636070864,full,ni_sequenzen,NI_Sequenzen,12,0,,,,,,,,,,,,
,Move,canvas.Screen,0_3_0_0_0_12,-999,skipped,,210855,,,210796,,210855,2021-11-05T00:11:25.371Z,210871.68,1636070864,full,ni_sequenzen,NI_Sequenzen,13,0,,,,,,,,,,,,
,Move,canvas.Screen,0_3_0_0_0_13,-999,skipped,,210860,,,210796,,210860,2021-11-05T00:11:25.375Z,210871.68,1636070864,full,ni_sequenzen,NI_Sequenzen,14,0,,,,,,,,,,,,
,Move,canvas.Screen,0_3_0_0_0_14,-999,skipped,,210868,,,210796,,210868,2021-11-05T00:11:25.383Z,210871.68,1636070864,full,ni_sequenzen,NI_Sequenzen,15,0,,,,,,,,,,,,
,Loop,flow.Loop,0_3_0_0_0,-999,completion,,173113,173120.36,173124.52,210796,37671.48000000001,210868,2021-11-05T00:11:25.383Z,210871.68,1636070864,full,ni_sequenzen,NI_Sequenzen,,0,,,,,,,,,,,,
,Feedback,canvas.Screen,0_3_0_0_1,,timeout,,210871,210871.38,210871.68,214860.56,4005.540000000008,214862,2021-11-05T00:11:29.378Z,214877.22,1636070864,full,ni_sequenzen,NI_Sequenzen,,0,,,,,,,,,,,,
,Trial,flow.Sequence,0_3_0_0,,completion,,173103,173120.36,173124.52,214860.56,41736.04000000001,214862,2021-11-05T00:11:29.378Z,214893.88,1636070864,full,ni_sequenzen,NI_Sequenzen,,0,,,,,,,,,,,,
,Move,canvas.Screen,0_3_0_1_0_0,down,response,,214876,214877.22,214893.88,227716,12822.119999999995,227734,2021-11-05T00:11:42.249Z,227756.18,1636070864,full,ni_sequenzen,NI_Sequenzen,1,1,,,,,,,,,,,,
,Move,canvas.Screen,0_3_0_1_0_1,right,response,,227753,227753.3,227756.18,228154,397.820000000007,228174,2021-11-05T00:11:42.689Z,228189.88,1636070864,full,ni_sequenzen,NI_Sequenzen,2,1,,,,,,,,,,,,
,Move,canvas.Screen,0_3_0_1_0_2,down,response,,228189,228189.62,228189.88,228561,371.11999999999534,228576,2021-11-05T00:11:43.092Z,228596.18,1636070864,full,ni_sequenzen,NI_Sequenzen,3,1,,,,,,,,,,,,
,Move,canvas.Screen,0_3_0_1_0_3,right,response,,228596,228595.98,228596.18,229014,417.820000000007,229019,2021-11-05T00:11:43.535Z,229093.54,1636070864,full,ni_sequenzen,NI_Sequenzen,4,1,,,,,,,,,,,,
,Move,canvas.Screen,0_3_0_1_0_4,-999,skipped,,229034,,,229014,,229034,2021-11-05T00:11:43.550Z,229093.54,1636070864,full,ni_sequenzen,NI_Sequenzen,5,1,,,,,,,,,,,,
,Move,canvas.Screen,0_3_0_1_0_5,-999,skipped,,229045,,,229014,,229046,2021-11-05T00:11:43.560Z,229093.54,1636070864,full,ni_sequenzen,NI_Sequenzen,6,1,,,,,,,,,,,,
,Move,canvas.Screen,0_3_0_1_0_6,-999,skipped,,229050,,,229014,,229050,2021-11-05T00:11:43.565Z,229093.54,1636070864,full,ni_sequenzen,NI_Sequenzen,7,1,,,,,,,,,,,,
,Move,canvas.Screen,0_3_0_1_0_7,-999,skipped,,229054,,,229014,,229054,2021-11-05T00:11:43.569Z,229093.54,1636070864,full,ni_sequenzen,NI_Sequenzen,8,1,,,,,,,,,,,,
,Move,canvas.Screen,0_3_0_1_0_8,-999,skipped,,229059,,,229014,,229059,2021-11-05T00:11:43.574Z,229093.54,1636070864,full,ni_sequenzen,NI_Sequenzen,9,1,,,,,,,,,,,,
,Move,canvas.Screen,0_3_0_1_0_9,-999,skipped,,229065,,,229014,,229065,2021-11-05T00:11:43.580Z,229093.54,1636070864,full,ni_sequenzen,NI_Sequenzen,10,1,,,,,,,,,,,,
,Move,canvas.Screen,0_3_0_1_0_10,-999,skipped,,229068,,,229014,,229068,2021-11-05T00:11:43.583Z,229093.54,1636070864,full,ni_sequenzen,NI_Sequenzen,11,1,,,,,,,,,,,,
,Move,canvas.Screen,0_3_0_1_0_11,-999,skipped,,229072,,,229014,,229072,2021-11-05T00:11:43.587Z,229093.54,1636070864,full,ni_sequenzen,NI_Sequenzen,12,1,,,,,,,,,,,,
,Move,canvas.Screen,0_3_0_1_0_12,-999,skipped,,229079,,,229014,,229080,2021-11-05T00:11:43.596Z,229093.54,1636070864,full,ni_sequenzen,NI_Sequenzen,13,1,,,,,,,,,,,,
,Move,canvas.Screen,0_3_0_1_0_13,-999,skipped,,229084,,,229014,,229084,2021-11-05T00:11:43.599Z,229093.54,1636070864,full,ni_sequenzen,NI_Sequenzen,14,1,,,,,,,,,,,,
,Move,canvas.Screen,0_3_0_1_0_14,-999,skipped,,229087,,,229014,,229087,2021-11-05T00:11:43.602Z,229093.54,1636070864,full,ni_sequenzen,NI_Sequenzen,15,1,,,,,,,,,,,,
,Loop,flow.Loop,0_3_0_1_0,-999,completion,,214872,214877.22,214893.88,229014,14120.119999999995,229087,2021-11-05T00:11:43.603Z,229093.54,1636070864,full,ni_sequenzen,NI_Sequenzen,,1,,,,,,,,,,,,
,Feedback,canvas.Screen,0_3_0_1_1,,timeout,,229092,229092.32,229093.54,233071.14,3994.1999999999825,233073,2021-11-05T00:11:47.587Z,233087.74,1636070864,full,ni_sequenzen,NI_Sequenzen,,1,,,,,,,,,,,,
,Trial,flow.Sequence,0_3_0_1,,completion,,214865,214877.22,214893.88,233071.14,18177.26000000001,233073,2021-11-05T00:11:47.588Z,233104.4,1636070864,full,ni_sequenzen,NI_Sequenzen,,1,,,,,,,,,,,,
,Move,canvas.Screen,0_3_0_2_0_0,down,response,,233100,233087.74,233104.4,244295,11190.600000000006,244308,2021-11-05T00:11:58.823Z,244322.82,1636070864,full,ni_sequenzen,NI_Sequenzen,1,2,,,,,,,,,,,,
,Move,canvas.Screen,0_3_0_2_0_1,left,response,,244321,244321.74,244322.82,244733,410.179999999993,244746,2021-11-05T00:11:59.261Z,244762.12,1636070864,full,ni_sequenzen,NI_Sequenzen,2,2,,,,,,,,,,,,
,Move,canvas.Screen,0_3_0_2_0_2,down,response,,244761,244761.8,244762.12,245342,579.8800000000047,245356,2021-11-05T00:11:59.872Z,245362.36,1636070864,full,ni_sequenzen,NI_Sequenzen,3,2,,,,,,,,,,,,
,Move,canvas.Screen,0_3_0_2_0_3,left,response,,245362,245362.12,245362.36,245936,573.640000000014,245944,2021-11-05T00:12:00.459Z,246014.9,1636070864,full,ni_sequenzen,NI_Sequenzen,4,2,,,,,,,,,,,,
,Move,canvas.Screen,0_3_0_2_0_4,-999,skipped,,245958,,,245936,,245958,2021-11-05T00:12:00.473Z,246014.9,1636070864,full,ni_sequenzen,NI_Sequenzen,5,2,,,,,,,,,,,,
,Move,canvas.Screen,0_3_0_2_0_5,-999,skipped,,245966,,,245936,,245966,2021-11-05T00:12:00.481Z,246014.9,1636070864,full,ni_sequenzen,NI_Sequenzen,6,2,,,,,,,,,,,,
,Move,canvas.Screen,0_3_0_2_0_6,-999,skipped,,245975,,,245936,,245975,2021-11-05T00:12:00.490Z,246014.9,1636070864,full,ni_sequenzen,NI_Sequenzen,7,2,,,,,,,,,,,,
,Move,canvas.Screen,0_3_0_2_0_7,-999,skipped,,245980,,,245936,,245980,2021-11-05T00:12:00.495Z,246014.9,1636070864,full,ni_sequenzen,NI_Sequenzen,8,2,,,,,,,,,,,,
,Move,canvas.Screen,0_3_0_2_0_8,-999,skipped,,245983,,,245936,,245983,2021-11-05T00:12:00.498Z,246014.9,1636070864,full,ni_sequenzen,NI_Sequenzen,9,2,,,,,,,,,,,,
,Move,canvas.Screen,0_3_0_2_0_9,-999,skipped,,245989,,,245936,,245989,2021-11-05T00:12:00.505Z,246014.9,1636070864,full,ni_sequenzen,NI_Sequenzen,10,2,,,,,,,,,,,,
,Move,canvas.Screen,0_3_0_2_0_10,-999,skipped,,245993,,,245936,,245993,2021-11-05T00:12:00.508Z,246014.9,1636070864,full,ni_sequenzen,NI_Sequenzen,11,2,,,,,,,,,,,,
,Move,canvas.Screen,0_3_0_2_0_11,-999,skipped,,245996,,,245936,,245996,2021-11-05T00:12:00.512Z,246014.9,1636070864,full,ni_sequenzen,NI_Sequenzen,12,2,,,,,,,,,,,,
,Move,canvas.Screen,0_3_0_2_0_12,-999,skipped,,246000,,,245936,,246000,2021-11-05T00:12:00.515Z,246014.9,1636070864,full,ni_sequenzen,NI_Sequenzen,13,2,,,,,,,,,,,,
,Move,canvas.Screen,0_3_0_2_0_13,-999,skipped,,246008,,,245936,,246008,2021-11-05T00:12:00.523Z,246014.9,1636070864,full,ni_sequenzen,NI_Sequenzen,14,2,,,,,,,,,,,,
,Move,canvas.Screen,0_3_0_2_0_14,-999,skipped,,246011,,,245936,,246012,2021-11-05T00:12:00.527Z,246014.9,1636070864,full,ni_sequenzen,NI_Sequenzen,15,2,,,,,,,,,,,,
,Loop,flow.Loop,0_3_0_2_0,-999,completion,,233094,233087.74,233104.4,245936,12831.600000000006,246012,2021-11-05T00:12:00.527Z,246014.9,1636070864,full,ni_sequenzen,NI_Sequenzen,,2,,,,,,,,,,,,
,Feedback,canvas.Screen,0_3_0_2_1,,timeout,,246014,246014.58,246014.9,249998.66,4017.0800000000163,250004,2021-11-05T00:12:04.520Z,250031.98,1636070864,full,ni_sequenzen,NI_Sequenzen,,2,,,,,,,,,,,,
,Trial,flow.Sequence,0_3_0_2,,completion,,233076,233087.74,233104.4,249998.66,16894.26000000001,250008,2021-11-05T00:12:04.524Z,250048.64,1636070864,full,ni_sequenzen,NI_Sequenzen,,2,,,,,,,,,,,,
,Move,canvas.Screen,0_3_0_3_0_0,down,response,,250046,250031.98,250048.64,254046,3997.359999999986,254051,2021-11-05T00:12:08.567Z,254080.6,1636070864,full,ni_sequenzen,NI_Sequenzen,1,3,,,,,,,,,,,,
,Move,canvas.Screen,0_3_0_3_0_1,right,response,,254079,254078.96,254080.6,257935,3854.399999999994,257940,2021-11-05T00:12:12.455Z,257951.98,1636070864,full,ni_sequenzen,NI_Sequenzen,2,3,,,,,,,,,,,,
,Move,canvas.Screen,0_3_0_3_0_2,down,response,,257951,257951.74,257951.98,260858,2906.0199999999895,260862,2021-11-05T00:12:15.377Z,260885.6,1636070864,full,ni_sequenzen,NI_Sequenzen,3,3,,,,,,,,,,,,
,Move,canvas.Screen,0_3_0_3_0_3,right,response,,260885,260885.36,260885.6,262404,1518.3999999999942,262411,2021-11-05T00:12:16.925Z,262488.96,1636070864,full,ni_sequenzen,NI_Sequenzen,4,3,,,,,,,,,,,,
,Move,canvas.Screen,0_3_0_3_0_4,-999,skipped,,262422,,,262404,,262422,2021-11-05T00:12:16.937Z,262488.96,1636070864,full,ni_sequenzen,NI_Sequenzen,5,3,,,,,,,,,,,,
,Move,canvas.Screen,0_3_0_3_0_5,-999,skipped,,262431,,,262404,,262432,2021-11-05T00:12:16.947Z,262488.96,1636070864,full,ni_sequenzen,NI_Sequenzen,6,3,,,,,,,,,,,,
,Move,canvas.Screen,0_3_0_3_0_6,-999,skipped,,262439,,,262404,,262439,2021-11-05T00:12:16.955Z,262488.96,1636070864,full,ni_sequenzen,NI_Sequenzen,7,3,,,,,,,,,,,,
,Move,canvas.Screen,0_3_0_3_0_7,-999,skipped,,262444,,,262404,,262444,2021-11-05T00:12:16.959Z,262488.96,1636070864,full,ni_sequenzen,NI_Sequenzen,8,3,,,,,,,,,,,,
,Move,canvas.Screen,0_3_0_3_0_8,-999,skipped,,262451,,,262404,,262451,2021-11-05T00:12:16.966Z,262488.96,1636070864,full,ni_sequenzen,NI_Sequenzen,9,3,,,,,,,,,,,,
,Move,canvas.Screen,0_3_0_3_0_9,-999,skipped,,262455,,,262404,,262455,2021-11-05T00:12:16.971Z,262488.96,1636070864,full,ni_sequenzen,NI_Sequenzen,10,3,,,,,,,,,,,,
,Move,canvas.Screen,0_3_0_3_0_10,-999,skipped,,262459,,,262404,,262459,2021-11-05T00:12:16.975Z,262488.96,1636070864,full,ni_sequenzen,NI_Sequenzen,11,3,,,,,,,,,,,,
,Move,canvas.Screen,0_3_0_3_0_11,-999,skipped,,262468,,,262404,,262468,2021-11-05T00:12:16.984Z,262488.96,1636070864,full,ni_sequenzen,NI_Sequenzen,12,3,,,,,,,,,,,,
,Move,canvas.Screen,0_3_0_3_0_12,-999,skipped,,262473,,,262404,,262474,2021-11-05T00:12:16.988Z,262488.96,1636070864,full,ni_sequenzen,NI_Sequenzen,13,3,,,,,,,,,,,,
,Move,canvas.Screen,0_3_0_3_0_13,-999,skipped,,262477,,,262404,,262477,2021-11-05T00:12:16.993Z,262488.96,1636070864,full,ni_sequenzen,NI_Sequenzen,14,3,,,,,,,,,,,,
,Move,canvas.Screen,0_3_0_3_0_14,-999,skipped,,262485,,,262404,,262485,2021-11-05T00:12:17.001Z,262488.96,1636070864,full,ni_sequenzen,NI_Sequenzen,15,3,,,,,,,,,,,,
,Loop,flow.Loop,0_3_0_3_0,-999,completion,,250039,250031.98,250048.64,262404,12355.359999999986,262485,2021-11-05T00:12:17.001Z,262488.96,1636070864,full,ni_sequenzen,NI_Sequenzen,,3,,,,,,,,,,,,
,Feedback,canvas.Screen,0_3_0_3_1,,timeout,,262488,262488.68,262488.96,266476.18,4003.8800000000047,266477,2021-11-05T00:12:20.993Z,266492.84,1636070864,full,ni_sequenzen,NI_Sequenzen,,3,,,,,,,,,,,,
,Trial,flow.Sequence,0_3_0_3,,completion,,250011,250031.98,250048.64,266476.18,16427.53999999998,266478,2021-11-05T00:12:20.993Z,266509.5,1636070864,full,ni_sequenzen,NI_Sequenzen,,3,,,,,,,,,,,,
,Move,canvas.Screen,0_3_0_4_0_0,down,response,,266503,266492.84,266509.5,267638,1128.5,267643,2021-11-05T00:12:22.159Z,267653.54,1636070864,full,ni_sequenzen,NI_Sequenzen,1,4,,,,,,,,,,,,
,Move,canvas.Screen,0_3_0_4_0_1,left,response,,267654,267653.26,267653.54,268139,485.46000000002095,268151,2021-11-05T00:12:22.667Z,268156.84,1636070864,full,ni_sequenzen,NI_Sequenzen,2,4,,,,,,,,,,,,
,Move,canvas.Screen,0_3_0_4_0_2,down,response,,268157,268156.62,268156.84,268827,670.1599999999744,268841,2021-11-05T00:12:23.356Z,268858.26,1636070864,full,ni_sequenzen,NI_Sequenzen,3,4,,,,,,,,,,,,
,Move,canvas.Screen,0_3_0_4_0_3,left,response,,268858,268857.88,268858.26,269310,451.7399999999907,269321,2021-11-05T00:12:23.836Z,269387.42,1636070864,full,ni_sequenzen,NI_Sequenzen,4,4,,,,,,,,,,,,
,Move,canvas.Screen,0_3_0_4_0_4,-999,skipped,,269326,,,269310,,269326,2021-11-05T00:12:23.842Z,269387.42,1636070864,full,ni_sequenzen,NI_Sequenzen,5,4,,,,,,,,,,,,
,Move,canvas.Screen,0_3_0_4_0_5,-999,skipped,,269339,,,269310,,269339,2021-11-05T00:12:23.854Z,269387.42,1636070864,full,ni_sequenzen,NI_Sequenzen,6,4,,,,,,,,,,,,
,Move,canvas.Screen,0_3_0_4_0_6,-999,skipped,,269342,,,269310,,269342,2021-11-05T00:12:23.857Z,269387.42,1636070864,full,ni_sequenzen,NI_Sequenzen,7,4,,,,,,,,,,,,
,Move,canvas.Screen,0_3_0_4_0_7,-999,skipped,,269349,,,269310,,269349,2021-11-05T00:12:23.864Z,269387.42,1636070864,full,ni_sequenzen,NI_Sequenzen,8,4,,,,,,,,,,,,
,Move,canvas.Screen,0_3_0_4_0_8,-999,skipped,,269352,,,269310,,269352,2021-11-05T00:12:23.867Z,269387.42,1636070864,full,ni_sequenzen,NI_Sequenzen,9,4,,,,,,,,,,,,
,Move,canvas.Screen,0_3_0_4_0_9,-999,skipped,,269355,,,269310,,269355,2021-11-05T00:12:23.871Z,269387.42,1636070864,full,ni_sequenzen,NI_Sequenzen,10,4,,,,,,,,,,,,
,Move,canvas.Screen,0_3_0_4_0_10,-999,skipped,,269360,,,269310,,269360,2021-11-05T00:12:23.875Z,269387.42,1636070864,full,ni_sequenzen,NI_Sequenzen,11,4,,,,,,,,,,,,
,Move,canvas.Screen,0_3_0_4_0_11,-999,skipped,,269368,,,269310,,269368,2021-11-05T00:12:23.883Z,269387.42,1636070864,full,ni_sequenzen,NI_Sequenzen,12,4,,,,,,,,,,,,
,Move,canvas.Screen,0_3_0_4_0_12,-999,skipped,,269372,,,269310,,269372,2021-11-05T00:12:23.887Z,269387.42,1636070864,full,ni_sequenzen,NI_Sequenzen,13,4,,,,,,,,,,,,
,Move,canvas.Screen,0_3_0_4_0_13,-999,skipped,,269376,,,269310,,269376,2021-11-05T00:12:23.891Z,269387.42,1636070864,full,ni_sequenzen,NI_Sequenzen,14,4,,,,,,,,,,,,
,Move,canvas.Screen,0_3_0_4_0_14,-999,skipped,,269384,,,269310,,269384,2021-11-05T00:12:23.900Z,269387.42,1636070864,full,ni_sequenzen,NI_Sequenzen,15,4,,,,,,,,,,,,
,Loop,flow.Loop,0_3_0_4_0,-999,completion,,266494,266492.84,266509.5,269310,2800.5,269384,2021-11-05T00:12:23.900Z,269387.42,1636070864,full,ni_sequenzen,NI_Sequenzen,,4,,,,,,,,,,,,
,Feedback,canvas.Screen,0_3_0_4_1,,timeout,,269387,269387.16,269387.42,273374.08,4003.320000000007,273375,2021-11-05T00:12:27.891Z,273390.74,1636070864,full,ni_sequenzen,NI_Sequenzen,,4,,,,,,,,,,,,
,Trial,flow.Sequence,0_3_0_4,,completion,,266479,266492.84,266509.5,273374.08,6864.580000000016,273376,2021-11-05T00:12:27.891Z,273407.4,1636070864,full,ni_sequenzen,NI_Sequenzen,,4,,,,,,,,,,,,
,Move,canvas.Screen,0_3_0_5_0_0,down,response,,273407,273390.74,273407.4,274357,949.5999999999767,274378,2021-11-05T00:12:28.894Z,274398.06,1636070864,full,ni_sequenzen,NI_Sequenzen,1,5,,,,,,,,,,,,
,Move,canvas.Screen,0_3_0_5_0_1,right,response,,274398,274397.78,274398.06,275030,631.9400000000023,275037,2021-11-05T00:12:29.553Z,275048.56,1636070864,full,ni_sequenzen,NI_Sequenzen,2,5,,,,,,,,,,,,
,Move,canvas.Screen,0_3_0_5_0_2,right,response,,275049,275048.28,275048.56,277435,2386.4400000000023,277446,2021-11-05T00:12:31.962Z,277464.32,1636070864,full,ni_sequenzen,NI_Sequenzen,3,5,,,,,,,,,,,,
,Move,canvas.Screen,0_3_0_5_0_3,down,response,,277464,277464.04,277464.32,277811,346.679999999993,277815,2021-11-05T00:12:32.330Z,277896.94,1636070864,full,ni_sequenzen,NI_Sequenzen,4,5,,,,,,,,,,,,
,Move,canvas.Screen,0_3_0_5_0_4,-999,skipped,,277834,,,277811,,277835,2021-11-05T00:12:32.350Z,277896.94,1636070864,full,ni_sequenzen,NI_Sequenzen,5,5,,,,,,,,,,,,
,Move,canvas.Screen,0_3_0_5_0_5,-999,skipped,,277845,,,277811,,277845,2021-11-05T00:12:32.360Z,277896.94,1636070864,full,ni_sequenzen,NI_Sequenzen,6,5,,,,,,,,,,,,
,Move,canvas.Screen,0_3_0_5_0_6,-999,skipped,,277850,,,277811,,277850,2021-11-05T00:12:32.365Z,277896.94,1636070864,full,ni_sequenzen,NI_Sequenzen,7,5,,,,,,,,,,,,
,Move,canvas.Screen,0_3_0_5_0_7,-999,skipped,,277854,,,277811,,277854,2021-11-05T00:12:32.369Z,277896.94,1636070864,full,ni_sequenzen,NI_Sequenzen,8,5,,,,,,,,,,,,
,Move,canvas.Screen,0_3_0_5_0_8,-999,skipped,,277863,,,277811,,277863,2021-11-05T00:12:32.379Z,277896.94,1636070864,full,ni_sequenzen,NI_Sequenzen,9,5,,,,,,,,,,,,
,Move,canvas.Screen,0_3_0_5_0_9,-999,skipped,,277867,,,277811,,277867,2021-11-05T00:12:32.382Z,277896.94,1636070864,full,ni_sequenzen,NI_Sequenzen,10,5,,,,,,,,,,,,
,Move,canvas.Screen,0_3_0_5_0_10,-999,skipped,,277872,,,277811,,277872,2021-11-05T00:12:32.387Z,277896.94,1636070864,full,ni_sequenzen,NI_Sequenzen,11,5,,,,,,,,,,,,
,Move,canvas.Screen,0_3_0_5_0_11,-999,skipped,,277878,,,277811,,277878,2021-11-05T00:12:32.393Z,277896.94,1636070864,full,ni_sequenzen,NI_Sequenzen,12,5,,,,,,,,,,,,
,Move,canvas.Screen,0_3_0_5_0_12,-999,skipped,,277882,,,277811,,277882,2021-11-05T00:12:32.397Z,277896.94,1636070864,full,ni_sequenzen,NI_Sequenzen,13,5,,,,,,,,,,,,
,Move,canvas.Screen,0_3_0_5_0_13,-999,skipped,,277885,,,277811,,277885,2021-11-05T00:12:32.401Z,277896.94,1636070864,full,ni_sequenzen,NI_Sequenzen,14,5,,,,,,,,,,,,
,Move,canvas.Screen,0_3_0_5_0_14,-999,skipped,,277889,,,277811,,277889,2021-11-05T00:12:32.404Z,277896.94,1636070864,full,ni_sequenzen,NI_Sequenzen,15,5,,,,,,,,,,,,
,Loop,flow.Loop,0_3_0_5_0,-999,completion,,273401,273390.74,273407.4,277811,4403.599999999977,277889,2021-11-05T00:12:32.405Z,277896.94,1636070864,full,ni_sequenzen,NI_Sequenzen,,5,,,,,,,,,,,,
,Feedback,canvas.Screen,0_3_0_5_1,,timeout,,277896,277896.62,277896.94,281887.86,4007.5800000000163,281889,2021-11-05T00:12:36.405Z,281904.52,1636070864,full,ni_sequenzen,NI_Sequenzen,,5,,,,,,,,,,,,
,Trial,flow.Sequence,0_3_0_5,,completion,,273379,273390.74,273407.4,281887.86,8480.459999999963,281890,2021-11-05T00:12:36.406Z,281921.18,1636070864,full,ni_sequenzen,NI_Sequenzen,,5,,,,,,,,,,,,
,Move,canvas.Screen,0_3_0_6_0_0,down,response,,281917,281904.52,281921.18,283373,1451.820000000007,283390,2021-11-05T00:12:37.906Z,283410.26,1636070864,full,ni_sequenzen,NI_Sequenzen,1,6,,,,,,,,,,,,
,Move,canvas.Screen,0_3_0_6_0_1,left,response,,283409,283409.06,283410.26,283810,399.7399999999907,283819,2021-11-05T00:12:38.334Z,283836.48,1636070864,full,ni_sequenzen,NI_Sequenzen,2,6,,,,,,,,,,,,
,Move,canvas.Screen,0_3_0_6_0_2,down,response,,283836,283836.08,283836.48,287185,3348.5200000000186,287194,2021-11-05T00:12:41.709Z,287197.9,1636070864,full,ni_sequenzen,NI_Sequenzen,3,6,,,,,,,,,,,,
,Move,canvas.Screen,0_3_0_6_0_3,left,response,,287198,287197.72,287197.9,287529,331.0999999999767,287545,2021-11-05T00:12:42.060Z,287625.32,1636070864,full,ni_sequenzen,NI_Sequenzen,4,6,,,,,,,,,,,,
,Move,canvas.Screen,0_3_0_6_0_4,-999,skipped,,287561,,,287529,,287561,2021-11-05T00:12:42.076Z,287625.32,1636070864,full,ni_sequenzen,NI_Sequenzen,5,6,,,,,,,,,,,,
,Move,canvas.Screen,0_3_0_6_0_5,-999,skipped,,287570,,,287529,,287570,2021-11-05T00:12:42.085Z,287625.32,1636070864,full,ni_sequenzen,NI_Sequenzen,6,6,,,,,,,,,,,,
,Move,canvas.Screen,0_3_0_6_0_6,-999,skipped,,287580,,,287529,,287580,2021-11-05T00:12:42.096Z,287625.32,1636070864,full,ni_sequenzen,NI_Sequenzen,7,6,,,,,,,,,,,,
,Move,canvas.Screen,0_3_0_6_0_7,-999,skipped,,287584,,,287529,,287584,2021-11-05T00:12:42.100Z,287625.32,1636070864,full,ni_sequenzen,NI_Sequenzen,8,6,,,,,,,,,,,,
,Move,canvas.Screen,0_3_0_6_0_8,-999,skipped,,287592,,,287529,,287592,2021-11-05T00:12:42.107Z,287625.32,1636070864,full,ni_sequenzen,NI_Sequenzen,9,6,,,,,,,,,,,,
,Move,canvas.Screen,0_3_0_6_0_9,-999,skipped,,287595,,,287529,,287595,2021-11-05T00:12:42.110Z,287625.32,1636070864,full,ni_sequenzen,NI_Sequenzen,10,6,,,,,,,,,,,,
,Move,canvas.Screen,0_3_0_6_0_10,-999,skipped,,287598,,,287529,,287598,2021-11-05T00:12:42.114Z,287625.32,1636070864,full,ni_sequenzen,NI_Sequenzen,11,6,,,,,,,,,,,,
,Move,canvas.Screen,0_3_0_6_0_11,-999,skipped,,287602,,,287529,,287603,2021-11-05T00:12:42.118Z,287625.32,1636070864,full,ni_sequenzen,NI_Sequenzen,12,6,,,,,,,,,,,,
,Move,canvas.Screen,0_3_0_6_0_12,-999,skipped,,287610,,,287529,,287610,2021-11-05T00:12:42.126Z,287625.32,1636070864,full,ni_sequenzen,NI_Sequenzen,13,6,,,,,,,,,,,,
,Move,canvas.Screen,0_3_0_6_0_13,-999,skipped,,287614,,,287529,,287615,2021-11-05T00:12:42.130Z,287625.32,1636070864,full,ni_sequenzen,NI_Sequenzen,14,6,,,,,,,,,,,,
,Move,canvas.Screen,0_3_0_6_0_14,-999,skipped,,287619,,,287529,,287619,2021-11-05T00:12:42.134Z,287625.32,1636070864,full,ni_sequenzen,NI_Sequenzen,15,6,,,,,,,,,,,,
,Loop,flow.Loop,0_3_0_6_0,-999,completion,,281910,281904.52,281921.18,287529,5607.820000000007,287619,2021-11-05T00:12:42.134Z,287625.32,1636070864,full,ni_sequenzen,NI_Sequenzen,,6,,,,,,,,,,,,
,Feedback,canvas.Screen,0_3_0_6_1,,timeout,,287625,287624.72,287625.32,291601.24,3992.5800000000163,291603,2021-11-05T00:12:46.118Z,291617.9,1636070864,full,ni_sequenzen,NI_Sequenzen,,6,,,,,,,,,,,,
,Trial,flow.Sequence,0_3_0_6,,completion,,281895,281904.52,281921.18,291601.24,9680.059999999998,291603,2021-11-05T00:12:46.118Z,291634.56,1636070864,full,ni_sequenzen,NI_Sequenzen,,6,,,,,,,,,,,,
,Move,canvas.Screen,0_3_0_7_0_0,down,response,,291630,291617.9,291634.56,293560,1925.4400000000023,293576,2021-11-05T00:12:48.091Z,293580.7,1636070864,full,ni_sequenzen,NI_Sequenzen,1,7,,,,,,,,,,,,
,Move,canvas.Screen,0_3_0_7_0_1,right,response,,293580,293580.44,293580.7,294341,760.2999999999884,294357,2021-11-05T00:12:48.871Z,294367.86,1636070864,full,ni_sequenzen,NI_Sequenzen,2,7,,,,,,,,,,,,
,Move,canvas.Screen,0_3_0_7_0_2,right,response,,294367,294367.48,294367.86,294749,381.14000000001397,294762,2021-11-05T00:12:49.278Z,294780.46,1636070864,full,ni_sequenzen,NI_Sequenzen,3,7,,,,,,,,,,,,
,Move,canvas.Screen,0_3_0_7_0_3,down,response,,294780,294780.1,294780.46,294966,185.53999999997905,294982,2021-11-05T00:12:49.498Z,295056,1636070864,full,ni_sequenzen,NI_Sequenzen,4,7,,,,,,,,,,,,
,Move,canvas.Screen,0_3_0_7_0_4,-999,skipped,,294997,,,294966,,294997,2021-11-05T00:12:49.513Z,295056,1636070864,full,ni_sequenzen,NI_Sequenzen,5,7,,,,,,,,,,,,
,Move,canvas.Screen,0_3_0_7_0_5,-999,skipped,,295010,,,294966,,295010,2021-11-05T00:12:49.525Z,295056,1636070864,full,ni_sequenzen,NI_Sequenzen,6,7,,,,,,,,,,,,
,Move,canvas.Screen,0_3_0_7_0_6,-999,skipped,,295014,,,294966,,295014,2021-11-05T00:12:49.531Z,295056,1636070864,full,ni_sequenzen,NI_Sequenzen,7,7,,,,,,,,,,,,
,Move,canvas.Screen,0_3_0_7_0_7,-999,skipped,,295021,,,294966,,295021,2021-11-05T00:12:49.537Z,295056,1636070864,full,ni_sequenzen,NI_Sequenzen,8,7,,,,,,,,,,,,
,Move,canvas.Screen,0_3_0_7_0_8,-999,skipped,,295026,,,294966,,295026,2021-11-05T00:12:49.540Z,295056,1636070864,full,ni_sequenzen,NI_Sequenzen,9,7,,,,,,,,,,,,
,Move,canvas.Screen,0_3_0_7_0_9,-999,skipped,,295029,,,294966,,295029,2021-11-05T00:12:49.544Z,295056,1636070864,full,ni_sequenzen,NI_Sequenzen,10,7,,,,,,,,,,,,
,Move,canvas.Screen,0_3_0_7_0_10,-999,skipped,,295032,,,294966,,295032,2021-11-05T00:12:49.549Z,295056,1636070864,full,ni_sequenzen,NI_Sequenzen,11,7,,,,,,,,,,,,
,Move,canvas.Screen,0_3_0_7_0_11,-999,skipped,,295040,,,294966,,295040,2021-11-05T00:12:49.556Z,295056,1636070864,full,ni_sequenzen,NI_Sequenzen,12,7,,,,,,,,,,,,
,Move,canvas.Screen,0_3_0_7_0_12,-999,skipped,,295044,,,294966,,295044,2021-11-05T00:12:49.560Z,295056,1636070864,full,ni_sequenzen,NI_Sequenzen,13,7,,,,,,,,,,,,
,Move,canvas.Screen,0_3_0_7_0_13,-999,skipped,,295048,,,294966,,295048,2021-11-05T00:12:49.563Z,295056,1636070864,full,ni_sequenzen,NI_Sequenzen,14,7,,,,,,,,,,,,
,Move,canvas.Screen,0_3_0_7_0_14,-999,skipped,,295051,,,294966,,295053,2021-11-05T00:12:49.568Z,295056,1636070864,full,ni_sequenzen,NI_Sequenzen,15,7,,,,,,,,,,,,
,Loop,flow.Loop,0_3_0_7_0,-999,completion,,291623,291617.9,291634.56,294966,3331.4400000000023,295053,2021-11-05T00:12:49.568Z,295056,1636070864,full,ni_sequenzen,NI_Sequenzen,,7,,,,,,,,,,,,
,Feedback,canvas.Screen,0_3_0_7_1,,timeout,,295056,295055.64,295056,299031.88,3992.539999999979,299033,2021-11-05T00:12:53.549Z,299048.54,1636070864,full,ni_sequenzen,NI_Sequenzen,,7,,,,,,,,,,,,
,Trial,flow.Sequence,0_3_0_7,,completion,,291605,291617.9,291634.56,299031.88,7397.320000000007,299034,2021-11-05T00:12:53.549Z,299065.2,1636070864,full,ni_sequenzen,NI_Sequenzen,,7,,,,,,,,,,,,
,Move,canvas.Screen,0_3_0_8_0_0,down,response,,299061,299048.54,299065.2,299671,605.7999999999884,299674,2021-11-05T00:12:54.189Z,299681.96,1636070864,full,ni_sequenzen,NI_Sequenzen,1,8,,,,,,,,,,,,
,Move,canvas.Screen,0_3_0_8_0_1,left,response,,299682,299681.64,299681.96,299904,222.03999999997905,299921,2021-11-05T00:12:54.437Z,299939.68,1636070864,full,ni_sequenzen,NI_Sequenzen,2,8,,,,,,,,,,,,
,Move,canvas.Screen,0_3_0_8_0_2,down,response,,299939,299939.3,299939.68,300138,198.32000000000698,300148,2021-11-05T00:12:54.663Z,300153.94,1636070864,full,ni_sequenzen,NI_Sequenzen,3,8,,,,,,,,,,,,
,Move,canvas.Screen,0_3_0_8_0_3,left,response,,300154,300153.74,300153.94,300279,125.05999999999767,300290,2021-11-05T00:12:54.806Z,300364.9,1636070864,full,ni_sequenzen,NI_Sequenzen,4,8,,,,,,,,,,,,
,Move,canvas.Screen,0_3_0_8_0_4,-999,skipped,,300307,,,300279,,300307,2021-11-05T00:12:54.822Z,300364.9,1636070864,full,ni_sequenzen,NI_Sequenzen,5,8,,,,,,,,,,,,
,Move,canvas.Screen,0_3_0_8_0_5,-999,skipped,,300313,,,300279,,300313,2021-11-05T00:12:54.829Z,300364.9,1636070864,full,ni_sequenzen,NI_Sequenzen,6,8,,,,,,,,,,,,
,Move,canvas.Screen,0_3_0_8_0_6,-999,skipped,,300321,,,300279,,300321,2021-11-05T00:12:54.836Z,300364.9,1636070864,full,ni_sequenzen,NI_Sequenzen,7,8,,,,,,,,,,,,
,Move,canvas.Screen,0_3_0_8_0_7,-999,skipped,,300325,,,300279,,300325,2021-11-05T00:12:54.841Z,300364.9,1636070864,full,ni_sequenzen,NI_Sequenzen,8,8,,,,,,,,,,,,
,Move,canvas.Screen,0_3_0_8_0_8,-999,skipped,,300328,,,300279,,300328,2021-11-05T00:12:54.844Z,300364.9,1636070864,full,ni_sequenzen,NI_Sequenzen,9,8,,,,,,,,,,,,
,Move,canvas.Screen,0_3_0_8_0_9,-999,skipped,,300333,,,300279,,300333,2021-11-05T00:12:54.848Z,300364.9,1636070864,full,ni_sequenzen,NI_Sequenzen,10,8,,,,,,,,,,,,
,Move,canvas.Screen,0_3_0_8_0_10,-999,skipped,,300341,,,300279,,300341,2021-11-05T00:12:54.857Z,300364.9,1636070864,full,ni_sequenzen,NI_Sequenzen,11,8,,,,,,,,,,,,
,Move,canvas.Screen,0_3_0_8_0_11,-999,skipped,,300344,,,300279,,300345,2021-11-05T00:12:54.860Z,300364.9,1636070864,full,ni_sequenzen,NI_Sequenzen,12,8,,,,,,,,,,,,
,Move,canvas.Screen,0_3_0_8_0_12,-999,skipped,,300348,,,300279,,300348,2021-11-05T00:12:54.863Z,300364.9,1636070864,full,ni_sequenzen,NI_Sequenzen,13,8,,,,,,,,,,,,
,Move,canvas.Screen,0_3_0_8_0_13,-999,skipped,,300355,,,300279,,300356,2021-11-05T00:12:54.871Z,300364.9,1636070864,full,ni_sequenzen,NI_Sequenzen,14,8,,,,,,,,,,,,
,Move,canvas.Screen,0_3_0_8_0_14,-999,skipped,,300358,,,300279,,300358,2021-11-05T00:12:54.875Z,300364.9,1636070864,full,ni_sequenzen,NI_Sequenzen,15,8,,,,,,,,,,,,
,Loop,flow.Loop,0_3_0_8_0,-999,completion,,299055,299048.54,299065.2,300279,1213.7999999999884,300359,2021-11-05T00:12:54.875Z,300364.9,1636070864,full,ni_sequenzen,NI_Sequenzen,,8,,,,,,,,,,,,
,Feedback,canvas.Screen,0_3_0_8_1,,timeout,,300361,300361.58,300364.9,304347.06,4015.399999999965,304352,2021-11-05T00:12:58.868Z,304380.3,1636070864,full,ni_sequenzen,NI_Sequenzen,,8,,,,,,,,,,,,
,Trial,flow.Sequence,0_3_0_8,,completion,,299036,299048.54,299065.2,304347.06,5281.859999999986,304355,2021-11-05T00:12:58.871Z,304396.96,1636070864,full,ni_sequenzen,NI_Sequenzen,,8,,,,,,,,,,,,
,Move,canvas.Screen,0_3_0_9_0_0,down,response,,304394,304380.3,304396.96,305280,883.039999999979,305294,2021-11-05T00:12:59.810Z,305313.08,1636070864,full,ni_sequenzen,NI_Sequenzen,1,9,,,,,,,,,,,,
,Move,canvas.Screen,0_3_0_9_0_1,right,response,,305312,305312.8,305313.08,305530,216.9199999999837,305540,2021-11-05T00:13:00.056Z,305546.24,1636070864,full,ni_sequenzen,NI_Sequenzen,2,9,,,,,,,,,,,,
,Move,canvas.Screen,0_3_0_9_0_2,right,response,,305546,305546.02,305546.24,305796,249.7600000000093,305807,2021-11-05T00:13:00.323Z,305829.6,1636070864,full,ni_sequenzen,NI_Sequenzen,3,9,,,,,,,,,,,,
,Move,canvas.Screen,0_3_0_9_0_3,down,response,,305828,305828.22,305829.6,306061,231.40000000002328,306065,2021-11-05T00:13:00.581Z,306139.88,1636070864,full,ni_sequenzen,NI_Sequenzen,4,9,,,,,,,,,,,,
,Move,canvas.Screen,0_3_0_9_0_4,-999,skipped,,306074,,,306061,,306075,2021-11-05T00:13:00.590Z,306139.88,1636070864,full,ni_sequenzen,NI_Sequenzen,5,9,,,,,,,,,,,,
,Move,canvas.Screen,0_3_0_9_0_5,-999,skipped,,306081,,,306061,,306081,2021-11-05T00:13:00.596Z,306139.88,1636070864,full,ni_sequenzen,NI_Sequenzen,6,9,,,,,,,,,,,,
,Move,canvas.Screen,0_3_0_9_0_6,-999,skipped,,306089,,,306061,,306089,2021-11-05T00:13:00.603Z,306139.88,1636070864,full,ni_sequenzen,NI_Sequenzen,7,9,,,,,,,,,,,,
,Move,canvas.Screen,0_3_0_9_0_7,-999,skipped,,306092,,,306061,,306092,2021-11-05T00:13:00.608Z,306139.88,1636070864,full,ni_sequenzen,NI_Sequenzen,8,9,,,,,,,,,,,,
,Move,canvas.Screen,0_3_0_9_0_8,-999,skipped,,306097,,,306061,,306097,2021-11-05T00:13:00.612Z,306139.88,1636070864,full,ni_sequenzen,NI_Sequenzen,9,9,,,,,,,,,,,,
,Move,canvas.Screen,0_3_0_9_0_9,-999,skipped,,306106,,,306061,,306106,2021-11-05T00:13:00.622Z,306139.88,1636070864,full,ni_sequenzen,NI_Sequenzen,10,9,,,,,,,,,,,,
,Move,canvas.Screen,0_3_0_9_0_10,-999,skipped,,306111,,,306061,,306111,2021-11-05T00:13:00.626Z,306139.88,1636070864,full,ni_sequenzen,NI_Sequenzen,11,9,,,,,,,,,,,,
,Move,canvas.Screen,0_3_0_9_0_11,-999,skipped,,306118,,,306061,,306118,2021-11-05T00:13:00.634Z,306139.88,1636070864,full,ni_sequenzen,NI_Sequenzen,12,9,,,,,,,,,,,,
,Move,canvas.Screen,0_3_0_9_0_12,-999,skipped,,306122,,,306061,,306122,2021-11-05T00:13:00.638Z,306139.88,1636070864,full,ni_sequenzen,NI_Sequenzen,13,9,,,,,,,,,,,,
,Move,canvas.Screen,0_3_0_9_0_13,-999,skipped,,306126,,,306061,,306126,2021-11-05T00:13:00.643Z,306139.88,1636070864,full,ni_sequenzen,NI_Sequenzen,14,9,,,,,,,,,,,,
,Move,canvas.Screen,0_3_0_9_0_14,-999,skipped,,306133,,,306061,,306135,2021-11-05T00:13:00.651Z,306139.88,1636070864,full,ni_sequenzen,NI_Sequenzen,15,9,,,,,,,,,,,,
,Loop,flow.Loop,0_3_0_9_0,-999,completion,,304387,304380.3,304396.96,306061,1664.039999999979,306136,2021-11-05T00:13:00.651Z,306139.88,1636070864,full,ni_sequenzen,NI_Sequenzen,,9,,,,,,,,,,,,
,Feedback,canvas.Screen,0_3_0_9_1,,timeout,,306139,306139.56,306139.88,310128.22,4121.520000000019,310129,2021-11-05T00:13:04.645Z,310261.4,1636070864,full,ni_sequenzen,NI_Sequenzen,,9,,,,,,,,,,,,
,Trial,flow.Sequence,0_3_0_9,,completion,,304359,304380.3,304396.96,310128.22,5731.259999999951,310129,2021-11-05T00:13:04.645Z,310262.32,1636070864,full,ni_sequenzen,NI_Sequenzen,,9,,,,,,,,,,,,
,Block,flow.Loop,0_3_0,,completion,,173102,173120.36,173124.52,310128.22,137003.69999999998,310129,2021-11-05T00:13:04.645Z,310262.32,1636070864,full,ni_sequenzen,NI_Sequenzen,,,,,,,,,,,,,,
,Training_II,flow.Sequence,0_3,,completion,,173082,173120.36,173124.52,310128.22,137003.69999999998,310131,2021-11-05T00:13:04.647Z,310262.32,1636070864,full,ni_sequenzen,NI_Sequenzen,,,,,,,,,,,,,,
,Screen_1,canvas.Screen,0_4_0_0,cont,response,1,310261,310261.4,310262.32,320732,10469.679999999993,320749,2021-11-05T00:13:15.265Z,320757.92,1636070864,full,ni_sequenzen,NI_Sequenzen,,,,,,,,,,,,,,
,Screen_2,canvas.Screen,0_4_0_1,cont,response,1,320753,320753.56,320757.92,332466,11708.080000000016,332470,2021-11-05T00:13:26.986Z,332570.7,1636070864,full,ni_sequenzen,NI_Sequenzen,,,,,,,,,,,,,,
,Screen_3,canvas.Screen,0_4_0_2,cont,response,1,332568,332568.1,332570.7,343733,11162.299999999988,343741,2021-11-05T00:13:38.256Z,343904.7,1636070864,full,ni_sequenzen,NI_Sequenzen,,,,,,,,,,,,,,
,Sequence,flow.Sequence,0_4_0,,completion,1,310156,310261.4,310262.32,343733,33470.67999999999,343741,2021-11-05T00:13:38.257Z,343904.7,1636070864,full,ni_sequenzen,NI_Sequenzen,,,,,,,,,,,,,,
,Screen_1,canvas.Screen,0_4_1_0,,skipped,2,343745,,,343745,,343745,2021-11-05T00:13:38.261Z,343904.7,1636070864,full,ni_sequenzen,NI_Sequenzen,,,,,,,,,,,,,,
,Screen_2,canvas.Screen,0_4_1_1,,skipped,2,343748,,,343745,,343748,2021-11-05T00:13:38.264Z,343904.7,1636070864,full,ni_sequenzen,NI_Sequenzen,,,,,,,,,,,,,,
,Screen_3,canvas.Screen,0_4_1_2,,skipped,2,343753,,,343745,,343754,2021-11-05T00:13:38.270Z,343904.7,1636070864,full,ni_sequenzen,NI_Sequenzen,,,,,,,,,,,,,,
,Sequence,flow.Sequence,0_4_1,,completion,2,343743,,,343745,,343756,2021-11-05T00:13:38.272Z,343904.7,1636070864,full,ni_sequenzen,NI_Sequenzen,,,,,,,,,,,,,,
,Screen_1,canvas.Screen,0_4_2_0,,skipped,3,343759,,,343759,,343759,2021-11-05T00:13:38.274Z,343904.7,1636070864,full,ni_sequenzen,NI_Sequenzen,,,,,,,,,,,,,,
,Screen_2,canvas.Screen,0_4_2_1,,skipped,3,343761,,,343759,,343761,2021-11-05T00:13:38.277Z,343904.7,1636070864,full,ni_sequenzen,NI_Sequenzen,,,,,,,,,,,,,,
,Screen_3,canvas.Screen,0_4_2_2,,skipped,3,343762,,,343759,,343762,2021-11-05T00:13:38.278Z,343904.7,1636070864,full,ni_sequenzen,NI_Sequenzen,,,,,,,,,,,,,,
,Sequence,flow.Sequence,0_4_2,,completion,3,343757,,,343759,,343763,2021-11-05T00:13:38.278Z,343904.7,1636070864,full,ni_sequenzen,NI_Sequenzen,,,,,,,,,,,,,,
,Screen_1,canvas.Screen,0_4_3_0,,skipped,4,343764,,,343764,,343764,2021-11-05T00:13:38.280Z,343904.7,1636070864,full,ni_sequenzen,NI_Sequenzen,,,,,,,,,,,,,,
,Screen_2,canvas.Screen,0_4_3_1,,skipped,4,343766,,,343764,,343766,2021-11-05T00:13:38.282Z,343904.7,1636070864,full,ni_sequenzen,NI_Sequenzen,,,,,,,,,,,,,,
,Screen_3,canvas.Screen,0_4_3_2,,skipped,4,343767,,,343764,,343768,2021-11-05T00:13:38.283Z,343904.7,1636070864,full,ni_sequenzen,NI_Sequenzen,,,,,,,,,,,,,,
,Sequence,flow.Sequence,0_4_3,,completion,4,343763,,,343764,,343768,2021-11-05T00:13:38.283Z,343904.7,1636070864,full,ni_sequenzen,NI_Sequenzen,,,,,,,,,,,,,,
,Screen_1,canvas.Screen,0_4_4_0,,skipped,5,343773,,,343773,,343773,2021-11-05T00:13:38.288Z,343904.7,1636070864,full,ni_sequenzen,NI_Sequenzen,,,,,,,,,,,,,,
,Screen_2,canvas.Screen,0_4_4_1,,skipped,5,343774,,,343773,,343775,2021-11-05T00:13:38.289Z,343904.7,1636070864,full,ni_sequenzen,NI_Sequenzen,,,,,,,,,,,,,,
,Screen_3,canvas.Screen,0_4_4_2,,skipped,5,343776,,,343773,,343776,2021-11-05T00:13:38.291Z,343904.7,1636070864,full,ni_sequenzen,NI_Sequenzen,,,,,,,,,,,,,,
,Sequence,flow.Sequence,0_4_4,,completion,5,343768,,,343773,,343776,2021-11-05T00:13:38.291Z,343904.7,1636070864,full,ni_sequenzen,NI_Sequenzen,,,,,,,,,,,,,,
,Screen_1,canvas.Screen,0_4_5_0,,skipped,6,343777,,,343777,,343777,2021-11-05T00:13:38.292Z,343904.7,1636070864,full,ni_sequenzen,NI_Sequenzen,,,,,,,,,,,,,,
,Screen_2,canvas.Screen,0_4_5_1,,skipped,6,343778,,,343777,,343778,2021-11-05T00:13:38.293Z,343904.7,1636070864,full,ni_sequenzen,NI_Sequenzen,,,,,,,,,,,,,,
,Screen_3,canvas.Screen,0_4_5_2,,skipped,6,343778,,,343777,,343778,2021-11-05T00:13:38.294Z,343904.7,1636070864,full,ni_sequenzen,NI_Sequenzen,,,,,,,,,,,,,,
,Sequence,flow.Sequence,0_4_5,,completion,6,343776,,,343777,,343778,2021-11-05T00:13:38.294Z,343904.7,1636070864,full,ni_sequenzen,NI_Sequenzen,,,,,,,,,,,,,,
,Screen_1,canvas.Screen,0_4_6_0,,skipped,7,343780,,,343780,,343780,2021-11-05T00:13:38.295Z,343904.7,1636070864,full,ni_sequenzen,NI_Sequenzen,,,,,,,,,,,,,,
,Screen_2,canvas.Screen,0_4_6_1,,skipped,7,343781,,,343780,,343781,2021-11-05T00:13:38.296Z,343904.7,1636070864,full,ni_sequenzen,NI_Sequenzen,,,,,,,,,,,,,,
,Screen_3,canvas.Screen,0_4_6_2,,skipped,7,343782,,,343780,,343782,2021-11-05T00:13:38.297Z,343904.7,1636070864,full,ni_sequenzen,NI_Sequenzen,,,,,,,,,,,,,,
,Sequence,flow.Sequence,0_4_6,,completion,7,343779,,,343780,,343782,2021-11-05T00:13:38.297Z,343904.7,1636070864,full,ni_sequenzen,NI_Sequenzen,,,,,,,,,,,,,,
,Screen_1,canvas.Screen,0_4_7_0,,skipped,8,343784,,,343784,,343784,2021-11-05T00:13:38.299Z,343904.7,1636070864,full,ni_sequenzen,NI_Sequenzen,,,,,,,,,,,,,,
,Screen_2,canvas.Screen,0_4_7_1,,skipped,8,343785,,,343784,,343786,2021-11-05T00:13:38.301Z,343904.7,1636070864,full,ni_sequenzen,NI_Sequenzen,,,,,,,,,,,,,,
,Screen_3,canvas.Screen,0_4_7_2,,skipped,8,343790,,,343784,,343790,2021-11-05T00:13:38.305Z,343904.7,1636070864,full,ni_sequenzen,NI_Sequenzen,,,,,,,,,,,,,,
,Sequence,flow.Sequence,0_4_7,,completion,8,343783,,,343784,,343790,2021-11-05T00:13:38.305Z,343904.7,1636070864,full,ni_sequenzen,NI_Sequenzen,,,,,,,,,,,,,,
,Screen_1,canvas.Screen,0_4_8_0,,skipped,9,343791,,,343791,,343791,2021-11-05T00:13:38.307Z,343904.7,1636070864,full,ni_sequenzen,NI_Sequenzen,,,,,,,,,,,,,,
,Screen_2,canvas.Screen,0_4_8_1,,skipped,9,343792,,,343791,,343792,2021-11-05T00:13:38.308Z,343904.7,1636070864,full,ni_sequenzen,NI_Sequenzen,,,,,,,,,,,,,,
,Screen_3,canvas.Screen,0_4_8_2,,skipped,9,343794,,,343791,,343794,2021-11-05T00:13:38.310Z,343904.7,1636070864,full,ni_sequenzen,NI_Sequenzen,,,,,,,,,,,,,,
,Sequence,flow.Sequence,0_4_8,,completion,9,343790,,,343791,,343794,2021-11-05T00:13:38.310Z,343904.7,1636070864,full,ni_sequenzen,NI_Sequenzen,,,,,,,,,,,,,,
,Screen_1,canvas.Screen,0_4_9_0,,skipped,10,343797,,,343797,,343797,2021-11-05T00:13:38.312Z,343904.7,1636070864,full,ni_sequenzen,NI_Sequenzen,,,,,,,,,,,,,,
,Screen_2,canvas.Screen,0_4_9_1,,skipped,10,343798,,,343797,,343798,2021-11-05T00:13:38.313Z,343904.7,1636070864,full,ni_sequenzen,NI_Sequenzen,,,,,,,,,,,,,,
,Screen_3,canvas.Screen,0_4_9_2,,skipped,10,343799,,,343797,,343799,2021-11-05T00:13:38.314Z,343904.7,1636070864,full,ni_sequenzen,NI_Sequenzen,,,,,,,,,,,,,,
,Sequence,flow.Sequence,0_4_9,,completion,10,343795,,,343797,,343799,2021-11-05T00:13:38.314Z,343904.7,1636070864,full,ni_sequenzen,NI_Sequenzen,,,,,,,,,,,,,,
,Screen_1,canvas.Screen,0_4_10_0,,skipped,11,343800,,,343800,,343800,2021-11-05T00:13:38.315Z,343904.7,1636070864,full,ni_sequenzen,NI_Sequenzen,,,,,,,,,,,,,,
,Screen_2,canvas.Screen,0_4_10_1,,skipped,11,343801,,,343800,,343801,2021-11-05T00:13:38.317Z,343904.7,1636070864,full,ni_sequenzen,NI_Sequenzen,,,,,,,,,,,,,,
,Screen_3,canvas.Screen,0_4_10_2,,skipped,11,343805,,,343800,,343805,2021-11-05T00:13:38.321Z,343904.7,1636070864,full,ni_sequenzen,NI_Sequenzen,,,,,,,,,,,,,,
,Sequence,flow.Sequence,0_4_10,,completion,11,343800,,,343800,,343806,2021-11-05T00:13:38.321Z,343904.7,1636070864,full,ni_sequenzen,NI_Sequenzen,,,,,,,,,,,,,,
,Screen_1,canvas.Screen,0_4_11_0,,skipped,12,343807,,,343807,,343807,2021-11-05T00:13:38.322Z,343904.7,1636070864,full,ni_sequenzen,NI_Sequenzen,,,,,,,,,,,,,,
,Screen_2,canvas.Screen,0_4_11_1,,skipped,12,343808,,,343807,,343808,2021-11-05T00:13:38.323Z,343904.7,1636070864,full,ni_sequenzen,NI_Sequenzen,,,,,,,,,,,,,,
,Screen_3,canvas.Screen,0_4_11_2,,skipped,12,343808,,,343807,,343809,2021-11-05T00:13:38.324Z,343904.7,1636070864,full,ni_sequenzen,NI_Sequenzen,,,,,,,,,,,,,,
,Sequence,flow.Sequence,0_4_11,,completion,12,343806,,,343807,,343809,2021-11-05T00:13:38.325Z,343904.7,1636070864,full,ni_sequenzen,NI_Sequenzen,,,,,,,,,,,,,,
,Screen_1,canvas.Screen,0_4_12_0,,skipped,13,343809,,,343809,,343809,2021-11-05T00:13:38.326Z,343904.7,1636070864,full,ni_sequenzen,NI_Sequenzen,,,,,,,,,,,,,,
,Screen_2,canvas.Screen,0_4_12_1,,skipped,13,343810,,,343809,,343810,2021-11-05T00:13:38.326Z,343904.7,1636070864,full,ni_sequenzen,NI_Sequenzen,,,,,,,,,,,,,,
,Screen_3,canvas.Screen,0_4_12_2,,skipped,13,343813,,,343809,,343813,2021-11-05T00:13:38.328Z,343904.7,1636070864,full,ni_sequenzen,NI_Sequenzen,,,,,,,,,,,,,,
,Sequence,flow.Sequence,0_4_12,,completion,13,343809,,,343809,,343813,2021-11-05T00:13:38.328Z,343904.7,1636070864,full,ni_sequenzen,NI_Sequenzen,,,,,,,,,,,,,,
,Screen_1,canvas.Screen,0_4_13_0,,skipped,14,343815,,,343815,,343815,2021-11-05T00:13:38.330Z,343904.7,1636070864,full,ni_sequenzen,NI_Sequenzen,,,,,,,,,,,,,,
,Screen_2,canvas.Screen,0_4_13_1,,skipped,14,343815,,,343815,,343815,2021-11-05T00:13:38.331Z,343904.7,1636070864,full,ni_sequenzen,NI_Sequenzen,,,,,,,,,,,,,,
,Screen_3,canvas.Screen,0_4_13_2,,skipped,14,343816,,,343815,,343816,2021-11-05T00:13:38.332Z,343904.7,1636070864,full,ni_sequenzen,NI_Sequenzen,,,,,,,,,,,,,,
,Sequence,flow.Sequence,0_4_13,,completion,14,343814,,,343815,,343816,2021-11-05T00:13:38.332Z,343904.7,1636070864,full,ni_sequenzen,NI_Sequenzen,,,,,,,,,,,,,,
,Screen_1,canvas.Screen,0_4_14_0,,skipped,15,343817,,,343817,,343818,2021-11-05T00:13:38.333Z,343904.7,1636070864,full,ni_sequenzen,NI_Sequenzen,,,,,,,,,,,,,,
,Screen_2,canvas.Screen,0_4_14_1,,skipped,15,343822,,,343817,,343822,2021-11-05T00:13:38.338Z,343904.7,1636070864,full,ni_sequenzen,NI_Sequenzen,,,,,,,,,,,,,,
,Screen_3,canvas.Screen,0_4_14_2,,skipped,15,343824,,,343817,,343824,2021-11-05T00:13:38.339Z,343904.7,1636070864,full,ni_sequenzen,NI_Sequenzen,,,,,,,,,,,,,,
,Sequence,flow.Sequence,0_4_14,,completion,15,343816,,,343817,,343824,2021-11-05T00:13:38.339Z,343904.7,1636070864,full,ni_sequenzen,NI_Sequenzen,,,,,,,,,,,,,,
,Screen_1,canvas.Screen,0_4_15_0,,skipped,16,343825,,,343825,,343825,2021-11-05T00:13:38.341Z,343904.7,1636070864,full,ni_sequenzen,NI_Sequenzen,,,,,,,,,,,,,,
,Screen_2,canvas.Screen,0_4_15_1,,skipped,16,343826,,,343825,,343826,2021-11-05T00:13:38.342Z,343904.7,1636070864,full,ni_sequenzen,NI_Sequenzen,,,,,,,,,,,,,,
,Screen_3,canvas.Screen,0_4_15_2,,skipped,16,343827,,,343825,,343827,2021-11-05T00:13:38.342Z,343904.7,1636070864,full,ni_sequenzen,NI_Sequenzen,,,,,,,,,,,,,,
,Sequence,flow.Sequence,0_4_15,,completion,16,343824,,,343825,,343827,2021-11-05T00:13:38.343Z,343904.7,1636070864,full,ni_sequenzen,NI_Sequenzen,,,,,,,,,,,,,,
,Screen_1,canvas.Screen,0_4_16_0,,skipped,17,343828,,,343828,,343828,2021-11-05T00:13:38.344Z,343904.7,1636070864,full,ni_sequenzen,NI_Sequenzen,,,,,,,,,,,,,,
,Screen_2,canvas.Screen,0_4_16_1,,skipped,17,343829,,,343828,,343829,2021-11-05T00:13:38.345Z,343904.7,1636070864,full,ni_sequenzen,NI_Sequenzen,,,,,,,,,,,,,,
,Screen_3,canvas.Screen,0_4_16_2,,skipped,17,343830,,,343828,,343830,2021-11-05T00:13:38.346Z,343904.7,1636070864,full,ni_sequenzen,NI_Sequenzen,,,,,,,,,,,,,,
,Sequence,flow.Sequence,0_4_16,,completion,17,343827,,,343828,,343830,2021-11-05T00:13:38.346Z,343904.7,1636070864,full,ni_sequenzen,NI_Sequenzen,,,,,,,,,,,,,,
,Screen_1,canvas.Screen,0_4_17_0,,skipped,18,343831,,,343831,,343831,2021-11-05T00:13:38.347Z,343904.7,1636070864,full,ni_sequenzen,NI_Sequenzen,,,,,,,,,,,,,,
