meta,sender,sender_type,sender_id,response,ended_on,instrCount,time_run,time_render,time_show,time_end,duration,time_commit,timestamp,time_switch,openLabId,type,task,project,move,trialN,blockN_Train,blockN,moveCount,currPP,points,movesTrial,visitedFields,diff,reward,Strategie,Zweck,Probleme
[object Object],Screen_1,canvas.Screen,0_0_0_0,cont,response,1,1002,994.512,1111.317,11285.40000000596,10174.083000005961,11292.199999988079,2021-11-10T08:46:06.116Z,11426.89,1636533927,full,ni_sequenzen,NI_Sequenzen,,,,,,,,,,,,,,
,Screen_2,canvas.Screen,0_0_0_1,cont,response,1,11398.300000011921,11393.67,11426.89,29621.09999999404,18194.20999999404,29622.69999998808,2021-11-10T08:46:24.447Z,29704.496,1636533927,full,ni_sequenzen,NI_Sequenzen,,,,,,,,,,,,,,
,Screen_3,canvas.Screen,0_0_0_2,cont,response,1,29698.40000000596,29688.263,29704.496,41501.40000000596,11796.904000005961,41502.59999999404,2021-11-10T08:46:36.327Z,41522.316,1636533927,full,ni_sequenzen,NI_Sequenzen,,,,,,,,,,,,,,
,Screen_4,canvas.Screen,0_0_0_3,cont,response,1,41511,41506.49,41522.316,48884,7361.684000000001,48885.19999998808,2021-11-10T08:46:43.709Z,49217.285,1636533927,full,ni_sequenzen,NI_Sequenzen,,,,,,,,,,,,,,
,Sequence,flow.Sequence,0_0_0,,completion,1,917.9000000059605,994.512,1111.317,48884,47772.683,48891.80000001192,2021-11-10T08:46:43.716Z,49217.285,1636533927,full,ni_sequenzen,NI_Sequenzen,,,,,,,,,,,,,,
,Screen_1,canvas.Screen,0_0_1_0,,skipped,2,48897.30000001192,,,48897.30000001192,,48897.59999999404,2021-11-10T08:46:43.722Z,49217.285,1636533927,full,ni_sequenzen,NI_Sequenzen,,,,,,,,,,,,,,
,Screen_2,canvas.Screen,0_0_1_1,,skipped,2,48901.09999999404,,,48897.30000001192,,48901.40000000596,2021-11-10T08:46:43.726Z,49217.285,1636533927,full,ni_sequenzen,NI_Sequenzen,,,,,,,,,,,,,,
,Screen_3,canvas.Screen,0_0_1_2,,skipped,2,48904.69999998808,,,48897.30000001192,,48905,2021-11-10T08:46:43.729Z,49217.285,1636533927,full,ni_sequenzen,NI_Sequenzen,,,,,,,,,,,,,,
,Screen_4,canvas.Screen,0_0_1_3,,skipped,2,48907.90000000596,,,48897.30000001192,,48908.59999999404,2021-11-10T08:46:43.733Z,49217.285,1636533927,full,ni_sequenzen,NI_Sequenzen,,,,,,,,,,,,,,
,Sequence,flow.Sequence,0_0_1,,completion,2,48893.90000000596,,,48897.30000001192,,48909.09999999404,2021-11-10T08:46:43.733Z,49217.285,1636533927,full,ni_sequenzen,NI_Sequenzen,,,,,,,,,,,,,,
,Screen_1,canvas.Screen,0_0_2_0,,skipped,3,48912.59999999404,,,48912.69999998808,,48912.90000000596,2021-11-10T08:46:43.737Z,49217.285,1636533927,full,ni_sequenzen,NI_Sequenzen,,,,,,,,,,,,,,
,Screen_2,canvas.Screen,0_0_2_1,,skipped,3,48915.30000001192,,,48912.69999998808,,48915.5,2021-11-10T08:46:43.740Z,49217.285,1636533927,full,ni_sequenzen,NI_Sequenzen,,,,,,,,,,,,,,
,Screen_3,canvas.Screen,0_0_2_2,,skipped,3,48918.5,,,48912.69999998808,,48918.69999998808,2021-11-10T08:46:43.743Z,49217.285,1636533927,full,ni_sequenzen,NI_Sequenzen,,,,,,,,,,,,,,
,Screen_4,canvas.Screen,0_0_2_3,,skipped,3,48921.09999999404,,,48912.69999998808,,48921.40000000596,2021-11-10T08:46:43.745Z,49217.285,1636533927,full,ni_sequenzen,NI_Sequenzen,,,,,,,,,,,,,,
,Sequence,flow.Sequence,0_0_2,,completion,3,48910.09999999404,,,48912.69999998808,,48921.80000001192,2021-11-10T08:46:43.746Z,49217.285,1636533927,full,ni_sequenzen,NI_Sequenzen,,,,,,,,,,,,,,
,Screen_1,canvas.Screen,0_0_3_0,,skipped,4,48924.80000001192,,,48924.80000001192,,48925,2021-11-10T08:46:43.749Z,49217.285,1636533927,full,ni_sequenzen,NI_Sequenzen,,,,,,,,,,,,,,
,Screen_2,canvas.Screen,0_0_3_1,,skipped,4,48927.19999998808,,,48924.80000001192,,48927.40000000596,2021-11-10T08:46:43.752Z,49217.285,1636533927,full,ni_sequenzen,NI_Sequenzen,,,,,,,,,,,,,,
,Screen_3,canvas.Screen,0_0_3_2,,skipped,4,48930.19999998808,,,48924.80000001192,,48930.40000000596,2021-11-10T08:46:43.755Z,49217.285,1636533927,full,ni_sequenzen,NI_Sequenzen,,,,,,,,,,,,,,
,Screen_4,canvas.Screen,0_0_3_3,,skipped,4,48932.80000001192,,,48924.80000001192,,48933,2021-11-10T08:46:43.757Z,49217.285,1636533927,full,ni_sequenzen,NI_Sequenzen,,,,,,,,,,,,,,
,Sequence,flow.Sequence,0_0_3,,completion,4,48922.69999998808,,,48924.80000001192,,48933.40000000596,2021-11-10T08:46:43.758Z,49217.285,1636533927,full,ni_sequenzen,NI_Sequenzen,,,,,,,,,,,,,,
,Screen_1,canvas.Screen,0_0_4_0,,skipped,5,48936.59999999404,,,48936.59999999404,,48936.80000001192,2021-11-10T08:46:43.761Z,49217.285,1636533927,full,ni_sequenzen,NI_Sequenzen,,,,,,,,,,,,,,
,Screen_2,canvas.Screen,0_0_4_1,,skipped,5,48941.19999998808,,,48936.59999999404,,48941.30000001192,2021-11-10T08:46:43.765Z,49217.285,1636533927,full,ni_sequenzen,NI_Sequenzen,,,,,,,,,,,,,,
,Screen_3,canvas.Screen,0_0_4_2,,skipped,5,48943.80000001192,,,48936.59999999404,,48943.90000000596,2021-11-10T08:46:43.768Z,49217.285,1636533927,full,ni_sequenzen,NI_Sequenzen,,,,,,,,,,,,,,
,Screen_4,canvas.Screen,0_0_4_3,,skipped,5,48946.30000001192,,,48936.59999999404,,48946.5,2021-11-10T08:46:43.771Z,49217.285,1636533927,full,ni_sequenzen,NI_Sequenzen,,,,,,,,,,,,,,
,Sequence,flow.Sequence,0_0_4,,completion,5,48934.40000000596,,,48936.59999999404,,48946.90000000596,2021-11-10T08:46:43.771Z,49217.285,1636533927,full,ni_sequenzen,NI_Sequenzen,,,,,,,,,,,,,,
,Screen_1,canvas.Screen,0_0_5_0,,skipped,6,48950.30000001192,,,48950.40000000596,,48950.5,2021-11-10T08:46:43.775Z,49217.285,1636533927,full,ni_sequenzen,NI_Sequenzen,,,,,,,,,,,,,,
,Screen_2,canvas.Screen,0_0_5_1,,skipped,6,48952.90000000596,,,48950.40000000596,,48953.09999999404,2021-11-10T08:46:43.777Z,49217.285,1636533927,full,ni_sequenzen,NI_Sequenzen,,,,,,,,,,,,,,
,Screen_3,canvas.Screen,0_0_5_2,,skipped,6,48955.69999998808,,,48950.40000000596,,48955.90000000596,2021-11-10T08:46:43.780Z,49217.285,1636533927,full,ni_sequenzen,NI_Sequenzen,,,,,,,,,,,,,,
,Screen_4,canvas.Screen,0_0_5_3,,skipped,6,48958.19999998808,,,48950.40000000596,,48958.5,2021-11-10T08:46:43.783Z,49217.285,1636533927,full,ni_sequenzen,NI_Sequenzen,,,,,,,,,,,,,,
,Sequence,flow.Sequence,0_0_5,,completion,6,48947.80000001192,,,48950.40000000596,,48958.80000001192,2021-11-10T08:46:43.783Z,49217.285,1636533927,full,ni_sequenzen,NI_Sequenzen,,,,,,,,,,,,,,
,Screen_1,canvas.Screen,0_0_6_0,,skipped,7,48961.80000001192,,,48961.90000000596,,48962,2021-11-10T08:46:43.786Z,49217.285,1636533927,full,ni_sequenzen,NI_Sequenzen,,,,,,,,,,,,,,
,Screen_2,canvas.Screen,0_0_6_1,,skipped,7,48964.19999998808,,,48961.90000000596,,48964.5,2021-11-10T08:46:43.789Z,49217.285,1636533927,full,ni_sequenzen,NI_Sequenzen,,,,,,,,,,,,,,
,Screen_3,canvas.Screen,0_0_6_2,,skipped,7,48966.90000000596,,,48961.90000000596,,48967.09999999404,2021-11-10T08:46:43.791Z,49217.285,1636533927,full,ni_sequenzen,NI_Sequenzen,,,,,,,,,,,,,,
,Screen_4,canvas.Screen,0_0_6_3,,skipped,7,48969.5,,,48961.90000000596,,48969.80000001192,2021-11-10T08:46:43.794Z,49217.285,1636533927,full,ni_sequenzen,NI_Sequenzen,,,,,,,,,,,,,,
,Sequence,flow.Sequence,0_0_6,,completion,7,48959.69999998808,,,48961.90000000596,,48970.09999999404,2021-11-10T08:46:43.794Z,49217.285,1636533927,full,ni_sequenzen,NI_Sequenzen,,,,,,,,,,,,,,
,Screen_1,canvas.Screen,0_0_7_0,,skipped,8,48973.09999999404,,,48973.09999999404,,48973.19999998808,2021-11-10T08:46:43.797Z,49217.285,1636533927,full,ni_sequenzen,NI_Sequenzen,,,,,,,,,,,,,,
,Screen_2,canvas.Screen,0_0_7_1,,skipped,8,48975.5,,,48973.09999999404,,48975.59999999404,2021-11-10T08:46:43.800Z,49217.285,1636533927,full,ni_sequenzen,NI_Sequenzen,,,,,,,,,,,,,,
,Screen_3,canvas.Screen,0_0_7_2,,skipped,8,48981.30000001192,,,48973.09999999404,,48981.69999998808,2021-11-10T08:46:43.806Z,49217.285,1636533927,full,ni_sequenzen,NI_Sequenzen,,,,,,,,,,,,,,
,Screen_4,canvas.Screen,0_0_7_3,,skipped,8,48985,,,48973.09999999404,,48985.09999999404,2021-11-10T08:46:43.809Z,49217.285,1636533927,full,ni_sequenzen,NI_Sequenzen,,,,,,,,,,,,,,
,Sequence,flow.Sequence,0_0_7,,completion,8,48971,,,48973.09999999404,,48985.69999998808,2021-11-10T08:46:43.810Z,49217.285,1636533927,full,ni_sequenzen,NI_Sequenzen,,,,,,,,,,,,,,
,Screen_1,canvas.Screen,0_0_8_0,,skipped,9,48989.09999999404,,,48989.09999999404,,48989.30000001192,2021-11-10T08:46:43.813Z,49217.285,1636533927,full,ni_sequenzen,NI_Sequenzen,,,,,,,,,,,,,,
,Screen_2,canvas.Screen,0_0_8_1,,skipped,9,48991.40000000596,,,48989.09999999404,,48991.69999998808,2021-11-10T08:46:43.816Z,49217.285,1636533927,full,ni_sequenzen,NI_Sequenzen,,,,,,,,,,,,,,
,Screen_3,canvas.Screen,0_0_8_2,,skipped,9,48993.90000000596,,,48989.09999999404,,48994.09999999404,2021-11-10T08:46:43.818Z,49217.285,1636533927,full,ni_sequenzen,NI_Sequenzen,,,,,,,,,,,,,,
,Screen_4,canvas.Screen,0_0_8_3,,skipped,9,48996.5,,,48989.09999999404,,48996.69999998808,2021-11-10T08:46:43.821Z,49217.285,1636533927,full,ni_sequenzen,NI_Sequenzen,,,,,,,,,,,,,,
,Sequence,flow.Sequence,0_0_8,,completion,9,48986.69999998808,,,48989.09999999404,,48997,2021-11-10T08:46:43.821Z,49217.285,1636533927,full,ni_sequenzen,NI_Sequenzen,,,,,,,,,,,,,,
,Screen_1,canvas.Screen,0_0_9_0,,skipped,10,49000.80000001192,,,49000.90000000596,,49001.09999999404,2021-11-10T08:46:43.825Z,49217.285,1636533927,full,ni_sequenzen,NI_Sequenzen,,,,,,,,,,,,,,
,Screen_2,canvas.Screen,0_0_9_1,,skipped,10,49003.40000000596,,,49000.90000000596,,49003.59999999404,2021-11-10T08:46:43.828Z,49217.285,1636533927,full,ni_sequenzen,NI_Sequenzen,,,,,,,,,,,,,,
,Screen_3,canvas.Screen,0_0_9_2,,skipped,10,49006.19999998808,,,49000.90000000596,,49006.5,2021-11-10T08:46:43.831Z,49217.285,1636533927,full,ni_sequenzen,NI_Sequenzen,,,,,,,,,,,,,,
,Screen_4,canvas.Screen,0_0_9_3,,skipped,10,49008.80000001192,,,49000.90000000596,,49009,2021-11-10T08:46:43.833Z,49217.285,1636533927,full,ni_sequenzen,NI_Sequenzen,,,,,,,,,,,,,,
,Sequence,flow.Sequence,0_0_9,,completion,10,48998.30000001192,,,49000.90000000596,,49009.30000001192,2021-11-10T08:46:43.833Z,49217.285,1636533927,full,ni_sequenzen,NI_Sequenzen,,,,,,,,,,,,,,
,Screen_1,canvas.Screen,0_0_10_0,,skipped,11,49012.59999999404,,,49012.69999998808,,49012.90000000596,2021-11-10T08:46:43.837Z,49217.285,1636533927,full,ni_sequenzen,NI_Sequenzen,,,,,,,,,,,,,,
,Screen_2,canvas.Screen,0_0_10_1,,skipped,11,49015.09999999404,,,49012.69999998808,,49015.19999998808,2021-11-10T08:46:43.839Z,49217.285,1636533927,full,ni_sequenzen,NI_Sequenzen,,,,,,,,,,,,,,
,Screen_3,canvas.Screen,0_0_10_2,,skipped,11,49017.80000001192,,,49012.69999998808,,49018,2021-11-10T08:46:43.842Z,49217.285,1636533927,full,ni_sequenzen,NI_Sequenzen,,,,,,,,,,,,,,
,Screen_4,canvas.Screen,0_0_10_3,,skipped,11,49020.40000000596,,,49012.69999998808,,49020.59999999404,2021-11-10T08:46:43.845Z,49217.285,1636533927,full,ni_sequenzen,NI_Sequenzen,,,,,,,,,,,,,,
,Sequence,flow.Sequence,0_0_10,,completion,11,49010.40000000596,,,49012.69999998808,,49022.80000001192,2021-11-10T08:46:43.847Z,49217.285,1636533927,full,ni_sequenzen,NI_Sequenzen,,,,,,,,,,,,,,
,Screen_1,canvas.Screen,0_0_11_0,,skipped,12,49025.90000000596,,,49025.90000000596,,49026.09999999404,2021-11-10T08:46:43.850Z,49217.285,1636533927,full,ni_sequenzen,NI_Sequenzen,,,,,,,,,,,,,,
,Screen_2,canvas.Screen,0_0_11_1,,skipped,12,49031.80000001192,,,49025.90000000596,,49032,2021-11-10T08:46:43.856Z,49217.285,1636533927,full,ni_sequenzen,NI_Sequenzen,,,,,,,,,,,,,,
,Screen_3,canvas.Screen,0_0_11_2,,skipped,12,49035.40000000596,,,49025.90000000596,,49035.59999999404,2021-11-10T08:46:43.860Z,49217.285,1636533927,full,ni_sequenzen,NI_Sequenzen,,,,,,,,,,,,,,
,Screen_4,canvas.Screen,0_0_11_3,,skipped,12,49038.30000001192,,,49025.90000000596,,49038.5,2021-11-10T08:46:43.863Z,49217.285,1636533927,full,ni_sequenzen,NI_Sequenzen,,,,,,,,,,,,,,
,Sequence,flow.Sequence,0_0_11,,completion,12,49023.80000001192,,,49025.90000000596,,49038.90000000596,2021-11-10T08:46:43.863Z,49217.285,1636533927,full,ni_sequenzen,NI_Sequenzen,,,,,,,,,,,,,,
,Screen_1,canvas.Screen,0_0_12_0,,skipped,13,49042.40000000596,,,49042.40000000596,,49042.5,2021-11-10T08:46:43.867Z,49217.285,1636533927,full,ni_sequenzen,NI_Sequenzen,,,,,,,,,,,,,,
,Screen_2,canvas.Screen,0_0_12_1,,skipped,13,49044.09999999404,,,49042.40000000596,,49044.19999998808,2021-11-10T08:46:43.868Z,49217.285,1636533927,full,ni_sequenzen,NI_Sequenzen,,,,,,,,,,,,,,
,Screen_3,canvas.Screen,0_0_12_2,,skipped,13,49045.90000000596,,,49042.40000000596,,49046,2021-11-10T08:46:43.870Z,49217.285,1636533927,full,ni_sequenzen,NI_Sequenzen,,,,,,,,,,,,,,
,Screen_4,canvas.Screen,0_0_12_3,,skipped,13,49047.80000001192,,,49042.40000000596,,49047.90000000596,2021-11-10T08:46:43.872Z,49217.285,1636533927,full,ni_sequenzen,NI_Sequenzen,,,,,,,,,,,,,,
,Sequence,flow.Sequence,0_0_12,,completion,13,49039.90000000596,,,49042.40000000596,,49048.19999998808,2021-11-10T08:46:43.872Z,49217.285,1636533927,full,ni_sequenzen,NI_Sequenzen,,,,,,,,,,,,,,
,Screen_1,canvas.Screen,0_0_13_0,,skipped,14,49051,,,49051,,49051.09999999404,2021-11-10T08:46:43.875Z,49217.285,1636533927,full,ni_sequenzen,NI_Sequenzen,,,,,,,,,,,,,,
,Screen_2,canvas.Screen,0_0_13_1,,skipped,14,49052.5,,,49051,,49052.59999999404,2021-11-10T08:46:43.877Z,49217.285,1636533927,full,ni_sequenzen,NI_Sequenzen,,,,,,,,,,,,,,
,Screen_3,canvas.Screen,0_0_13_2,,skipped,14,49053.80000001192,,,49051,,49053.90000000596,2021-11-10T08:46:43.878Z,49217.285,1636533927,full,ni_sequenzen,NI_Sequenzen,,,,,,,,,,,,,,
,Screen_4,canvas.Screen,0_0_13_3,,skipped,14,49055.19999998808,,,49051,,49055.30000001192,2021-11-10T08:46:43.879Z,49217.285,1636533927,full,ni_sequenzen,NI_Sequenzen,,,,,,,,,,,,,,
,Sequence,flow.Sequence,0_0_13,,completion,14,49049.30000001192,,,49051,,49055.40000000596,2021-11-10T08:46:43.880Z,49217.285,1636533927,full,ni_sequenzen,NI_Sequenzen,,,,,,,,,,,,,,
,Screen_1,canvas.Screen,0_0_14_0,,skipped,15,49057.09999999404,,,49057.09999999404,,49057.19999998808,2021-11-10T08:46:43.881Z,49217.285,1636533927,full,ni_sequenzen,NI_Sequenzen,,,,,,,,,,,,,,
,Screen_2,canvas.Screen,0_0_14_1,,skipped,15,49059.90000000596,,,49057.09999999404,,49060,2021-11-10T08:46:43.884Z,49217.285,1636533927,full,ni_sequenzen,NI_Sequenzen,,,,,,,,,,,,,,
,Screen_3,canvas.Screen,0_0_14_2,,skipped,15,49061.19999998808,,,49057.09999999404,,49061.40000000596,2021-11-10T08:46:43.886Z,49217.285,1636533927,full,ni_sequenzen,NI_Sequenzen,,,,,,,,,,,,,,
,Screen_4,canvas.Screen,0_0_14_3,,skipped,15,49062.69999998808,,,49057.09999999404,,49062.80000001192,2021-11-10T08:46:43.887Z,49217.285,1636533927,full,ni_sequenzen,NI_Sequenzen,,,,,,,,,,,,,,
,Sequence,flow.Sequence,0_0_14,,completion,15,49056,,,49057.09999999404,,49063.19999998808,2021-11-10T08:46:43.887Z,49217.285,1636533927,full,ni_sequenzen,NI_Sequenzen,,,,,,,,,,,,,,
,Screen_1,canvas.Screen,0_0_15_0,,skipped,16,49064.90000000596,,,49064.90000000596,,49065,2021-11-10T08:46:43.889Z,49217.285,1636533927,full,ni_sequenzen,NI_Sequenzen,,,,,,,,,,,,,,
,Screen_2,canvas.Screen,0_0_15_1,,skipped,16,49066.30000001192,,,49064.90000000596,,49066.40000000596,2021-11-10T08:46:43.891Z,49217.285,1636533927,full,ni_sequenzen,NI_Sequenzen,,,,,,,,,,,,,,
,Screen_3,canvas.Screen,0_0_15_2,,skipped,16,49067.90000000596,,,49064.90000000596,,49068.09999999404,2021-11-10T08:46:43.892Z,49217.285,1636533927,full,ni_sequenzen,NI_Sequenzen,,,,,,,,,,,,,,
,Screen_4,canvas.Screen,0_0_15_3,,skipped,16,49071.5,,,49064.90000000596,,49071.69999998808,2021-11-10T08:46:43.896Z,49217.285,1636533927,full,ni_sequenzen,NI_Sequenzen,,,,,,,,,,,,,,
,Sequence,flow.Sequence,0_0_15,,completion,16,49063.69999998808,,,49064.90000000596,,49071.90000000596,2021-11-10T08:46:43.896Z,49217.285,1636533927,full,ni_sequenzen,NI_Sequenzen,,,,,,,,,,,,,,
,Screen_1,canvas.Screen,0_0_16_0,,skipped,17,49073.80000001192,,,49073.80000001192,,49074,2021-11-10T08:46:43.898Z,49217.285,1636533927,full,ni_sequenzen,NI_Sequenzen,,,,,,,,,,,,,,
,Screen_2,canvas.Screen,0_0_16_1,,skipped,17,49075.30000001192,,,49073.80000001192,,49075.40000000596,2021-11-10T08:46:43.900Z,49217.285,1636533927,full,ni_sequenzen,NI_Sequenzen,,,,,,,,,,,,,,
,Screen_3,canvas.Screen,0_0_16_2,,skipped,17,49076.80000001192,,,49073.80000001192,,49076.90000000596,2021-11-10T08:46:43.901Z,49217.285,1636533927,full,ni_sequenzen,NI_Sequenzen,,,,,,,,,,,,,,
,Screen_4,canvas.Screen,0_0_16_3,,skipped,17,49078.40000000596,,,49073.80000001192,,49078.59999999404,2021-11-10T08:46:43.903Z,49217.285,1636533927,full,ni_sequenzen,NI_Sequenzen,,,,,,,,,,,,,,
,Sequence,flow.Sequence,0_0_16,,completion,17,49072.40000000596,,,49073.80000001192,,49078.90000000596,2021-11-10T08:46:43.903Z,49217.285,1636533927,full,ni_sequenzen,NI_Sequenzen,,,,,,,,,,,,,,
,Screen_1,canvas.Screen,0_0_17_0,,skipped,18,49080.80000001192,,,49080.80000001192,,49080.90000000596,2021-11-10T08:46:43.905Z,49217.285,1636533927,full,ni_sequenzen,NI_Sequenzen,,,,,,,,,,,,,,
,Screen_2,canvas.Screen,0_0_17_1,,skipped,18,49083.40000000596,,,49080.80000001192,,49083.5,2021-11-10T08:46:43.908Z,49217.285,1636533927,full,ni_sequenzen,NI_Sequenzen,,,,,,,,,,,,,,
,Screen_3,canvas.Screen,0_0_17_2,,skipped,18,49086,,,49080.80000001192,,49086.19999998808,2021-11-10T08:46:43.910Z,49217.285,1636533927,full,ni_sequenzen,NI_Sequenzen,,,,,,,,,,,,,,
,Screen_4,canvas.Screen,0_0_17_3,,skipped,18,49088.19999998808,,,49080.80000001192,,49088.40000000596,2021-11-10T08:46:43.913Z,49217.285,1636533927,full,ni_sequenzen,NI_Sequenzen,,,,,,,,,,,,,,
,Sequence,flow.Sequence,0_0_17,,completion,18,49079.40000000596,,,49080.80000001192,,49088.69999998808,2021-11-10T08:46:43.913Z,49217.285,1636533927,full,ni_sequenzen,NI_Sequenzen,,,,,,,,,,,,,,
,Screen_1,canvas.Screen,0_0_18_0,,skipped,19,49091,,,49091,,49091.09999999404,2021-11-10T08:46:43.915Z,49217.285,1636533927,full,ni_sequenzen,NI_Sequenzen,,,,,,,,,,,,,,
,Screen_2,canvas.Screen,0_0_18_1,,skipped,19,49092.30000001192,,,49091,,49092.40000000596,2021-11-10T08:46:43.917Z,49217.285,1636533927,full,ni_sequenzen,NI_Sequenzen,,,,,,,,,,,,,,
,Screen_3,canvas.Screen,0_0_18_2,,skipped,19,49093.59999999404,,,49091,,49093.69999998808,2021-11-10T08:46:43.918Z,49217.285,1636533927,full,ni_sequenzen,NI_Sequenzen,,,,,,,,,,,,,,
,Screen_4,canvas.Screen,0_0_18_3,,skipped,19,49094.90000000596,,,49091,,49095,2021-11-10T08:46:43.919Z,49217.285,1636533927,full,ni_sequenzen,NI_Sequenzen,,,,,,,,,,,,,,
,Sequence,flow.Sequence,0_0_18,,completion,19,49089.5,,,49091,,49095.19999998808,2021-11-10T08:46:43.919Z,49217.285,1636533927,full,ni_sequenzen,NI_Sequenzen,,,,,,,,,,,,,,
,Screen_1,canvas.Screen,0_0_19_0,,skipped,20,49096.90000000596,,,49096.90000000596,,49097,2021-11-10T08:46:43.921Z,49217.285,1636533927,full,ni_sequenzen,NI_Sequenzen,,,,,,,,,,,,,,
,Screen_2,canvas.Screen,0_0_19_1,,skipped,20,49098.09999999404,,,49096.90000000596,,49098.30000001192,2021-11-10T08:46:43.922Z,49217.285,1636533927,full,ni_sequenzen,NI_Sequenzen,,,,,,,,,,,,,,
,Screen_3,canvas.Screen,0_0_19_2,,skipped,20,49099.5,,,49096.90000000596,,49099.59999999404,2021-11-10T08:46:43.924Z,49217.285,1636533927,full,ni_sequenzen,NI_Sequenzen,,,,,,,,,,,,,,
,Screen_4,canvas.Screen,0_0_19_3,,skipped,20,49101.09999999404,,,49096.90000000596,,49101.30000001192,2021-11-10T08:46:43.925Z,49217.285,1636533927,full,ni_sequenzen,NI_Sequenzen,,,,,,,,,,,,,,
,Sequence,flow.Sequence,0_0_19,,completion,20,49095.69999998808,,,49096.90000000596,,49101.59999999404,2021-11-10T08:46:43.926Z,49217.285,1636533927,full,ni_sequenzen,NI_Sequenzen,,,,,,,,,,,,,,
,Instructions_I,flow.Loop,0_0,,completion,,915.1999999880791,994.512,1111.317,49096.90000000596,47985.58300000596,49101.80000001192,2021-11-10T08:46:43.926Z,49217.285,1636533927,full,ni_sequenzen,NI_Sequenzen,,,,,,,,,,,,,,
,Move,canvas.Screen,0_1_0_0,left,response,,49193.30000001192,49184.516,49217.285,50412.19999998808,1194.9149999880756,50413.30000001192,2021-11-10T08:46:45.237Z,50435.79,1636533927,full,ni_sequenzen,NI_Sequenzen,1,,,,,,,,,,,,,
,Move,canvas.Screen,0_1_0_1,left,response,,50419.80000001192,50419.349,50435.79,51267.69999998808,831.9099999880782,51269,2021-11-10T08:46:46.093Z,51287.05,1636533927,full,ni_sequenzen,NI_Sequenzen,2,,,,,,,,,,,,,
,Move,canvas.Screen,0_1_0_2,down,response,,51276.40000000596,51270.641,51287.05,52141.5,854.4499999999971,52142.59999999404,2021-11-10T08:46:46.967Z,52155.064,1636533927,full,ni_sequenzen,NI_Sequenzen,3,,,,,,,,,,,,,
,Move,canvas.Screen,0_1_0_3,down,response,,52146.59999999404,52138.559,52155.064,52507.59999999404,352.53599999404105,52508.80000001192,2021-11-10T08:46:47.333Z,52523.057,1636533927,full,ni_sequenzen,NI_Sequenzen,4,,,,,,,,,,,,,
,Move,canvas.Screen,0_1_0_4,right,response,,52513.40000000596,52505.677,52523.057,52907.59999999404,384.54299999403884,52908.59999999404,2021-11-10T08:46:47.733Z,52922.868,1636533927,full,ni_sequenzen,NI_Sequenzen,5,,,,,,,,,,,,,
,Move,canvas.Screen,0_1_0_5,right,response,,52912.30000001192,52906.374,52922.868,53155.5,232.6319999999978,53156.59999999404,2021-11-10T08:46:47.981Z,53173.282,1636533927,full,ni_sequenzen,NI_Sequenzen,6,,,,,,,,,,,,,
,Move,canvas.Screen,0_1_0_6,down,response,,53160.09999999404,53156.721,53173.282,53651.80000001192,478.5180000119217,53652.90000000596,2021-11-10T08:46:48.477Z,53674.026,1636533927,full,ni_sequenzen,NI_Sequenzen,7,,,,,,,,,,,,,
,Move,canvas.Screen,0_1_0_7,down,response,,53657.19999998808,53657.484,53674.026,53963.69999998808,289.67399998808105,53964.80000001192,2021-11-10T08:46:48.789Z,53974.472,1636533927,full,ni_sequenzen,NI_Sequenzen,8,,,,,,,,,,,,,
,Move,canvas.Screen,0_1_0_8,down,response,,53970.80000001192,53957.924,53974.472,55035.69999998808,1061.2279999880775,55036.69999998808,2021-11-10T08:46:49.861Z,55042.739,1636533927,full,ni_sequenzen,NI_Sequenzen,9,,,,,,,,,,,,,
,Move,canvas.Screen,0_1_0_9,left,response,,55040.80000001192,55026.107,55042.739,55651.59999999404,608.8609999940381,55652.59999999404,2021-11-10T08:46:50.477Z,55660.356,1636533927,full,ni_sequenzen,NI_Sequenzen,10,,,,,,,,,,,,,
,Move,canvas.Screen,0_1_0_10,down,response,,55656.69999998808,55643.821,55660.356,56435.69999998808,775.3439999880793,56436.69999998808,2021-11-10T08:46:51.261Z,56461.572,1636533927,full,ni_sequenzen,NI_Sequenzen,11,,,,,,,,,,,,,
,Move,canvas.Screen,0_1_0_11,down,response,,56440.90000000596,56428.354,56461.572,56907.5,445.9279999999999,56908.69999998808,2021-11-10T08:46:51.733Z,56928.93,1636533927,full,ni_sequenzen,NI_Sequenzen,12,,,,,,,,,,,,,
,Move,canvas.Screen,0_1_0_12,right,response,,56913.59999999404,56912.397,56928.93,57587.69999998808,658.7699999880788,57588.80000001192,2021-11-10T08:46:52.413Z,57596.578,1636533927,full,ni_sequenzen,NI_Sequenzen,13,,,,,,,,,,,,,
,Move,canvas.Screen,0_1_0_13,down,response,,57592.80000001192,57580.114,57596.578,59123.69999998808,1527.1219999880777,59124.59999999404,2021-11-10T08:46:53.949Z,59132.302,1636533927,full,ni_sequenzen,NI_Sequenzen,14,,,,,,,,,,,,,
,Move,canvas.Screen,0_1_0_14,right,response,,59128.69999998808,59115.822,59132.302,59683.90000000596,551.5980000059571,59685.09999999404,2021-11-10T08:46:54.509Z,59699.765,1636533927,full,ni_sequenzen,NI_Sequenzen,15,,,,,,,,,,,,,
,Move,canvas.Screen,0_1_0_15,down,response,,59689.30000001192,59683.271,59699.765,60187.69999998808,487.93499998807965,60188.80000001192,2021-11-10T08:46:55.013Z,60200.522,1636533927,full,ni_sequenzen,NI_Sequenzen,16,,,,,,,,,,,,,
,Move,canvas.Screen,0_1_0_16,right,response,,60193.59999999404,60184.073,60200.522,60683.59999999404,483.07799999404233,60684.69999998808,2021-11-10T08:46:55.509Z,60701.246,1636533927,full,ni_sequenzen,NI_Sequenzen,17,,,,,,,,,,,,,
,Move,canvas.Screen,0_1_0_17,down,response,,60689.40000000596,60684.751,60701.246,62581,1879.7540000000008,62581.90000000596,2021-11-10T08:46:57.406Z,62587.502,1636533927,full,ni_sequenzen,NI_Sequenzen,18,,,,,,,,,,,,,
,Move,canvas.Screen,0_1_0_18,left,response,,62585.5,62571.06,62587.502,62995.5,407.9979999999996,62996.40000000596,2021-11-10T08:46:57.820Z,63004.741,1636533927,full,ni_sequenzen,NI_Sequenzen,19,,,,,,,,,,,,,
,Move,canvas.Screen,0_1_0_19,left,response,,63000,62988.245,63004.741,63363.5,358.7589999999982,63364.40000000596,2021-11-10T08:46:58.189Z,63371.962,1636533927,full,ni_sequenzen,NI_Sequenzen,20,,,,,,,,,,,,,
,Move,canvas.Screen,0_1_0_20,left,response,,63368.5,63355.3,63371.962,64691.59999999404,1319.63799999404,64692.80000001192,2021-11-10T08:46:59.517Z,64707.324,1636533927,full,ni_sequenzen,NI_Sequenzen,21,,,,,,,,,,,,,
,Move,canvas.Screen,0_1_0_21,down,response,,64696.59999999404,64690.853,64707.324,65331.5,624.1759999999995,65332.40000000596,2021-11-10T08:47:00.157Z,65341.605,1636533927,full,ni_sequenzen,NI_Sequenzen,22,,,,,,,,,,,,,
,Move,canvas.Screen,0_1_0_22,down,response,,65336,65325.155,65341.605,65835.59999999404,493.99499999403633,65836.59999999404,2021-11-10T08:47:00.661Z,65867.943,1636533927,full,ni_sequenzen,NI_Sequenzen,23,,,,,,,,,,,,,
,Move,canvas.Screen,0_1_0_23,down,response,,65841.19999998808,65825.858,65867.943,65869.59999999404,1.656999994040234,65872,2021-11-10T08:47:00.696Z,65892.482,1636533927,full,ni_sequenzen,NI_Sequenzen,24,,,,,,,,,,,,,
,Move,canvas.Screen,0_1_0_24,down,response,,65878.80000001192,65875.849,65892.482,65905.40000000596,12.918000005956856,65906.30000001192,2021-11-10T08:47:00.730Z,65942.621,1636533927,full,ni_sequenzen,NI_Sequenzen,25,,,,,,,,,,,,,
,Move,canvas.Screen,0_1_0_25,right,response,,65910.90000000596,65909.182,65942.621,68235.80000001192,2293.1790000119217,68236.80000001192,2021-11-10T08:47:03.061Z,68262.719,1636533927,full,ni_sequenzen,NI_Sequenzen,26,,,,,,,,,,,,,
,Move,canvas.Screen,0_1_0_26,right,response,,68241.80000001192,68229.603,68262.719,68611.80000001192,349.0810000119236,68612.90000000596,2021-11-10T08:47:03.437Z,68629.905,1636533927,full,ni_sequenzen,NI_Sequenzen,27,,,,,,,,,,,,,
,Move,canvas.Screen,0_1_0_27,left,response,,68617.30000001192,68613.411,68629.905,69363.69999998808,733.7949999880802,69364.90000000596,2021-11-10T08:47:04.189Z,69381.069,1636533927,full,ni_sequenzen,NI_Sequenzen,28,,,,,,,,,,,,,
,Move,canvas.Screen,0_1_0_28,left,response,,69369.30000001192,69364.564,69381.069,73413.19999998808,4032.130999988076,73414.40000000596,2021-11-10T08:47:08.239Z,73420.497,1636533927,full,ni_sequenzen,NI_Sequenzen,29,,,,,,,,,,,,,
,Move,canvas.Screen,0_1_0_29,right,response,,73418.5,73404.12,73420.497,74156,735.502999999997,74157.19999998808,2021-11-10T08:47:08.981Z,74305.132,1636533927,full,ni_sequenzen,NI_Sequenzen,30,,,,,,,,,,,,,
,Loop,flow.Loop,0_1_0,-999,completion,,49119.5,49184.516,49217.285,74156,24938.714999999997,74157.80000001192,2021-11-10T08:47:08.982Z,74305.132,1636533927,full,ni_sequenzen,NI_Sequenzen,,,,,,,,,,,,,,
,Training_I,flow.Sequence,0_1,,completion,,49102.40000000596,49184.516,49217.285,74156,24938.714999999997,74158.09999999404,2021-11-10T08:47:08.982Z,74305.132,1636533927,full,ni_sequenzen,NI_Sequenzen,,,,,,,,,,,,,,
,Screen_1,canvas.Screen,0_2_0_0,cont,response,1,74292.80000001192,74288.677,74305.132,98719.19999998808,24414.06799998808,98720.19999998808,2021-11-10T08:47:33.544Z,98842.186,1636533927,full,ni_sequenzen,NI_Sequenzen,,,,,,,,,,,,,,
,Screen_2,canvas.Screen,0_2_0_1,cont,response,1,98825.5,98810.487,98842.186,111367.40000000596,12525.214000005959,111368.5,2021-11-10T08:47:46.193Z,111377.83,1636533927,full,ni_sequenzen,NI_Sequenzen,,,,,,,,,,,,,,
,Screen_3,canvas.Screen,0_2_0_2,cont,response,1,111375.19999998808,111362.095,111377.83,122093.90000000596,10716.070000005959,122095.09999999404,2021-11-10T08:47:56.919Z,122177.415,1636533927,full,ni_sequenzen,NI_Sequenzen,,,,,,,,,,,,,,
,Screen_4,canvas.Screen,0_2_0_3,cont,response,1,122172.40000000596,122161.015,122177.415,139191.80000001192,17014.385000011927,139192.80000001192,2021-11-10T08:48:14.017Z,139219.846,1636533927,full,ni_sequenzen,NI_Sequenzen,,,,,,,,,,,,,,
,Screen_5,canvas.Screen,0_2_0_4,cont,response,1,139199.09999999404,139187.784,139219.846,146853.90000000596,7634.05400000597,146855.09999999404,2021-11-10T08:48:21.679Z,146948.177,1636533927,full,ni_sequenzen,NI_Sequenzen,,,,,,,,,,,,,,
,Screen_6,canvas.Screen,0_2_0_5,cont,response,1,146933.40000000596,146932.08,146948.177,153783.5,6835.323000000004,153784.5,2021-11-10T08:48:28.609Z,154192.391,1636533927,full,ni_sequenzen,NI_Sequenzen,,,,,,,,,,,,,,
,Sequence,flow.Sequence,0_2_0,,completion,1,74290.40000000596,74288.677,74305.132,153783.5,79478.368,153788.59999999404,2021-11-10T08:48:28.613Z,154192.391,1636533927,full,ni_sequenzen,NI_Sequenzen,,,,,,,,,,,,,,
,Screen_1,canvas.Screen,0_2_1_0,,skipped,2,153797.59999999404,,,153797.59999999404,,153797.80000001192,2021-11-10T08:48:28.622Z,154192.391,1636533927,full,ni_sequenzen,NI_Sequenzen,,,,,,,,,,,,,,
,Screen_2,canvas.Screen,0_2_1_1,,skipped,2,153801,,,153797.59999999404,,153801.19999998808,2021-11-10T08:48:28.625Z,154192.391,1636533927,full,ni_sequenzen,NI_Sequenzen,,,,,,,,,,,,,,
,Screen_3,canvas.Screen,0_2_1_2,,skipped,2,153803.90000000596,,,153797.59999999404,,153804.19999998808,2021-11-10T08:48:28.628Z,154192.391,1636533927,full,ni_sequenzen,NI_Sequenzen,,,,,,,,,,,,,,
,Screen_4,canvas.Screen,0_2_1_3,,skipped,2,153806.80000001192,,,153797.59999999404,,153807,2021-11-10T08:48:28.631Z,154192.391,1636533927,full,ni_sequenzen,NI_Sequenzen,,,,,,,,,,,,,,
,Screen_5,canvas.Screen,0_2_1_4,,skipped,2,153809.69999998808,,,153797.59999999404,,153809.90000000596,2021-11-10T08:48:28.634Z,154192.391,1636533927,full,ni_sequenzen,NI_Sequenzen,,,,,,,,,,,,,,
,Screen_6,canvas.Screen,0_2_1_5,,skipped,2,153812.69999998808,,,153797.59999999404,,153812.90000000596,2021-11-10T08:48:28.637Z,154192.391,1636533927,full,ni_sequenzen,NI_Sequenzen,,,,,,,,,,,,,,
,Sequence,flow.Sequence,0_2_1,,completion,2,153793.90000000596,,,153797.59999999404,,153813.19999998808,2021-11-10T08:48:28.637Z,154192.391,1636533927,full,ni_sequenzen,NI_Sequenzen,,,,,,,,,,,,,,
,Screen_1,canvas.Screen,0_2_2_0,,skipped,3,153816.5,,,153816.59999999404,,153816.80000001192,2021-11-10T08:48:28.641Z,154192.391,1636533927,full,ni_sequenzen,NI_Sequenzen,,,,,,,,,,,,,,
,Screen_2,canvas.Screen,0_2_2_1,,skipped,3,153820.80000001192,,,153816.59999999404,,153821.09999999404,2021-11-10T08:48:28.645Z,154192.391,1636533927,full,ni_sequenzen,NI_Sequenzen,,,,,,,,,,,,,,
,Screen_3,canvas.Screen,0_2_2_2,,skipped,3,153823.30000001192,,,153816.59999999404,,153823.40000000596,2021-11-10T08:48:28.648Z,154192.391,1636533927,full,ni_sequenzen,NI_Sequenzen,,,,,,,,,,,,,,
,Screen_4,canvas.Screen,0_2_2_3,,skipped,3,153826.09999999404,,,153816.59999999404,,153826.30000001192,2021-11-10T08:48:28.650Z,154192.391,1636533927,full,ni_sequenzen,NI_Sequenzen,,,,,,,,,,,,,,
,Screen_5,canvas.Screen,0_2_2_4,,skipped,3,153828.69999998808,,,153816.59999999404,,153828.80000001192,2021-11-10T08:48:28.653Z,154192.391,1636533927,full,ni_sequenzen,NI_Sequenzen,,,,,,,,,,,,,,
,Screen_6,canvas.Screen,0_2_2_5,,skipped,3,153830.90000000596,,,153816.59999999404,,153831.09999999404,2021-11-10T08:48:28.655Z,154192.391,1636533927,full,ni_sequenzen,NI_Sequenzen,,,,,,,,,,,,,,
,Sequence,flow.Sequence,0_2_2,,completion,3,153814.40000000596,,,153816.59999999404,,153831.40000000596,2021-11-10T08:48:28.656Z,154192.391,1636533927,full,ni_sequenzen,NI_Sequenzen,,,,,,,,,,,,,,
,Screen_1,canvas.Screen,0_2_3_0,,skipped,4,153834.40000000596,,,153834.40000000596,,153834.59999999404,2021-11-10T08:48:28.659Z,154192.391,1636533927,full,ni_sequenzen,NI_Sequenzen,,,,,,,,,,,,,,
,Screen_2,canvas.Screen,0_2_3_1,,skipped,4,153837.19999998808,,,153834.40000000596,,153837.40000000596,2021-11-10T08:48:28.662Z,154192.391,1636533927,full,ni_sequenzen,NI_Sequenzen,,,,,,,,,,,,,,
,Screen_3,canvas.Screen,0_2_3_2,,skipped,4,153839.59999999404,,,153834.40000000596,,153839.90000000596,2021-11-10T08:48:28.664Z,154192.391,1636533927,full,ni_sequenzen,NI_Sequenzen,,,,,,,,,,,,,,
,Screen_4,canvas.Screen,0_2_3_3,,skipped,4,153842.19999998808,,,153834.40000000596,,153842.40000000596,2021-11-10T08:48:28.666Z,154192.391,1636533927,full,ni_sequenzen,NI_Sequenzen,,,,,,,,,,,,,,
,Screen_5,canvas.Screen,0_2_3_4,,skipped,4,153844.5,,,153834.40000000596,,153844.69999998808,2021-11-10T08:48:28.669Z,154192.391,1636533927,full,ni_sequenzen,NI_Sequenzen,,,,,,,,,,,,,,
,Screen_6,canvas.Screen,0_2_3_5,,skipped,4,153846.69999998808,,,153834.40000000596,,153846.90000000596,2021-11-10T08:48:28.671Z,154192.391,1636533927,full,ni_sequenzen,NI_Sequenzen,,,,,,,,,,,,,,
,Sequence,flow.Sequence,0_2_3,,completion,4,153832.30000001192,,,153834.40000000596,,153847.30000001192,2021-11-10T08:48:28.671Z,154192.391,1636533927,full,ni_sequenzen,NI_Sequenzen,,,,,,,,,,,,,,
,Screen_1,canvas.Screen,0_2_4_0,,skipped,5,153850.19999998808,,,153850.19999998808,,153850.40000000596,2021-11-10T08:48:28.674Z,154192.391,1636533927,full,ni_sequenzen,NI_Sequenzen,,,,,,,,,,,,,,
,Screen_2,canvas.Screen,0_2_4_1,,skipped,5,153852.40000000596,,,153850.19999998808,,153852.59999999404,2021-11-10T08:48:28.677Z,154192.391,1636533927,full,ni_sequenzen,NI_Sequenzen,,,,,,,,,,,,,,
,Screen_3,canvas.Screen,0_2_4_2,,skipped,5,153856.59999999404,,,153850.19999998808,,153856.90000000596,2021-11-10T08:48:28.681Z,154192.391,1636533927,full,ni_sequenzen,NI_Sequenzen,,,,,,,,,,,,,,
,Screen_4,canvas.Screen,0_2_4_3,,skipped,5,153859.30000001192,,,153850.19999998808,,153859.59999999404,2021-11-10T08:48:28.684Z,154192.391,1636533927,full,ni_sequenzen,NI_Sequenzen,,,,,,,,,,,,,,
,Screen_5,canvas.Screen,0_2_4_4,,skipped,5,153861.80000001192,,,153850.19999998808,,153862.09999999404,2021-11-10T08:48:28.686Z,154192.391,1636533927,full,ni_sequenzen,NI_Sequenzen,,,,,,,,,,,,,,
,Screen_6,canvas.Screen,0_2_4_5,,skipped,5,153864.09999999404,,,153850.19999998808,,153864.19999998808,2021-11-10T08:48:28.688Z,154192.391,1636533927,full,ni_sequenzen,NI_Sequenzen,,,,,,,,,,,,,,
,Sequence,flow.Sequence,0_2_4,,completion,5,153848.19999998808,,,153850.19999998808,,153864.59999999404,2021-11-10T08:48:28.689Z,154192.391,1636533927,full,ni_sequenzen,NI_Sequenzen,,,,,,,,,,,,,,
,Screen_1,canvas.Screen,0_2_5_0,,skipped,6,153867.5,,,153867.5,,153867.69999998808,2021-11-10T08:48:28.692Z,154192.391,1636533927,full,ni_sequenzen,NI_Sequenzen,,,,,,,,,,,,,,
,Screen_2,canvas.Screen,0_2_5_1,,skipped,6,153869.90000000596,,,153867.5,,153870.19999998808,2021-11-10T08:48:28.694Z,154192.391,1636533927,full,ni_sequenzen,NI_Sequenzen,,,,,,,,,,,,,,
,Screen_3,canvas.Screen,0_2_5_2,,skipped,6,153872.30000001192,,,153867.5,,153872.40000000596,2021-11-10T08:48:28.697Z,154192.391,1636533927,full,ni_sequenzen,NI_Sequenzen,,,,,,,,,,,,,,
,Screen_4,canvas.Screen,0_2_5_3,,skipped,6,153875,,,153867.5,,153875.30000001192,2021-11-10T08:48:28.699Z,154192.391,1636533927,full,ni_sequenzen,NI_Sequenzen,,,,,,,,,,,,,,
,Screen_5,canvas.Screen,0_2_5_4,,skipped,6,153877.5,,,153867.5,,153877.69999998808,2021-11-10T08:48:28.702Z,154192.391,1636533927,full,ni_sequenzen,NI_Sequenzen,,,,,,,,,,,,,,
,Screen_6,canvas.Screen,0_2_5_5,,skipped,6,153879.59999999404,,,153867.5,,153879.80000001192,2021-11-10T08:48:28.704Z,154192.391,1636533927,full,ni_sequenzen,NI_Sequenzen,,,,,,,,,,,,,,
,Sequence,flow.Sequence,0_2_5,,completion,6,153865.5,,,153867.5,,153880.19999998808,2021-11-10T08:48:28.704Z,154192.391,1636533927,full,ni_sequenzen,NI_Sequenzen,,,,,,,,,,,,,,
,Screen_1,canvas.Screen,0_2_6_0,,skipped,7,153883.19999998808,,,153883.19999998808,,153883.30000001192,2021-11-10T08:48:28.707Z,154192.391,1636533927,full,ni_sequenzen,NI_Sequenzen,,,,,,,,,,,,,,
,Screen_2,canvas.Screen,0_2_6_1,,skipped,7,153885.30000001192,,,153883.19999998808,,153885.5,2021-11-10T08:48:28.710Z,154192.391,1636533927,full,ni_sequenzen,NI_Sequenzen,,,,,,,,,,,,,,
,Screen_3,canvas.Screen,0_2_6_2,,skipped,7,153887.59999999404,,,153883.19999998808,,153887.69999998808,2021-11-10T08:48:28.712Z,154192.391,1636533927,full,ni_sequenzen,NI_Sequenzen,,,,,,,,,,,,,,
,Screen_4,canvas.Screen,0_2_6_3,,skipped,7,153889.80000001192,,,153883.19999998808,,153890.09999999404,2021-11-10T08:48:28.714Z,154192.391,1636533927,full,ni_sequenzen,NI_Sequenzen,,,,,,,,,,,,,,
,Screen_5,canvas.Screen,0_2_6_4,,skipped,7,153894.5,,,153883.19999998808,,153894.80000001192,2021-11-10T08:48:28.719Z,154192.391,1636533927,full,ni_sequenzen,NI_Sequenzen,,,,,,,,,,,,,,
,Screen_6,canvas.Screen,0_2_6_5,,skipped,7,153897,,,153883.19999998808,,153897.19999998808,2021-11-10T08:48:28.721Z,154192.391,1636533927,full,ni_sequenzen,NI_Sequenzen,,,,,,,,,,,,,,
,Sequence,flow.Sequence,0_2_6,,completion,7,153881,,,153883.19999998808,,153897.59999999404,2021-11-10T08:48:28.722Z,154192.391,1636533927,full,ni_sequenzen,NI_Sequenzen,,,,,,,,,,,,,,
,Screen_1,canvas.Screen,0_2_7_0,,skipped,8,153900.40000000596,,,153900.5,,153900.59999999404,2021-11-10T08:48:28.725Z,154192.391,1636533927,full,ni_sequenzen,NI_Sequenzen,,,,,,,,,,,,,,
,Screen_2,canvas.Screen,0_2_7_1,,skipped,8,153902.90000000596,,,153900.5,,153903.19999998808,2021-11-10T08:48:28.727Z,154192.391,1636533927,full,ni_sequenzen,NI_Sequenzen,,,,,,,,,,,,,,
,Screen_3,canvas.Screen,0_2_7_2,,skipped,8,153905.19999998808,,,153900.5,,153905.40000000596,2021-11-10T08:48:28.729Z,154192.391,1636533927,full,ni_sequenzen,NI_Sequenzen,,,,,,,,,,,,,,
,Screen_4,canvas.Screen,0_2_7_3,,skipped,8,153907.30000001192,,,153900.5,,153907.59999999404,2021-11-10T08:48:28.732Z,154192.391,1636533927,full,ni_sequenzen,NI_Sequenzen,,,,,,,,,,,,,,
,Screen_5,canvas.Screen,0_2_7_4,,skipped,8,153910.19999998808,,,153900.5,,153910.40000000596,2021-11-10T08:48:28.734Z,154192.391,1636533927,full,ni_sequenzen,NI_Sequenzen,,,,,,,,,,,,,,
,Screen_6,canvas.Screen,0_2_7_5,,skipped,8,153912.5,,,153900.5,,153912.69999998808,2021-11-10T08:48:28.737Z,154192.391,1636533927,full,ni_sequenzen,NI_Sequenzen,,,,,,,,,,,,,,
,Sequence,flow.Sequence,0_2_7,,completion,8,153898.5,,,153900.5,,153913,2021-11-10T08:48:28.737Z,154192.391,1636533927,full,ni_sequenzen,NI_Sequenzen,,,,,,,,,,,,,,
,Screen_1,canvas.Screen,0_2_8_0,,skipped,9,153916,,,153916,,153916.19999998808,2021-11-10T08:48:28.740Z,154192.391,1636533927,full,ni_sequenzen,NI_Sequenzen,,,,,,,,,,,,,,
,Screen_2,canvas.Screen,0_2_8_1,,skipped,9,153918.30000001192,,,153916,,153918.5,2021-11-10T08:48:28.743Z,154192.391,1636533927,full,ni_sequenzen,NI_Sequenzen,,,,,,,,,,,,,,
,Screen_3,canvas.Screen,0_2_8_2,,skipped,9,153920.5,,,153916,,153920.69999998808,2021-11-10T08:48:28.745Z,154192.391,1636533927,full,ni_sequenzen,NI_Sequenzen,,,,,,,,,,,,,,
,Screen_4,canvas.Screen,0_2_8_3,,skipped,9,153922.40000000596,,,153916,,153922.59999999404,2021-11-10T08:48:28.747Z,154192.391,1636533927,full,ni_sequenzen,NI_Sequenzen,,,,,,,,,,,,,,
,Screen_5,canvas.Screen,0_2_8_4,,skipped,9,153924.09999999404,,,153916,,153924.30000001192,2021-11-10T08:48:28.748Z,154192.391,1636533927,full,ni_sequenzen,NI_Sequenzen,,,,,,,,,,,,,,
,Screen_6,canvas.Screen,0_2_8_5,,skipped,9,153927.19999998808,,,153916,,153927.40000000596,2021-11-10T08:48:28.751Z,154192.391,1636533927,full,ni_sequenzen,NI_Sequenzen,,,,,,,,,,,,,,
,Sequence,flow.Sequence,0_2_8,,completion,9,153913.80000001192,,,153916,,153927.69999998808,2021-11-10T08:48:28.752Z,154192.391,1636533927,full,ni_sequenzen,NI_Sequenzen,,,,,,,,,,,,,,
,Screen_1,canvas.Screen,0_2_9_0,,skipped,10,153930.09999999404,,,153930.09999999404,,153930.19999998808,2021-11-10T08:48:28.754Z,154192.391,1636533927,full,ni_sequenzen,NI_Sequenzen,,,,,,,,,,,,,,
,Screen_2,canvas.Screen,0_2_9_1,,skipped,10,153931.69999998808,,,153930.09999999404,,153931.90000000596,2021-11-10T08:48:28.756Z,154192.391,1636533927,full,ni_sequenzen,NI_Sequenzen,,,,,,,,,,,,,,
,Screen_3,canvas.Screen,0_2_9_2,,skipped,10,153933.5,,,153930.09999999404,,153933.59999999404,2021-11-10T08:48:28.758Z,154192.391,1636533927,full,ni_sequenzen,NI_Sequenzen,,,,,,,,,,,,,,
,Screen_4,canvas.Screen,0_2_9_3,,skipped,10,153935,,,153930.09999999404,,153935.09999999404,2021-11-10T08:48:28.759Z,154192.391,1636533927,full,ni_sequenzen,NI_Sequenzen,,,,,,,,,,,,,,
,Screen_5,canvas.Screen,0_2_9_4,,skipped,10,153936.80000001192,,,153930.09999999404,,153937,2021-11-10T08:48:28.761Z,154192.391,1636533927,full,ni_sequenzen,NI_Sequenzen,,,,,,,,,,,,,,
,Screen_6,canvas.Screen,0_2_9_5,,skipped,10,153938.69999998808,,,153930.09999999404,,153938.80000001192,2021-11-10T08:48:28.763Z,154192.391,1636533927,full,ni_sequenzen,NI_Sequenzen,,,,,,,,,,,,,,
,Sequence,flow.Sequence,0_2_9,,completion,10,153928.40000000596,,,153930.09999999404,,153939,2021-11-10T08:48:28.763Z,154192.391,1636533927,full,ni_sequenzen,NI_Sequenzen,,,,,,,,,,,,,,
,Screen_1,canvas.Screen,0_2_10_0,,skipped,11,153941.30000001192,,,153941.30000001192,,153941.40000000596,2021-11-10T08:48:28.765Z,154192.391,1636533927,full,ni_sequenzen,NI_Sequenzen,,,,,,,,,,,,,,
,Screen_2,canvas.Screen,0_2_10_1,,skipped,11,153943,,,153941.30000001192,,153943.09999999404,2021-11-10T08:48:28.767Z,154192.391,1636533927,full,ni_sequenzen,NI_Sequenzen,,,,,,,,,,,,,,
,Screen_3,canvas.Screen,0_2_10_2,,skipped,11,153944.59999999404,,,153941.30000001192,,153944.80000001192,2021-11-10T08:48:28.769Z,154192.391,1636533927,full,ni_sequenzen,NI_Sequenzen,,,,,,,,,,,,,,
,Screen_4,canvas.Screen,0_2_10_3,,skipped,11,153946.19999998808,,,153941.30000001192,,153946.30000001192,2021-11-10T08:48:28.770Z,154192.391,1636533927,full,ni_sequenzen,NI_Sequenzen,,,,,,,,,,,,,,
,Screen_5,canvas.Screen,0_2_10_4,,skipped,11,153947.80000001192,,,153941.30000001192,,153948,2021-11-10T08:48:28.772Z,154192.391,1636533927,full,ni_sequenzen,NI_Sequenzen,,,,,,,,,,,,,,
,Screen_6,canvas.Screen,0_2_10_5,,skipped,11,153950,,,153941.30000001192,,153950.19999998808,2021-11-10T08:48:28.774Z,154192.391,1636533927,full,ni_sequenzen,NI_Sequenzen,,,,,,,,,,,,,,
,Sequence,flow.Sequence,0_2_10,,completion,11,153939.69999998808,,,153941.30000001192,,153950.40000000596,2021-11-10T08:48:28.775Z,154192.391,1636533927,full,ni_sequenzen,NI_Sequenzen,,,,,,,,,,,,,,
,Screen_1,canvas.Screen,0_2_11_0,,skipped,12,153953.90000000596,,,153953.90000000596,,153954.09999999404,2021-11-10T08:48:28.778Z,154192.391,1636533927,full,ni_sequenzen,NI_Sequenzen,,,,,,,,,,,,,,
,Screen_2,canvas.Screen,0_2_11_1,,skipped,12,153955.59999999404,,,153953.90000000596,,153955.80000001192,2021-11-10T08:48:28.780Z,154192.391,1636533927,full,ni_sequenzen,NI_Sequenzen,,,,,,,,,,,,,,
,Screen_3,canvas.Screen,0_2_11_2,,skipped,12,153957.19999998808,,,153953.90000000596,,153957.30000001192,2021-11-10T08:48:28.781Z,154192.391,1636533927,full,ni_sequenzen,NI_Sequenzen,,,,,,,,,,,,,,
,Screen_4,canvas.Screen,0_2_11_3,,skipped,12,153958.90000000596,,,153953.90000000596,,153959.09999999404,2021-11-10T08:48:28.783Z,154192.391,1636533927,full,ni_sequenzen,NI_Sequenzen,,,,,,,,,,,,,,
,Screen_5,canvas.Screen,0_2_11_4,,skipped,12,153960.59999999404,,,153953.90000000596,,153960.80000001192,2021-11-10T08:48:28.785Z,154192.391,1636533927,full,ni_sequenzen,NI_Sequenzen,,,,,,,,,,,,,,
,Screen_6,canvas.Screen,0_2_11_5,,skipped,12,153962.19999998808,,,153953.90000000596,,153962.30000001192,2021-11-10T08:48:28.786Z,154192.391,1636533927,full,ni_sequenzen,NI_Sequenzen,,,,,,,,,,,,,,
,Sequence,flow.Sequence,0_2_11,,completion,12,153951.19999998808,,,153953.90000000596,,153962.59999999404,2021-11-10T08:48:28.787Z,154192.391,1636533927,full,ni_sequenzen,NI_Sequenzen,,,,,,,,,,,,,,
,Screen_1,canvas.Screen,0_2_12_0,,skipped,13,153964.69999998808,,,153964.69999998808,,153964.90000000596,2021-11-10T08:48:28.789Z,154192.391,1636533927,full,ni_sequenzen,NI_Sequenzen,,,,,,,,,,,,,,
,Screen_2,canvas.Screen,0_2_12_1,,skipped,13,153966.19999998808,,,153964.69999998808,,153966.40000000596,2021-11-10T08:48:28.790Z,154192.391,1636533927,full,ni_sequenzen,NI_Sequenzen,,,,,,,,,,,,,,
,Screen_3,canvas.Screen,0_2_12_2,,skipped,13,153967.69999998808,,,153964.69999998808,,153967.90000000596,2021-11-10T08:48:28.792Z,154192.391,1636533927,full,ni_sequenzen,NI_Sequenzen,,,,,,,,,,,,,,
,Screen_4,canvas.Screen,0_2_12_3,,skipped,13,153969.30000001192,,,153964.69999998808,,153969.40000000596,2021-11-10T08:48:28.793Z,154192.391,1636533927,full,ni_sequenzen,NI_Sequenzen,,,,,,,,,,,,,,
,Screen_5,canvas.Screen,0_2_12_4,,skipped,13,153971,,,153964.69999998808,,153971.09999999404,2021-11-10T08:48:28.795Z,154192.391,1636533927,full,ni_sequenzen,NI_Sequenzen,,,,,,,,,,,,,,
,Screen_6,canvas.Screen,0_2_12_5,,skipped,13,153972.59999999404,,,153964.69999998808,,153972.69999998808,2021-11-10T08:48:28.797Z,154192.391,1636533927,full,ni_sequenzen,NI_Sequenzen,,,,,,,,,,,,,,
,Sequence,flow.Sequence,0_2_12,,completion,13,153963.19999998808,,,153964.69999998808,,153972.90000000596,2021-11-10T08:48:28.797Z,154192.391,1636533927,full,ni_sequenzen,NI_Sequenzen,,,,,,,,,,,,,,
,Screen_1,canvas.Screen,0_2_13_0,,skipped,14,153975,,,153975,,153975.09999999404,2021-11-10T08:48:28.799Z,154192.391,1636533927,full,ni_sequenzen,NI_Sequenzen,,,,,,,,,,,,,,
,Screen_2,canvas.Screen,0_2_13_1,,skipped,14,153978.09999999404,,,153975,,153978.30000001192,2021-11-10T08:48:28.802Z,154192.391,1636533927,full,ni_sequenzen,NI_Sequenzen,,,,,,,,,,,,,,
,Screen_3,canvas.Screen,0_2_13_2,,skipped,14,153979.80000001192,,,153975,,153980,2021-11-10T08:48:28.804Z,154192.391,1636533927,full,ni_sequenzen,NI_Sequenzen,,,,,,,,,,,,,,
,Screen_4,canvas.Screen,0_2_13_3,,skipped,14,153981.40000000596,,,153975,,153981.5,2021-11-10T08:48:28.806Z,154192.391,1636533927,full,ni_sequenzen,NI_Sequenzen,,,,,,,,,,,,,,
,Screen_5,canvas.Screen,0_2_13_4,,skipped,14,153982.80000001192,,,153975,,153982.90000000596,2021-11-10T08:48:28.807Z,154192.391,1636533927,full,ni_sequenzen,NI_Sequenzen,,,,,,,,,,,,,,
,Screen_6,canvas.Screen,0_2_13_5,,skipped,14,153984.40000000596,,,153975,,153984.59999999404,2021-11-10T08:48:28.809Z,154192.391,1636533927,full,ni_sequenzen,NI_Sequenzen,,,,,,,,,,,,,,
,Sequence,flow.Sequence,0_2_13,,completion,14,153973.5,,,153975,,153984.90000000596,2021-11-10T08:48:28.809Z,154192.391,1636533927,full,ni_sequenzen,NI_Sequenzen,,,,,,,,,,,,,,
,Screen_1,canvas.Screen,0_2_14_0,,skipped,15,153986.90000000596,,,153986.90000000596,,153987,2021-11-10T08:48:28.811Z,154192.391,1636533927,full,ni_sequenzen,NI_Sequenzen,,,,,,,,,,,,,,
,Screen_2,canvas.Screen,0_2_14_1,,skipped,15,153988.40000000596,,,153986.90000000596,,153988.59999999404,2021-11-10T08:48:28.813Z,154192.391,1636533927,full,ni_sequenzen,NI_Sequenzen,,,,,,,,,,,,,,
,Screen_3,canvas.Screen,0_2_14_2,,skipped,15,153990.09999999404,,,153986.90000000596,,153990.30000001192,2021-11-10T08:48:28.814Z,154192.391,1636533927,full,ni_sequenzen,NI_Sequenzen,,,,,,,,,,,,,,
,Screen_4,canvas.Screen,0_2_14_3,,skipped,15,153991.90000000596,,,153986.90000000596,,153992.19999998808,2021-11-10T08:48:28.816Z,154192.391,1636533927,full,ni_sequenzen,NI_Sequenzen,,,,,,,,,,,,,,
,Screen_5,canvas.Screen,0_2_14_4,,skipped,15,153993.69999998808,,,153986.90000000596,,153993.80000001192,2021-11-10T08:48:28.818Z,154192.391,1636533927,full,ni_sequenzen,NI_Sequenzen,,,,,,,,,,,,,,
,Screen_6,canvas.Screen,0_2_14_5,,skipped,15,153995.30000001192,,,153986.90000000596,,153995.40000000596,2021-11-10T08:48:28.819Z,154192.391,1636533927,full,ni_sequenzen,NI_Sequenzen,,,,,,,,,,,,,,
,Sequence,flow.Sequence,0_2_14,,completion,15,153985.5,,,153986.90000000596,,153995.59999999404,2021-11-10T08:48:28.820Z,154192.391,1636533927,full,ni_sequenzen,NI_Sequenzen,,,,,,,,,,,,,,
,Screen_1,canvas.Screen,0_2_15_0,,skipped,16,153997.69999998808,,,153997.69999998808,,153997.80000001192,2021-11-10T08:48:28.822Z,154192.391,1636533927,full,ni_sequenzen,NI_Sequenzen,,,,,,,,,,,,,,
,Screen_2,canvas.Screen,0_2_15_1,,skipped,16,153999.30000001192,,,153997.69999998808,,153999.5,2021-11-10T08:48:28.824Z,154192.391,1636533927,full,ni_sequenzen,NI_Sequenzen,,,,,,,,,,,,,,
,Screen_3,canvas.Screen,0_2_15_2,,skipped,16,154000.90000000596,,,153997.69999998808,,154001,2021-11-10T08:48:28.825Z,154192.391,1636533927,full,ni_sequenzen,NI_Sequenzen,,,,,,,,,,,,,,
,Screen_4,canvas.Screen,0_2_15_3,,skipped,16,154003.5,,,153997.69999998808,,154003.59999999404,2021-11-10T08:48:28.828Z,154192.391,1636533927,full,ni_sequenzen,NI_Sequenzen,,,,,,,,,,,,,,
,Screen_5,canvas.Screen,0_2_15_4,,skipped,16,154005,,,153997.69999998808,,154005.09999999404,2021-11-10T08:48:28.829Z,154192.391,1636533927,full,ni_sequenzen,NI_Sequenzen,,,,,,,,,,,,,,
,Screen_6,canvas.Screen,0_2_15_5,,skipped,16,154006.5,,,153997.69999998808,,154006.69999998808,2021-11-10T08:48:28.831Z,154192.391,1636533927,full,ni_sequenzen,NI_Sequenzen,,,,,,,,,,,,,,
,Sequence,flow.Sequence,0_2_15,,completion,16,153996.19999998808,,,153997.69999998808,,154006.90000000596,2021-11-10T08:48:28.831Z,154192.391,1636533927,full,ni_sequenzen,NI_Sequenzen,,,,,,,,,,,,,,
,Screen_1,canvas.Screen,0_2_16_0,,skipped,17,154008.59999999404,,,154008.59999999404,,154008.80000001192,2021-11-10T08:48:28.833Z,154192.391,1636533927,full,ni_sequenzen,NI_Sequenzen,,,,,,,,,,,,,,
,Screen_2,canvas.Screen,0_2_16_1,,skipped,17,154010.09999999404,,,154008.59999999404,,154010.30000001192,2021-11-10T08:48:28.834Z,154192.391,1636533927,full,ni_sequenzen,NI_Sequenzen,,,,,,,,,,,,,,
,Screen_3,canvas.Screen,0_2_16_2,,skipped,17,154011.40000000596,,,154008.59999999404,,154011.5,2021-11-10T08:48:28.836Z,154192.391,1636533927,full,ni_sequenzen,NI_Sequenzen,,,,,,,,,,,,,,
,Screen_4,canvas.Screen,0_2_16_3,,skipped,17,154012.80000001192,,,154008.59999999404,,154012.90000000596,2021-11-10T08:48:28.837Z,154192.391,1636533927,full,ni_sequenzen,NI_Sequenzen,,,,,,,,,,,,,,
,Screen_5,canvas.Screen,0_2_16_4,,skipped,17,154014,,,154008.59999999404,,154014.19999998808,2021-11-10T08:48:28.838Z,154192.391,1636533927,full,ni_sequenzen,NI_Sequenzen,,,,,,,,,,,,,,
,Screen_6,canvas.Screen,0_2_16_5,,skipped,17,154015.30000001192,,,154008.59999999404,,154015.40000000596,2021-11-10T08:48:28.839Z,154192.391,1636533927,full,ni_sequenzen,NI_Sequenzen,,,,,,,,,,,,,,
,Sequence,flow.Sequence,0_2_16,,completion,17,154007.40000000596,,,154008.59999999404,,154015.5,2021-11-10T08:48:28.840Z,154192.391,1636533927,full,ni_sequenzen,NI_Sequenzen,,,,,,,,,,,,,,
,Screen_1,canvas.Screen,0_2_17_0,,skipped,18,154017.09999999404,,,154017.19999998808,,154017.30000001192,2021-11-10T08:48:28.841Z,154192.391,1636533927,full,ni_sequenzen,NI_Sequenzen,,,,,,,,,,,,,,
,Screen_2,canvas.Screen,0_2_17_1,,skipped,18,154018.40000000596,,,154017.19999998808,,154018.69999998808,2021-11-10T08:48:28.843Z,154192.391,1636533927,full,ni_sequenzen,NI_Sequenzen,,,,,,,,,,,,,,
,Screen_3,canvas.Screen,0_2_17_2,,skipped,18,154020,,,154017.19999998808,,154020,2021-11-10T08:48:28.844Z,154192.391,1636533927,full,ni_sequenzen,NI_Sequenzen,,,,,,,,,,,,,,
,Screen_4,canvas.Screen,0_2_17_3,,skipped,18,154021.19999998808,,,154017.19999998808,,154021.40000000596,2021-11-10T08:48:28.845Z,154192.391,1636533927,full,ni_sequenzen,NI_Sequenzen,,,,,,,,,,,,,,
,Screen_5,canvas.Screen,0_2_17_4,,skipped,18,154023.59999999404,,,154017.19999998808,,154023.69999998808,2021-11-10T08:48:28.848Z,154192.391,1636533927,full,ni_sequenzen,NI_Sequenzen,,,,,,,,,,,,,,
,Screen_6,canvas.Screen,0_2_17_5,,skipped,18,154025,,,154017.19999998808,,154025.09999999404,2021-11-10T08:48:28.849Z,154192.391,1636533927,full,ni_sequenzen,NI_Sequenzen,,,,,,,,,,,,,,
,Sequence,flow.Sequence,0_2_17,,completion,18,154016.09999999404,,,154017.19999998808,,154025.40000000596,2021-11-10T08:48:28.850Z,154192.391,1636533927,full,ni_sequenzen,NI_Sequenzen,,,,,,,,,,,,,,
,Screen_1,canvas.Screen,0_2_18_0,,skipped,19,154027.59999999404,,,154027.59999999404,,154027.69999998808,2021-11-10T08:48:28.852Z,154192.391,1636533927,full,ni_sequenzen,NI_Sequenzen,,,,,,,,,,,,,,
,Screen_2,canvas.Screen,0_2_18_1,,skipped,19,154028.80000001192,,,154027.59999999404,,154029,2021-11-10T08:48:28.853Z,154192.391,1636533927,full,ni_sequenzen,NI_Sequenzen,,,,,,,,,,,,,,
,Screen_3,canvas.Screen,0_2_18_2,,skipped,19,154030.09999999404,,,154027.59999999404,,154030.19999998808,2021-11-10T08:48:28.854Z,154192.391,1636533927,full,ni_sequenzen,NI_Sequenzen,,,,,,,,,,,,,,
,Screen_4,canvas.Screen,0_2_18_3,,skipped,19,154031.30000001192,,,154027.59999999404,,154031.5,2021-11-10T08:48:28.856Z,154192.391,1636533927,full,ni_sequenzen,NI_Sequenzen,,,,,,,,,,,,,,
,Screen_5,canvas.Screen,0_2_18_4,,skipped,19,154032.59999999404,,,154027.59999999404,,154032.69999998808,2021-11-10T08:48:28.857Z,154192.391,1636533927,full,ni_sequenzen,NI_Sequenzen,,,,,,,,,,,,,,
,Screen_6,canvas.Screen,0_2_18_5,,skipped,19,154033.90000000596,,,154027.59999999404,,154034.09999999404,2021-11-10T08:48:28.858Z,154192.391,1636533927,full,ni_sequenzen,NI_Sequenzen,,,,,,,,,,,,,,
,Sequence,flow.Sequence,0_2_18,,completion,19,154026.30000001192,,,154027.59999999404,,154034.19999998808,2021-11-10T08:48:28.858Z,154192.391,1636533927,full,ni_sequenzen,NI_Sequenzen,,,,,,,,,,,,,,
,Screen_1,canvas.Screen,0_2_19_0,,skipped,20,154036,,,154036,,154036.09999999404,2021-11-10T08:48:28.860Z,154192.391,1636533927,full,ni_sequenzen,NI_Sequenzen,,,,,,,,,,,,,,
,Screen_2,canvas.Screen,0_2_19_1,,skipped,20,154037.30000001192,,,154036,,154037.40000000596,2021-11-10T08:48:28.861Z,154192.391,1636533927,full,ni_sequenzen,NI_Sequenzen,,,,,,,,,,,,,,
,Screen_3,canvas.Screen,0_2_19_2,,skipped,20,154038.5,,,154036,,154038.59999999404,2021-11-10T08:48:28.863Z,154192.391,1636533927,full,ni_sequenzen,NI_Sequenzen,,,,,,,,,,,,,,
,Screen_4,canvas.Screen,0_2_19_3,,skipped,20,154039.90000000596,,,154036,,154040,2021-11-10T08:48:28.864Z,154192.391,1636533927,full,ni_sequenzen,NI_Sequenzen,,,,,,,,,,,,,,
,Screen_5,canvas.Screen,0_2_19_4,,skipped,20,154041.09999999404,,,154036,,154041.30000001192,2021-11-10T08:48:28.865Z,154192.391,1636533927,full,ni_sequenzen,NI_Sequenzen,,,,,,,,,,,,,,
,Screen_6,canvas.Screen,0_2_19_5,,skipped,20,154042.40000000596,,,154036,,154042.69999998808,2021-11-10T08:48:28.867Z,154192.391,1636533927,full,ni_sequenzen,NI_Sequenzen,,,,,,,,,,,,,,
,Sequence,flow.Sequence,0_2_19,,completion,20,154034.80000001192,,,154036,,154042.80000001192,2021-11-10T08:48:28.867Z,154192.391,1636533927,full,ni_sequenzen,NI_Sequenzen,,,,,,,,,,,,,,
,Screen_1,canvas.Screen,0_2_20_0,,skipped,21,154045.5,,,154045.5,,154045.69999998808,2021-11-10T08:48:28.870Z,154192.391,1636533927,full,ni_sequenzen,NI_Sequenzen,,,,,,,,,,,,,,
,Screen_2,canvas.Screen,0_2_20_1,,skipped,21,154047,,,154045.5,,154047,2021-11-10T08:48:28.871Z,154192.391,1636533927,full,ni_sequenzen,NI_Sequenzen,,,,,,,,,,,,,,
,Screen_3,canvas.Screen,0_2_20_2,,skipped,21,154048.19999998808,,,154045.5,,154048.30000001192,2021-11-10T08:48:28.872Z,154192.391,1636533927,full,ni_sequenzen,NI_Sequenzen,,,,,,,,,,,,,,
,Screen_4,canvas.Screen,0_2_20_3,,skipped,21,154049.40000000596,,,154045.5,,154049.5,2021-11-10T08:48:28.874Z,154192.391,1636533927,full,ni_sequenzen,NI_Sequenzen,,,,,,,,,,,,,,
,Screen_5,canvas.Screen,0_2_20_4,,skipped,21,154050.69999998808,,,154045.5,,154050.80000001192,2021-11-10T08:48:28.875Z,154192.391,1636533927,full,ni_sequenzen,NI_Sequenzen,,,,,,,,,,,,,,
,Screen_6,canvas.Screen,0_2_20_5,,skipped,21,154051.90000000596,,,154045.5,,154052.09999999404,2021-11-10T08:48:28.876Z,154192.391,1636533927,full,ni_sequenzen,NI_Sequenzen,,,,,,,,,,,,,,
,Sequence,flow.Sequence,0_2_20,,completion,21,154043.40000000596,,,154045.5,,154052.30000001192,2021-11-10T08:48:28.876Z,154192.391,1636533927,full,ni_sequenzen,NI_Sequenzen,,,,,,,,,,,,,,
,Screen_1,canvas.Screen,0_2_21_0,,skipped,22,154054,,,154054,,154054.09999999404,2021-11-10T08:48:28.878Z,154192.391,1636533927,full,ni_sequenzen,NI_Sequenzen,,,,,,,,,,,,,,
,Screen_2,canvas.Screen,0_2_21_1,,skipped,22,154055.30000001192,,,154054,,154055.40000000596,2021-11-10T08:48:28.879Z,154192.391,1636533927,full,ni_sequenzen,NI_Sequenzen,,,,,,,,,,,,,,
,Screen_3,canvas.Screen,0_2_21_2,,skipped,22,154056.59999999404,,,154054,,154056.69999998808,2021-11-10T08:48:28.881Z,154192.391,1636533927,full,ni_sequenzen,NI_Sequenzen,,,,,,,,,,,,,,
,Screen_4,canvas.Screen,0_2_21_3,,skipped,22,154057.80000001192,,,154054,,154058,2021-11-10T08:48:28.882Z,154192.391,1636533927,full,ni_sequenzen,NI_Sequenzen,,,,,,,,,,,,,,
,Screen_5,canvas.Screen,0_2_21_4,,skipped,22,154059.09999999404,,,154054,,154059.30000001192,2021-11-10T08:48:28.883Z,154192.391,1636533927,full,ni_sequenzen,NI_Sequenzen,,,,,,,,,,,,,,
,Screen_6,canvas.Screen,0_2_21_5,,skipped,22,154061.69999998808,,,154054,,154061.90000000596,2021-11-10T08:48:28.886Z,154192.391,1636533927,full,ni_sequenzen,NI_Sequenzen,,,,,,,,,,,,,,
,Sequence,flow.Sequence,0_2_21,,completion,22,154052.69999998808,,,154054,,154062,2021-11-10T08:48:28.886Z,154192.391,1636533927,full,ni_sequenzen,NI_Sequenzen,,,,,,,,,,,,,,
,Screen_1,canvas.Screen,0_2_22_0,,skipped,23,154063.90000000596,,,154064,,154064,2021-11-10T08:48:28.888Z,154192.391,1636533927,full,ni_sequenzen,NI_Sequenzen,,,,,,,,,,,,,,
,Screen_2,canvas.Screen,0_2_22_1,,skipped,23,154065.19999998808,,,154064,,154065.40000000596,2021-11-10T08:48:28.889Z,154192.391,1636533927,full,ni_sequenzen,NI_Sequenzen,,,,,,,,,,,,,,
,Screen_3,canvas.Screen,0_2_22_2,,skipped,23,154066.80000001192,,,154064,,154067,2021-11-10T08:48:28.891Z,154192.391,1636533927,full,ni_sequenzen,NI_Sequenzen,,,,,,,,,,,,,,
,Screen_4,canvas.Screen,0_2_22_3,,skipped,23,154068.19999998808,,,154064,,154068.30000001192,2021-11-10T08:48:28.892Z,154192.391,1636533927,full,ni_sequenzen,NI_Sequenzen,,,,,,,,,,,,,,
,Screen_5,canvas.Screen,0_2_22_4,,skipped,23,154071.5,,,154064,,154071.69999998808,2021-11-10T08:48:28.896Z,154192.391,1636533927,full,ni_sequenzen,NI_Sequenzen,,,,,,,,,,,,,,
,Screen_6,canvas.Screen,0_2_22_5,,skipped,23,154073,,,154064,,154073.09999999404,2021-11-10T08:48:28.897Z,154192.391,1636533927,full,ni_sequenzen,NI_Sequenzen,,,,,,,,,,,,,,
,Sequence,flow.Sequence,0_2_22,,completion,23,154062.59999999404,,,154064,,154073.19999998808,2021-11-10T08:48:28.897Z,154192.391,1636533927,full,ni_sequenzen,NI_Sequenzen,,,,,,,,,,,,,,
,Screen_1,canvas.Screen,0_2_23_0,,skipped,24,154075,,,154075,,154075.19999998808,2021-11-10T08:48:28.899Z,154192.391,1636533927,full,ni_sequenzen,NI_Sequenzen,,,,,,,,,,,,,,
,Screen_2,canvas.Screen,0_2_23_1,,skipped,24,154076.59999999404,,,154075,,154076.69999998808,2021-11-10T08:48:28.901Z,154192.391,1636533927,full,ni_sequenzen,NI_Sequenzen,,,,,,,,,,,,,,
,Screen_3,canvas.Screen,0_2_23_2,,skipped,24,154077.90000000596,,,154075,,154078,2021-11-10T08:48:28.902Z,154192.391,1636533927,full,ni_sequenzen,NI_Sequenzen,,,,,,,,,,,,,,
,Screen_4,canvas.Screen,0_2_23_3,,skipped,24,154079.09999999404,,,154075,,154079.19999998808,2021-11-10T08:48:28.903Z,154192.391,1636533927,full,ni_sequenzen,NI_Sequenzen,,,,,,,,,,,,,,
,Screen_5,canvas.Screen,0_2_23_4,,skipped,24,154080.30000001192,,,154075,,154080.5,2021-11-10T08:48:28.904Z,154192.391,1636533927,full,ni_sequenzen,NI_Sequenzen,,,,,,,,,,,,,,
,Screen_6,canvas.Screen,0_2_23_5,,skipped,24,154081.69999998808,,,154075,,154081.80000001192,2021-11-10T08:48:28.906Z,154192.391,1636533927,full,ni_sequenzen,NI_Sequenzen,,,,,,,,,,,,,,
,Sequence,flow.Sequence,0_2_23,,completion,24,154073.80000001192,,,154075,,154082,2021-11-10T08:48:28.906Z,154192.391,1636533927,full,ni_sequenzen,NI_Sequenzen,,,,,,,,,,,,,,
,Screen_1,canvas.Screen,0_2_24_0,,skipped,25,154083.5,,,154083.59999999404,,154083.69999998808,2021-11-10T08:48:28.908Z,154192.391,1636533927,full,ni_sequenzen,NI_Sequenzen,,,,,,,,,,,,,,
,Screen_2,canvas.Screen,0_2_24_1,,skipped,25,154084.90000000596,,,154083.59999999404,,154085,2021-11-10T08:48:28.909Z,154192.391,1636533927,full,ni_sequenzen,NI_Sequenzen,,,,,,,,,,,,,,
,Screen_3,canvas.Screen,0_2_24_2,,skipped,25,154086.09999999404,,,154083.59999999404,,154086.30000001192,2021-11-10T08:48:28.910Z,154192.391,1636533927,full,ni_sequenzen,NI_Sequenzen,,,,,,,,,,,,,,
,Screen_4,canvas.Screen,0_2_24_3,,skipped,25,154087.40000000596,,,154083.59999999404,,154087.59999999404,2021-11-10T08:48:28.912Z,154192.391,1636533927,full,ni_sequenzen,NI_Sequenzen,,,,,,,,,,,,,,
,Screen_5,canvas.Screen,0_2_24_4,,skipped,25,154088.90000000596,,,154083.59999999404,,154089,2021-11-10T08:48:28.913Z,154192.391,1636533927,full,ni_sequenzen,NI_Sequenzen,,,,,,,,,,,,,,
,Screen_6,canvas.Screen,0_2_24_5,,skipped,25,154090.19999998808,,,154083.59999999404,,154090.30000001192,2021-11-10T08:48:28.914Z,154192.391,1636533927,full,ni_sequenzen,NI_Sequenzen,,,,,,,,,,,,,,
,Sequence,flow.Sequence,0_2_24,,completion,25,154082.5,,,154083.59999999404,,154090.40000000596,2021-11-10T08:48:28.915Z,154192.391,1636533927,full,ni_sequenzen,NI_Sequenzen,,,,,,,,,,,,,,
,Screen_1,canvas.Screen,0_2_25_0,,skipped,26,154093.40000000596,,,154093.40000000596,,154093.5,2021-11-10T08:48:28.918Z,154192.391,1636533927,full,ni_sequenzen,NI_Sequenzen,,,,,,,,,,,,,,
,Screen_2,canvas.Screen,0_2_25_1,,skipped,26,154094.90000000596,,,154093.40000000596,,154095,2021-11-10T08:48:28.919Z,154192.391,1636533927,full,ni_sequenzen,NI_Sequenzen,,,,,,,,,,,,,,
,Screen_3,canvas.Screen,0_2_25_2,,skipped,26,154096.19999998808,,,154093.40000000596,,154096.40000000596,2021-11-10T08:48:28.920Z,154192.391,1636533927,full,ni_sequenzen,NI_Sequenzen,,,,,,,,,,,,,,
,Screen_4,canvas.Screen,0_2_25_3,,skipped,26,154097.5,,,154093.40000000596,,154097.59999999404,2021-11-10T08:48:28.922Z,154192.391,1636533927,full,ni_sequenzen,NI_Sequenzen,,,,,,,,,,,,,,
,Screen_5,canvas.Screen,0_2_25_4,,skipped,26,154098.69999998808,,,154093.40000000596,,154098.80000001192,2021-11-10T08:48:28.923Z,154192.391,1636533927,full,ni_sequenzen,NI_Sequenzen,,,,,,,,,,,,,,
,Screen_6,canvas.Screen,0_2_25_5,,skipped,26,154100,,,154093.40000000596,,154100.09999999404,2021-11-10T08:48:28.924Z,154192.391,1636533927,full,ni_sequenzen,NI_Sequenzen,,,,,,,,,,,,,,
,Sequence,flow.Sequence,0_2_25,,completion,26,154091,,,154093.40000000596,,154100.30000001192,2021-11-10T08:48:28.924Z,154192.391,1636533927,full,ni_sequenzen,NI_Sequenzen,,,,,,,,,,,,,,
,Screen_1,canvas.Screen,0_2_26_0,,skipped,27,154101.90000000596,,,154101.90000000596,,154102.09999999404,2021-11-10T08:48:28.926Z,154192.391,1636533927,full,ni_sequenzen,NI_Sequenzen,,,,,,,,,,,,,,
,Screen_2,canvas.Screen,0_2_26_1,,skipped,27,154103.30000001192,,,154101.90000000596,,154103.40000000596,2021-11-10T08:48:28.927Z,154192.391,1636533927,full,ni_sequenzen,NI_Sequenzen,,,,,,,,,,,,,,
,Screen_3,canvas.Screen,0_2_26_2,,skipped,27,154104.59999999404,,,154101.90000000596,,154104.69999998808,2021-11-10T08:48:28.929Z,154192.391,1636533927,full,ni_sequenzen,NI_Sequenzen,,,,,,,,,,,,,,
,Screen_4,canvas.Screen,0_2_26_3,,skipped,27,154106.19999998808,,,154101.90000000596,,154106.30000001192,2021-11-10T08:48:28.930Z,154192.391,1636533927,full,ni_sequenzen,NI_Sequenzen,,,,,,,,,,,,,,
,Screen_5,canvas.Screen,0_2_26_4,,skipped,27,154107.59999999404,,,154101.90000000596,,154107.69999998808,2021-11-10T08:48:28.932Z,154192.391,1636533927,full,ni_sequenzen,NI_Sequenzen,,,,,,,,,,,,,,
,Screen_6,canvas.Screen,0_2_26_5,,skipped,27,154109,,,154101.90000000596,,154109.09999999404,2021-11-10T08:48:28.933Z,154192.391,1636533927,full,ni_sequenzen,NI_Sequenzen,,,,,,,,,,,,,,
,Sequence,flow.Sequence,0_2_26,,completion,27,154100.80000001192,,,154101.90000000596,,154109.30000001192,2021-11-10T08:48:28.933Z,154192.391,1636533927,full,ni_sequenzen,NI_Sequenzen,,,,,,,,,,,,,,
,Screen_1,canvas.Screen,0_2_27_0,,skipped,28,154111,,,154111,,154111.09999999404,2021-11-10T08:48:28.935Z,154192.391,1636533927,full,ni_sequenzen,NI_Sequenzen,,,,,,,,,,,,,,
,Screen_2,canvas.Screen,0_2_27_1,,skipped,28,154112.19999998808,,,154111,,154112.40000000596,2021-11-10T08:48:28.936Z,154192.391,1636533927,full,ni_sequenzen,NI_Sequenzen,,,,,,,,,,,,,,
,Screen_3,canvas.Screen,0_2_27_2,,skipped,28,154114.40000000596,,,154111,,154114.5,2021-11-10T08:48:28.939Z,154192.391,1636533927,full,ni_sequenzen,NI_Sequenzen,,,,,,,,,,,,,,
,Screen_4,canvas.Screen,0_2_27_3,,skipped,28,154115.90000000596,,,154111,,154116,2021-11-10T08:48:28.940Z,154192.391,1636533927,full,ni_sequenzen,NI_Sequenzen,,,,,,,,,,,,,,
,Screen_5,canvas.Screen,0_2_27_4,,skipped,28,154117.19999998808,,,154111,,154117.30000001192,2021-11-10T08:48:28.941Z,154192.391,1636533927,full,ni_sequenzen,NI_Sequenzen,,,,,,,,,,,,,,
,Screen_6,canvas.Screen,0_2_27_5,,skipped,28,154118.5,,,154111,,154118.59999999404,2021-11-10T08:48:28.943Z,154192.391,1636533927,full,ni_sequenzen,NI_Sequenzen,,,,,,,,,,,,,,
,Sequence,flow.Sequence,0_2_27,,completion,28,154109.80000001192,,,154111,,154118.69999998808,2021-11-10T08:48:28.943Z,154192.391,1636533927,full,ni_sequenzen,NI_Sequenzen,,,,,,,,,,,,,,
,Screen_1,canvas.Screen,0_2_28_0,,skipped,29,154120.40000000596,,,154120.40000000596,,154120.5,2021-11-10T08:48:28.945Z,154192.391,1636533927,full,ni_sequenzen,NI_Sequenzen,,,,,,,,,,,,,,
,Screen_2,canvas.Screen,0_2_28_1,,skipped,29,154121.90000000596,,,154120.40000000596,,154122,2021-11-10T08:48:28.946Z,154192.391,1636533927,full,ni_sequenzen,NI_Sequenzen,,,,,,,,,,,,,,
,Screen_3,canvas.Screen,0_2_28_2,,skipped,29,154123.19999998808,,,154120.40000000596,,154123.40000000596,2021-11-10T08:48:28.947Z,154192.391,1636533927,full,ni_sequenzen,NI_Sequenzen,,,,,,,,,,,,,,
,Screen_4,canvas.Screen,0_2_28_3,,skipped,29,154124.59999999404,,,154120.40000000596,,154124.59999999404,2021-11-10T08:48:28.949Z,154192.391,1636533927,full,ni_sequenzen,NI_Sequenzen,,,,,,,,,,,,,,
,Screen_5,canvas.Screen,0_2_28_4,,skipped,29,154125.90000000596,,,154120.40000000596,,154126,2021-11-10T08:48:28.950Z,154192.391,1636533927,full,ni_sequenzen,NI_Sequenzen,,,,,,,,,,,,,,
,Screen_6,canvas.Screen,0_2_28_5,,skipped,29,154127.40000000596,,,154120.40000000596,,154127.5,2021-11-10T08:48:28.952Z,154192.391,1636533927,full,ni_sequenzen,NI_Sequenzen,,,,,,,,,,,,,,
,Sequence,flow.Sequence,0_2_28,,completion,29,154119.30000001192,,,154120.40000000596,,154127.69999998808,2021-11-10T08:48:28.952Z,154192.391,1636533927,full,ni_sequenzen,NI_Sequenzen,,,,,,,,,,,,,,
,Screen_1,canvas.Screen,0_2_29_0,,skipped,30,154129.40000000596,,,154129.40000000596,,154129.5,2021-11-10T08:48:28.954Z,154192.391,1636533927,full,ni_sequenzen,NI_Sequenzen,,,,,,,,,,,,,,
,Screen_2,canvas.Screen,0_2_29_1,,skipped,30,154130.69999998808,,,154129.40000000596,,154130.80000001192,2021-11-10T08:48:28.955Z,154192.391,1636533927,full,ni_sequenzen,NI_Sequenzen,,,,,,,,,,,,,,
,Screen_3,canvas.Screen,0_2_29_2,,skipped,30,154131.90000000596,,,154129.40000000596,,154132,2021-11-10T08:48:28.956Z,154192.391,1636533927,full,ni_sequenzen,NI_Sequenzen,,,,,,,,,,,,,,
,Screen_4,canvas.Screen,0_2_29_3,,skipped,30,154133.09999999404,,,154129.40000000596,,154133.30000001192,2021-11-10T08:48:28.957Z,154192.391,1636533927,full,ni_sequenzen,NI_Sequenzen,,,,,,,,,,,,,,
,Screen_5,canvas.Screen,0_2_29_4,,skipped,30,154135.19999998808,,,154129.40000000596,,154135.30000001192,2021-11-10T08:48:28.959Z,154192.391,1636533927,full,ni_sequenzen,NI_Sequenzen,,,,,,,,,,,,,,
,Screen_6,canvas.Screen,0_2_29_5,,skipped,30,154136.59999999404,,,154129.40000000596,,154136.69999998808,2021-11-10T08:48:28.961Z,154192.391,1636533927,full,ni_sequenzen,NI_Sequenzen,,,,,,,,,,,,,,
,Sequence,flow.Sequence,0_2_29,,completion,30,154128.19999998808,,,154129.40000000596,,154136.90000000596,2021-11-10T08:48:28.961Z,154192.391,1636533927,full,ni_sequenzen,NI_Sequenzen,,,,,,,,,,,,,,
,Instructions_II,flow.Loop,0_2,,completion,,74289.09999999404,74288.677,74305.132,154129.40000000596,79824.26800000596,154137,2021-11-10T08:48:28.961Z,154192.391,1636533927,full,ni_sequenzen,NI_Sequenzen,,,,,,,,,,,,,,
,Move,canvas.Screen,0_3_0_0_0_0,right,response,,154187.30000001192,154176.422,154192.391,178800,24607.608999999997,178801,2021-11-10T08:48:53.625Z,178846.359,1636533927,full,ni_sequenzen,NI_Sequenzen,1,0,,,,,,,,,,,,
,Move,canvas.Screen,0_3_0_0_0_1,down,response,,178820.59999999404,178814.662,178846.359,179382.30000001192,535.9410000119242,179383.40000000596,2021-11-10T08:48:54.207Z,179397.237,1636533927,full,ni_sequenzen,NI_Sequenzen,2,0,,,,,,,,,,,,
,Move,canvas.Screen,0_3_0_0_0_2,right,response,,179390.40000000596,179380.577,179397.237,187318,7920.763000000006,187318.90000000596,2021-11-10T08:49:02.143Z,187342.588,1636533927,full,ni_sequenzen,NI_Sequenzen,3,0,,,,,,,,,,,,
,Move,canvas.Screen,0_3_0_0_0_3,down,response,,187326.90000000596,187326.43,187342.588,187805.90000000596,463.31200000597164,187806.80000001192,2021-11-10T08:49:02.631Z,187910.04,1636533927,full,ni_sequenzen,NI_Sequenzen,4,0,,,,,,,,,,,,
,Move,canvas.Screen,0_3_0_0_0_4,-999,skipped,,187813.5,,,187805.90000000596,,187814.59999999404,2021-11-10T08:49:02.639Z,187910.04,1636533927,full,ni_sequenzen,NI_Sequenzen,5,0,,,,,,,,,,,,
,Move,canvas.Screen,0_3_0_0_0_5,-999,skipped,,187823.59999999404,,,187805.90000000596,,187823.90000000596,2021-11-10T08:49:02.648Z,187910.04,1636533927,full,ni_sequenzen,NI_Sequenzen,6,0,,,,,,,,,,,,
,Move,canvas.Screen,0_3_0_0_0_6,-999,skipped,,187831.19999998808,,,187805.90000000596,,187831.40000000596,2021-11-10T08:49:02.655Z,187910.04,1636533927,full,ni_sequenzen,NI_Sequenzen,7,0,,,,,,,,,,,,
,Move,canvas.Screen,0_3_0_0_0_7,-999,skipped,,187837.59999999404,,,187805.90000000596,,187837.80000001192,2021-11-10T08:49:02.662Z,187910.04,1636533927,full,ni_sequenzen,NI_Sequenzen,8,0,,,,,,,,,,,,
,Move,canvas.Screen,0_3_0_0_0_8,-999,skipped,,187843.59999999404,,,187805.90000000596,,187843.80000001192,2021-11-10T08:49:02.668Z,187910.04,1636533927,full,ni_sequenzen,NI_Sequenzen,9,0,,,,,,,,,,,,
,Move,canvas.Screen,0_3_0_0_0_9,-999,skipped,,187849.09999999404,,,187805.90000000596,,187849.30000001192,2021-11-10T08:49:02.673Z,187910.04,1636533927,full,ni_sequenzen,NI_Sequenzen,10,0,,,,,,,,,,,,
,Move,canvas.Screen,0_3_0_0_0_10,-999,skipped,,187858,,,187805.90000000596,,187858.19999998808,2021-11-10T08:49:02.682Z,187910.04,1636533927,full,ni_sequenzen,NI_Sequenzen,11,0,,,,,,,,,,,,
,Move,canvas.Screen,0_3_0_0_0_11,-999,skipped,,187865.80000001192,,,187805.90000000596,,187866.09999999404,2021-11-10T08:49:02.690Z,187910.04,1636533927,full,ni_sequenzen,NI_Sequenzen,12,0,,,,,,,,,,,,
,Move,canvas.Screen,0_3_0_0_0_12,-999,skipped,,187871.40000000596,,,187805.90000000596,,187871.69999998808,2021-11-10T08:49:02.696Z,187910.04,1636533927,full,ni_sequenzen,NI_Sequenzen,13,0,,,,,,,,,,,,
,Move,canvas.Screen,0_3_0_0_0_13,-999,skipped,,187878.5,,,187805.90000000596,,187878.69999998808,2021-11-10T08:49:02.703Z,187910.04,1636533927,full,ni_sequenzen,NI_Sequenzen,14,0,,,,,,,,,,,,
,Move,canvas.Screen,0_3_0_0_0_14,-999,skipped,,187884.69999998808,,,187805.90000000596,,187884.90000000596,2021-11-10T08:49:02.709Z,187910.04,1636533927,full,ni_sequenzen,NI_Sequenzen,15,0,,,,,,,,,,,,
,Loop,flow.Loop,0_3_0_0_0,-999,completion,,154179.30000001192,154176.422,154192.391,187805.90000000596,33613.50900000596,187885.40000000596,2021-11-10T08:49:02.709Z,187910.04,1636533927,full,ni_sequenzen,NI_Sequenzen,,0,,,,,,,,,,,,
,Feedback,canvas.Screen,0_3_0_0_1,,timeout,,187893.30000001192,187893.514,187910.04,191899.525,4022.685999999987,191901.5,2021-11-10T08:49:06.726Z,191932.726,1636533927,full,ni_sequenzen,NI_Sequenzen,,0,,,,,,,,,,,,
,Trial,flow.Sequence,0_3_0_0,,completion,,154159.30000001192,154176.422,154192.391,191899.525,37707.13399999999,191901.90000000596,2021-11-10T08:49:06.726Z,191949.43,1636533927,full,ni_sequenzen,NI_Sequenzen,,0,,,,,,,,,,,,
,Move,canvas.Screen,0_3_0_1_0_0,right,response,,191938.59999999404,191932.726,191949.43,199278,7328.570000000007,199279,2021-11-10T08:49:14.103Z,199293.861,1636533927,full,ni_sequenzen,NI_Sequenzen,1,1,,,,,,,,,,,,
,Move,canvas.Screen,0_3_0_1_0_1,down,response,,199286.5,199277.778,199293.861,199742,448.1389999999956,199743,2021-11-10T08:49:14.567Z,199777.929,1636533927,full,ni_sequenzen,NI_Sequenzen,2,1,,,,,,,,,,,,
,Move,canvas.Screen,0_3_0_1_0_2,down,response,,199750.40000000596,199744.705,199777.929,200197.59999999404,419.6709999940358,200198.69999998808,2021-11-10T08:49:15.022Z,200211.91,1636533927,full,ni_sequenzen,NI_Sequenzen,3,1,,,,,,,,,,,,
,Move,canvas.Screen,0_3_0_1_0_3,right,response,,200204.69999998808,200195.335,200211.91,200901.90000000596,689.990000005957,200903,2021-11-10T08:49:15.727Z,200979.756,1636533927,full,ni_sequenzen,NI_Sequenzen,4,1,,,,,,,,,,,,
,Move,canvas.Screen,0_3_0_1_0_4,-999,skipped,,200908.30000001192,,,200901.90000000596,,200908.59999999404,2021-11-10T08:49:15.732Z,200979.756,1636533927,full,ni_sequenzen,NI_Sequenzen,5,1,,,,,,,,,,,,
,Move,canvas.Screen,0_3_0_1_0_5,-999,skipped,,200914,,,200901.90000000596,,200914.19999998808,2021-11-10T08:49:15.738Z,200979.756,1636533927,full,ni_sequenzen,NI_Sequenzen,6,1,,,,,,,,,,,,
,Move,canvas.Screen,0_3_0_1_0_6,-999,skipped,,200920.80000001192,,,200901.90000000596,,200921,2021-11-10T08:49:15.745Z,200979.756,1636533927,full,ni_sequenzen,NI_Sequenzen,7,1,,,,,,,,,,,,
,Move,canvas.Screen,0_3_0_1_0_7,-999,skipped,,200926.90000000596,,,200901.90000000596,,200927.09999999404,2021-11-10T08:49:15.751Z,200979.756,1636533927,full,ni_sequenzen,NI_Sequenzen,8,1,,,,,,,,,,,,
,Move,canvas.Screen,0_3_0_1_0_8,-999,skipped,,200932.69999998808,,,200901.90000000596,,200933,2021-11-10T08:49:15.757Z,200979.756,1636533927,full,ni_sequenzen,NI_Sequenzen,9,1,,,,,,,,,,,,
,Move,canvas.Screen,0_3_0_1_0_9,-999,skipped,,200939.90000000596,,,200901.90000000596,,200940,2021-11-10T08:49:15.764Z,200979.756,1636533927,full,ni_sequenzen,NI_Sequenzen,10,1,,,,,,,,,,,,
,Move,canvas.Screen,0_3_0_1_0_10,-999,skipped,,200947.09999999404,,,200901.90000000596,,200947.30000001192,2021-11-10T08:49:15.771Z,200979.756,1636533927,full,ni_sequenzen,NI_Sequenzen,11,1,,,,,,,,,,,,
,Move,canvas.Screen,0_3_0_1_0_11,-999,skipped,,200952.80000001192,,,200901.90000000596,,200953,2021-11-10T08:49:15.777Z,200979.756,1636533927,full,ni_sequenzen,NI_Sequenzen,12,1,,,,,,,,,,,,
,Move,canvas.Screen,0_3_0_1_0_12,-999,skipped,,200959.19999998808,,,200901.90000000596,,200959.5,2021-11-10T08:49:15.783Z,200979.756,1636533927,full,ni_sequenzen,NI_Sequenzen,13,1,,,,,,,,,,,,
,Move,canvas.Screen,0_3_0_1_0_13,-999,skipped,,200964.90000000596,,,200901.90000000596,,200965.19999998808,2021-11-10T08:49:15.789Z,200979.756,1636533927,full,ni_sequenzen,NI_Sequenzen,14,1,,,,,,,,,,,,
,Move,canvas.Screen,0_3_0_1_0_14,-999,skipped,,200970.90000000596,,,200901.90000000596,,200971.19999998808,2021-11-10T08:49:15.795Z,200979.756,1636533927,full,ni_sequenzen,NI_Sequenzen,15,1,,,,,,,,,,,,
,Loop,flow.Loop,0_3_0_1_0,-999,completion,,191927.30000001192,191932.726,191949.43,200901.90000000596,8952.470000005967,200971.59999999404,2021-11-10T08:49:15.795Z,200979.756,1636533927,full,ni_sequenzen,NI_Sequenzen,,1,,,,,,,,,,,,
,Feedback,canvas.Screen,0_3_0_1_1,,timeout,,200976.90000000596,200963.254,200979.756,204969.291,4022.722000000009,204970.69999998808,2021-11-10T08:49:19.794Z,205002.478,1636533927,full,ni_sequenzen,NI_Sequenzen,,1,,,,,,,,,,,,
,Trial,flow.Sequence,0_3_0_1,,completion,,191902.59999999404,191932.726,191949.43,204969.291,13019.861000000004,204971.09999999404,2021-11-10T08:49:19.795Z,205035.868,1636533927,full,ni_sequenzen,NI_Sequenzen,,1,,,,,,,,,,,,
,Move,canvas.Screen,0_3_0_2_0_0,right,response,,205010.5,205002.478,205035.868,216935.5,11899.632000000012,216936.80000001192,2021-11-10T08:49:31.760Z,216953.856,1636533927,full,ni_sequenzen,NI_Sequenzen,1,2,,,,,,,,,,,,
,Move,canvas.Screen,0_3_0_2_0_1,down,response,,216943.09999999404,216938.133,216953.856,217461.90000000596,508.0440000059607,217462.90000000596,2021-11-10T08:49:32.286Z,217471.342,1636533927,full,ni_sequenzen,NI_Sequenzen,2,2,,,,,,,,,,,,
,Move,canvas.Screen,0_3_0_2_0_2,down,response,,217469.5,217454.783,217471.342,217998,526.6579999999958,217998.90000000596,2021-11-10T08:49:32.822Z,218022.269,1636533927,full,ni_sequenzen,NI_Sequenzen,3,2,,,,,,,,,,,,
,Move,canvas.Screen,0_3_0_2_0_3,right,response,,218005.19999998808,218005.666,218022.269,218725.69999998808,703.4309999880788,218726.69999998808,2021-11-10T08:49:33.550Z,218823.374,1636533927,full,ni_sequenzen,NI_Sequenzen,4,2,,,,,,,,,,,,
,Move,canvas.Screen,0_3_0_2_0_4,-999,skipped,,218732.80000001192,,,218725.69999998808,,218733,2021-11-10T08:49:33.557Z,218823.374,1636533927,full,ni_sequenzen,NI_Sequenzen,5,2,,,,,,,,,,,,
,Move,canvas.Screen,0_3_0_2_0_5,-999,skipped,,218738.90000000596,,,218725.69999998808,,218739.09999999404,2021-11-10T08:49:33.563Z,218823.374,1636533927,full,ni_sequenzen,NI_Sequenzen,6,2,,,,,,,,,,,,
,Move,canvas.Screen,0_3_0_2_0_6,-999,skipped,,218746.90000000596,,,218725.69999998808,,218747.19999998808,2021-11-10T08:49:33.571Z,218823.374,1636533927,full,ni_sequenzen,NI_Sequenzen,7,2,,,,,,,,,,,,
,Move,canvas.Screen,0_3_0_2_0_7,-999,skipped,,218751.90000000596,,,218725.69999998808,,218752.09999999404,2021-11-10T08:49:33.576Z,218823.374,1636533927,full,ni_sequenzen,NI_Sequenzen,8,2,,,,,,,,,,,,
,Move,canvas.Screen,0_3_0_2_0_8,-999,skipped,,218758.19999998808,,,218725.69999998808,,218758.59999999404,2021-11-10T08:49:33.582Z,218823.374,1636533927,full,ni_sequenzen,NI_Sequenzen,9,2,,,,,,,,,,,,
,Move,canvas.Screen,0_3_0_2_0_9,-999,skipped,,218763.69999998808,,,218725.69999998808,,218764,2021-11-10T08:49:33.588Z,218823.374,1636533927,full,ni_sequenzen,NI_Sequenzen,10,2,,,,,,,,,,,,
,Move,canvas.Screen,0_3_0_2_0_10,-999,skipped,,218768.90000000596,,,218725.69999998808,,218769.09999999404,2021-11-10T08:49:33.593Z,218823.374,1636533927,full,ni_sequenzen,NI_Sequenzen,11,2,,,,,,,,,,,,
,Move,canvas.Screen,0_3_0_2_0_11,-999,skipped,,218775.59999999404,,,218725.69999998808,,218775.90000000596,2021-11-10T08:49:33.599Z,218823.374,1636533927,full,ni_sequenzen,NI_Sequenzen,12,2,,,,,,,,,,,,
,Move,canvas.Screen,0_3_0_2_0_12,-999,skipped,,218781,,,218725.69999998808,,218781.09999999404,2021-11-10T08:49:33.605Z,218823.374,1636533927,full,ni_sequenzen,NI_Sequenzen,13,2,,,,,,,,,,,,
,Move,canvas.Screen,0_3_0_2_0_13,-999,skipped,,218786.19999998808,,,218725.69999998808,,218786.40000000596,2021-11-10T08:49:33.610Z,218823.374,1636533927,full,ni_sequenzen,NI_Sequenzen,14,2,,,,,,,,,,,,
,Move,canvas.Screen,0_3_0_2_0_14,-999,skipped,,218791.59999999404,,,218725.69999998808,,218792,2021-11-10T08:49:33.616Z,218823.374,1636533927,full,ni_sequenzen,NI_Sequenzen,15,2,,,,,,,,,,,,
,Loop,flow.Loop,0_3_0_2_0,-999,completion,,205001.59999999404,205002.478,205035.868,218725.69999998808,13689.831999988091,218792.40000000596,2021-11-10T08:49:33.616Z,218823.374,1636533927,full,ni_sequenzen,NI_Sequenzen,,2,,,,,,,,,,,,
,Feedback,canvas.Screen,0_3_0_2_1,,timeout,,218798.40000000596,218790.164,218823.374,222812.934,4022.762999999977,222815,2021-11-10T08:49:37.639Z,222846.137,1636533927,full,ni_sequenzen,NI_Sequenzen,,2,,,,,,,,,,,,
,Trial,flow.Sequence,0_3_0_2,,completion,,204971.69999998808,205002.478,205035.868,222812.934,17777.06600000002,222815.30000001192,2021-11-10T08:49:37.639Z,222862.794,1636533927,full,ni_sequenzen,NI_Sequenzen,,2,,,,,,,,,,,,
,Move,canvas.Screen,0_3_0_3_0_0,left,response,,222856.09999999404,222846.137,222862.794,226910.40000000596,4047.606000005966,226911.40000000596,2021-11-10T08:49:41.735Z,226935.576,1636533927,full,ni_sequenzen,NI_Sequenzen,1,3,,,,,,,,,,,,
,Move,canvas.Screen,0_3_0_3_0_1,down,response,,226919.90000000596,226919.251,226935.576,227288,352.42399999999907,227288.90000000596,2021-11-10T08:49:42.113Z,227302.859,1636533927,full,ni_sequenzen,NI_Sequenzen,2,3,,,,,,,,,,,,
,Move,canvas.Screen,0_3_0_3_0_2,down,response,,227297,227286.368,227302.859,235854.40000000596,8551.541000005964,235855.40000000596,2021-11-10T08:49:50.679Z,235882.464,1636533927,full,ni_sequenzen,NI_Sequenzen,3,3,,,,,,,,,,,,
,Move,canvas.Screen,0_3_0_3_0_3,left,response,,235861.5,235849.743,235882.464,236413.80000001192,531.3360000119137,236414.90000000596,2021-11-10T08:49:51.238Z,236500.528,1636533927,full,ni_sequenzen,NI_Sequenzen,4,3,,,,,,,,,,,,
,Move,canvas.Screen,0_3_0_3_0_4,-999,skipped,,236422.09999999404,,,236413.80000001192,,236422.40000000596,2021-11-10T08:49:51.246Z,236500.528,1636533927,full,ni_sequenzen,NI_Sequenzen,5,3,,,,,,,,,,,,
,Move,canvas.Screen,0_3_0_3_0_5,-999,skipped,,236428.69999998808,,,236413.80000001192,,236429,2021-11-10T08:49:51.253Z,236500.528,1636533927,full,ni_sequenzen,NI_Sequenzen,6,3,,,,,,,,,,,,
,Move,canvas.Screen,0_3_0_3_0_6,-999,skipped,,236434.59999999404,,,236413.80000001192,,236434.80000001192,2021-11-10T08:49:51.258Z,236500.528,1636533927,full,ni_sequenzen,NI_Sequenzen,7,3,,,,,,,,,,,,
,Move,canvas.Screen,0_3_0_3_0_7,-999,skipped,,236441.80000001192,,,236413.80000001192,,236442,2021-11-10T08:49:51.266Z,236500.528,1636533927,full,ni_sequenzen,NI_Sequenzen,8,3,,,,,,,,,,,,
,Move,canvas.Screen,0_3_0_3_0_8,-999,skipped,,236447.09999999404,,,236413.80000001192,,236447.40000000596,2021-11-10T08:49:51.271Z,236500.528,1636533927,full,ni_sequenzen,NI_Sequenzen,9,3,,,,,,,,,,,,
,Move,canvas.Screen,0_3_0_3_0_9,-999,skipped,,236452.69999998808,,,236413.80000001192,,236452.90000000596,2021-11-10T08:49:51.276Z,236500.528,1636533927,full,ni_sequenzen,NI_Sequenzen,10,3,,,,,,,,,,,,
,Move,canvas.Screen,0_3_0_3_0_10,-999,skipped,,236459.69999998808,,,236413.80000001192,,236459.80000001192,2021-11-10T08:49:51.283Z,236500.528,1636533927,full,ni_sequenzen,NI_Sequenzen,11,3,,,,,,,,,,,,
,Move,canvas.Screen,0_3_0_3_0_11,-999,skipped,,236464.90000000596,,,236413.80000001192,,236465.09999999404,2021-11-10T08:49:51.289Z,236500.528,1636533927,full,ni_sequenzen,NI_Sequenzen,12,3,,,,,,,,,,,,
,Move,canvas.Screen,0_3_0_3_0_12,-999,skipped,,236470.80000001192,,,236413.80000001192,,236471,2021-11-10T08:49:51.295Z,236500.528,1636533927,full,ni_sequenzen,NI_Sequenzen,13,3,,,,,,,,,,,,
,Move,canvas.Screen,0_3_0_3_0_13,-999,skipped,,236477.59999999404,,,236413.80000001192,,236477.90000000596,2021-11-10T08:49:51.302Z,236500.528,1636533927,full,ni_sequenzen,NI_Sequenzen,14,3,,,,,,,,,,,,
,Move,canvas.Screen,0_3_0_3_0_14,-999,skipped,,236485.80000001192,,,236413.80000001192,,236486.09999999404,2021-11-10T08:49:51.310Z,236500.528,1636533927,full,ni_sequenzen,NI_Sequenzen,15,3,,,,,,,,,,,,
,Loop,flow.Loop,0_3_0_3_0,-999,completion,,222848.19999998808,222846.137,222862.794,236413.80000001192,13551.006000011927,236486.40000000596,2021-11-10T08:49:51.310Z,236500.528,1636533927,full,ni_sequenzen,NI_Sequenzen,,3,,,,,,,,,,,,
,Feedback,canvas.Screen,0_3_0_3_1,,timeout,,236490.59999999404,236483.484,236500.528,240489.549,4022.2820000000065,240490.59999999404,2021-11-10T08:49:55.314Z,240522.81,1636533927,full,ni_sequenzen,NI_Sequenzen,,3,,,,,,,,,,,,
,Trial,flow.Sequence,0_3_0_3,,completion,,222816.09999999404,222846.137,222862.794,240489.549,17626.755000000005,240490.80000001192,2021-11-10T08:49:55.314Z,240539.457,1636533927,full,ni_sequenzen,NI_Sequenzen,,3,,,,,,,,,,,,
,Move,canvas.Screen,0_3_0_4_0_0,left,response,,240538.09999999404,240522.81,240539.457,251976.40000000596,11436.943000005966,251977.5,2021-11-10T08:50:06.801Z,252006.787,1636533927,full,ni_sequenzen,NI_Sequenzen,1,4,,,,,,,,,,,,
,Move,canvas.Screen,0_3_0_4_0_1,down,response,,251983.30000001192,251974.322,252006.787,252325.80000001192,319.01300001190975,252327,2021-11-10T08:50:07.151Z,252340.606,1636533927,full,ni_sequenzen,NI_Sequenzen,2,4,,,,,,,,,,,,
,Move,canvas.Screen,0_3_0_4_0_2,down,response,,252333.59999999404,252324.043,252340.606,252606.09999999404,265.49399999403977,252607.09999999404,2021-11-10T08:50:07.431Z,252624.412,1636533927,full,ni_sequenzen,NI_Sequenzen,3,4,,,,,,,,,,,,
,Move,canvas.Screen,0_3_0_4_0_3,left,response,,252617.90000000596,252607.898,252624.412,253013.69999998808,389.2879999880679,253014.59999999404,2021-11-10T08:50:07.838Z,253091.778,1636533927,full,ni_sequenzen,NI_Sequenzen,4,4,,,,,,,,,,,,
,Move,canvas.Screen,0_3_0_4_0_4,-999,skipped,,253020.19999998808,,,253013.69999998808,,253020.5,2021-11-10T08:50:07.844Z,253091.778,1636533927,full,ni_sequenzen,NI_Sequenzen,5,4,,,,,,,,,,,,
,Move,canvas.Screen,0_3_0_4_0_5,-999,skipped,,253027.09999999404,,,253013.69999998808,,253027.40000000596,2021-11-10T08:50:07.851Z,253091.778,1636533927,full,ni_sequenzen,NI_Sequenzen,6,4,,,,,,,,,,,,
,Move,canvas.Screen,0_3_0_4_0_6,-999,skipped,,253032.40000000596,,,253013.69999998808,,253032.69999998808,2021-11-10T08:50:07.856Z,253091.778,1636533927,full,ni_sequenzen,NI_Sequenzen,7,4,,,,,,,,,,,,
,Move,canvas.Screen,0_3_0_4_0_7,-999,skipped,,253037.59999999404,,,253013.69999998808,,253037.80000001192,2021-11-10T08:50:07.861Z,253091.778,1636533927,full,ni_sequenzen,NI_Sequenzen,8,4,,,,,,,,,,,,
,Move,canvas.Screen,0_3_0_4_0_8,-999,skipped,,253044.69999998808,,,253013.69999998808,,253044.90000000596,2021-11-10T08:50:07.869Z,253091.778,1636533927,full,ni_sequenzen,NI_Sequenzen,9,4,,,,,,,,,,,,
,Move,canvas.Screen,0_3_0_4_0_9,-999,skipped,,253049.80000001192,,,253013.69999998808,,253050,2021-11-10T08:50:07.874Z,253091.778,1636533927,full,ni_sequenzen,NI_Sequenzen,10,4,,,,,,,,,,,,
,Move,canvas.Screen,0_3_0_4_0_10,-999,skipped,,253056.09999999404,,,253013.69999998808,,253056.19999998808,2021-11-10T08:50:07.880Z,253091.778,1636533927,full,ni_sequenzen,NI_Sequenzen,11,4,,,,,,,,,,,,
,Move,canvas.Screen,0_3_0_4_0_11,-999,skipped,,253063.59999999404,,,253013.69999998808,,253064.09999999404,2021-11-10T08:50:07.888Z,253091.778,1636533927,full,ni_sequenzen,NI_Sequenzen,12,4,,,,,,,,,,,,
,Move,canvas.Screen,0_3_0_4_0_12,-999,skipped,,253070.19999998808,,,253013.69999998808,,253070.40000000596,2021-11-10T08:50:07.894Z,253091.778,1636533927,full,ni_sequenzen,NI_Sequenzen,13,4,,,,,,,,,,,,
,Move,canvas.Screen,0_3_0_4_0_13,-999,skipped,,253075.59999999404,,,253013.69999998808,,253075.90000000596,2021-11-10T08:50:07.899Z,253091.778,1636533927,full,ni_sequenzen,NI_Sequenzen,14,4,,,,,,,,,,,,
,Move,canvas.Screen,0_3_0_4_0_14,-999,skipped,,253080.90000000596,,,253013.69999998808,,253081.19999998808,2021-11-10T08:50:07.905Z,253091.778,1636533927,full,ni_sequenzen,NI_Sequenzen,15,4,,,,,,,,,,,,
,Loop,flow.Loop,0_3_0_4_0,-999,completion,,240530.30000001192,240522.81,240539.457,253013.69999998808,12474.242999988084,253081.5,2021-11-10T08:50:07.905Z,253091.778,1636533927,full,ni_sequenzen,NI_Sequenzen,,4,,,,,,,,,,,,
,Feedback,canvas.Screen,0_3_0_4_1,,timeout,,253087.19999998808,253075.305,253091.778,257081.266,4022.762000000017,257082.5,2021-11-10T08:50:11.906Z,257114.54,1636533927,full,ni_sequenzen,NI_Sequenzen,,4,,,,,,,,,,,,
,Trial,flow.Sequence,0_3_0_4,,completion,,240491.5,240522.81,240539.457,257081.266,16541.80900000001,257082.90000000596,2021-11-10T08:50:11.906Z,257147.913,1636533927,full,ni_sequenzen,NI_Sequenzen,,4,,,,,,,,,,,,
,Move,canvas.Screen,0_3_0_5_0_0,right,response,,257121.90000000596,257114.54,257147.913,259014,1866.0869999999995,259015.19999998808,2021-11-10T08:50:13.839Z,259034.118,1636533927,full,ni_sequenzen,NI_Sequenzen,1,5,,,,,,,,,,,,
,Move,canvas.Screen,0_3_0_5_0_1,down,response,,259021,259017.612,259034.118,259670.09999999404,635.9819999940519,259671.09999999404,2021-11-10T08:50:14.495Z,259685.061,1636533927,full,ni_sequenzen,NI_Sequenzen,2,5,,,,,,,,,,,,
,Move,canvas.Screen,0_3_0_5_0_2,down,response,,259677.40000000596,259668.48,259685.061,259974.09999999404,289.0389999940526,259974.90000000596,2021-11-10T08:50:14.799Z,259985.582,1636533927,full,ni_sequenzen,NI_Sequenzen,3,5,,,,,,,,,,,,
,Move,canvas.Screen,0_3_0_5_0_3,right,response,,259980.30000001192,259969.006,259985.582,260478.40000000596,492.8180000059656,260479.19999998808,2021-11-10T08:50:15.303Z,260586.369,1636533927,full,ni_sequenzen,NI_Sequenzen,4,5,,,,,,,,,,,,
,Move,canvas.Screen,0_3_0_5_0_4,-999,skipped,,260489.5,,,260478.40000000596,,260490.09999999404,2021-11-10T08:50:15.314Z,260586.369,1636533927,full,ni_sequenzen,NI_Sequenzen,5,5,,,,,,,,,,,,
,Move,canvas.Screen,0_3_0_5_0_5,-999,skipped,,260495.19999998808,,,260478.40000000596,,260495.5,2021-11-10T08:50:15.319Z,260586.369,1636533927,full,ni_sequenzen,NI_Sequenzen,6,5,,,,,,,,,,,,
,Move,canvas.Screen,0_3_0_5_0_6,-999,skipped,,260501.09999999404,,,260478.40000000596,,260501.40000000596,2021-11-10T08:50:15.325Z,260586.369,1636533927,full,ni_sequenzen,NI_Sequenzen,7,5,,,,,,,,,,,,
,Move,canvas.Screen,0_3_0_5_0_7,-999,skipped,,260510.40000000596,,,260478.40000000596,,260510.59999999404,2021-11-10T08:50:15.334Z,260586.369,1636533927,full,ni_sequenzen,NI_Sequenzen,8,5,,,,,,,,,,,,
,Move,canvas.Screen,0_3_0_5_0_8,-999,skipped,,260516.90000000596,,,260478.40000000596,,260517.09999999404,2021-11-10T08:50:15.341Z,260586.369,1636533927,full,ni_sequenzen,NI_Sequenzen,9,5,,,,,,,,,,,,
,Move,canvas.Screen,0_3_0_5_0_9,-999,skipped,,260524.5,,,260478.40000000596,,260524.80000001192,2021-11-10T08:50:15.349Z,260586.369,1636533927,full,ni_sequenzen,NI_Sequenzen,10,5,,,,,,,,,,,,
,Move,canvas.Screen,0_3_0_5_0_10,-999,skipped,,260531.5,,,260478.40000000596,,260531.80000001192,2021-11-10T08:50:15.356Z,260586.369,1636533927,full,ni_sequenzen,NI_Sequenzen,11,5,,,,,,,,,,,,
,Move,canvas.Screen,0_3_0_5_0_11,-999,skipped,,260536.90000000596,,,260478.40000000596,,260537.19999998808,2021-11-10T08:50:15.361Z,260586.369,1636533927,full,ni_sequenzen,NI_Sequenzen,12,5,,,,,,,,,,,,
,Move,canvas.Screen,0_3_0_5_0_12,-999,skipped,,260542.40000000596,,,260478.40000000596,,260542.69999998808,2021-11-10T08:50:15.367Z,260586.369,1636533927,full,ni_sequenzen,NI_Sequenzen,13,5,,,,,,,,,,,,
,Move,canvas.Screen,0_3_0_5_0_13,-999,skipped,,260547.80000001192,,,260478.40000000596,,260548,2021-11-10T08:50:15.372Z,260586.369,1636533927,full,ni_sequenzen,NI_Sequenzen,14,5,,,,,,,,,,,,
,Move,canvas.Screen,0_3_0_5_0_14,-999,skipped,,260554.59999999404,,,260478.40000000596,,260554.90000000596,2021-11-10T08:50:15.379Z,260586.369,1636533927,full,ni_sequenzen,NI_Sequenzen,15,5,,,,,,,,,,,,
,Loop,flow.Loop,0_3_0_5_0,-999,completion,,257111.90000000596,257114.54,257147.913,260478.40000000596,3330.48700000596,260555.30000001192,2021-11-10T08:50:15.379Z,260586.369,1636533927,full,ni_sequenzen,NI_Sequenzen,,5,,,,,,,,,,,,
,Feedback,canvas.Screen,0_3_0_5_1,,timeout,,260559.5,260553.107,260586.369,264575.925,4022.8190000000177,264577.1999999881,2021-11-10T08:50:19.401Z,264609.188,1636533927,full,ni_sequenzen,NI_Sequenzen,,5,,,,,,,,,,,,
,Trial,flow.Sequence,0_3_0_5,,completion,,257083.69999998808,257114.54,257147.913,264575.925,7428.011999999988,264577.8000000119,2021-11-10T08:50:19.402Z,264625.831,1636533927,full,ni_sequenzen,NI_Sequenzen,,5,,,,,,,,,,,,
,Move,canvas.Screen,0_3_0_6_0_0,left,response,,264621.1999999881,264609.188,264625.831,277039.8000000119,12413.969000011915,277040.90000000596,2021-11-10T08:50:31.865Z,277061.303,1636533927,full,ni_sequenzen,NI_Sequenzen,1,6,,,,,,,,,,,,
,Move,canvas.Screen,0_3_0_6_0_1,down,response,,277046.3000000119,277045.631,277061.303,277430.59999999404,369.2969999940251,277431.59999999404,2021-11-10T08:50:32.256Z,277445.225,1636533927,full,ni_sequenzen,NI_Sequenzen,2,6,,,,,,,,,,,,
,Move,canvas.Screen,0_3_0_6_0_2,right,response,,277440,277428.678,277445.225,280325.90000000596,2880.6750000059837,280326.8000000119,2021-11-10T08:50:35.151Z,280366.385,1636533927,full,ni_sequenzen,NI_Sequenzen,3,6,,,,,,,,,,,,
,Move,canvas.Screen,0_3_0_6_0_3,down,response,,280332.3000000119,280316.533,280366.385,280654.1999999881,287.81499998806976,280655.3000000119,2021-11-10T08:50:35.479Z,280666.803,1636533927,full,ni_sequenzen,NI_Sequenzen,4,6,,,,,,,,,,,,
,Move,canvas.Screen,0_3_0_6_0_4,right,response,,280662.3000000119,280650.229,280666.803,286054,5387.196999999986,286055.1999999881,2021-11-10T08:50:40.879Z,286124.954,1636533927,full,ni_sequenzen,NI_Sequenzen,5,6,,,,,,,,,,,,
,Move,canvas.Screen,0_3_0_6_0_5,-999,skipped,,286065.3000000119,,,286054,,286065.59999999404,2021-11-10T08:50:40.889Z,286124.954,1636533927,full,ni_sequenzen,NI_Sequenzen,6,6,,,,,,,,,,,,
,Move,canvas.Screen,0_3_0_6_0_6,-999,skipped,,286071.8000000119,,,286054,,286072.09999999404,2021-11-10T08:50:40.896Z,286124.954,1636533927,full,ni_sequenzen,NI_Sequenzen,7,6,,,,,,,,,,,,
,Move,canvas.Screen,0_3_0_6_0_7,-999,skipped,,286077.40000000596,,,286054,,286077.59999999404,2021-11-10T08:50:40.901Z,286124.954,1636533927,full,ni_sequenzen,NI_Sequenzen,8,6,,,,,,,,,,,,
,Move,canvas.Screen,0_3_0_6_0_8,-999,skipped,,286083.5,,,286054,,286083.8000000119,2021-11-10T08:50:40.908Z,286124.954,1636533927,full,ni_sequenzen,NI_Sequenzen,9,6,,,,,,,,,,,,
,Move,canvas.Screen,0_3_0_6_0_9,-999,skipped,,286090.59999999404,,,286054,,286090.90000000596,2021-11-10T08:50:40.915Z,286124.954,1636533927,full,ni_sequenzen,NI_Sequenzen,10,6,,,,,,,,,,,,
,Move,canvas.Screen,0_3_0_6_0_10,-999,skipped,,286095.90000000596,,,286054,,286096.09999999404,2021-11-10T08:50:40.920Z,286124.954,1636533927,full,ni_sequenzen,NI_Sequenzen,11,6,,,,,,,,,,,,
,Move,canvas.Screen,0_3_0_6_0_11,-999,skipped,,286101.09999999404,,,286054,,286101.1999999881,2021-11-10T08:50:40.925Z,286124.954,1636533927,full,ni_sequenzen,NI_Sequenzen,12,6,,,,,,,,,,,,
,Move,canvas.Screen,0_3_0_6_0_12,-999,skipped,,286107.8000000119,,,286054,,286108.09999999404,2021-11-10T08:50:40.932Z,286124.954,1636533927,full,ni_sequenzen,NI_Sequenzen,13,6,,,,,,,,,,,,
,Move,canvas.Screen,0_3_0_6_0_13,-999,skipped,,286113.1999999881,,,286054,,286113.40000000596,2021-11-10T08:50:40.937Z,286124.954,1636533927,full,ni_sequenzen,NI_Sequenzen,14,6,,,,,,,,,,,,
,Move,canvas.Screen,0_3_0_6_0_14,-999,skipped,,286118.3000000119,,,286054,,286118.5,2021-11-10T08:50:40.942Z,286124.954,1636533927,full,ni_sequenzen,NI_Sequenzen,15,6,,,,,,,,,,,,
,Loop,flow.Loop,0_3_0_6_0,-999,completion,,264615,264609.188,264625.831,286054,21428.168999999994,286118.90000000596,2021-11-10T08:50:40.943Z,286124.954,1636533927,full,ni_sequenzen,NI_Sequenzen,,6,,,,,,,,,,,,
,Feedback,canvas.Screen,0_3_0_6_1,,timeout,,286123.09999999404,286108.838,286124.954,290114.505,4039.5,290115.8000000119,2021-11-10T08:50:44.940Z,290164.454,1636533927,full,ni_sequenzen,NI_Sequenzen,,6,,,,,,,,,,,,
,Trial,flow.Sequence,0_3_0_6,,completion,,264578.59999999404,264609.188,264625.831,290114.505,25488.674,290116.09999999404,2021-11-10T08:50:44.940Z,290181.22,1636533927,full,ni_sequenzen,NI_Sequenzen,,6,,,,,,,,,,,,
,Move,canvas.Screen,0_3_0_7_0_0,right,response,,290168,290164.454,290181.22,292397.90000000596,2216.6800000059884,292398.90000000596,2021-11-10T08:50:47.223Z,292434.513,1636533927,full,ni_sequenzen,NI_Sequenzen,1,7,,,,,,,,,,,,
,Move,canvas.Screen,0_3_0_7_0_1,down,response,,292404.90000000596,292401.348,292434.513,293725.90000000596,1291.3870000059833,293726.90000000596,2021-11-10T08:50:48.551Z,293736.503,1636533927,full,ni_sequenzen,NI_Sequenzen,2,7,,,,,,,,,,,,
,Move,canvas.Screen,0_3_0_7_0_2,down,response,,293734.1999999881,293720.087,293736.503,295022.5,1285.996999999974,295023.59999999404,2021-11-10T08:50:49.847Z,295038.425,1636533927,full,ni_sequenzen,NI_Sequenzen,3,7,,,,,,,,,,,,
,Move,canvas.Screen,0_3_0_7_0_3,right,response,,295029.6999999881,295022.035,295038.425,295270,231.57500000001164,295271,2021-11-10T08:50:50.095Z,295372.268,1636533927,full,ni_sequenzen,NI_Sequenzen,4,7,,,,,,,,,,,,
,Move,canvas.Screen,0_3_0_7_0_4,-999,skipped,,295277.1999999881,,,295270,,295277.59999999404,2021-11-10T08:50:50.102Z,295372.268,1636533927,full,ni_sequenzen,NI_Sequenzen,5,7,,,,,,,,,,,,
,Move,canvas.Screen,0_3_0_7_0_5,-999,skipped,,295285.09999999404,,,295270,,295285.40000000596,2021-11-10T08:50:50.109Z,295372.268,1636533927,full,ni_sequenzen,NI_Sequenzen,6,7,,,,,,,,,,,,
,Move,canvas.Screen,0_3_0_7_0_6,-999,skipped,,295291.3000000119,,,295270,,295291.5,2021-11-10T08:50:50.115Z,295372.268,1636533927,full,ni_sequenzen,NI_Sequenzen,7,7,,,,,,,,,,,,
,Move,canvas.Screen,0_3_0_7_0_7,-999,skipped,,295297.1999999881,,,295270,,295297.5,2021-11-10T08:50:50.121Z,295372.268,1636533927,full,ni_sequenzen,NI_Sequenzen,8,7,,,,,,,,,,,,
,Move,canvas.Screen,0_3_0_7_0_8,-999,skipped,,295304.8000000119,,,295270,,295305,2021-11-10T08:50:50.129Z,295372.268,1636533927,full,ni_sequenzen,NI_Sequenzen,9,7,,,,,,,,,,,,
,Move,canvas.Screen,0_3_0_7_0_9,-999,skipped,,295310.1999999881,,,295270,,295310.5,2021-11-10T08:50:50.134Z,295372.268,1636533927,full,ni_sequenzen,NI_Sequenzen,10,7,,,,,,,,,,,,
,Move,canvas.Screen,0_3_0_7_0_10,-999,skipped,,295317.5,,,295270,,295317.6999999881,2021-11-10T08:50:50.142Z,295372.268,1636533927,full,ni_sequenzen,NI_Sequenzen,11,7,,,,,,,,,,,,
,Move,canvas.Screen,0_3_0_7_0_11,-999,skipped,,295325.8000000119,,,295270,,295326,2021-11-10T08:50:50.150Z,295372.268,1636533927,full,ni_sequenzen,NI_Sequenzen,12,7,,,,,,,,,,,,
,Move,canvas.Screen,0_3_0_7_0_12,-999,skipped,,295331,,,295270,,295331.3000000119,2021-11-10T08:50:50.155Z,295372.268,1636533927,full,ni_sequenzen,NI_Sequenzen,13,7,,,,,,,,,,,,
,Move,canvas.Screen,0_3_0_7_0_13,-999,skipped,,295336.09999999404,,,295270,,295336.1999999881,2021-11-10T08:50:50.160Z,295372.268,1636533927,full,ni_sequenzen,NI_Sequenzen,14,7,,,,,,,,,,,,
,Move,canvas.Screen,0_3_0_7_0_14,-999,skipped,,295341.5,,,295270,,295341.8000000119,2021-11-10T08:50:50.166Z,295372.268,1636533927,full,ni_sequenzen,NI_Sequenzen,15,7,,,,,,,,,,,,
,Loop,flow.Loop,0_3_0_7_0,-999,completion,,290159,290164.454,290181.22,295270,5088.780000000028,295342.09999999404,2021-11-10T08:50:50.166Z,295372.268,1636533927,full,ni_sequenzen,NI_Sequenzen,,7,,,,,,,,,,,,
,Feedback,canvas.Screen,0_3_0_7_1,,timeout,,295349.40000000596,295338.934,295372.268,299361.77,4022.7399999999907,299363,2021-11-10T08:50:54.187Z,299395.008,1636533927,full,ni_sequenzen,NI_Sequenzen,,7,,,,,,,,,,,,
,Trial,flow.Sequence,0_3_0_7,,completion,,290116.6999999881,290164.454,290181.22,299361.77,9180.550000000047,299363.3000000119,2021-11-10T08:50:54.187Z,299411.785,1636533927,full,ni_sequenzen,NI_Sequenzen,,7,,,,,,,,,,,,
,Move,canvas.Screen,0_3_0_8_0_0,left,response,,299404.40000000596,299395.008,299411.785,300432.1999999881,1020.4149999881047,300433.3000000119,2021-11-10T08:50:55.257Z,300446.63,1636533927,full,ni_sequenzen,NI_Sequenzen,1,8,,,,,,,,,,,,
,Move,canvas.Screen,0_3_0_8_0_1,down,response,,300441.59999999404,300430.15,300446.63,300749.8000000119,303.1700000119163,300750.8000000119,2021-11-10T08:50:55.575Z,300763.757,1636533927,full,ni_sequenzen,NI_Sequenzen,2,8,,,,,,,,,,,,
,Move,canvas.Screen,0_3_0_8_0_2,down,response,,300756.8000000119,300747.245,300763.757,301029.90000000596,266.1430000059772,301031.09999999404,2021-11-10T08:50:55.855Z,301080.883,1636533927,full,ni_sequenzen,NI_Sequenzen,3,8,,,,,,,,,,,,
,Move,canvas.Screen,0_3_0_8_0_3,left,response,,301037.59999999404,301031.007,301080.883,301862.5,781.6170000000275,301863.5,2021-11-10T08:50:56.687Z,301948.868,1636533927,full,ni_sequenzen,NI_Sequenzen,4,8,,,,,,,,,,,,
,Move,canvas.Screen,0_3_0_8_0_4,-999,skipped,,301870.09999999404,,,301862.5,,301870.40000000596,2021-11-10T08:50:56.694Z,301948.868,1636533927,full,ni_sequenzen,NI_Sequenzen,5,8,,,,,,,,,,,,
,Move,canvas.Screen,0_3_0_8_0_5,-999,skipped,,301877.09999999404,,,301862.5,,301877.1999999881,2021-11-10T08:50:56.701Z,301948.868,1636533927,full,ni_sequenzen,NI_Sequenzen,6,8,,,,,,,,,,,,
,Move,canvas.Screen,0_3_0_8_0_6,-999,skipped,,301882.90000000596,,,301862.5,,301883.1999999881,2021-11-10T08:50:56.707Z,301948.868,1636533927,full,ni_sequenzen,NI_Sequenzen,7,8,,,,,,,,,,,,
,Move,canvas.Screen,0_3_0_8_0_7,-999,skipped,,301892.09999999404,,,301862.5,,301892.3000000119,2021-11-10T08:50:56.716Z,301948.868,1636533927,full,ni_sequenzen,NI_Sequenzen,8,8,,,,,,,,,,,,
,Move,canvas.Screen,0_3_0_8_0_8,-999,skipped,,301898,,,301862.5,,301898.1999999881,2021-11-10T08:50:56.722Z,301948.868,1636533927,full,ni_sequenzen,NI_Sequenzen,9,8,,,,,,,,,,,,
,Move,canvas.Screen,0_3_0_8_0_9,-999,skipped,,301903.90000000596,,,301862.5,,301904.09999999404,2021-11-10T08:50:56.728Z,301948.868,1636533927,full,ni_sequenzen,NI_Sequenzen,10,8,,,,,,,,,,,,
,Move,canvas.Screen,0_3_0_8_0_10,-999,skipped,,301911.8000000119,,,301862.5,,301912,2021-11-10T08:50:56.736Z,301948.868,1636533927,full,ni_sequenzen,NI_Sequenzen,11,8,,,,,,,,,,,,
,Move,canvas.Screen,0_3_0_8_0_11,-999,skipped,,301917.8000000119,,,301862.5,,301918,2021-11-10T08:50:56.742Z,301948.868,1636533927,full,ni_sequenzen,NI_Sequenzen,12,8,,,,,,,,,,,,
,Move,canvas.Screen,0_3_0_8_0_12,-999,skipped,,301924.3000000119,,,301862.5,,301924.5,2021-11-10T08:50:56.748Z,301948.868,1636533927,full,ni_sequenzen,NI_Sequenzen,13,8,,,,,,,,,,,,
,Move,canvas.Screen,0_3_0_8_0_13,-999,skipped,,301932.09999999404,,,301862.5,,301932.40000000596,2021-11-10T08:50:56.756Z,301948.868,1636533927,full,ni_sequenzen,NI_Sequenzen,14,8,,,,,,,,,,,,
,Move,canvas.Screen,0_3_0_8_0_14,-999,skipped,,301938.8000000119,,,301862.5,,301939,2021-11-10T08:50:56.763Z,301948.868,1636533927,full,ni_sequenzen,NI_Sequenzen,15,8,,,,,,,,,,,,
,Loop,flow.Loop,0_3_0_8_0,-999,completion,,299393.6999999881,299395.008,299411.785,301862.5,2450.7150000000256,301939.40000000596,2021-11-10T08:50:56.763Z,301948.868,1636533927,full,ni_sequenzen,NI_Sequenzen,,8,,,,,,,,,,,,
