meta,sender,sender_type,sender_id,response,ended_on,instrCount,time_run,time_render,time_show,time_end,duration,time_commit,timestamp,time_switch,openLabId,type,task,project,move,trialN,blockN_Train,blockN,moveCount,currPP,points,movesTrial,visitedFields,diff,reward,Strategie,Zweck,Probleme
[object Object],Screen_1,canvas.Screen,0_0_0_0,cont,response,1,621,621.78,637.56,15079,14441.44,15095,2021-11-04T13:14:18.443Z,15207.34,1636031635,full,ni_sequenzen,NI_Sequenzen,,,,,,,,,,,,,,
,Screen_2,canvas.Screen,0_0_0_1,cont,response,1,15203,15202.96,15207.34,35735,20527.66,35751,2021-11-04T13:14:39.099Z,35832.78,1636031635,full,ni_sequenzen,NI_Sequenzen,,,,,,,,,,,,,,
,Screen_3,canvas.Screen,0_0_0_2,cont,response,1,35829,35828.24,35832.78,52126,16293.220000000001,52142,2021-11-04T13:14:55.490Z,52144.32,1636031635,full,ni_sequenzen,NI_Sequenzen,,,,,,,,,,,,,,
,Screen_4,canvas.Screen,0_0_0_3,cont,response,1,52145,52144.26,52144.32,58172,6027.68,58175,2021-11-04T13:15:01.523Z,58340.22,1636031635,full,ni_sequenzen,NI_Sequenzen,,,,,,,,,,,,,,
,Sequence,flow.Sequence,0_0_0,,completion,1,539,621.78,637.56,58172,57534.44,58175,2021-11-04T13:15:01.523Z,58340.22,1636031635,full,ni_sequenzen,NI_Sequenzen,,,,,,,,,,,,,,
,Screen_1,canvas.Screen,0_0_1_0,,skipped,2,58178,,,58178,,58178,2021-11-04T13:15:01.526Z,58340.22,1636031635,full,ni_sequenzen,NI_Sequenzen,,,,,,,,,,,,,,
,Screen_2,canvas.Screen,0_0_1_1,,skipped,2,58179,,,58178,,58179,2021-11-04T13:15:01.526Z,58340.22,1636031635,full,ni_sequenzen,NI_Sequenzen,,,,,,,,,,,,,,
,Screen_3,canvas.Screen,0_0_1_2,,skipped,2,58181,,,58178,,58181,2021-11-04T13:15:01.528Z,58340.22,1636031635,full,ni_sequenzen,NI_Sequenzen,,,,,,,,,,,,,,
,Screen_4,canvas.Screen,0_0_1_3,,skipped,2,58182,,,58178,,58182,2021-11-04T13:15:01.529Z,58340.22,1636031635,full,ni_sequenzen,NI_Sequenzen,,,,,,,,,,,,,,
,Sequence,flow.Sequence,0_0_1,,completion,2,58176,,,58178,,58182,2021-11-04T13:15:01.529Z,58340.22,1636031635,full,ni_sequenzen,NI_Sequenzen,,,,,,,,,,,,,,
,Screen_1,canvas.Screen,0_0_2_0,,skipped,3,58183,,,58183,,58183,2021-11-04T13:15:01.531Z,58340.22,1636031635,full,ni_sequenzen,NI_Sequenzen,,,,,,,,,,,,,,
,Screen_2,canvas.Screen,0_0_2_1,,skipped,3,58185,,,58183,,58185,2021-11-04T13:15:01.532Z,58340.22,1636031635,full,ni_sequenzen,NI_Sequenzen,,,,,,,,,,,,,,
,Screen_3,canvas.Screen,0_0_2_2,,skipped,3,58186,,,58183,,58186,2021-11-04T13:15:01.533Z,58340.22,1636031635,full,ni_sequenzen,NI_Sequenzen,,,,,,,,,,,,,,
,Screen_4,canvas.Screen,0_0_2_3,,skipped,3,58187,,,58183,,58187,2021-11-04T13:15:01.535Z,58340.22,1636031635,full,ni_sequenzen,NI_Sequenzen,,,,,,,,,,,,,,
,Sequence,flow.Sequence,0_0_2,,completion,3,58182,,,58183,,58187,2021-11-04T13:15:01.535Z,58340.22,1636031635,full,ni_sequenzen,NI_Sequenzen,,,,,,,,,,,,,,
,Screen_1,canvas.Screen,0_0_3_0,,skipped,4,58188,,,58188,,58188,2021-11-04T13:15:01.536Z,58340.22,1636031635,full,ni_sequenzen,NI_Sequenzen,,,,,,,,,,,,,,
,Screen_2,canvas.Screen,0_0_3_1,,skipped,4,58189,,,58188,,58189,2021-11-04T13:15:01.536Z,58340.22,1636031635,full,ni_sequenzen,NI_Sequenzen,,,,,,,,,,,,,,
,Screen_3,canvas.Screen,0_0_3_2,,skipped,4,58190,,,58188,,58191,2021-11-04T13:15:01.537Z,58340.22,1636031635,full,ni_sequenzen,NI_Sequenzen,,,,,,,,,,,,,,
,Screen_4,canvas.Screen,0_0_3_3,,skipped,4,58191,,,58188,,58191,2021-11-04T13:15:01.539Z,58340.22,1636031635,full,ni_sequenzen,NI_Sequenzen,,,,,,,,,,,,,,
,Sequence,flow.Sequence,0_0_3,,completion,4,58187,,,58188,,58191,2021-11-04T13:15:01.539Z,58340.22,1636031635,full,ni_sequenzen,NI_Sequenzen,,,,,,,,,,,,,,
,Screen_1,canvas.Screen,0_0_4_0,,skipped,5,58194,,,58194,,58194,2021-11-04T13:15:01.540Z,58340.22,1636031635,full,ni_sequenzen,NI_Sequenzen,,,,,,,,,,,,,,
,Screen_2,canvas.Screen,0_0_4_1,,skipped,5,58195,,,58194,,58195,2021-11-04T13:15:01.542Z,58340.22,1636031635,full,ni_sequenzen,NI_Sequenzen,,,,,,,,,,,,,,
,Screen_3,canvas.Screen,0_0_4_2,,skipped,5,58195,,,58194,,58195,2021-11-04T13:15:01.542Z,58340.22,1636031635,full,ni_sequenzen,NI_Sequenzen,,,,,,,,,,,,,,
,Screen_4,canvas.Screen,0_0_4_3,,skipped,5,58196,,,58194,,58196,2021-11-04T13:15:01.543Z,58340.22,1636031635,full,ni_sequenzen,NI_Sequenzen,,,,,,,,,,,,,,
,Sequence,flow.Sequence,0_0_4,,completion,5,58192,,,58194,,58196,2021-11-04T13:15:01.543Z,58340.22,1636031635,full,ni_sequenzen,NI_Sequenzen,,,,,,,,,,,,,,
,Screen_1,canvas.Screen,0_0_5_0,,skipped,6,58197,,,58197,,58197,2021-11-04T13:15:01.544Z,58340.22,1636031635,full,ni_sequenzen,NI_Sequenzen,,,,,,,,,,,,,,
,Screen_2,canvas.Screen,0_0_5_1,,skipped,6,58198,,,58197,,58198,2021-11-04T13:15:01.546Z,58340.22,1636031635,full,ni_sequenzen,NI_Sequenzen,,,,,,,,,,,,,,
,Screen_3,canvas.Screen,0_0_5_2,,skipped,6,58199,,,58197,,58199,2021-11-04T13:15:01.547Z,58340.22,1636031635,full,ni_sequenzen,NI_Sequenzen,,,,,,,,,,,,,,
,Screen_4,canvas.Screen,0_0_5_3,,skipped,6,58199,,,58197,,58199,2021-11-04T13:15:01.547Z,58340.22,1636031635,full,ni_sequenzen,NI_Sequenzen,,,,,,,,,,,,,,
,Sequence,flow.Sequence,0_0_5,,completion,6,58196,,,58197,,58199,2021-11-04T13:15:01.547Z,58340.22,1636031635,full,ni_sequenzen,NI_Sequenzen,,,,,,,,,,,,,,
,Screen_1,canvas.Screen,0_0_6_0,,skipped,7,58200,,,58200,,58200,2021-11-04T13:15:01.548Z,58340.22,1636031635,full,ni_sequenzen,NI_Sequenzen,,,,,,,,,,,,,,
,Screen_2,canvas.Screen,0_0_6_1,,skipped,7,58201,,,58200,,58201,2021-11-04T13:15:01.549Z,58340.22,1636031635,full,ni_sequenzen,NI_Sequenzen,,,,,,,,,,,,,,
,Screen_3,canvas.Screen,0_0_6_2,,skipped,7,58202,,,58200,,58202,2021-11-04T13:15:01.550Z,58340.22,1636031635,full,ni_sequenzen,NI_Sequenzen,,,,,,,,,,,,,,
,Screen_4,canvas.Screen,0_0_6_3,,skipped,7,58203,,,58200,,58203,2021-11-04T13:15:01.551Z,58340.22,1636031635,full,ni_sequenzen,NI_Sequenzen,,,,,,,,,,,,,,
,Sequence,flow.Sequence,0_0_6,,completion,7,58200,,,58200,,58203,2021-11-04T13:15:01.551Z,58340.22,1636031635,full,ni_sequenzen,NI_Sequenzen,,,,,,,,,,,,,,
,Screen_1,canvas.Screen,0_0_7_0,,skipped,8,58204,,,58204,,58204,2021-11-04T13:15:01.552Z,58340.22,1636031635,full,ni_sequenzen,NI_Sequenzen,,,,,,,,,,,,,,
,Screen_2,canvas.Screen,0_0_7_1,,skipped,8,58204,,,58204,,58205,2021-11-04T13:15:01.552Z,58340.22,1636031635,full,ni_sequenzen,NI_Sequenzen,,,,,,,,,,,,,,
,Screen_3,canvas.Screen,0_0_7_2,,skipped,8,58206,,,58204,,58206,2021-11-04T13:15:01.553Z,58340.22,1636031635,full,ni_sequenzen,NI_Sequenzen,,,,,,,,,,,,,,
,Screen_4,canvas.Screen,0_0_7_3,,skipped,8,58207,,,58204,,58207,2021-11-04T13:15:01.554Z,58340.22,1636031635,full,ni_sequenzen,NI_Sequenzen,,,,,,,,,,,,,,
,Sequence,flow.Sequence,0_0_7,,completion,8,58203,,,58204,,58207,2021-11-04T13:15:01.554Z,58340.22,1636031635,full,ni_sequenzen,NI_Sequenzen,,,,,,,,,,,,,,
,Screen_1,canvas.Screen,0_0_8_0,,skipped,9,58208,,,58208,,58208,2021-11-04T13:15:01.555Z,58340.22,1636031635,full,ni_sequenzen,NI_Sequenzen,,,,,,,,,,,,,,
,Screen_2,canvas.Screen,0_0_8_1,,skipped,9,58209,,,58208,,58209,2021-11-04T13:15:01.557Z,58340.22,1636031635,full,ni_sequenzen,NI_Sequenzen,,,,,,,,,,,,,,
,Screen_3,canvas.Screen,0_0_8_2,,skipped,9,58209,,,58208,,58209,2021-11-04T13:15:01.557Z,58340.22,1636031635,full,ni_sequenzen,NI_Sequenzen,,,,,,,,,,,,,,
,Screen_4,canvas.Screen,0_0_8_3,,skipped,9,58210,,,58208,,58210,2021-11-04T13:15:01.557Z,58340.22,1636031635,full,ni_sequenzen,NI_Sequenzen,,,,,,,,,,,,,,
,Sequence,flow.Sequence,0_0_8,,completion,9,58207,,,58208,,58210,2021-11-04T13:15:01.557Z,58340.22,1636031635,full,ni_sequenzen,NI_Sequenzen,,,,,,,,,,,,,,
,Screen_1,canvas.Screen,0_0_9_0,,skipped,10,58211,,,58211,,58211,2021-11-04T13:15:01.559Z,58340.22,1636031635,full,ni_sequenzen,NI_Sequenzen,,,,,,,,,,,,,,
,Screen_2,canvas.Screen,0_0_9_1,,skipped,10,58212,,,58211,,58212,2021-11-04T13:15:01.560Z,58340.22,1636031635,full,ni_sequenzen,NI_Sequenzen,,,,,,,,,,,,,,
,Screen_3,canvas.Screen,0_0_9_2,,skipped,10,58214,,,58211,,58214,2021-11-04T13:15:01.561Z,58340.22,1636031635,full,ni_sequenzen,NI_Sequenzen,,,,,,,,,,,,,,
,Screen_4,canvas.Screen,0_0_9_3,,skipped,10,58214,,,58211,,58214,2021-11-04T13:15:01.562Z,58340.22,1636031635,full,ni_sequenzen,NI_Sequenzen,,,,,,,,,,,,,,
,Sequence,flow.Sequence,0_0_9,,completion,10,58211,,,58211,,58214,2021-11-04T13:15:01.562Z,58340.22,1636031635,full,ni_sequenzen,NI_Sequenzen,,,,,,,,,,,,,,
,Screen_1,canvas.Screen,0_0_10_0,,skipped,11,58215,,,58215,,58215,2021-11-04T13:15:01.563Z,58340.22,1636031635,full,ni_sequenzen,NI_Sequenzen,,,,,,,,,,,,,,
,Screen_2,canvas.Screen,0_0_10_1,,skipped,11,58216,,,58215,,58216,2021-11-04T13:15:01.563Z,58340.22,1636031635,full,ni_sequenzen,NI_Sequenzen,,,,,,,,,,,,,,
,Screen_3,canvas.Screen,0_0_10_2,,skipped,11,58217,,,58215,,58217,2021-11-04T13:15:01.564Z,58340.22,1636031635,full,ni_sequenzen,NI_Sequenzen,,,,,,,,,,,,,,
,Screen_4,canvas.Screen,0_0_10_3,,skipped,11,58217,,,58215,,58218,2021-11-04T13:15:01.565Z,58340.22,1636031635,full,ni_sequenzen,NI_Sequenzen,,,,,,,,,,,,,,
,Sequence,flow.Sequence,0_0_10,,completion,11,58215,,,58215,,58218,2021-11-04T13:15:01.565Z,58340.22,1636031635,full,ni_sequenzen,NI_Sequenzen,,,,,,,,,,,,,,
,Screen_1,canvas.Screen,0_0_11_0,,skipped,12,58219,,,58219,,58219,2021-11-04T13:15:01.566Z,58340.22,1636031635,full,ni_sequenzen,NI_Sequenzen,,,,,,,,,,,,,,
,Screen_2,canvas.Screen,0_0_11_1,,skipped,12,58220,,,58219,,58220,2021-11-04T13:15:01.567Z,58340.22,1636031635,full,ni_sequenzen,NI_Sequenzen,,,,,,,,,,,,,,
,Screen_3,canvas.Screen,0_0_11_2,,skipped,12,58220,,,58219,,58221,2021-11-04T13:15:01.568Z,58340.22,1636031635,full,ni_sequenzen,NI_Sequenzen,,,,,,,,,,,,,,
,Screen_4,canvas.Screen,0_0_11_3,,skipped,12,58221,,,58219,,58221,2021-11-04T13:15:01.569Z,58340.22,1636031635,full,ni_sequenzen,NI_Sequenzen,,,,,,,,,,,,,,
,Sequence,flow.Sequence,0_0_11,,completion,12,58218,,,58219,,58221,2021-11-04T13:15:01.569Z,58340.22,1636031635,full,ni_sequenzen,NI_Sequenzen,,,,,,,,,,,,,,
,Screen_1,canvas.Screen,0_0_12_0,,skipped,13,58222,,,58222,,58222,2021-11-04T13:15:01.570Z,58340.22,1636031635,full,ni_sequenzen,NI_Sequenzen,,,,,,,,,,,,,,
,Screen_2,canvas.Screen,0_0_12_1,,skipped,13,58222,,,58222,,58223,2021-11-04T13:15:01.571Z,58340.22,1636031635,full,ni_sequenzen,NI_Sequenzen,,,,,,,,,,,,,,
,Screen_3,canvas.Screen,0_0_12_2,,skipped,13,58223,,,58222,,58223,2021-11-04T13:15:01.571Z,58340.22,1636031635,full,ni_sequenzen,NI_Sequenzen,,,,,,,,,,,,,,
,Screen_4,canvas.Screen,0_0_12_3,,skipped,13,58224,,,58222,,58224,2021-11-04T13:15:01.572Z,58340.22,1636031635,full,ni_sequenzen,NI_Sequenzen,,,,,,,,,,,,,,
,Sequence,flow.Sequence,0_0_12,,completion,13,58221,,,58222,,58224,2021-11-04T13:15:01.572Z,58340.22,1636031635,full,ni_sequenzen,NI_Sequenzen,,,,,,,,,,,,,,
,Screen_1,canvas.Screen,0_0_13_0,,skipped,14,58226,,,58226,,58226,2021-11-04T13:15:01.573Z,58340.22,1636031635,full,ni_sequenzen,NI_Sequenzen,,,,,,,,,,,,,,
,Screen_2,canvas.Screen,0_0_13_1,,skipped,14,58227,,,58226,,58227,2021-11-04T13:15:01.574Z,58340.22,1636031635,full,ni_sequenzen,NI_Sequenzen,,,,,,,,,,,,,,
,Screen_3,canvas.Screen,0_0_13_2,,skipped,14,58228,,,58226,,58228,2021-11-04T13:15:01.575Z,58340.22,1636031635,full,ni_sequenzen,NI_Sequenzen,,,,,,,,,,,,,,
,Screen_4,canvas.Screen,0_0_13_3,,skipped,14,58229,,,58226,,58229,2021-11-04T13:15:01.576Z,58340.22,1636031635,full,ni_sequenzen,NI_Sequenzen,,,,,,,,,,,,,,
,Sequence,flow.Sequence,0_0_13,,completion,14,58224,,,58226,,58229,2021-11-04T13:15:01.576Z,58340.22,1636031635,full,ni_sequenzen,NI_Sequenzen,,,,,,,,,,,,,,
,Screen_1,canvas.Screen,0_0_14_0,,skipped,15,58230,,,58230,,58230,2021-11-04T13:15:01.577Z,58340.22,1636031635,full,ni_sequenzen,NI_Sequenzen,,,,,,,,,,,,,,
,Screen_2,canvas.Screen,0_0_14_1,,skipped,15,58231,,,58230,,58231,2021-11-04T13:15:01.578Z,58340.22,1636031635,full,ni_sequenzen,NI_Sequenzen,,,,,,,,,,,,,,
,Screen_3,canvas.Screen,0_0_14_2,,skipped,15,58231,,,58230,,58231,2021-11-04T13:15:01.578Z,58340.22,1636031635,full,ni_sequenzen,NI_Sequenzen,,,,,,,,,,,,,,
,Screen_4,canvas.Screen,0_0_14_3,,skipped,15,58232,,,58230,,58232,2021-11-04T13:15:01.579Z,58340.22,1636031635,full,ni_sequenzen,NI_Sequenzen,,,,,,,,,,,,,,
,Sequence,flow.Sequence,0_0_14,,completion,15,58229,,,58230,,58232,2021-11-04T13:15:01.579Z,58340.22,1636031635,full,ni_sequenzen,NI_Sequenzen,,,,,,,,,,,,,,
,Screen_1,canvas.Screen,0_0_15_0,,skipped,16,58233,,,58233,,58233,2021-11-04T13:15:01.580Z,58340.22,1636031635,full,ni_sequenzen,NI_Sequenzen,,,,,,,,,,,,,,
,Screen_2,canvas.Screen,0_0_15_1,,skipped,16,58234,,,58233,,58234,2021-11-04T13:15:01.581Z,58340.22,1636031635,full,ni_sequenzen,NI_Sequenzen,,,,,,,,,,,,,,
,Screen_3,canvas.Screen,0_0_15_2,,skipped,16,58234,,,58233,,58234,2021-11-04T13:15:01.582Z,58340.22,1636031635,full,ni_sequenzen,NI_Sequenzen,,,,,,,,,,,,,,
,Screen_4,canvas.Screen,0_0_15_3,,skipped,16,58235,,,58233,,58235,2021-11-04T13:15:01.583Z,58340.22,1636031635,full,ni_sequenzen,NI_Sequenzen,,,,,,,,,,,,,,
,Sequence,flow.Sequence,0_0_15,,completion,16,58232,,,58233,,58235,2021-11-04T13:15:01.583Z,58340.22,1636031635,full,ni_sequenzen,NI_Sequenzen,,,,,,,,,,,,,,
,Screen_1,canvas.Screen,0_0_16_0,,skipped,17,58237,,,58237,,58237,2021-11-04T13:15:01.585Z,58340.22,1636031635,full,ni_sequenzen,NI_Sequenzen,,,,,,,,,,,,,,
,Screen_2,canvas.Screen,0_0_16_1,,skipped,17,58237,,,58237,,58237,2021-11-04T13:15:01.585Z,58340.22,1636031635,full,ni_sequenzen,NI_Sequenzen,,,,,,,,,,,,,,
,Screen_3,canvas.Screen,0_0_16_2,,skipped,17,58238,,,58237,,58238,2021-11-04T13:15:01.586Z,58340.22,1636031635,full,ni_sequenzen,NI_Sequenzen,,,,,,,,,,,,,,
,Screen_4,canvas.Screen,0_0_16_3,,skipped,17,58238,,,58237,,58238,2021-11-04T13:15:01.587Z,58340.22,1636031635,full,ni_sequenzen,NI_Sequenzen,,,,,,,,,,,,,,
,Sequence,flow.Sequence,0_0_16,,completion,17,58235,,,58237,,58239,2021-11-04T13:15:01.587Z,58340.22,1636031635,full,ni_sequenzen,NI_Sequenzen,,,,,,,,,,,,,,
,Screen_1,canvas.Screen,0_0_17_0,,skipped,18,58239,,,58239,,58239,2021-11-04T13:15:01.587Z,58340.22,1636031635,full,ni_sequenzen,NI_Sequenzen,,,,,,,,,,,,,,
,Screen_2,canvas.Screen,0_0_17_1,,skipped,18,58240,,,58239,,58240,2021-11-04T13:15:01.588Z,58340.22,1636031635,full,ni_sequenzen,NI_Sequenzen,,,,,,,,,,,,,,
,Screen_3,canvas.Screen,0_0_17_2,,skipped,18,58241,,,58239,,58241,2021-11-04T13:15:01.588Z,58340.22,1636031635,full,ni_sequenzen,NI_Sequenzen,,,,,,,,,,,,,,
,Screen_4,canvas.Screen,0_0_17_3,,skipped,18,58242,,,58239,,58242,2021-11-04T13:15:01.589Z,58340.22,1636031635,full,ni_sequenzen,NI_Sequenzen,,,,,,,,,,,,,,
,Sequence,flow.Sequence,0_0_17,,completion,18,58239,,,58239,,58242,2021-11-04T13:15:01.589Z,58340.22,1636031635,full,ni_sequenzen,NI_Sequenzen,,,,,,,,,,,,,,
,Screen_1,canvas.Screen,0_0_18_0,,skipped,19,58243,,,58243,,58243,2021-11-04T13:15:01.591Z,58340.22,1636031635,full,ni_sequenzen,NI_Sequenzen,,,,,,,,,,,,,,
,Screen_2,canvas.Screen,0_0_18_1,,skipped,19,58244,,,58243,,58244,2021-11-04T13:15:01.591Z,58340.22,1636031635,full,ni_sequenzen,NI_Sequenzen,,,,,,,,,,,,,,
,Screen_3,canvas.Screen,0_0_18_2,,skipped,19,58244,,,58243,,58245,2021-11-04T13:15:01.591Z,58340.22,1636031635,full,ni_sequenzen,NI_Sequenzen,,,,,,,,,,,,,,
,Screen_4,canvas.Screen,0_0_18_3,,skipped,19,58245,,,58243,,58245,2021-11-04T13:15:01.592Z,58340.22,1636031635,full,ni_sequenzen,NI_Sequenzen,,,,,,,,,,,,,,
,Sequence,flow.Sequence,0_0_18,,completion,19,58242,,,58243,,58245,2021-11-04T13:15:01.592Z,58340.22,1636031635,full,ni_sequenzen,NI_Sequenzen,,,,,,,,,,,,,,
,Screen_1,canvas.Screen,0_0_19_0,,skipped,20,58246,,,58246,,58246,2021-11-04T13:15:01.594Z,58340.22,1636031635,full,ni_sequenzen,NI_Sequenzen,,,,,,,,,,,,,,
,Screen_2,canvas.Screen,0_0_19_1,,skipped,20,58246,,,58246,,58246,2021-11-04T13:15:01.594Z,58340.22,1636031635,full,ni_sequenzen,NI_Sequenzen,,,,,,,,,,,,,,
,Screen_3,canvas.Screen,0_0_19_2,,skipped,20,58247,,,58246,,58247,2021-11-04T13:15:01.594Z,58340.22,1636031635,full,ni_sequenzen,NI_Sequenzen,,,,,,,,,,,,,,
,Screen_4,canvas.Screen,0_0_19_3,,skipped,20,58248,,,58246,,58248,2021-11-04T13:15:01.596Z,58340.22,1636031635,full,ni_sequenzen,NI_Sequenzen,,,,,,,,,,,,,,
,Sequence,flow.Sequence,0_0_19,,completion,20,58246,,,58246,,58248,2021-11-04T13:15:01.596Z,58340.22,1636031635,full,ni_sequenzen,NI_Sequenzen,,,,,,,,,,,,,,
,Instructions_I,flow.Loop,0_0,,completion,,538,621.78,637.56,58246,57608.44,58248,2021-11-04T13:15:01.596Z,58340.22,1636031635,full,ni_sequenzen,NI_Sequenzen,,,,,,,,,,,,,,
,Move,canvas.Screen,0_1_0_0,left,response,,58335,58335.02,58340.22,59922,1581.7799999999988,59926,2021-11-04T13:15:03.274Z,59928.48,1636031635,full,ni_sequenzen,NI_Sequenzen,1,,,,,,,,,,,,,
,Move,canvas.Screen,0_1_0_1,right,response,,59928,59928.4,59928.48,60954,1025.5199999999968,60966,2021-11-04T13:15:04.314Z,60968.94,1636031635,full,ni_sequenzen,NI_Sequenzen,2,,,,,,,,,,,,,
,Move,canvas.Screen,0_1_0_2,down,response,,60968,60968.86,60968.94,61313,344.0599999999977,61326,2021-11-04T13:15:04.673Z,61328.38,1636031635,full,ni_sequenzen,NI_Sequenzen,3,,,,,,,,,,,,,
,Move,canvas.Screen,0_1_0_3,down,response,,61328,61328.28,61328.38,61563,234.62000000000262,61575,2021-11-04T13:15:04.922Z,61579.6,1636031635,full,ni_sequenzen,NI_Sequenzen,4,,,,,,,,,,,,,
,Move,canvas.Screen,0_1_0_4,right,response,,61580,61579.5,61579.6,61954,374.40000000000146,61967,2021-11-04T13:15:05.314Z,61968.98,1636031635,full,ni_sequenzen,NI_Sequenzen,5,,,,,,,,,,,,,
,Move,canvas.Screen,0_1_0_5,right,response,,61969,61968.9,61968.98,62204,235.0199999999968,62214,2021-11-04T13:15:05.562Z,62217.44,1636031635,full,ni_sequenzen,NI_Sequenzen,6,,,,,,,,,,,,,
,Move,canvas.Screen,0_1_0_6,down,response,,62217,62217.36,62217.44,62485,267.5599999999977,62495,2021-11-04T13:15:05.842Z,62497.18,1636031635,full,ni_sequenzen,NI_Sequenzen,7,,,,,,,,,,,,,
,Move,canvas.Screen,0_1_0_7,left,response,,62497,62497.1,62497.18,62938,440.8199999999997,62950,2021-11-04T13:15:06.297Z,62958.38,1636031635,full,ni_sequenzen,NI_Sequenzen,8,,,,,,,,,,,,,
,Move,canvas.Screen,0_1_0_8,down,response,,62953,62952.72,62958.38,63485,526.6200000000026,63502,2021-11-04T13:15:06.850Z,63505.04,1636031635,full,ni_sequenzen,NI_Sequenzen,9,,,,,,,,,,,,,
,Move,canvas.Screen,0_1_0_9,down,response,,63505,63504.96,63505.04,63876,370.9599999999991,63878,2021-11-04T13:15:07.226Z,63880.18,1636031635,full,ni_sequenzen,NI_Sequenzen,10,,,,,,,,,,,,,
,Move,canvas.Screen,0_1_0_10,down,response,,63880,63880.12,63880.18,64141,260.8199999999997,64159,2021-11-04T13:15:07.505Z,64160.52,1636031635,full,ni_sequenzen,NI_Sequenzen,11,,,,,,,,,,,,,
,Move,canvas.Screen,0_1_0_11,left,response,,64160,64160.44,64160.52,64579,418.4800000000032,64582,2021-11-04T13:15:07.929Z,64584.56,1636031635,full,ni_sequenzen,NI_Sequenzen,12,,,,,,,,,,,,,
,Move,canvas.Screen,0_1_0_12,down,response,,64585,64584.48,64584.56,65188,603.4400000000023,65190,2021-11-04T13:15:08.538Z,65192.72,1636031635,full,ni_sequenzen,NI_Sequenzen,13,,,,,,,,,,,,,
,Move,canvas.Screen,0_1_0_13,left,response,,65193,65192.64,65192.72,66563,1370.2799999999988,66567,2021-11-04T13:15:09.914Z,66568.98,1636031635,full,ni_sequenzen,NI_Sequenzen,14,,,,,,,,,,,,,
,Move,canvas.Screen,0_1_0_14,right,response,,66569,66568.9,66568.98,67079,510.0200000000041,67086,2021-11-04T13:15:10.434Z,67088.38,1636031635,full,ni_sequenzen,NI_Sequenzen,15,,,,,,,,,,,,,
,Move,canvas.Screen,0_1_0_15,down,response,,67088,67088.28,67088.38,67376,287.61999999999534,67382,2021-11-04T13:15:10.730Z,67384.14,1636031635,full,ni_sequenzen,NI_Sequenzen,16,,,,,,,,,,,,,
,Move,canvas.Screen,0_1_0_16,right,response,,67384,67384.04,67384.14,69204,1819.8600000000006,69214,2021-11-04T13:15:12.561Z,69216.34,1636031635,full,ni_sequenzen,NI_Sequenzen,17,,,,,,,,,,,,,
,Move,canvas.Screen,0_1_0_17,left,response,,69217,69216.26,69216.34,69344,127.66000000000349,69350,2021-11-04T13:15:12.697Z,69351.72,1636031635,full,ni_sequenzen,NI_Sequenzen,18,,,,,,,,,,,,,
,Move,canvas.Screen,0_1_0_18,down,response,,69352,69351.64,69351.72,69594,242.27999999999884,69598,2021-11-04T13:15:12.945Z,69600.34,1636031635,full,ni_sequenzen,NI_Sequenzen,19,,,,,,,,,,,,,
,Move,canvas.Screen,0_1_0_19,down,response,,69600,69600.28,69600.34,75438,5837.6600000000035,75446,2021-11-04T13:15:18.794Z,75448.22,1636031635,full,ni_sequenzen,NI_Sequenzen,20,,,,,,,,,,,,,
,Move,canvas.Screen,0_1_0_20,down,response,,75448,75448.14,75448.22,76469,1020.7799999999988,76477,2021-11-04T13:15:19.826Z,76479.98,1636031635,full,ni_sequenzen,NI_Sequenzen,21,,,,,,,,,,,,,
,Move,canvas.Screen,0_1_0_21,left,response,,76480,76479.92,76479.98,76672,192.02000000000407,76677,2021-11-04T13:15:20.025Z,76679.86,1636031635,full,ni_sequenzen,NI_Sequenzen,22,,,,,,,,,,,,,
,Move,canvas.Screen,0_1_0_22,down,response,,76679,76679.78,76679.86,77188,508.1399999999994,77198,2021-11-04T13:15:20.545Z,77199.84,1636031635,full,ni_sequenzen,NI_Sequenzen,23,,,,,,,,,,,,,
,Move,canvas.Screen,0_1_0_23,right,response,,77200,77199.76,77199.84,77407,207.1600000000035,77422,2021-11-04T13:15:20.770Z,77423.64,1636031635,full,ni_sequenzen,NI_Sequenzen,24,,,,,,,,,,,,,
,Move,canvas.Screen,0_1_0_24,left,response,,77424,77423.56,77423.64,77782,358.3600000000006,77798,2021-11-04T13:15:21.145Z,77799.9,1636031635,full,ni_sequenzen,NI_Sequenzen,25,,,,,,,,,,,,,
,Move,canvas.Screen,0_1_0_25,down,response,,77800,77799.82,77799.9,78079,279.1000000000058,78085,2021-11-04T13:15:21.433Z,78088.3,1636031635,full,ni_sequenzen,NI_Sequenzen,26,,,,,,,,,,,,,
,Move,canvas.Screen,0_1_0_26,right,response,,78088,78088.2,78088.3,78266,177.6999999999971,78278,2021-11-04T13:15:21.625Z,78280.28,1636031635,full,ni_sequenzen,NI_Sequenzen,27,,,,,,,,,,,,,
,Move,canvas.Screen,0_1_0_27,left,response,,78280,78280.18,78280.28,78609,328.72000000000116,78613,2021-11-04T13:15:21.962Z,78615.84,1636031635,full,ni_sequenzen,NI_Sequenzen,28,,,,,,,,,,,,,
,Move,canvas.Screen,0_1_0_28,down,response,,78616,78615.78,78615.84,78813,197.1600000000035,78830,2021-11-04T13:15:22.178Z,78831.9,1636031635,full,ni_sequenzen,NI_Sequenzen,29,,,,,,,,,,,,,
,Move,canvas.Screen,0_1_0_29,down,response,,78832,78831.82,78831.9,79141,309.1000000000058,79157,2021-11-04T13:15:22.505Z,79182.5,1636031635,full,ni_sequenzen,NI_Sequenzen,30,,,,,,,,,,,,,
,Loop,flow.Loop,0_1_0,-999,completion,,58257,58335.02,58340.22,79141,20800.78,79158,2021-11-04T13:15:22.506Z,79182.5,1636031635,full,ni_sequenzen,NI_Sequenzen,,,,,,,,,,,,,,
,Training_I,flow.Sequence,0_1,,completion,,58248,58335.02,58340.22,79141,20800.78,79158,2021-11-04T13:15:22.506Z,79182.5,1636031635,full,ni_sequenzen,NI_Sequenzen,,,,,,,,,,,,,,
,Screen_1,canvas.Screen,0_2_0_0,cont,response,1,79183,79182.4,79182.5,90954,11771.5,90958,2021-11-04T13:15:34.305Z,91070.66,1636031635,full,ni_sequenzen,NI_Sequenzen,,,,,,,,,,,,,,
,Screen_2,canvas.Screen,0_2_0_1,cont,response,1,91070,91070.56,91070.66,108344,17273.339999999997,108358,2021-11-04T13:15:51.705Z,108358.84,1636031635,full,ni_sequenzen,NI_Sequenzen,,,,,,,,,,,,,,
,Screen_3,canvas.Screen,0_2_0_2,cont,response,1,108359,108358.76,108358.84,116860,8501.160000000003,116869,2021-11-04T13:16:00.217Z,116945.9,1636031635,full,ni_sequenzen,NI_Sequenzen,,,,,,,,,,,,,,
,Screen_4,canvas.Screen,0_2_0_3,cont,response,1,116945,116945.82,116945.9,122594,5648.100000000006,122606,2021-11-04T13:16:05.953Z,122609.62,1636031635,full,ni_sequenzen,NI_Sequenzen,,,,,,,,,,,,,,
,Screen_5,canvas.Screen,0_2_0_4,cont,response,1,122609,122609.54,122609.62,126641,4031.3800000000047,126646,2021-11-04T13:16:09.993Z,126730.58,1636031635,full,ni_sequenzen,NI_Sequenzen,,,,,,,,,,,,,,
,Screen_6,canvas.Screen,0_2_0_5,cont,response,1,126726,126725.76,126730.58,139140,12409.419999999998,139158,2021-11-04T13:16:22.505Z,139321.36,1636031635,full,ni_sequenzen,NI_Sequenzen,,,,,,,,,,,,,,
,Sequence,flow.Sequence,0_2_0,,completion,1,79181,79182.4,79182.5,139140,59957.5,139158,2021-11-04T13:16:22.505Z,139321.36,1636031635,full,ni_sequenzen,NI_Sequenzen,,,,,,,,,,,,,,
,Screen_1,canvas.Screen,0_2_1_0,,skipped,2,139160,,,139160,,139160,2021-11-04T13:16:22.508Z,139321.36,1636031635,full,ni_sequenzen,NI_Sequenzen,,,,,,,,,,,,,,
,Screen_2,canvas.Screen,0_2_1_1,,skipped,2,139162,,,139160,,139162,2021-11-04T13:16:22.509Z,139321.36,1636031635,full,ni_sequenzen,NI_Sequenzen,,,,,,,,,,,,,,
,Screen_3,canvas.Screen,0_2_1_2,,skipped,2,139163,,,139160,,139163,2021-11-04T13:16:22.510Z,139321.36,1636031635,full,ni_sequenzen,NI_Sequenzen,,,,,,,,,,,,,,
,Screen_4,canvas.Screen,0_2_1_3,,skipped,2,139164,,,139160,,139164,2021-11-04T13:16:22.512Z,139321.36,1636031635,full,ni_sequenzen,NI_Sequenzen,,,,,,,,,,,,,,
,Screen_5,canvas.Screen,0_2_1_4,,skipped,2,139165,,,139160,,139165,2021-11-04T13:16:22.513Z,139321.36,1636031635,full,ni_sequenzen,NI_Sequenzen,,,,,,,,,,,,,,
,Screen_6,canvas.Screen,0_2_1_5,,skipped,2,139166,,,139160,,139166,2021-11-04T13:16:22.513Z,139321.36,1636031635,full,ni_sequenzen,NI_Sequenzen,,,,,,,,,,,,,,
,Sequence,flow.Sequence,0_2_1,,completion,2,139159,,,139160,,139167,2021-11-04T13:16:22.514Z,139321.36,1636031635,full,ni_sequenzen,NI_Sequenzen,,,,,,,,,,,,,,
,Screen_1,canvas.Screen,0_2_2_0,,skipped,3,139168,,,139168,,139168,2021-11-04T13:16:22.516Z,139321.36,1636031635,full,ni_sequenzen,NI_Sequenzen,,,,,,,,,,,,,,
,Screen_2,canvas.Screen,0_2_2_1,,skipped,3,139169,,,139168,,139169,2021-11-04T13:16:22.517Z,139321.36,1636031635,full,ni_sequenzen,NI_Sequenzen,,,,,,,,,,,,,,
,Screen_3,canvas.Screen,0_2_2_2,,skipped,3,139170,,,139168,,139170,2021-11-04T13:16:22.517Z,139321.36,1636031635,full,ni_sequenzen,NI_Sequenzen,,,,,,,,,,,,,,
,Screen_4,canvas.Screen,0_2_2_3,,skipped,3,139171,,,139168,,139171,2021-11-04T13:16:22.518Z,139321.36,1636031635,full,ni_sequenzen,NI_Sequenzen,,,,,,,,,,,,,,
,Screen_5,canvas.Screen,0_2_2_4,,skipped,3,139172,,,139168,,139172,2021-11-04T13:16:22.520Z,139321.36,1636031635,full,ni_sequenzen,NI_Sequenzen,,,,,,,,,,,,,,
,Screen_6,canvas.Screen,0_2_2_5,,skipped,3,139173,,,139168,,139173,2021-11-04T13:16:22.520Z,139321.36,1636031635,full,ni_sequenzen,NI_Sequenzen,,,,,,,,,,,,,,
,Sequence,flow.Sequence,0_2_2,,completion,3,139167,,,139168,,139173,2021-11-04T13:16:22.520Z,139321.36,1636031635,full,ni_sequenzen,NI_Sequenzen,,,,,,,,,,,,,,
,Screen_1,canvas.Screen,0_2_3_0,,skipped,4,139174,,,139174,,139174,2021-11-04T13:16:22.522Z,139321.36,1636031635,full,ni_sequenzen,NI_Sequenzen,,,,,,,,,,,,,,
,Screen_2,canvas.Screen,0_2_3_1,,skipped,4,139174,,,139174,,139174,2021-11-04T13:16:22.523Z,139321.36,1636031635,full,ni_sequenzen,NI_Sequenzen,,,,,,,,,,,,,,
,Screen_3,canvas.Screen,0_2_3_2,,skipped,4,139176,,,139174,,139176,2021-11-04T13:16:22.524Z,139321.36,1636031635,full,ni_sequenzen,NI_Sequenzen,,,,,,,,,,,,,,
,Screen_4,canvas.Screen,0_2_3_3,,skipped,4,139176,,,139174,,139176,2021-11-04T13:16:22.524Z,139321.36,1636031635,full,ni_sequenzen,NI_Sequenzen,,,,,,,,,,,,,,
,Screen_5,canvas.Screen,0_2_3_4,,skipped,4,139178,,,139174,,139178,2021-11-04T13:16:22.525Z,139321.36,1636031635,full,ni_sequenzen,NI_Sequenzen,,,,,,,,,,,,,,
,Screen_6,canvas.Screen,0_2_3_5,,skipped,4,139179,,,139174,,139179,2021-11-04T13:16:22.526Z,139321.36,1636031635,full,ni_sequenzen,NI_Sequenzen,,,,,,,,,,,,,,
,Sequence,flow.Sequence,0_2_3,,completion,4,139173,,,139174,,139179,2021-11-04T13:16:22.526Z,139321.36,1636031635,full,ni_sequenzen,NI_Sequenzen,,,,,,,,,,,,,,
,Screen_1,canvas.Screen,0_2_4_0,,skipped,5,139180,,,139180,,139180,2021-11-04T13:16:22.527Z,139321.36,1636031635,full,ni_sequenzen,NI_Sequenzen,,,,,,,,,,,,,,
,Screen_2,canvas.Screen,0_2_4_1,,skipped,5,139180,,,139180,,139180,2021-11-04T13:16:22.528Z,139321.36,1636031635,full,ni_sequenzen,NI_Sequenzen,,,,,,,,,,,,,,
,Screen_3,canvas.Screen,0_2_4_2,,skipped,5,139181,,,139180,,139181,2021-11-04T13:16:22.529Z,139321.36,1636031635,full,ni_sequenzen,NI_Sequenzen,,,,,,,,,,,,,,
,Screen_4,canvas.Screen,0_2_4_3,,skipped,5,139182,,,139180,,139182,2021-11-04T13:16:22.530Z,139321.36,1636031635,full,ni_sequenzen,NI_Sequenzen,,,,,,,,,,,,,,
,Screen_5,canvas.Screen,0_2_4_4,,skipped,5,139182,,,139180,,139182,2021-11-04T13:16:22.530Z,139321.36,1636031635,full,ni_sequenzen,NI_Sequenzen,,,,,,,,,,,,,,
,Screen_6,canvas.Screen,0_2_4_5,,skipped,5,139183,,,139180,,139183,2021-11-04T13:16:22.530Z,139321.36,1636031635,full,ni_sequenzen,NI_Sequenzen,,,,,,,,,,,,,,
,Sequence,flow.Sequence,0_2_4,,completion,5,139179,,,139180,,139183,2021-11-04T13:16:22.530Z,139321.36,1636031635,full,ni_sequenzen,NI_Sequenzen,,,,,,,,,,,,,,
,Screen_1,canvas.Screen,0_2_5_0,,skipped,6,139184,,,139184,,139184,2021-11-04T13:16:22.532Z,139321.36,1636031635,full,ni_sequenzen,NI_Sequenzen,,,,,,,,,,,,,,
,Screen_2,canvas.Screen,0_2_5_1,,skipped,6,139185,,,139184,,139185,2021-11-04T13:16:22.533Z,139321.36,1636031635,full,ni_sequenzen,NI_Sequenzen,,,,,,,,,,,,,,
,Screen_3,canvas.Screen,0_2_5_2,,skipped,6,139185,,,139184,,139185,2021-11-04T13:16:22.534Z,139321.36,1636031635,full,ni_sequenzen,NI_Sequenzen,,,,,,,,,,,,,,
,Screen_4,canvas.Screen,0_2_5_3,,skipped,6,139186,,,139184,,139186,2021-11-04T13:16:22.534Z,139321.36,1636031635,full,ni_sequenzen,NI_Sequenzen,,,,,,,,,,,,,,
,Screen_5,canvas.Screen,0_2_5_4,,skipped,6,139187,,,139184,,139187,2021-11-04T13:16:22.535Z,139321.36,1636031635,full,ni_sequenzen,NI_Sequenzen,,,,,,,,,,,,,,
,Screen_6,canvas.Screen,0_2_5_5,,skipped,6,139188,,,139184,,139188,2021-11-04T13:16:22.536Z,139321.36,1636031635,full,ni_sequenzen,NI_Sequenzen,,,,,,,,,,,,,,
,Sequence,flow.Sequence,0_2_5,,completion,6,139183,,,139184,,139188,2021-11-04T13:16:22.536Z,139321.36,1636031635,full,ni_sequenzen,NI_Sequenzen,,,,,,,,,,,,,,
,Screen_1,canvas.Screen,0_2_6_0,,skipped,7,139189,,,139189,,139189,2021-11-04T13:16:22.537Z,139321.36,1636031635,full,ni_sequenzen,NI_Sequenzen,,,,,,,,,,,,,,
,Screen_2,canvas.Screen,0_2_6_1,,skipped,7,139189,,,139189,,139189,2021-11-04T13:16:22.538Z,139321.36,1636031635,full,ni_sequenzen,NI_Sequenzen,,,,,,,,,,,,,,
,Screen_3,canvas.Screen,0_2_6_2,,skipped,7,139191,,,139189,,139191,2021-11-04T13:16:22.539Z,139321.36,1636031635,full,ni_sequenzen,NI_Sequenzen,,,,,,,,,,,,,,
,Screen_4,canvas.Screen,0_2_6_3,,skipped,7,139192,,,139189,,139192,2021-11-04T13:16:22.539Z,139321.36,1636031635,full,ni_sequenzen,NI_Sequenzen,,,,,,,,,,,,,,
,Screen_5,canvas.Screen,0_2_6_4,,skipped,7,139192,,,139189,,139192,2021-11-04T13:16:22.540Z,139321.36,1636031635,full,ni_sequenzen,NI_Sequenzen,,,,,,,,,,,,,,
,Screen_6,canvas.Screen,0_2_6_5,,skipped,7,139193,,,139189,,139193,2021-11-04T13:16:22.541Z,139321.36,1636031635,full,ni_sequenzen,NI_Sequenzen,,,,,,,,,,,,,,
,Sequence,flow.Sequence,0_2_6,,completion,7,139188,,,139189,,139193,2021-11-04T13:16:22.541Z,139321.36,1636031635,full,ni_sequenzen,NI_Sequenzen,,,,,,,,,,,,,,
,Screen_1,canvas.Screen,0_2_7_0,,skipped,8,139194,,,139194,,139194,2021-11-04T13:16:22.541Z,139321.36,1636031635,full,ni_sequenzen,NI_Sequenzen,,,,,,,,,,,,,,
,Screen_2,canvas.Screen,0_2_7_1,,skipped,8,139194,,,139194,,139194,2021-11-04T13:16:22.542Z,139321.36,1636031635,full,ni_sequenzen,NI_Sequenzen,,,,,,,,,,,,,,
,Screen_3,canvas.Screen,0_2_7_2,,skipped,8,139195,,,139194,,139195,2021-11-04T13:16:22.543Z,139321.36,1636031635,full,ni_sequenzen,NI_Sequenzen,,,,,,,,,,,,,,
,Screen_4,canvas.Screen,0_2_7_3,,skipped,8,139196,,,139194,,139196,2021-11-04T13:16:22.544Z,139321.36,1636031635,full,ni_sequenzen,NI_Sequenzen,,,,,,,,,,,,,,
,Screen_5,canvas.Screen,0_2_7_4,,skipped,8,139196,,,139194,,139196,2021-11-04T13:16:22.544Z,139321.36,1636031635,full,ni_sequenzen,NI_Sequenzen,,,,,,,,,,,,,,
,Screen_6,canvas.Screen,0_2_7_5,,skipped,8,139197,,,139194,,139197,2021-11-04T13:16:22.544Z,139321.36,1636031635,full,ni_sequenzen,NI_Sequenzen,,,,,,,,,,,,,,
,Sequence,flow.Sequence,0_2_7,,completion,8,139193,,,139194,,139197,2021-11-04T13:16:22.544Z,139321.36,1636031635,full,ni_sequenzen,NI_Sequenzen,,,,,,,,,,,,,,
,Screen_1,canvas.Screen,0_2_8_0,,skipped,9,139198,,,139198,,139198,2021-11-04T13:16:22.547Z,139321.36,1636031635,full,ni_sequenzen,NI_Sequenzen,,,,,,,,,,,,,,
,Screen_2,canvas.Screen,0_2_8_1,,skipped,9,139199,,,139198,,139200,2021-11-04T13:16:22.548Z,139321.36,1636031635,full,ni_sequenzen,NI_Sequenzen,,,,,,,,,,,,,,
,Screen_3,canvas.Screen,0_2_8_2,,skipped,9,139201,,,139198,,139201,2021-11-04T13:16:22.548Z,139321.36,1636031635,full,ni_sequenzen,NI_Sequenzen,,,,,,,,,,,,,,
,Screen_4,canvas.Screen,0_2_8_3,,skipped,9,139201,,,139198,,139201,2021-11-04T13:16:22.550Z,139321.36,1636031635,full,ni_sequenzen,NI_Sequenzen,,,,,,,,,,,,,,
,Screen_5,canvas.Screen,0_2_8_4,,skipped,9,139202,,,139198,,139202,2021-11-04T13:16:22.551Z,139321.36,1636031635,full,ni_sequenzen,NI_Sequenzen,,,,,,,,,,,,,,
,Screen_6,canvas.Screen,0_2_8_5,,skipped,9,139203,,,139198,,139203,2021-11-04T13:16:22.551Z,139321.36,1636031635,full,ni_sequenzen,NI_Sequenzen,,,,,,,,,,,,,,
,Sequence,flow.Sequence,0_2_8,,completion,9,139197,,,139198,,139203,2021-11-04T13:16:22.551Z,139321.36,1636031635,full,ni_sequenzen,NI_Sequenzen,,,,,,,,,,,,,,
,Screen_1,canvas.Screen,0_2_9_0,,skipped,10,139204,,,139204,,139204,2021-11-04T13:16:22.552Z,139321.36,1636031635,full,ni_sequenzen,NI_Sequenzen,,,,,,,,,,,,,,
,Screen_2,canvas.Screen,0_2_9_1,,skipped,10,139205,,,139204,,139205,2021-11-04T13:16:22.553Z,139321.36,1636031635,full,ni_sequenzen,NI_Sequenzen,,,,,,,,,,,,,,
,Screen_3,canvas.Screen,0_2_9_2,,skipped,10,139207,,,139204,,139207,2021-11-04T13:16:22.554Z,139321.36,1636031635,full,ni_sequenzen,NI_Sequenzen,,,,,,,,,,,,,,
,Screen_4,canvas.Screen,0_2_9_3,,skipped,10,139207,,,139204,,139207,2021-11-04T13:16:22.555Z,139321.36,1636031635,full,ni_sequenzen,NI_Sequenzen,,,,,,,,,,,,,,
,Screen_5,canvas.Screen,0_2_9_4,,skipped,10,139208,,,139204,,139208,2021-11-04T13:16:22.555Z,139321.36,1636031635,full,ni_sequenzen,NI_Sequenzen,,,,,,,,,,,,,,
,Screen_6,canvas.Screen,0_2_9_5,,skipped,10,139209,,,139204,,139209,2021-11-04T13:16:22.557Z,139321.36,1636031635,full,ni_sequenzen,NI_Sequenzen,,,,,,,,,,,,,,
,Sequence,flow.Sequence,0_2_9,,completion,10,139203,,,139204,,139209,2021-11-04T13:16:22.557Z,139321.36,1636031635,full,ni_sequenzen,NI_Sequenzen,,,,,,,,,,,,,,
,Screen_1,canvas.Screen,0_2_10_0,,skipped,11,139210,,,139210,,139210,2021-11-04T13:16:22.558Z,139321.36,1636031635,full,ni_sequenzen,NI_Sequenzen,,,,,,,,,,,,,,
,Screen_2,canvas.Screen,0_2_10_1,,skipped,11,139211,,,139210,,139211,2021-11-04T13:16:22.559Z,139321.36,1636031635,full,ni_sequenzen,NI_Sequenzen,,,,,,,,,,,,,,
,Screen_3,canvas.Screen,0_2_10_2,,skipped,11,139212,,,139210,,139212,2021-11-04T13:16:22.560Z,139321.36,1636031635,full,ni_sequenzen,NI_Sequenzen,,,,,,,,,,,,,,
,Screen_4,canvas.Screen,0_2_10_3,,skipped,11,139212,,,139210,,139212,2021-11-04T13:16:22.560Z,139321.36,1636031635,full,ni_sequenzen,NI_Sequenzen,,,,,,,,,,,,,,
,Screen_5,canvas.Screen,0_2_10_4,,skipped,11,139213,,,139210,,139213,2021-11-04T13:16:22.560Z,139321.36,1636031635,full,ni_sequenzen,NI_Sequenzen,,,,,,,,,,,,,,
,Screen_6,canvas.Screen,0_2_10_5,,skipped,11,139213,,,139210,,139214,2021-11-04T13:16:22.561Z,139321.36,1636031635,full,ni_sequenzen,NI_Sequenzen,,,,,,,,,,,,,,
,Sequence,flow.Sequence,0_2_10,,completion,11,139210,,,139210,,139214,2021-11-04T13:16:22.561Z,139321.36,1636031635,full,ni_sequenzen,NI_Sequenzen,,,,,,,,,,,,,,
,Screen_1,canvas.Screen,0_2_11_0,,skipped,12,139214,,,139214,,139214,2021-11-04T13:16:22.562Z,139321.36,1636031635,full,ni_sequenzen,NI_Sequenzen,,,,,,,,,,,,,,
,Screen_2,canvas.Screen,0_2_11_1,,skipped,12,139216,,,139214,,139216,2021-11-04T13:16:22.563Z,139321.36,1636031635,full,ni_sequenzen,NI_Sequenzen,,,,,,,,,,,,,,
,Screen_3,canvas.Screen,0_2_11_2,,skipped,12,139216,,,139214,,139216,2021-11-04T13:16:22.563Z,139321.36,1636031635,full,ni_sequenzen,NI_Sequenzen,,,,,,,,,,,,,,
,Screen_4,canvas.Screen,0_2_11_3,,skipped,12,139217,,,139214,,139217,2021-11-04T13:16:22.564Z,139321.36,1636031635,full,ni_sequenzen,NI_Sequenzen,,,,,,,,,,,,,,
,Screen_5,canvas.Screen,0_2_11_4,,skipped,12,139218,,,139214,,139218,2021-11-04T13:16:22.565Z,139321.36,1636031635,full,ni_sequenzen,NI_Sequenzen,,,,,,,,,,,,,,
,Screen_6,canvas.Screen,0_2_11_5,,skipped,12,139218,,,139214,,139218,2021-11-04T13:16:22.565Z,139321.36,1636031635,full,ni_sequenzen,NI_Sequenzen,,,,,,,,,,,,,,
,Sequence,flow.Sequence,0_2_11,,completion,12,139214,,,139214,,139219,2021-11-04T13:16:22.567Z,139321.36,1636031635,full,ni_sequenzen,NI_Sequenzen,,,,,,,,,,,,,,
,Screen_1,canvas.Screen,0_2_12_0,,skipped,13,139221,,,139221,,139221,2021-11-04T13:16:22.568Z,139321.36,1636031635,full,ni_sequenzen,NI_Sequenzen,,,,,,,,,,,,,,
,Screen_2,canvas.Screen,0_2_12_1,,skipped,13,139221,,,139221,,139221,2021-11-04T13:16:22.569Z,139321.36,1636031635,full,ni_sequenzen,NI_Sequenzen,,,,,,,,,,,,,,
,Screen_3,canvas.Screen,0_2_12_2,,skipped,13,139222,,,139221,,139222,2021-11-04T13:16:22.569Z,139321.36,1636031635,full,ni_sequenzen,NI_Sequenzen,,,,,,,,,,,,,,
,Screen_4,canvas.Screen,0_2_12_3,,skipped,13,139222,,,139221,,139222,2021-11-04T13:16:22.570Z,139321.36,1636031635,full,ni_sequenzen,NI_Sequenzen,,,,,,,,,,,,,,
,Screen_5,canvas.Screen,0_2_12_4,,skipped,13,139223,,,139221,,139223,2021-11-04T13:16:22.570Z,139321.36,1636031635,full,ni_sequenzen,NI_Sequenzen,,,,,,,,,,,,,,
,Screen_6,canvas.Screen,0_2_12_5,,skipped,13,139224,,,139221,,139224,2021-11-04T13:16:22.571Z,139321.36,1636031635,full,ni_sequenzen,NI_Sequenzen,,,,,,,,,,,,,,
,Sequence,flow.Sequence,0_2_12,,completion,13,139220,,,139221,,139224,2021-11-04T13:16:22.571Z,139321.36,1636031635,full,ni_sequenzen,NI_Sequenzen,,,,,,,,,,,,,,
,Screen_1,canvas.Screen,0_2_13_0,,skipped,14,139224,,,139224,,139224,2021-11-04T13:16:22.572Z,139321.36,1636031635,full,ni_sequenzen,NI_Sequenzen,,,,,,,,,,,,,,
,Screen_2,canvas.Screen,0_2_13_1,,skipped,14,139226,,,139224,,139226,2021-11-04T13:16:22.573Z,139321.36,1636031635,full,ni_sequenzen,NI_Sequenzen,,,,,,,,,,,,,,
,Screen_3,canvas.Screen,0_2_13_2,,skipped,14,139226,,,139224,,139226,2021-11-04T13:16:22.573Z,139321.36,1636031635,full,ni_sequenzen,NI_Sequenzen,,,,,,,,,,,,,,
,Screen_4,canvas.Screen,0_2_13_3,,skipped,14,139227,,,139224,,139227,2021-11-04T13:16:22.574Z,139321.36,1636031635,full,ni_sequenzen,NI_Sequenzen,,,,,,,,,,,,,,
,Screen_5,canvas.Screen,0_2_13_4,,skipped,14,139228,,,139224,,139228,2021-11-04T13:16:22.575Z,139321.36,1636031635,full,ni_sequenzen,NI_Sequenzen,,,,,,,,,,,,,,
,Screen_6,canvas.Screen,0_2_13_5,,skipped,14,139228,,,139224,,139228,2021-11-04T13:16:22.575Z,139321.36,1636031635,full,ni_sequenzen,NI_Sequenzen,,,,,,,,,,,,,,
,Sequence,flow.Sequence,0_2_13,,completion,14,139224,,,139224,,139228,2021-11-04T13:16:22.575Z,139321.36,1636031635,full,ni_sequenzen,NI_Sequenzen,,,,,,,,,,,,,,
,Screen_1,canvas.Screen,0_2_14_0,,skipped,15,139229,,,139229,,139229,2021-11-04T13:16:22.576Z,139321.36,1636031635,full,ni_sequenzen,NI_Sequenzen,,,,,,,,,,,,,,
,Screen_2,canvas.Screen,0_2_14_1,,skipped,15,139230,,,139229,,139230,2021-11-04T13:16:22.577Z,139321.36,1636031635,full,ni_sequenzen,NI_Sequenzen,,,,,,,,,,,,,,
,Screen_3,canvas.Screen,0_2_14_2,,skipped,15,139230,,,139229,,139230,2021-11-04T13:16:22.578Z,139321.36,1636031635,full,ni_sequenzen,NI_Sequenzen,,,,,,,,,,,,,,
,Screen_4,canvas.Screen,0_2_14_3,,skipped,15,139231,,,139229,,139231,2021-11-04T13:16:22.578Z,139321.36,1636031635,full,ni_sequenzen,NI_Sequenzen,,,,,,,,,,,,,,
,Screen_5,canvas.Screen,0_2_14_4,,skipped,15,139232,,,139229,,139232,2021-11-04T13:16:22.579Z,139321.36,1636031635,full,ni_sequenzen,NI_Sequenzen,,,,,,,,,,,,,,
,Screen_6,canvas.Screen,0_2_14_5,,skipped,15,139232,,,139229,,139232,2021-11-04T13:16:22.580Z,139321.36,1636031635,full,ni_sequenzen,NI_Sequenzen,,,,,,,,,,,,,,
,Sequence,flow.Sequence,0_2_14,,completion,15,139229,,,139229,,139233,2021-11-04T13:16:22.580Z,139321.36,1636031635,full,ni_sequenzen,NI_Sequenzen,,,,,,,,,,,,,,
,Screen_1,canvas.Screen,0_2_15_0,,skipped,16,139234,,,139234,,139234,2021-11-04T13:16:22.581Z,139321.36,1636031635,full,ni_sequenzen,NI_Sequenzen,,,,,,,,,,,,,,
,Screen_2,canvas.Screen,0_2_15_1,,skipped,16,139234,,,139234,,139234,2021-11-04T13:16:22.581Z,139321.36,1636031635,full,ni_sequenzen,NI_Sequenzen,,,,,,,,,,,,,,
,Screen_3,canvas.Screen,0_2_15_2,,skipped,16,139235,,,139234,,139235,2021-11-04T13:16:22.582Z,139321.36,1636031635,full,ni_sequenzen,NI_Sequenzen,,,,,,,,,,,,,,
,Screen_4,canvas.Screen,0_2_15_3,,skipped,16,139235,,,139234,,139235,2021-11-04T13:16:22.583Z,139321.36,1636031635,full,ni_sequenzen,NI_Sequenzen,,,,,,,,,,,,,,
,Screen_5,canvas.Screen,0_2_15_4,,skipped,16,139236,,,139234,,139236,2021-11-04T13:16:22.584Z,139321.36,1636031635,full,ni_sequenzen,NI_Sequenzen,,,,,,,,,,,,,,
,Screen_6,canvas.Screen,0_2_15_5,,skipped,16,139237,,,139234,,139237,2021-11-04T13:16:22.584Z,139321.36,1636031635,full,ni_sequenzen,NI_Sequenzen,,,,,,,,,,,,,,
,Sequence,flow.Sequence,0_2_15,,completion,16,139233,,,139234,,139237,2021-11-04T13:16:22.584Z,139321.36,1636031635,full,ni_sequenzen,NI_Sequenzen,,,,,,,,,,,,,,
,Screen_1,canvas.Screen,0_2_16_0,,skipped,17,139238,,,139238,,139238,2021-11-04T13:16:22.586Z,139321.36,1636031635,full,ni_sequenzen,NI_Sequenzen,,,,,,,,,,,,,,
,Screen_2,canvas.Screen,0_2_16_1,,skipped,17,139238,,,139238,,139238,2021-11-04T13:16:22.586Z,139321.36,1636031635,full,ni_sequenzen,NI_Sequenzen,,,,,,,,,,,,,,
,Screen_3,canvas.Screen,0_2_16_2,,skipped,17,139239,,,139238,,139239,2021-11-04T13:16:22.587Z,139321.36,1636031635,full,ni_sequenzen,NI_Sequenzen,,,,,,,,,,,,,,
,Screen_4,canvas.Screen,0_2_16_3,,skipped,17,139240,,,139238,,139240,2021-11-04T13:16:22.587Z,139321.36,1636031635,full,ni_sequenzen,NI_Sequenzen,,,,,,,,,,,,,,
,Screen_5,canvas.Screen,0_2_16_4,,skipped,17,139240,,,139238,,139240,2021-11-04T13:16:22.588Z,139321.36,1636031635,full,ni_sequenzen,NI_Sequenzen,,,,,,,,,,,,,,
,Screen_6,canvas.Screen,0_2_16_5,,skipped,17,139240,,,139238,,139240,2021-11-04T13:16:22.588Z,139321.36,1636031635,full,ni_sequenzen,NI_Sequenzen,,,,,,,,,,,,,,
,Sequence,flow.Sequence,0_2_16,,completion,17,139237,,,139238,,139240,2021-11-04T13:16:22.589Z,139321.36,1636031635,full,ni_sequenzen,NI_Sequenzen,,,,,,,,,,,,,,
,Screen_1,canvas.Screen,0_2_17_0,,skipped,18,139242,,,139242,,139242,2021-11-04T13:16:22.589Z,139321.36,1636031635,full,ni_sequenzen,NI_Sequenzen,,,,,,,,,,,,,,
,Screen_2,canvas.Screen,0_2_17_1,,skipped,18,139243,,,139242,,139243,2021-11-04T13:16:22.590Z,139321.36,1636031635,full,ni_sequenzen,NI_Sequenzen,,,,,,,,,,,,,,
,Screen_3,canvas.Screen,0_2_17_2,,skipped,18,139243,,,139242,,139243,2021-11-04T13:16:22.590Z,139321.36,1636031635,full,ni_sequenzen,NI_Sequenzen,,,,,,,,,,,,,,
,Screen_4,canvas.Screen,0_2_17_3,,skipped,18,139244,,,139242,,139244,2021-11-04T13:16:22.591Z,139321.36,1636031635,full,ni_sequenzen,NI_Sequenzen,,,,,,,,,,,,,,
,Screen_5,canvas.Screen,0_2_17_4,,skipped,18,139244,,,139242,,139244,2021-11-04T13:16:22.592Z,139321.36,1636031635,full,ni_sequenzen,NI_Sequenzen,,,,,,,,,,,,,,
,Screen_6,canvas.Screen,0_2_17_5,,skipped,18,139245,,,139242,,139245,2021-11-04T13:16:22.592Z,139321.36,1636031635,full,ni_sequenzen,NI_Sequenzen,,,,,,,,,,,,,,
,Sequence,flow.Sequence,0_2_17,,completion,18,139242,,,139242,,139245,2021-11-04T13:16:22.592Z,139321.36,1636031635,full,ni_sequenzen,NI_Sequenzen,,,,,,,,,,,,,,
,Screen_1,canvas.Screen,0_2_18_0,,skipped,19,139246,,,139246,,139246,2021-11-04T13:16:22.594Z,139321.36,1636031635,full,ni_sequenzen,NI_Sequenzen,,,,,,,,,,,,,,
,Screen_2,canvas.Screen,0_2_18_1,,skipped,19,139247,,,139246,,139247,2021-11-04T13:16:22.595Z,139321.36,1636031635,full,ni_sequenzen,NI_Sequenzen,,,,,,,,,,,,,,
,Screen_3,canvas.Screen,0_2_18_2,,skipped,19,139248,,,139246,,139248,2021-11-04T13:16:22.595Z,139321.36,1636031635,full,ni_sequenzen,NI_Sequenzen,,,,,,,,,,,,,,
,Screen_4,canvas.Screen,0_2_18_3,,skipped,19,139248,,,139246,,139248,2021-11-04T13:16:22.596Z,139321.36,1636031635,full,ni_sequenzen,NI_Sequenzen,,,,,,,,,,,,,,
,Screen_5,canvas.Screen,0_2_18_4,,skipped,19,139249,,,139246,,139249,2021-11-04T13:16:22.597Z,139321.36,1636031635,full,ni_sequenzen,NI_Sequenzen,,,,,,,,,,,,,,
,Screen_6,canvas.Screen,0_2_18_5,,skipped,19,139249,,,139246,,139249,2021-11-04T13:16:22.597Z,139321.36,1636031635,full,ni_sequenzen,NI_Sequenzen,,,,,,,,,,,,,,
,Sequence,flow.Sequence,0_2_18,,completion,19,139245,,,139246,,139249,2021-11-04T13:16:22.597Z,139321.36,1636031635,full,ni_sequenzen,NI_Sequenzen,,,,,,,,,,,,,,
,Screen_1,canvas.Screen,0_2_19_0,,skipped,20,139250,,,139250,,139250,2021-11-04T13:16:22.598Z,139321.36,1636031635,full,ni_sequenzen,NI_Sequenzen,,,,,,,,,,,,,,
,Screen_2,canvas.Screen,0_2_19_1,,skipped,20,139251,,,139250,,139251,2021-11-04T13:16:22.599Z,139321.36,1636031635,full,ni_sequenzen,NI_Sequenzen,,,,,,,,,,,,,,
,Screen_3,canvas.Screen,0_2_19_2,,skipped,20,139251,,,139250,,139252,2021-11-04T13:16:22.599Z,139321.36,1636031635,full,ni_sequenzen,NI_Sequenzen,,,,,,,,,,,,,,
,Screen_4,canvas.Screen,0_2_19_3,,skipped,20,139252,,,139250,,139252,2021-11-04T13:16:22.600Z,139321.36,1636031635,full,ni_sequenzen,NI_Sequenzen,,,,,,,,,,,,,,
,Screen_5,canvas.Screen,0_2_19_4,,skipped,20,139253,,,139250,,139253,2021-11-04T13:16:22.601Z,139321.36,1636031635,full,ni_sequenzen,NI_Sequenzen,,,,,,,,,,,,,,
,Screen_6,canvas.Screen,0_2_19_5,,skipped,20,139253,,,139250,,139253,2021-11-04T13:16:22.602Z,139321.36,1636031635,full,ni_sequenzen,NI_Sequenzen,,,,,,,,,,,,,,
,Sequence,flow.Sequence,0_2_19,,completion,20,139250,,,139250,,139253,2021-11-04T13:16:22.602Z,139321.36,1636031635,full,ni_sequenzen,NI_Sequenzen,,,,,,,,,,,,,,
,Screen_1,canvas.Screen,0_2_20_0,,skipped,21,139255,,,139255,,139255,2021-11-04T13:16:22.603Z,139321.36,1636031635,full,ni_sequenzen,NI_Sequenzen,,,,,,,,,,,,,,
,Screen_2,canvas.Screen,0_2_20_1,,skipped,21,139256,,,139255,,139256,2021-11-04T13:16:22.603Z,139321.36,1636031635,full,ni_sequenzen,NI_Sequenzen,,,,,,,,,,,,,,
,Screen_3,canvas.Screen,0_2_20_2,,skipped,21,139256,,,139255,,139256,2021-11-04T13:16:22.603Z,139321.36,1636031635,full,ni_sequenzen,NI_Sequenzen,,,,,,,,,,,,,,
,Screen_4,canvas.Screen,0_2_20_3,,skipped,21,139257,,,139255,,139257,2021-11-04T13:16:22.604Z,139321.36,1636031635,full,ni_sequenzen,NI_Sequenzen,,,,,,,,,,,,,,
,Screen_5,canvas.Screen,0_2_20_4,,skipped,21,139257,,,139255,,139257,2021-11-04T13:16:22.604Z,139321.36,1636031635,full,ni_sequenzen,NI_Sequenzen,,,,,,,,,,,,,,
,Screen_6,canvas.Screen,0_2_20_5,,skipped,21,139258,,,139255,,139258,2021-11-04T13:16:22.606Z,139321.36,1636031635,full,ni_sequenzen,NI_Sequenzen,,,,,,,,,,,,,,
,Sequence,flow.Sequence,0_2_20,,completion,21,139255,,,139255,,139258,2021-11-04T13:16:22.606Z,139321.36,1636031635,full,ni_sequenzen,NI_Sequenzen,,,,,,,,,,,,,,
,Screen_1,canvas.Screen,0_2_21_0,,skipped,22,139259,,,139259,,139259,2021-11-04T13:16:22.607Z,139321.36,1636031635,full,ni_sequenzen,NI_Sequenzen,,,,,,,,,,,,,,
,Screen_2,canvas.Screen,0_2_21_1,,skipped,22,139260,,,139259,,139260,2021-11-04T13:16:22.608Z,139321.36,1636031635,full,ni_sequenzen,NI_Sequenzen,,,,,,,,,,,,,,
,Screen_3,canvas.Screen,0_2_21_2,,skipped,22,139260,,,139259,,139260,2021-11-04T13:16:22.608Z,139321.36,1636031635,full,ni_sequenzen,NI_Sequenzen,,,,,,,,,,,,,,
,Screen_4,canvas.Screen,0_2_21_3,,skipped,22,139261,,,139259,,139261,2021-11-04T13:16:22.609Z,139321.36,1636031635,full,ni_sequenzen,NI_Sequenzen,,,,,,,,,,,,,,
,Screen_5,canvas.Screen,0_2_21_4,,skipped,22,139261,,,139259,,139261,2021-11-04T13:16:22.610Z,139321.36,1636031635,full,ni_sequenzen,NI_Sequenzen,,,,,,,,,,,,,,
,Screen_6,canvas.Screen,0_2_21_5,,skipped,22,139262,,,139259,,139262,2021-11-04T13:16:22.610Z,139321.36,1636031635,full,ni_sequenzen,NI_Sequenzen,,,,,,,,,,,,,,
,Sequence,flow.Sequence,0_2_21,,completion,22,139258,,,139259,,139262,2021-11-04T13:16:22.610Z,139321.36,1636031635,full,ni_sequenzen,NI_Sequenzen,,,,,,,,,,,,,,
,Screen_1,canvas.Screen,0_2_22_0,,skipped,23,139263,,,139263,,139263,2021-11-04T13:16:22.611Z,139321.36,1636031635,full,ni_sequenzen,NI_Sequenzen,,,,,,,,,,,,,,
,Screen_2,canvas.Screen,0_2_22_1,,skipped,23,139264,,,139263,,139264,2021-11-04T13:16:22.612Z,139321.36,1636031635,full,ni_sequenzen,NI_Sequenzen,,,,,,,,,,,,,,
,Screen_3,canvas.Screen,0_2_22_2,,skipped,23,139264,,,139263,,139264,2021-11-04T13:16:22.612Z,139321.36,1636031635,full,ni_sequenzen,NI_Sequenzen,,,,,,,,,,,,,,
,Screen_4,canvas.Screen,0_2_22_3,,skipped,23,139265,,,139263,,139265,2021-11-04T13:16:22.613Z,139321.36,1636031635,full,ni_sequenzen,NI_Sequenzen,,,,,,,,,,,,,,
,Screen_5,canvas.Screen,0_2_22_4,,skipped,23,139265,,,139263,,139265,2021-11-04T13:16:22.613Z,139321.36,1636031635,full,ni_sequenzen,NI_Sequenzen,,,,,,,,,,,,,,
,Screen_6,canvas.Screen,0_2_22_5,,skipped,23,139266,,,139263,,139266,2021-11-04T13:16:22.614Z,139321.36,1636031635,full,ni_sequenzen,NI_Sequenzen,,,,,,,,,,,,,,
,Sequence,flow.Sequence,0_2_22,,completion,23,139262,,,139263,,139266,2021-11-04T13:16:22.614Z,139321.36,1636031635,full,ni_sequenzen,NI_Sequenzen,,,,,,,,,,,,,,
,Screen_1,canvas.Screen,0_2_23_0,,skipped,24,139267,,,139267,,139267,2021-11-04T13:16:22.615Z,139321.36,1636031635,full,ni_sequenzen,NI_Sequenzen,,,,,,,,,,,,,,
,Screen_2,canvas.Screen,0_2_23_1,,skipped,24,139267,,,139267,,139267,2021-11-04T13:16:22.615Z,139321.36,1636031635,full,ni_sequenzen,NI_Sequenzen,,,,,,,,,,,,,,
,Screen_3,canvas.Screen,0_2_23_2,,skipped,24,139268,,,139267,,139268,2021-11-04T13:16:22.617Z,139321.36,1636031635,full,ni_sequenzen,NI_Sequenzen,,,,,,,,,,,,,,
,Screen_4,canvas.Screen,0_2_23_3,,skipped,24,139269,,,139267,,139269,2021-11-04T13:16:22.617Z,139321.36,1636031635,full,ni_sequenzen,NI_Sequenzen,,,,,,,,,,,,,,
,Screen_5,canvas.Screen,0_2_23_4,,skipped,24,139269,,,139267,,139269,2021-11-04T13:16:22.618Z,139321.36,1636031635,full,ni_sequenzen,NI_Sequenzen,,,,,,,,,,,,,,
,Screen_6,canvas.Screen,0_2_23_5,,skipped,24,139271,,,139267,,139271,2021-11-04T13:16:22.618Z,139321.36,1636031635,full,ni_sequenzen,NI_Sequenzen,,,,,,,,,,,,,,
,Sequence,flow.Sequence,0_2_23,,completion,24,139266,,,139267,,139271,2021-11-04T13:16:22.618Z,139321.36,1636031635,full,ni_sequenzen,NI_Sequenzen,,,,,,,,,,,,,,
,Screen_1,canvas.Screen,0_2_24_0,,skipped,25,139273,,,139273,,139273,2021-11-04T13:16:22.620Z,139321.36,1636031635,full,ni_sequenzen,NI_Sequenzen,,,,,,,,,,,,,,
,Screen_2,canvas.Screen,0_2_24_1,,skipped,25,139274,,,139273,,139274,2021-11-04T13:16:22.621Z,139321.36,1636031635,full,ni_sequenzen,NI_Sequenzen,,,,,,,,,,,,,,
,Screen_3,canvas.Screen,0_2_24_2,,skipped,25,139275,,,139273,,139275,2021-11-04T13:16:22.622Z,139321.36,1636031635,full,ni_sequenzen,NI_Sequenzen,,,,,,,,,,,,,,
,Screen_4,canvas.Screen,0_2_24_3,,skipped,25,139275,,,139273,,139275,2021-11-04T13:16:22.623Z,139321.36,1636031635,full,ni_sequenzen,NI_Sequenzen,,,,,,,,,,,,,,
,Screen_5,canvas.Screen,0_2_24_4,,skipped,25,139276,,,139273,,139276,2021-11-04T13:16:22.624Z,139321.36,1636031635,full,ni_sequenzen,NI_Sequenzen,,,,,,,,,,,,,,
,Screen_6,canvas.Screen,0_2_24_5,,skipped,25,139276,,,139273,,139276,2021-11-04T13:16:22.624Z,139321.36,1636031635,full,ni_sequenzen,NI_Sequenzen,,,,,,,,,,,,,,
,Sequence,flow.Sequence,0_2_24,,completion,25,139271,,,139273,,139276,2021-11-04T13:16:22.624Z,139321.36,1636031635,full,ni_sequenzen,NI_Sequenzen,,,,,,,,,,,,,,
,Screen_1,canvas.Screen,0_2_25_0,,skipped,26,139277,,,139277,,139277,2021-11-04T13:16:22.625Z,139321.36,1636031635,full,ni_sequenzen,NI_Sequenzen,,,,,,,,,,,,,,
,Screen_2,canvas.Screen,0_2_25_1,,skipped,26,139278,,,139277,,139278,2021-11-04T13:16:22.625Z,139321.36,1636031635,full,ni_sequenzen,NI_Sequenzen,,,,,,,,,,,,,,
,Screen_3,canvas.Screen,0_2_25_2,,skipped,26,139278,,,139277,,139278,2021-11-04T13:16:22.626Z,139321.36,1636031635,full,ni_sequenzen,NI_Sequenzen,,,,,,,,,,,,,,
,Screen_4,canvas.Screen,0_2_25_3,,skipped,26,139279,,,139277,,139279,2021-11-04T13:16:22.627Z,139321.36,1636031635,full,ni_sequenzen,NI_Sequenzen,,,,,,,,,,,,,,
,Screen_5,canvas.Screen,0_2_25_4,,skipped,26,139280,,,139277,,139280,2021-11-04T13:16:22.627Z,139321.36,1636031635,full,ni_sequenzen,NI_Sequenzen,,,,,,,,,,,,,,
,Screen_6,canvas.Screen,0_2_25_5,,skipped,26,139280,,,139277,,139280,2021-11-04T13:16:22.628Z,139321.36,1636031635,full,ni_sequenzen,NI_Sequenzen,,,,,,,,,,,,,,
,Sequence,flow.Sequence,0_2_25,,completion,26,139277,,,139277,,139280,2021-11-04T13:16:22.628Z,139321.36,1636031635,full,ni_sequenzen,NI_Sequenzen,,,,,,,,,,,,,,
,Screen_1,canvas.Screen,0_2_26_0,,skipped,27,139281,,,139281,,139281,2021-11-04T13:16:22.629Z,139321.36,1636031635,full,ni_sequenzen,NI_Sequenzen,,,,,,,,,,,,,,
,Screen_2,canvas.Screen,0_2_26_1,,skipped,27,139282,,,139281,,139282,2021-11-04T13:16:22.629Z,139321.36,1636031635,full,ni_sequenzen,NI_Sequenzen,,,,,,,,,,,,,,
,Screen_3,canvas.Screen,0_2_26_2,,skipped,27,139283,,,139281,,139283,2021-11-04T13:16:22.630Z,139321.36,1636031635,full,ni_sequenzen,NI_Sequenzen,,,,,,,,,,,,,,
,Screen_4,canvas.Screen,0_2_26_3,,skipped,27,139283,,,139281,,139283,2021-11-04T13:16:22.631Z,139321.36,1636031635,full,ni_sequenzen,NI_Sequenzen,,,,,,,,,,,,,,
,Screen_5,canvas.Screen,0_2_26_4,,skipped,27,139284,,,139281,,139284,2021-11-04T13:16:22.631Z,139321.36,1636031635,full,ni_sequenzen,NI_Sequenzen,,,,,,,,,,,,,,
,Screen_6,canvas.Screen,0_2_26_5,,skipped,27,139284,,,139281,,139284,2021-11-04T13:16:22.631Z,139321.36,1636031635,full,ni_sequenzen,NI_Sequenzen,,,,,,,,,,,,,,
,Sequence,flow.Sequence,0_2_26,,completion,27,139280,,,139281,,139284,2021-11-04T13:16:22.631Z,139321.36,1636031635,full,ni_sequenzen,NI_Sequenzen,,,,,,,,,,,,,,
,Screen_1,canvas.Screen,0_2_27_0,,skipped,28,139285,,,139285,,139285,2021-11-04T13:16:22.633Z,139321.36,1636031635,full,ni_sequenzen,NI_Sequenzen,,,,,,,,,,,,,,
,Screen_2,canvas.Screen,0_2_27_1,,skipped,28,139286,,,139285,,139286,2021-11-04T13:16:22.634Z,139321.36,1636031635,full,ni_sequenzen,NI_Sequenzen,,,,,,,,,,,,,,
,Screen_3,canvas.Screen,0_2_27_2,,skipped,28,139286,,,139285,,139286,2021-11-04T13:16:22.634Z,139321.36,1636031635,full,ni_sequenzen,NI_Sequenzen,,,,,,,,,,,,,,
,Screen_4,canvas.Screen,0_2_27_3,,skipped,28,139287,,,139285,,139287,2021-11-04T13:16:22.634Z,139321.36,1636031635,full,ni_sequenzen,NI_Sequenzen,,,,,,,,,,,,,,
,Screen_5,canvas.Screen,0_2_27_4,,skipped,28,139287,,,139285,,139287,2021-11-04T13:16:22.635Z,139321.36,1636031635,full,ni_sequenzen,NI_Sequenzen,,,,,,,,,,,,,,
,Screen_6,canvas.Screen,0_2_27_5,,skipped,28,139288,,,139285,,139288,2021-11-04T13:16:22.636Z,139321.36,1636031635,full,ni_sequenzen,NI_Sequenzen,,,,,,,,,,,,,,
,Sequence,flow.Sequence,0_2_27,,completion,28,139285,,,139285,,139288,2021-11-04T13:16:22.636Z,139321.36,1636031635,full,ni_sequenzen,NI_Sequenzen,,,,,,,,,,,,,,
,Screen_1,canvas.Screen,0_2_28_0,,skipped,29,139290,,,139290,,139290,2021-11-04T13:16:22.637Z,139321.36,1636031635,full,ni_sequenzen,NI_Sequenzen,,,,,,,,,,,,,,
,Screen_2,canvas.Screen,0_2_28_1,,skipped,29,139291,,,139290,,139291,2021-11-04T13:16:22.638Z,139321.36,1636031635,full,ni_sequenzen,NI_Sequenzen,,,,,,,,,,,,,,
,Screen_3,canvas.Screen,0_2_28_2,,skipped,29,139291,,,139290,,139291,2021-11-04T13:16:22.638Z,139321.36,1636031635,full,ni_sequenzen,NI_Sequenzen,,,,,,,,,,,,,,
,Screen_4,canvas.Screen,0_2_28_3,,skipped,29,139292,,,139290,,139292,2021-11-04T13:16:22.639Z,139321.36,1636031635,full,ni_sequenzen,NI_Sequenzen,,,,,,,,,,,,,,
,Screen_5,canvas.Screen,0_2_28_4,,skipped,29,139292,,,139290,,139292,2021-11-04T13:16:22.639Z,139321.36,1636031635,full,ni_sequenzen,NI_Sequenzen,,,,,,,,,,,,,,
,Screen_6,canvas.Screen,0_2_28_5,,skipped,29,139293,,,139290,,139293,2021-11-04T13:16:22.640Z,139321.36,1636031635,full,ni_sequenzen,NI_Sequenzen,,,,,,,,,,,,,,
,Sequence,flow.Sequence,0_2_28,,completion,29,139290,,,139290,,139293,2021-11-04T13:16:22.640Z,139321.36,1636031635,full,ni_sequenzen,NI_Sequenzen,,,,,,,,,,,,,,
,Screen_1,canvas.Screen,0_2_29_0,,skipped,30,139294,,,139294,,139294,2021-11-04T13:16:22.641Z,139321.36,1636031635,full,ni_sequenzen,NI_Sequenzen,,,,,,,,,,,,,,
,Screen_2,canvas.Screen,0_2_29_1,,skipped,30,139294,,,139294,,139294,2021-11-04T13:16:22.641Z,139321.36,1636031635,full,ni_sequenzen,NI_Sequenzen,,,,,,,,,,,,,,
,Screen_3,canvas.Screen,0_2_29_2,,skipped,30,139295,,,139294,,139295,2021-11-04T13:16:22.642Z,139321.36,1636031635,full,ni_sequenzen,NI_Sequenzen,,,,,,,,,,,,,,
,Screen_4,canvas.Screen,0_2_29_3,,skipped,30,139296,,,139294,,139296,2021-11-04T13:16:22.643Z,139321.36,1636031635,full,ni_sequenzen,NI_Sequenzen,,,,,,,,,,,,,,
,Screen_5,canvas.Screen,0_2_29_4,,skipped,30,139296,,,139294,,139296,2021-11-04T13:16:22.643Z,139321.36,1636031635,full,ni_sequenzen,NI_Sequenzen,,,,,,,,,,,,,,
,Screen_6,canvas.Screen,0_2_29_5,,skipped,30,139297,,,139294,,139297,2021-11-04T13:16:22.644Z,139321.36,1636031635,full,ni_sequenzen,NI_Sequenzen,,,,,,,,,,,,,,
,Sequence,flow.Sequence,0_2_29,,completion,30,139293,,,139294,,139297,2021-11-04T13:16:22.644Z,139321.36,1636031635,full,ni_sequenzen,NI_Sequenzen,,,,,,,,,,,,,,
,Instructions_II,flow.Loop,0_2,,completion,,79181,79182.4,79182.5,139294,60111.5,139297,2021-11-04T13:16:22.644Z,139321.36,1636031635,full,ni_sequenzen,NI_Sequenzen,,,,,,,,,,,,,,
,Move,canvas.Screen,0_3_0_0_0_0,right,response,,139317,139317.28,139321.36,145266,5944.640000000014,145278,2021-11-04T13:16:28.625Z,145282.04,1636031635,full,ni_sequenzen,NI_Sequenzen,1,0,,,,,,,,,,,,
,Move,canvas.Screen,0_3_0_0_0_1,down,response,,145282,145281.92,145282.04,145907,624.9599999999919,145910,2021-11-04T13:16:29.257Z,145912.96,1636031635,full,ni_sequenzen,NI_Sequenzen,2,0,,,,,,,,,,,,
,Move,canvas.Screen,0_3_0_0_0_2,right,response,,145913,145912.88,145912.96,148563,2650.040000000008,148566,2021-11-04T13:16:31.913Z,148568.78,1636031635,full,ni_sequenzen,NI_Sequenzen,3,0,,,,,,,,,,,,
,Move,canvas.Screen,0_3_0_0_0_3,down,response,,148569,148568.7,148568.78,148796,227.22000000000116,148806,2021-11-04T13:16:32.153Z,148836.9,1636031635,full,ni_sequenzen,NI_Sequenzen,4,0,,,,,,,,,,,,
,Move,canvas.Screen,0_3_0_0_0_4,-999,skipped,,148808,,,148796,,148808,2021-11-04T13:16:32.156Z,148836.9,1636031635,full,ni_sequenzen,NI_Sequenzen,5,0,,,,,,,,,,,,
,Move,canvas.Screen,0_3_0_0_0_5,-999,skipped,,148811,,,148796,,148811,2021-11-04T13:16:32.159Z,148836.9,1636031635,full,ni_sequenzen,NI_Sequenzen,6,0,,,,,,,,,,,,
,Move,canvas.Screen,0_3_0_0_0_6,-999,skipped,,148813,,,148796,,148813,2021-11-04T13:16:32.162Z,148836.9,1636031635,full,ni_sequenzen,NI_Sequenzen,7,0,,,,,,,,,,,,
,Move,canvas.Screen,0_3_0_0_0_7,-999,skipped,,148817,,,148796,,148817,2021-11-04T13:16:32.165Z,148836.9,1636031635,full,ni_sequenzen,NI_Sequenzen,8,0,,,,,,,,,,,,
,Move,canvas.Screen,0_3_0_0_0_8,-999,skipped,,148819,,,148796,,148819,2021-11-04T13:16:32.167Z,148836.9,1636031635,full,ni_sequenzen,NI_Sequenzen,9,0,,,,,,,,,,,,
,Move,canvas.Screen,0_3_0_0_0_9,-999,skipped,,148822,,,148796,,148822,2021-11-04T13:16:32.170Z,148836.9,1636031635,full,ni_sequenzen,NI_Sequenzen,10,0,,,,,,,,,,,,
,Move,canvas.Screen,0_3_0_0_0_10,-999,skipped,,148824,,,148796,,148824,2021-11-04T13:16:32.172Z,148836.9,1636031635,full,ni_sequenzen,NI_Sequenzen,11,0,,,,,,,,,,,,
,Move,canvas.Screen,0_3_0_0_0_11,-999,skipped,,148827,,,148796,,148827,2021-11-04T13:16:32.175Z,148836.9,1636031635,full,ni_sequenzen,NI_Sequenzen,12,0,,,,,,,,,,,,
,Move,canvas.Screen,0_3_0_0_0_12,-999,skipped,,148829,,,148796,,148829,2021-11-04T13:16:32.177Z,148836.9,1636031635,full,ni_sequenzen,NI_Sequenzen,13,0,,,,,,,,,,,,
,Move,canvas.Screen,0_3_0_0_0_13,-999,skipped,,148832,,,148796,,148832,2021-11-04T13:16:32.180Z,148836.9,1636031635,full,ni_sequenzen,NI_Sequenzen,14,0,,,,,,,,,,,,
,Move,canvas.Screen,0_3_0_0_0_14,-999,skipped,,148834,,,148796,,148834,2021-11-04T13:16:32.182Z,148836.9,1636031635,full,ni_sequenzen,NI_Sequenzen,15,0,,,,,,,,,,,,
,Loop,flow.Loop,0_3_0_0_0,-999,completion,,139314,139317.28,139321.36,148796,9474.640000000014,148835,2021-11-04T13:16:32.182Z,148836.9,1636031635,full,ni_sequenzen,NI_Sequenzen,,0,,,,,,,,,,,,
,Feedback,canvas.Screen,0_3_0_0_1,,timeout,,148837,148836.74,148836.9,152828.38,3998.8800000000047,152829,2021-11-04T13:16:36.177Z,152835.78,1636031635,full,ni_sequenzen,NI_Sequenzen,,0,,,,,,,,,,,,
,Trial,flow.Sequence,0_3_0_0,,completion,,139310,139317.28,139321.36,152828.38,13507.020000000019,152829,2021-11-04T13:16:36.177Z,152842.26,1636031635,full,ni_sequenzen,NI_Sequenzen,,0,,,,,,,,,,,,
,Move,canvas.Screen,0_3_0_1_0_0,left,response,,152835,152835.78,152842.26,159422,6579.739999999991,159429,2021-11-04T13:16:42.777Z,159432.16,1636031635,full,ni_sequenzen,NI_Sequenzen,1,1,,,,,,,,,,,,
,Move,canvas.Screen,0_3_0_1_0_1,down,response,,159432,159432.1,159432.16,159751,318.8399999999965,159757,2021-11-04T13:16:43.105Z,159760.3,1636031635,full,ni_sequenzen,NI_Sequenzen,2,1,,,,,,,,,,,,
,Move,canvas.Screen,0_3_0_1_0_2,down,response,,159760,159760.14,159760.3,161016,1255.7000000000116,161029,2021-11-04T13:16:44.377Z,161032.46,1636031635,full,ni_sequenzen,NI_Sequenzen,3,1,,,,,,,,,,,,
,Move,canvas.Screen,0_3_0_1_0_3,left,response,,161032,161032.38,161032.46,161344,311.54000000000815,161357,2021-11-04T13:16:44.705Z,161388.56,1636031635,full,ni_sequenzen,NI_Sequenzen,4,1,,,,,,,,,,,,
,Move,canvas.Screen,0_3_0_1_0_4,-999,skipped,,161361,,,161344,,161361,2021-11-04T13:16:44.708Z,161388.56,1636031635,full,ni_sequenzen,NI_Sequenzen,5,1,,,,,,,,,,,,
,Move,canvas.Screen,0_3_0_1_0_5,-999,skipped,,161363,,,161344,,161363,2021-11-04T13:16:44.711Z,161388.56,1636031635,full,ni_sequenzen,NI_Sequenzen,6,1,,,,,,,,,,,,
,Move,canvas.Screen,0_3_0_1_0_6,-999,skipped,,161366,,,161344,,161366,2021-11-04T13:16:44.713Z,161388.56,1636031635,full,ni_sequenzen,NI_Sequenzen,7,1,,,,,,,,,,,,
,Move,canvas.Screen,0_3_0_1_0_7,-999,skipped,,161368,,,161344,,161368,2021-11-04T13:16:44.716Z,161388.56,1636031635,full,ni_sequenzen,NI_Sequenzen,8,1,,,,,,,,,,,,
,Move,canvas.Screen,0_3_0_1_0_8,-999,skipped,,161370,,,161344,,161370,2021-11-04T13:16:44.718Z,161388.56,1636031635,full,ni_sequenzen,NI_Sequenzen,9,1,,,,,,,,,,,,
,Move,canvas.Screen,0_3_0_1_0_9,-999,skipped,,161374,,,161344,,161374,2021-11-04T13:16:44.721Z,161388.56,1636031635,full,ni_sequenzen,NI_Sequenzen,10,1,,,,,,,,,,,,
,Move,canvas.Screen,0_3_0_1_0_10,-999,skipped,,161376,,,161344,,161376,2021-11-04T13:16:44.723Z,161388.56,1636031635,full,ni_sequenzen,NI_Sequenzen,11,1,,,,,,,,,,,,
,Move,canvas.Screen,0_3_0_1_0_11,-999,skipped,,161379,,,161344,,161379,2021-11-04T13:16:44.727Z,161388.56,1636031635,full,ni_sequenzen,NI_Sequenzen,12,1,,,,,,,,,,,,
,Move,canvas.Screen,0_3_0_1_0_12,-999,skipped,,161381,,,161344,,161381,2021-11-04T13:16:44.728Z,161388.56,1636031635,full,ni_sequenzen,NI_Sequenzen,13,1,,,,,,,,,,,,
,Move,canvas.Screen,0_3_0_1_0_13,-999,skipped,,161383,,,161344,,161383,2021-11-04T13:16:44.732Z,161388.56,1636031635,full,ni_sequenzen,NI_Sequenzen,14,1,,,,,,,,,,,,
,Move,canvas.Screen,0_3_0_1_0_14,-999,skipped,,161386,,,161344,,161386,2021-11-04T13:16:44.734Z,161388.56,1636031635,full,ni_sequenzen,NI_Sequenzen,15,1,,,,,,,,,,,,
,Loop,flow.Loop,0_3_0_1_0,-999,completion,,152832,152835.78,152842.26,161344,8501.73999999999,161386,2021-11-04T13:16:44.734Z,161388.56,1636031635,full,ni_sequenzen,NI_Sequenzen,,1,,,,,,,,,,,,
,Feedback,canvas.Screen,0_3_0_1_1,,timeout,,161389,161388.42,161388.56,165384.2,4002.9800000000105,165385,2021-11-04T13:16:48.732Z,165391.54,1636031635,full,ni_sequenzen,NI_Sequenzen,,1,,,,,,,,,,,,
,Trial,flow.Sequence,0_3_0_1,,completion,,152829,152835.78,152842.26,165384.2,12541.940000000002,165385,2021-11-04T13:16:48.732Z,165398.1,1636031635,full,ni_sequenzen,NI_Sequenzen,,1,,,,,,,,,,,,
,Move,canvas.Screen,0_3_0_2_0_0,right,response,,165392,165391.54,165398.1,166907,1508.8999999999942,166910,2021-11-04T13:16:50.257Z,166912.32,1636031635,full,ni_sequenzen,NI_Sequenzen,1,2,,,,,,,,,,,,
,Move,canvas.Screen,0_3_0_2_0_1,down,response,,166912,166912.24,166912.32,167126,213.67999999999302,167141,2021-11-04T13:16:50.489Z,167144.22,1636031635,full,ni_sequenzen,NI_Sequenzen,2,2,,,,,,,,,,,,
,Move,canvas.Screen,0_3_0_2_0_2,right,response,,167144,167144.14,167144.22,167422,277.77999999999884,167429,2021-11-04T13:16:50.777Z,167431.9,1636031635,full,ni_sequenzen,NI_Sequenzen,3,2,,,,,,,,,,,,
,Move,canvas.Screen,0_3_0_2_0_3,down,response,,167432,167431.82,167431.9,167657,225.10000000000582,167669,2021-11-04T13:16:51.016Z,167699.9,1636031635,full,ni_sequenzen,NI_Sequenzen,4,2,,,,,,,,,,,,
,Move,canvas.Screen,0_3_0_2_0_4,-999,skipped,,167672,,,167657,,167672,2021-11-04T13:16:51.020Z,167699.9,1636031635,full,ni_sequenzen,NI_Sequenzen,5,2,,,,,,,,,,,,
,Move,canvas.Screen,0_3_0_2_0_5,-999,skipped,,167675,,,167657,,167675,2021-11-04T13:16:51.023Z,167699.9,1636031635,full,ni_sequenzen,NI_Sequenzen,6,2,,,,,,,,,,,,
,Move,canvas.Screen,0_3_0_2_0_6,-999,skipped,,167677,,,167657,,167677,2021-11-04T13:16:51.025Z,167699.9,1636031635,full,ni_sequenzen,NI_Sequenzen,7,2,,,,,,,,,,,,
,Move,canvas.Screen,0_3_0_2_0_7,-999,skipped,,167680,,,167657,,167680,2021-11-04T13:16:51.028Z,167699.9,1636031635,full,ni_sequenzen,NI_Sequenzen,8,2,,,,,,,,,,,,
,Move,canvas.Screen,0_3_0_2_0_8,-999,skipped,,167682,,,167657,,167682,2021-11-04T13:16:51.030Z,167699.9,1636031635,full,ni_sequenzen,NI_Sequenzen,9,2,,,,,,,,,,,,
,Move,canvas.Screen,0_3_0_2_0_9,-999,skipped,,167685,,,167657,,167685,2021-11-04T13:16:51.033Z,167699.9,1636031635,full,ni_sequenzen,NI_Sequenzen,10,2,,,,,,,,,,,,
,Move,canvas.Screen,0_3_0_2_0_10,-999,skipped,,167687,,,167657,,167687,2021-11-04T13:16:51.035Z,167699.9,1636031635,full,ni_sequenzen,NI_Sequenzen,11,2,,,,,,,,,,,,
,Move,canvas.Screen,0_3_0_2_0_11,-999,skipped,,167689,,,167657,,167690,2021-11-04T13:16:51.038Z,167699.9,1636031635,full,ni_sequenzen,NI_Sequenzen,12,2,,,,,,,,,,,,
,Move,canvas.Screen,0_3_0_2_0_12,-999,skipped,,167692,,,167657,,167692,2021-11-04T13:16:51.040Z,167699.9,1636031635,full,ni_sequenzen,NI_Sequenzen,13,2,,,,,,,,,,,,
,Move,canvas.Screen,0_3_0_2_0_13,-999,skipped,,167695,,,167657,,167695,2021-11-04T13:16:51.042Z,167699.9,1636031635,full,ni_sequenzen,NI_Sequenzen,14,2,,,,,,,,,,,,
,Move,canvas.Screen,0_3_0_2_0_14,-999,skipped,,167697,,,167657,,167697,2021-11-04T13:16:51.046Z,167699.9,1636031635,full,ni_sequenzen,NI_Sequenzen,15,2,,,,,,,,,,,,
,Loop,flow.Loop,0_3_0_2_0,-999,completion,,165389,165391.54,165398.1,167657,2258.899999999994,167698,2021-11-04T13:16:51.046Z,167699.9,1636031635,full,ni_sequenzen,NI_Sequenzen,,2,,,,,,,,,,,,
,Feedback,canvas.Screen,0_3_0_2_1,,timeout,,167700,167699.76,167699.9,171689.9,3997.679999999993,171690,2021-11-04T13:16:55.038Z,171697.58,1636031635,full,ni_sequenzen,NI_Sequenzen,,2,,,,,,,,,,,,
,Trial,flow.Sequence,0_3_0_2,,completion,,165385,165391.54,165398.1,171689.9,6291.799999999988,171690,2021-11-04T13:16:55.038Z,171703.78,1636031635,full,ni_sequenzen,NI_Sequenzen,,2,,,,,,,,,,,,
,Move,canvas.Screen,0_3_0_3_0_0,down,response,,171698,171697.58,171703.78,173985,2281.220000000001,173997,2021-11-04T13:16:57.344Z,173999.9,1636031635,full,ni_sequenzen,NI_Sequenzen,1,3,,,,,,,,,,,,
,Move,canvas.Screen,0_3_0_3_0_1,right,response,,174000,173999.82,173999.9,174782,782.1000000000058,174789,2021-11-04T13:16:58.137Z,174796.58,1636031635,full,ni_sequenzen,NI_Sequenzen,2,3,,,,,,,,,,,,
,Move,canvas.Screen,0_3_0_3_0_2,right,response,,174796,174796.48,174796.58,175032,235.4200000000128,175038,2021-11-04T13:16:58.385Z,175042.84,1636031635,full,ni_sequenzen,NI_Sequenzen,3,3,,,,,,,,,,,,
,Move,canvas.Screen,0_3_0_3_0_3,down,response,,175042,175042.76,175042.84,175282,239.1600000000035,175293,2021-11-04T13:16:58.640Z,175331.88,1636031635,full,ni_sequenzen,NI_Sequenzen,4,3,,,,,,,,,,,,
,Move,canvas.Screen,0_3_0_3_0_4,-999,skipped,,175298,,,175282,,175298,2021-11-04T13:16:58.646Z,175331.88,1636031635,full,ni_sequenzen,NI_Sequenzen,5,3,,,,,,,,,,,,
,Move,canvas.Screen,0_3_0_3_0_5,-999,skipped,,175302,,,175282,,175302,2021-11-04T13:16:58.650Z,175331.88,1636031635,full,ni_sequenzen,NI_Sequenzen,6,3,,,,,,,,,,,,
,Move,canvas.Screen,0_3_0_3_0_6,-999,skipped,,175306,,,175282,,175306,2021-11-04T13:16:58.653Z,175331.88,1636031635,full,ni_sequenzen,NI_Sequenzen,7,3,,,,,,,,,,,,
,Move,canvas.Screen,0_3_0_3_0_7,-999,skipped,,175309,,,175282,,175309,2021-11-04T13:16:58.656Z,175331.88,1636031635,full,ni_sequenzen,NI_Sequenzen,8,3,,,,,,,,,,,,
,Move,canvas.Screen,0_3_0_3_0_8,-999,skipped,,175312,,,175282,,175312,2021-11-04T13:16:58.659Z,175331.88,1636031635,full,ni_sequenzen,NI_Sequenzen,9,3,,,,,,,,,,,,
,Move,canvas.Screen,0_3_0_3_0_9,-999,skipped,,175314,,,175282,,175314,2021-11-04T13:16:58.662Z,175331.88,1636031635,full,ni_sequenzen,NI_Sequenzen,10,3,,,,,,,,,,,,
,Move,canvas.Screen,0_3_0_3_0_10,-999,skipped,,175318,,,175282,,175318,2021-11-04T13:16:58.665Z,175331.88,1636031635,full,ni_sequenzen,NI_Sequenzen,11,3,,,,,,,,,,,,
,Move,canvas.Screen,0_3_0_3_0_11,-999,skipped,,175320,,,175282,,175321,2021-11-04T13:16:58.668Z,175331.88,1636031635,full,ni_sequenzen,NI_Sequenzen,12,3,,,,,,,,,,,,
,Move,canvas.Screen,0_3_0_3_0_12,-999,skipped,,175323,,,175282,,175324,2021-11-04T13:16:58.672Z,175331.88,1636031635,full,ni_sequenzen,NI_Sequenzen,13,3,,,,,,,,,,,,
,Move,canvas.Screen,0_3_0_3_0_13,-999,skipped,,175327,,,175282,,175327,2021-11-04T13:16:58.674Z,175331.88,1636031635,full,ni_sequenzen,NI_Sequenzen,14,3,,,,,,,,,,,,
,Move,canvas.Screen,0_3_0_3_0_14,-999,skipped,,175329,,,175282,,175329,2021-11-04T13:16:58.677Z,175331.88,1636031635,full,ni_sequenzen,NI_Sequenzen,15,3,,,,,,,,,,,,
,Loop,flow.Loop,0_3_0_3_0,-999,completion,,171695,171697.58,171703.78,175282,3578.220000000001,175330,2021-11-04T13:16:58.677Z,175331.88,1636031635,full,ni_sequenzen,NI_Sequenzen,,3,,,,,,,,,,,,
,Feedback,canvas.Screen,0_3_0_3_1,,timeout,,175332,175331.78,175331.88,179322.02,4007.1999999999825,179323,2021-11-04T13:17:02.670Z,179339.08,1636031635,full,ni_sequenzen,NI_Sequenzen,,3,,,,,,,,,,,,
,Trial,flow.Sequence,0_3_0_3,,completion,,171691,171697.58,171703.78,179322.02,7618.239999999991,179323,2021-11-04T13:17:02.671Z,179342.84,1636031635,full,ni_sequenzen,NI_Sequenzen,,3,,,,,,,,,,,,
,Move,canvas.Screen,0_3_0_4_0_0,down,response,,179340,179339.08,179342.84,180719,1376.1600000000035,180725,2021-11-04T13:17:04.073Z,180730.6,1636031635,full,ni_sequenzen,NI_Sequenzen,1,4,,,,,,,,,,,,
,Move,canvas.Screen,0_3_0_4_0_1,left,response,,180731,180730.52,180730.6,181344,613.3999999999942,181357,2021-11-04T13:17:04.704Z,181363.72,1636031635,full,ni_sequenzen,NI_Sequenzen,2,4,,,,,,,,,,,,
,Move,canvas.Screen,0_3_0_4_0_2,down,response,,181362,181362.22,181363.72,182063,699.2799999999988,182077,2021-11-04T13:17:05.425Z,182081.54,1636031635,full,ni_sequenzen,NI_Sequenzen,3,4,,,,,,,,,,,,
,Move,canvas.Screen,0_3_0_4_0_3,left,response,,182081,182081.46,182081.54,182282,200.45999999999185,182293,2021-11-04T13:17:05.640Z,182330.2,1636031635,full,ni_sequenzen,NI_Sequenzen,4,4,,,,,,,,,,,,
,Move,canvas.Screen,0_3_0_4_0_4,-999,skipped,,182297,,,182282,,182297,2021-11-04T13:17:05.645Z,182330.2,1636031635,full,ni_sequenzen,NI_Sequenzen,5,4,,,,,,,,,,,,
,Move,canvas.Screen,0_3_0_4_0_5,-999,skipped,,182300,,,182282,,182300,2021-11-04T13:17:05.648Z,182330.2,1636031635,full,ni_sequenzen,NI_Sequenzen,6,4,,,,,,,,,,,,
,Move,canvas.Screen,0_3_0_4_0_6,-999,skipped,,182303,,,182282,,182303,2021-11-04T13:17:05.651Z,182330.2,1636031635,full,ni_sequenzen,NI_Sequenzen,7,4,,,,,,,,,,,,
,Move,canvas.Screen,0_3_0_4_0_7,-999,skipped,,182306,,,182282,,182307,2021-11-04T13:17:05.653Z,182330.2,1636031635,full,ni_sequenzen,NI_Sequenzen,8,4,,,,,,,,,,,,
,Move,canvas.Screen,0_3_0_4_0_8,-999,skipped,,182309,,,182282,,182309,2021-11-04T13:17:05.656Z,182330.2,1636031635,full,ni_sequenzen,NI_Sequenzen,9,4,,,,,,,,,,,,
,Move,canvas.Screen,0_3_0_4_0_9,-999,skipped,,182312,,,182282,,182312,2021-11-04T13:17:05.659Z,182330.2,1636031635,full,ni_sequenzen,NI_Sequenzen,10,4,,,,,,,,,,,,
,Move,canvas.Screen,0_3_0_4_0_10,-999,skipped,,182314,,,182282,,182314,2021-11-04T13:17:05.663Z,182330.2,1636031635,full,ni_sequenzen,NI_Sequenzen,11,4,,,,,,,,,,,,
,Move,canvas.Screen,0_3_0_4_0_11,-999,skipped,,182318,,,182282,,182318,2021-11-04T13:17:05.665Z,182330.2,1636031635,full,ni_sequenzen,NI_Sequenzen,12,4,,,,,,,,,,,,
,Move,canvas.Screen,0_3_0_4_0_12,-999,skipped,,182321,,,182282,,182321,2021-11-04T13:17:05.669Z,182330.2,1636031635,full,ni_sequenzen,NI_Sequenzen,13,4,,,,,,,,,,,,
,Move,canvas.Screen,0_3_0_4_0_13,-999,skipped,,182325,,,182282,,182325,2021-11-04T13:17:05.672Z,182330.2,1636031635,full,ni_sequenzen,NI_Sequenzen,14,4,,,,,,,,,,,,
,Move,canvas.Screen,0_3_0_4_0_14,-999,skipped,,182327,,,182282,,182327,2021-11-04T13:17:05.674Z,182330.2,1636031635,full,ni_sequenzen,NI_Sequenzen,15,4,,,,,,,,,,,,
,Loop,flow.Loop,0_3_0_4_0,-999,completion,,179333,179339.08,179342.84,182282,2939.1600000000035,182328,2021-11-04T13:17:05.675Z,182330.2,1636031635,full,ni_sequenzen,NI_Sequenzen,,4,,,,,,,,,,,,
,Feedback,canvas.Screen,0_3_0_4_1,,timeout,,182330,182330.06,182330.2,186322.14,4002.399999999994,186323,2021-11-04T13:17:09.670Z,186332.6,1636031635,full,ni_sequenzen,NI_Sequenzen,,4,,,,,,,,,,,,
,Trial,flow.Sequence,0_3_0_4,,completion,,179323,179339.08,179342.84,186322.14,6979.3000000000175,186323,2021-11-04T13:17:09.670Z,186336.04,1636031635,full,ni_sequenzen,NI_Sequenzen,,4,,,,,,,,,,,,
,Move,canvas.Screen,0_3_0_5_0_0,left,response,,186333,186332.6,186336.04,188876,2539.959999999992,188885,2021-11-04T13:17:12.233Z,188888.22,1636031635,full,ni_sequenzen,NI_Sequenzen,1,5,,,,,,,,,,,,
,Move,canvas.Screen,0_3_0_5_0_1,left,response,,188888,188888.14,188888.22,189501,612.7799999999988,189509,2021-11-04T13:17:12.857Z,189512.38,1636031635,full,ni_sequenzen,NI_Sequenzen,2,5,,,,,,,,,,,,
,Move,canvas.Screen,0_3_0_5_0_2,down,response,,189512,189512.32,189512.38,191282,1769.6199999999953,191293,2021-11-04T13:17:14.640Z,191296.66,1636031635,full,ni_sequenzen,NI_Sequenzen,3,5,,,,,,,,,,,,
,Move,canvas.Screen,0_3_0_5_0_3,right,response,,191297,191296.58,191296.66,192422,1125.3399999999965,192429,2021-11-04T13:17:15.776Z,192459.78,1636031635,full,ni_sequenzen,NI_Sequenzen,4,5,,,,,,,,,,,,
,Move,canvas.Screen,0_3_0_5_0_4,-999,skipped,,192432,,,192422,,192432,2021-11-04T13:17:15.780Z,192459.78,1636031635,full,ni_sequenzen,NI_Sequenzen,5,5,,,,,,,,,,,,
,Move,canvas.Screen,0_3_0_5_0_5,-999,skipped,,192435,,,192422,,192435,2021-11-04T13:17:15.782Z,192459.78,1636031635,full,ni_sequenzen,NI_Sequenzen,6,5,,,,,,,,,,,,
,Move,canvas.Screen,0_3_0_5_0_6,-999,skipped,,192437,,,192422,,192437,2021-11-04T13:17:15.785Z,192459.78,1636031635,full,ni_sequenzen,NI_Sequenzen,7,5,,,,,,,,,,,,
,Move,canvas.Screen,0_3_0_5_0_7,-999,skipped,,192441,,,192422,,192441,2021-11-04T13:17:15.788Z,192459.78,1636031635,full,ni_sequenzen,NI_Sequenzen,8,5,,,,,,,,,,,,
,Move,canvas.Screen,0_3_0_5_0_8,-999,skipped,,192443,,,192422,,192443,2021-11-04T13:17:15.791Z,192459.78,1636031635,full,ni_sequenzen,NI_Sequenzen,9,5,,,,,,,,,,,,
,Move,canvas.Screen,0_3_0_5_0_9,-999,skipped,,192445,,,192422,,192445,2021-11-04T13:17:15.793Z,192459.78,1636031635,full,ni_sequenzen,NI_Sequenzen,10,5,,,,,,,,,,,,
,Move,canvas.Screen,0_3_0_5_0_10,-999,skipped,,192448,,,192422,,192448,2021-11-04T13:17:15.795Z,192459.78,1636031635,full,ni_sequenzen,NI_Sequenzen,11,5,,,,,,,,,,,,
,Move,canvas.Screen,0_3_0_5_0_11,-999,skipped,,192450,,,192422,,192450,2021-11-04T13:17:15.798Z,192459.78,1636031635,full,ni_sequenzen,NI_Sequenzen,12,5,,,,,,,,,,,,
,Move,canvas.Screen,0_3_0_5_0_12,-999,skipped,,192452,,,192422,,192452,2021-11-04T13:17:15.800Z,192459.78,1636031635,full,ni_sequenzen,NI_Sequenzen,13,5,,,,,,,,,,,,
,Move,canvas.Screen,0_3_0_5_0_13,-999,skipped,,192455,,,192422,,192455,2021-11-04T13:17:15.803Z,192459.78,1636031635,full,ni_sequenzen,NI_Sequenzen,14,5,,,,,,,,,,,,
,Move,canvas.Screen,0_3_0_5_0_14,-999,skipped,,192458,,,192422,,192458,2021-11-04T13:17:15.805Z,192459.78,1636031635,full,ni_sequenzen,NI_Sequenzen,15,5,,,,,,,,,,,,
,Loop,flow.Loop,0_3_0_5_0,-999,completion,,186330,186332.6,186336.04,192422,6085.959999999992,192458,2021-11-04T13:17:15.805Z,192459.78,1636031635,full,ni_sequenzen,NI_Sequenzen,,5,,,,,,,,,,,,
,Feedback,canvas.Screen,0_3_0_5_1,,timeout,,192460,192459.66,192459.78,196454.32,4002.5199999999895,196455,2021-11-04T13:17:19.803Z,196462.3,1636031635,full,ni_sequenzen,NI_Sequenzen,,5,,,,,,,,,,,,
,Trial,flow.Sequence,0_3_0_5,,completion,,186323,186332.6,186336.04,196454.32,10118.279999999999,196455,2021-11-04T13:17:19.803Z,196468.2,1636031635,full,ni_sequenzen,NI_Sequenzen,,5,,,,,,,,,,,,
,Move,canvas.Screen,0_3_0_6_0_0,right,response,,196462,196462.3,196468.2,199516,3047.7999999999884,199533,2021-11-04T13:17:22.880Z,199535.82,1636031635,full,ni_sequenzen,NI_Sequenzen,1,6,,,,,,,,,,,,
,Move,canvas.Screen,0_3_0_6_0_1,left,response,,199535,199535.76,199535.82,199704,168.17999999999302,199709,2021-11-04T13:17:23.056Z,199711.56,1636031635,full,ni_sequenzen,NI_Sequenzen,2,6,,,,,,,,,,,,
,Move,canvas.Screen,0_3_0_6_0_2,down,response,,199711,199711.5,199711.56,200001,289.4400000000023,200013,2021-11-04T13:17:23.361Z,200016.5,1636031635,full,ni_sequenzen,NI_Sequenzen,3,6,,,,,,,,,,,,
,Move,canvas.Screen,0_3_0_6_0_3,down,response,,200016,200016.42,200016.5,201360,1343.5,201373,2021-11-04T13:17:24.720Z,201375.6,1636031635,full,ni_sequenzen,NI_Sequenzen,4,6,,,,,,,,,,,,
,Move,canvas.Screen,0_3_0_6_0_4,left,response,,201376,201375.5,201375.6,202501,1125.3999999999942,202517,2021-11-04T13:17:25.864Z,202546.18,1636031635,full,ni_sequenzen,NI_Sequenzen,5,6,,,,,,,,,,,,
,Move,canvas.Screen,0_3_0_6_0_5,-999,skipped,,202520,,,202501,,202520,2021-11-04T13:17:25.868Z,202546.18,1636031635,full,ni_sequenzen,NI_Sequenzen,6,6,,,,,,,,,,,,
,Move,canvas.Screen,0_3_0_6_0_6,-999,skipped,,202523,,,202501,,202523,2021-11-04T13:17:25.871Z,202546.18,1636031635,full,ni_sequenzen,NI_Sequenzen,7,6,,,,,,,,,,,,
,Move,canvas.Screen,0_3_0_6_0_7,-999,skipped,,202526,,,202501,,202526,2021-11-04T13:17:25.873Z,202546.18,1636031635,full,ni_sequenzen,NI_Sequenzen,8,6,,,,,,,,,,,,
,Move,canvas.Screen,0_3_0_6_0_8,-999,skipped,,202528,,,202501,,202528,2021-11-04T13:17:25.875Z,202546.18,1636031635,full,ni_sequenzen,NI_Sequenzen,9,6,,,,,,,,,,,,
,Move,canvas.Screen,0_3_0_6_0_9,-999,skipped,,202530,,,202501,,202530,2021-11-04T13:17:25.878Z,202546.18,1636031635,full,ni_sequenzen,NI_Sequenzen,10,6,,,,,,,,,,,,
,Move,canvas.Screen,0_3_0_6_0_10,-999,skipped,,202534,,,202501,,202534,2021-11-04T13:17:25.881Z,202546.18,1636031635,full,ni_sequenzen,NI_Sequenzen,11,6,,,,,,,,,,,,
,Move,canvas.Screen,0_3_0_6_0_11,-999,skipped,,202536,,,202501,,202536,2021-11-04T13:17:25.884Z,202546.18,1636031635,full,ni_sequenzen,NI_Sequenzen,12,6,,,,,,,,,,,,
,Move,canvas.Screen,0_3_0_6_0_12,-999,skipped,,202539,,,202501,,202539,2021-11-04T13:17:25.887Z,202546.18,1636031635,full,ni_sequenzen,NI_Sequenzen,13,6,,,,,,,,,,,,
,Move,canvas.Screen,0_3_0_6_0_13,-999,skipped,,202541,,,202501,,202542,2021-11-04T13:17:25.889Z,202546.18,1636031635,full,ni_sequenzen,NI_Sequenzen,14,6,,,,,,,,,,,,
,Move,canvas.Screen,0_3_0_6_0_14,-999,skipped,,202544,,,202501,,202544,2021-11-04T13:17:25.892Z,202546.18,1636031635,full,ni_sequenzen,NI_Sequenzen,15,6,,,,,,,,,,,,
,Loop,flow.Loop,0_3_0_6_0,-999,completion,,196459,196462.3,196468.2,202501,6032.799999999988,202544,2021-11-04T13:17:25.892Z,202546.18,1636031635,full,ni_sequenzen,NI_Sequenzen,,6,,,,,,,,,,,,
,Feedback,canvas.Screen,0_3_0_6_1,,timeout,,202546,202546.04,202546.18,206537.88,3998.640000000014,206539,2021-11-04T13:17:29.886Z,206544.82,1636031635,full,ni_sequenzen,NI_Sequenzen,,6,,,,,,,,,,,,
,Trial,flow.Sequence,0_3_0_6,,completion,,196455,196462.3,196468.2,206537.88,10069.679999999993,206539,2021-11-04T13:17:29.886Z,206551.76,1636031635,full,ni_sequenzen,NI_Sequenzen,,6,,,,,,,,,,,,
,Move,canvas.Screen,0_3_0_7_0_0,down,response,,206545,206544.82,206551.76,214344,7792.239999999991,214357,2021-11-04T13:17:37.704Z,214359.66,1636031635,full,ni_sequenzen,NI_Sequenzen,1,7,,,,,,,,,,,,
,Move,canvas.Screen,0_3_0_7_0_1,right,response,,214360,214359.56,214359.66,214657,297.3399999999965,214668,2021-11-04T13:17:38.016Z,214671.34,1636031635,full,ni_sequenzen,NI_Sequenzen,2,7,,,,,,,,,,,,
,Move,canvas.Screen,0_3_0_7_0_2,right,response,,214671,214671.26,214671.34,214876,204.6600000000035,214893,2021-11-04T13:17:38.240Z,214895.62,1636031635,full,ni_sequenzen,NI_Sequenzen,3,7,,,,,,,,,,,,
,Move,canvas.Screen,0_3_0_7_0_3,left,response,,214896,214895.52,214895.62,215188,292.38000000000466,215197,2021-11-04T13:17:38.544Z,215226.7,1636031635,full,ni_sequenzen,NI_Sequenzen,4,7,,,,,,,,,,,,
,Move,canvas.Screen,0_3_0_7_0_4,-999,skipped,,215200,,,215188,,215200,2021-11-04T13:17:38.547Z,215226.7,1636031635,full,ni_sequenzen,NI_Sequenzen,5,7,,,,,,,,,,,,
,Move,canvas.Screen,0_3_0_7_0_5,-999,skipped,,215202,,,215188,,215202,2021-11-04T13:17:38.550Z,215226.7,1636031635,full,ni_sequenzen,NI_Sequenzen,6,7,,,,,,,,,,,,
,Move,canvas.Screen,0_3_0_7_0_6,-999,skipped,,215205,,,215188,,215205,2021-11-04T13:17:38.552Z,215226.7,1636031635,full,ni_sequenzen,NI_Sequenzen,7,7,,,,,,,,,,,,
,Move,canvas.Screen,0_3_0_7_0_7,-999,skipped,,215208,,,215188,,215208,2021-11-04T13:17:38.555Z,215226.7,1636031635,full,ni_sequenzen,NI_Sequenzen,8,7,,,,,,,,,,,,
,Move,canvas.Screen,0_3_0_7_0_8,-999,skipped,,215210,,,215188,,215210,2021-11-04T13:17:38.557Z,215226.7,1636031635,full,ni_sequenzen,NI_Sequenzen,9,7,,,,,,,,,,,,
,Move,canvas.Screen,0_3_0_7_0_9,-999,skipped,,215212,,,215188,,215212,2021-11-04T13:17:38.559Z,215226.7,1636031635,full,ni_sequenzen,NI_Sequenzen,10,7,,,,,,,,,,,,
,Move,canvas.Screen,0_3_0_7_0_10,-999,skipped,,215214,,,215188,,215214,2021-11-04T13:17:38.562Z,215226.7,1636031635,full,ni_sequenzen,NI_Sequenzen,11,7,,,,,,,,,,,,
,Move,canvas.Screen,0_3_0_7_0_11,-999,skipped,,215217,,,215188,,215217,2021-11-04T13:17:38.564Z,215226.7,1636031635,full,ni_sequenzen,NI_Sequenzen,12,7,,,,,,,,,,,,
,Move,canvas.Screen,0_3_0_7_0_12,-999,skipped,,215220,,,215188,,215220,2021-11-04T13:17:38.567Z,215226.7,1636031635,full,ni_sequenzen,NI_Sequenzen,13,7,,,,,,,,,,,,
,Move,canvas.Screen,0_3_0_7_0_13,-999,skipped,,215221,,,215188,,215221,2021-11-04T13:17:38.569Z,215226.7,1636031635,full,ni_sequenzen,NI_Sequenzen,14,7,,,,,,,,,,,,
,Move,canvas.Screen,0_3_0_7_0_14,-999,skipped,,215225,,,215188,,215225,2021-11-04T13:17:38.572Z,215226.7,1636031635,full,ni_sequenzen,NI_Sequenzen,15,7,,,,,,,,,,,,
,Loop,flow.Loop,0_3_0_7_0,-999,completion,,206542,206544.82,206551.76,215188,8636.23999999999,215225,2021-11-04T13:17:38.572Z,215226.7,1636031635,full,ni_sequenzen,NI_Sequenzen,,7,,,,,,,,,,,,
,Feedback,canvas.Screen,0_3_0_7_1,,timeout,,215227,215226.56,215226.7,219218.7,3998.959999999992,219219,2021-11-04T13:17:42.567Z,219225.66,1636031635,full,ni_sequenzen,NI_Sequenzen,,7,,,,,,,,,,,,
,Trial,flow.Sequence,0_3_0_7,,completion,,206539,206544.82,206551.76,219218.7,12666.940000000002,219219,2021-11-04T13:17:42.567Z,219232.6,1636031635,full,ni_sequenzen,NI_Sequenzen,,7,,,,,,,,,,,,
,Move,canvas.Screen,0_3_0_8_0_0,down,response,,219225,219225.66,219232.6,219719,486.3999999999942,219724,2021-11-04T13:17:43.072Z,219727.96,1636031635,full,ni_sequenzen,NI_Sequenzen,1,8,,,,,,,,,,,,
,Move,canvas.Screen,0_3_0_8_0_1,right,response,,219728,219727.88,219727.96,219921,193.04000000000815,219924,2021-11-04T13:17:43.272Z,219927.42,1636031635,full,ni_sequenzen,NI_Sequenzen,2,8,,,,,,,,,,,,
,Move,canvas.Screen,0_3_0_8_0_2,right,response,,219927,219927.32,219927.42,220126,198.5799999999872,220140,2021-11-04T13:17:43.488Z,220143.3,1636031635,full,ni_sequenzen,NI_Sequenzen,3,8,,,,,,,,,,,,
,Move,canvas.Screen,0_3_0_8_0_3,down,response,,220143,220143.24,220143.3,220313,169.70000000001164,220317,2021-11-04T13:17:43.664Z,220347.66,1636031635,full,ni_sequenzen,NI_Sequenzen,4,8,,,,,,,,,,,,
,Move,canvas.Screen,0_3_0_8_0_4,-999,skipped,,220320,,,220313,,220320,2021-11-04T13:17:43.668Z,220347.66,1636031635,full,ni_sequenzen,NI_Sequenzen,5,8,,,,,,,,,,,,
,Move,canvas.Screen,0_3_0_8_0_5,-999,skipped,,220322,,,220313,,220322,2021-11-04T13:17:43.670Z,220347.66,1636031635,full,ni_sequenzen,NI_Sequenzen,6,8,,,,,,,,,,,,
,Move,canvas.Screen,0_3_0_8_0_6,-999,skipped,,220325,,,220313,,220325,2021-11-04T13:17:43.673Z,220347.66,1636031635,full,ni_sequenzen,NI_Sequenzen,7,8,,,,,,,,,,,,
,Move,canvas.Screen,0_3_0_8_0_7,-999,skipped,,220328,,,220313,,220328,2021-11-04T13:17:43.675Z,220347.66,1636031635,full,ni_sequenzen,NI_Sequenzen,8,8,,,,,,,,,,,,
,Move,canvas.Screen,0_3_0_8_0_8,-999,skipped,,220330,,,220313,,220330,2021-11-04T13:17:43.677Z,220347.66,1636031635,full,ni_sequenzen,NI_Sequenzen,9,8,,,,,,,,,,,,
,Move,canvas.Screen,0_3_0_8_0_9,-999,skipped,,220334,,,220313,,220334,2021-11-04T13:17:43.681Z,220347.66,1636031635,full,ni_sequenzen,NI_Sequenzen,10,8,,,,,,,,,,,,
,Move,canvas.Screen,0_3_0_8_0_10,-999,skipped,,220336,,,220313,,220336,2021-11-04T13:17:43.683Z,220347.66,1636031635,full,ni_sequenzen,NI_Sequenzen,11,8,,,,,,,,,,,,
,Move,canvas.Screen,0_3_0_8_0_11,-999,skipped,,220338,,,220313,,220338,2021-11-04T13:17:43.686Z,220347.66,1636031635,full,ni_sequenzen,NI_Sequenzen,12,8,,,,,,,,,,,,
,Move,canvas.Screen,0_3_0_8_0_12,-999,skipped,,220340,,,220313,,220340,2021-11-04T13:17:43.688Z,220347.66,1636031635,full,ni_sequenzen,NI_Sequenzen,13,8,,,,,,,,,,,,
,Move,canvas.Screen,0_3_0_8_0_13,-999,skipped,,220343,,,220313,,220343,2021-11-04T13:17:43.691Z,220347.66,1636031635,full,ni_sequenzen,NI_Sequenzen,14,8,,,,,,,,,,,,
,Move,canvas.Screen,0_3_0_8_0_14,-999,skipped,,220345,,,220313,,220346,2021-11-04T13:17:43.693Z,220347.66,1636031635,full,ni_sequenzen,NI_Sequenzen,15,8,,,,,,,,,,,,
,Loop,flow.Loop,0_3_0_8_0,-999,completion,,219223,219225.66,219232.6,220313,1080.3999999999942,220346,2021-11-04T13:17:43.693Z,220347.66,1636031635,full,ni_sequenzen,NI_Sequenzen,,8,,,,,,,,,,,,
,Feedback,canvas.Screen,0_3_0_8_1,,timeout,,220348,220347.54,220347.66,224343.82,4003.100000000006,224344,2021-11-04T13:17:47.692Z,224350.76,1636031635,full,ni_sequenzen,NI_Sequenzen,,8,,,,,,,,,,,,
,Trial,flow.Sequence,0_3_0_8,,completion,,219220,219225.66,219232.6,224343.82,5111.220000000001,224345,2021-11-04T13:17:47.692Z,224357.7,1636031635,full,ni_sequenzen,NI_Sequenzen,,8,,,,,,,,,,,,
,Move,canvas.Screen,0_3_0_9_0_0,down,response,,224350,224350.76,224357.7,224876,518.2999999999884,224893,2021-11-04T13:17:48.240Z,224895.82,1636031635,full,ni_sequenzen,NI_Sequenzen,1,9,,,,,,,,,,,,
,Move,canvas.Screen,0_3_0_9_0_1,left,response,,224896,224895.74,224895.82,225126,230.17999999999302,225140,2021-11-04T13:17:48.488Z,225143.32,1636031635,full,ni_sequenzen,NI_Sequenzen,2,9,,,,,,,,,,,,
,Move,canvas.Screen,0_3_0_9_0_2,left,response,,225143,225143.24,225143.32,225391,247.67999999999302,225404,2021-11-04T13:17:48.752Z,225407.72,1636031635,full,ni_sequenzen,NI_Sequenzen,3,9,,,,,,,,,,,,
,Move,canvas.Screen,0_3_0_9_0_3,down,response,,225407,225407.64,225407.72,225813,405.27999999999884,225829,2021-11-04T13:17:49.176Z,225874.68,1636031635,full,ni_sequenzen,NI_Sequenzen,4,9,,,,,,,,,,,,
,Move,canvas.Screen,0_3_0_9_0_4,-999,skipped,,225836,,,225813,,225836,2021-11-04T13:17:49.183Z,225874.68,1636031635,full,ni_sequenzen,NI_Sequenzen,5,9,,,,,,,,,,,,
,Move,canvas.Screen,0_3_0_9_0_5,-999,skipped,,225841,,,225813,,225841,2021-11-04T13:17:49.188Z,225874.68,1636031635,full,ni_sequenzen,NI_Sequenzen,6,9,,,,,,,,,,,,
,Move,canvas.Screen,0_3_0_9_0_6,-999,skipped,,225845,,,225813,,225845,2021-11-04T13:17:49.193Z,225874.68,1636031635,full,ni_sequenzen,NI_Sequenzen,7,9,,,,,,,,,,,,
,Move,canvas.Screen,0_3_0_9_0_7,-999,skipped,,225850,,,225813,,225850,2021-11-04T13:17:49.197Z,225874.68,1636031635,full,ni_sequenzen,NI_Sequenzen,8,9,,,,,,,,,,,,
,Move,canvas.Screen,0_3_0_9_0_8,-999,skipped,,225853,,,225813,,225853,2021-11-04T13:17:49.201Z,225874.68,1636031635,full,ni_sequenzen,NI_Sequenzen,9,9,,,,,,,,,,,,
,Move,canvas.Screen,0_3_0_9_0_9,-999,skipped,,225857,,,225813,,225857,2021-11-04T13:17:49.204Z,225874.68,1636031635,full,ni_sequenzen,NI_Sequenzen,10,9,,,,,,,,,,,,
,Move,canvas.Screen,0_3_0_9_0_10,-999,skipped,,225860,,,225813,,225860,2021-11-04T13:17:49.208Z,225874.68,1636031635,full,ni_sequenzen,NI_Sequenzen,11,9,,,,,,,,,,,,
,Move,canvas.Screen,0_3_0_9_0_11,-999,skipped,,225862,,,225813,,225862,2021-11-04T13:17:49.210Z,225874.68,1636031635,full,ni_sequenzen,NI_Sequenzen,12,9,,,,,,,,,,,,
,Move,canvas.Screen,0_3_0_9_0_12,-999,skipped,,225865,,,225813,,225865,2021-11-04T13:17:49.213Z,225874.68,1636031635,full,ni_sequenzen,NI_Sequenzen,13,9,,,,,,,,,,,,
,Move,canvas.Screen,0_3_0_9_0_13,-999,skipped,,225869,,,225813,,225869,2021-11-04T13:17:49.217Z,225874.68,1636031635,full,ni_sequenzen,NI_Sequenzen,14,9,,,,,,,,,,,,
,Move,canvas.Screen,0_3_0_9_0_14,-999,skipped,,225871,,,225813,,225871,2021-11-04T13:17:49.220Z,225874.68,1636031635,full,ni_sequenzen,NI_Sequenzen,15,9,,,,,,,,,,,,
,Loop,flow.Loop,0_3_0_9_0,-999,completion,,224348,224350.76,224357.7,225813,1455.2999999999884,225873,2021-11-04T13:17:49.220Z,225874.68,1636031635,full,ni_sequenzen,NI_Sequenzen,,9,,,,,,,,,,,,
,Feedback,canvas.Screen,0_3_0_9_1,,timeout,,225875,225874.52,225874.68,229864.76,4128.140000000014,229865,2021-11-04T13:17:53.212Z,230002.82,1636031635,full,ni_sequenzen,NI_Sequenzen,,9,,,,,,,,,,,,
,Trial,flow.Sequence,0_3_0_9,,completion,,224345,224350.76,224357.7,229864.76,5507.059999999998,229865,2021-11-04T13:17:53.213Z,230002.9,1636031635,full,ni_sequenzen,NI_Sequenzen,,9,,,,,,,,,,,,
,Block,flow.Loop,0_3_0,,completion,,139309,139317.28,139321.36,229864.76,90543.40000000002,229865,2021-11-04T13:17:53.213Z,230002.9,1636031635,full,ni_sequenzen,NI_Sequenzen,,,,,,,,,,,,,,
,Training_II,flow.Sequence,0_3,,completion,,139297,139317.28,139321.36,229864.76,90543.40000000002,229865,2021-11-04T13:17:53.213Z,230002.9,1636031635,full,ni_sequenzen,NI_Sequenzen,,,,,,,,,,,,,,
,Screen_1,canvas.Screen,0_4_0_0,cont,response,1,230002,230002.82,230002.9,241813,11810.100000000006,241829,2021-11-04T13:18:05.177Z,241837.26,1636031635,full,ni_sequenzen,NI_Sequenzen,,,,,,,,,,,,,,
,Screen_2,canvas.Screen,0_4_0_1,cont,response,1,241832,241832.32,241837.26,247188,5350.739999999991,247204,2021-11-04T13:18:10.552Z,247281.88,1636031635,full,ni_sequenzen,NI_Sequenzen,,,,,,,,,,,,,,
,Screen_3,canvas.Screen,0_4_0_2,cont,response,1,247281,247280.6,247281.88,255266,7984.119999999995,255268,2021-11-04T13:18:18.616Z,255365.36,1636031635,full,ni_sequenzen,NI_Sequenzen,,,,,,,,,,,,,,
,Sequence,flow.Sequence,0_4_0,,completion,1,229884,230002.82,230002.9,255266,25263.100000000006,255269,2021-11-04T13:18:18.617Z,255365.36,1636031635,full,ni_sequenzen,NI_Sequenzen,,,,,,,,,,,,,,
,Screen_1,canvas.Screen,0_4_1_0,,skipped,2,255271,,,255271,,255271,2021-11-04T13:18:18.619Z,255365.36,1636031635,full,ni_sequenzen,NI_Sequenzen,,,,,,,,,,,,,,
,Screen_2,canvas.Screen,0_4_1_1,,skipped,2,255272,,,255271,,255272,2021-11-04T13:18:18.619Z,255365.36,1636031635,full,ni_sequenzen,NI_Sequenzen,,,,,,,,,,,,,,
,Screen_3,canvas.Screen,0_4_1_2,,skipped,2,255273,,,255271,,255273,2021-11-04T13:18:18.621Z,255365.36,1636031635,full,ni_sequenzen,NI_Sequenzen,,,,,,,,,,,,,,
,Sequence,flow.Sequence,0_4_1,,completion,2,255269,,,255271,,255273,2021-11-04T13:18:18.621Z,255365.36,1636031635,full,ni_sequenzen,NI_Sequenzen,,,,,,,,,,,,,,
,Screen_1,canvas.Screen,0_4_2_0,,skipped,3,255274,,,255274,,255274,2021-11-04T13:18:18.622Z,255365.36,1636031635,full,ni_sequenzen,NI_Sequenzen,,,,,,,,,,,,,,
,Screen_2,canvas.Screen,0_4_2_1,,skipped,3,255275,,,255274,,255275,2021-11-04T13:18:18.623Z,255365.36,1636031635,full,ni_sequenzen,NI_Sequenzen,,,,,,,,,,,,,,
,Screen_3,canvas.Screen,0_4_2_2,,skipped,3,255276,,,255274,,255276,2021-11-04T13:18:18.623Z,255365.36,1636031635,full,ni_sequenzen,NI_Sequenzen,,,,,,,,,,,,,,
,Sequence,flow.Sequence,0_4_2,,completion,3,255274,,,255274,,255276,2021-11-04T13:18:18.623Z,255365.36,1636031635,full,ni_sequenzen,NI_Sequenzen,,,,,,,,,,,,,,
,Screen_1,canvas.Screen,0_4_3_0,,skipped,4,255278,,,255278,,255278,2021-11-04T13:18:18.626Z,255365.36,1636031635,full,ni_sequenzen,NI_Sequenzen,,,,,,,,,,,,,,
,Screen_2,canvas.Screen,0_4_3_1,,skipped,4,255279,,,255278,,255279,2021-11-04T13:18:18.627Z,255365.36,1636031635,full,ni_sequenzen,NI_Sequenzen,,,,,,,,,,,,,,
,Screen_3,canvas.Screen,0_4_3_2,,skipped,4,255281,,,255278,,255281,2021-11-04T13:18:18.628Z,255365.36,1636031635,full,ni_sequenzen,NI_Sequenzen,,,,,,,,,,,,,,
,Sequence,flow.Sequence,0_4_3,,completion,4,255277,,,255278,,255281,2021-11-04T13:18:18.628Z,255365.36,1636031635,full,ni_sequenzen,NI_Sequenzen,,,,,,,,,,,,,,
,Screen_1,canvas.Screen,0_4_4_0,,skipped,5,255282,,,255282,,255282,2021-11-04T13:18:18.629Z,255365.36,1636031635,full,ni_sequenzen,NI_Sequenzen,,,,,,,,,,,,,,
,Screen_2,canvas.Screen,0_4_4_1,,skipped,5,255282,,,255282,,255282,2021-11-04T13:18:18.630Z,255365.36,1636031635,full,ni_sequenzen,NI_Sequenzen,,,,,,,,,,,,,,
,Screen_3,canvas.Screen,0_4_4_2,,skipped,5,255283,,,255282,,255283,2021-11-04T13:18:18.630Z,255365.36,1636031635,full,ni_sequenzen,NI_Sequenzen,,,,,,,,,,,,,,
,Sequence,flow.Sequence,0_4_4,,completion,5,255281,,,255282,,255283,2021-11-04T13:18:18.630Z,255365.36,1636031635,full,ni_sequenzen,NI_Sequenzen,,,,,,,,,,,,,,
,Screen_1,canvas.Screen,0_4_5_0,,skipped,6,255284,,,255284,,255284,2021-11-04T13:18:18.631Z,255365.36,1636031635,full,ni_sequenzen,NI_Sequenzen,,,,,,,,,,,,,,
,Screen_2,canvas.Screen,0_4_5_1,,skipped,6,255285,,,255284,,255285,2021-11-04T13:18:18.632Z,255365.36,1636031635,full,ni_sequenzen,NI_Sequenzen,,,,,,,,,,,,,,
,Screen_3,canvas.Screen,0_4_5_2,,skipped,6,255286,,,255284,,255286,2021-11-04T13:18:18.633Z,255365.36,1636031635,full,ni_sequenzen,NI_Sequenzen,,,,,,,,,,,,,,
,Sequence,flow.Sequence,0_4_5,,completion,6,255284,,,255284,,255286,2021-11-04T13:18:18.633Z,255365.36,1636031635,full,ni_sequenzen,NI_Sequenzen,,,,,,,,,,,,,,
,Screen_1,canvas.Screen,0_4_6_0,,skipped,7,255287,,,255287,,255287,2021-11-04T13:18:18.634Z,255365.36,1636031635,full,ni_sequenzen,NI_Sequenzen,,,,,,,,,,,,,,
,Screen_2,canvas.Screen,0_4_6_1,,skipped,7,255288,,,255287,,255288,2021-11-04T13:18:18.635Z,255365.36,1636031635,full,ni_sequenzen,NI_Sequenzen,,,,,,,,,,,,,,
,Screen_3,canvas.Screen,0_4_6_2,,skipped,7,255288,,,255287,,255288,2021-11-04T13:18:18.636Z,255365.36,1636031635,full,ni_sequenzen,NI_Sequenzen,,,,,,,,,,,,,,
,Sequence,flow.Sequence,0_4_6,,completion,7,255286,,,255287,,255288,2021-11-04T13:18:18.636Z,255365.36,1636031635,full,ni_sequenzen,NI_Sequenzen,,,,,,,,,,,,,,
,Screen_1,canvas.Screen,0_4_7_0,,skipped,8,255290,,,255290,,255290,2021-11-04T13:18:18.637Z,255365.36,1636031635,full,ni_sequenzen,NI_Sequenzen,,,,,,,,,,,,,,
,Screen_2,canvas.Screen,0_4_7_1,,skipped,8,255291,,,255290,,255291,2021-11-04T13:18:18.638Z,255365.36,1636031635,full,ni_sequenzen,NI_Sequenzen,,,,,,,,,,,,,,
,Screen_3,canvas.Screen,0_4_7_2,,skipped,8,255291,,,255290,,255291,2021-11-04T13:18:18.639Z,255365.36,1636031635,full,ni_sequenzen,NI_Sequenzen,,,,,,,,,,,,,,
,Sequence,flow.Sequence,0_4_7,,completion,8,255288,,,255290,,255292,2021-11-04T13:18:18.639Z,255365.36,1636031635,full,ni_sequenzen,NI_Sequenzen,,,,,,,,,,,,,,
,Screen_1,canvas.Screen,0_4_8_0,,skipped,9,255292,,,255292,,255292,2021-11-04T13:18:18.640Z,255365.36,1636031635,full,ni_sequenzen,NI_Sequenzen,,,,,,,,,,,,,,
,Screen_2,canvas.Screen,0_4_8_1,,skipped,9,255293,,,255292,,255293,2021-11-04T13:18:18.640Z,255365.36,1636031635,full,ni_sequenzen,NI_Sequenzen,,,,,,,,,,,,,,
,Screen_3,canvas.Screen,0_4_8_2,,skipped,9,255295,,,255292,,255295,2021-11-04T13:18:18.642Z,255365.36,1636031635,full,ni_sequenzen,NI_Sequenzen,,,,,,,,,,,,,,
,Sequence,flow.Sequence,0_4_8,,completion,9,255292,,,255292,,255295,2021-11-04T13:18:18.642Z,255365.36,1636031635,full,ni_sequenzen,NI_Sequenzen,,,,,,,,,,,,,,
,Screen_1,canvas.Screen,0_4_9_0,,skipped,10,255296,,,255296,,255296,2021-11-04T13:18:18.643Z,255365.36,1636031635,full,ni_sequenzen,NI_Sequenzen,,,,,,,,,,,,,,
,Screen_2,canvas.Screen,0_4_9_1,,skipped,10,255297,,,255296,,255297,2021-11-04T13:18:18.644Z,255365.36,1636031635,full,ni_sequenzen,NI_Sequenzen,,,,,,,,,,,,,,
,Screen_3,canvas.Screen,0_4_9_2,,skipped,10,255297,,,255296,,255297,2021-11-04T13:18:18.645Z,255365.36,1636031635,full,ni_sequenzen,NI_Sequenzen,,,,,,,,,,,,,,
,Sequence,flow.Sequence,0_4_9,,completion,10,255295,,,255296,,255297,2021-11-04T13:18:18.645Z,255365.36,1636031635,full,ni_sequenzen,NI_Sequenzen,,,,,,,,,,,,,,
,Screen_1,canvas.Screen,0_4_10_0,,skipped,11,255298,,,255298,,255298,2021-11-04T13:18:18.645Z,255365.36,1636031635,full,ni_sequenzen,NI_Sequenzen,,,,,,,,,,,,,,
,Screen_2,canvas.Screen,0_4_10_1,,skipped,11,255299,,,255298,,255299,2021-11-04T13:18:18.646Z,255365.36,1636031635,full,ni_sequenzen,NI_Sequenzen,,,,,,,,,,,,,,
,Screen_3,canvas.Screen,0_4_10_2,,skipped,11,255300,,,255298,,255300,2021-11-04T13:18:18.647Z,255365.36,1636031635,full,ni_sequenzen,NI_Sequenzen,,,,,,,,,,,,,,
,Sequence,flow.Sequence,0_4_10,,completion,11,255298,,,255298,,255300,2021-11-04T13:18:18.647Z,255365.36,1636031635,full,ni_sequenzen,NI_Sequenzen,,,,,,,,,,,,,,
,Screen_1,canvas.Screen,0_4_11_0,,skipped,12,255300,,,255300,,255300,2021-11-04T13:18:18.648Z,255365.36,1636031635,full,ni_sequenzen,NI_Sequenzen,,,,,,,,,,,,,,
,Screen_2,canvas.Screen,0_4_11_1,,skipped,12,255301,,,255300,,255301,2021-11-04T13:18:18.649Z,255365.36,1636031635,full,ni_sequenzen,NI_Sequenzen,,,,,,,,,,,,,,
,Screen_3,canvas.Screen,0_4_11_2,,skipped,12,255302,,,255300,,255302,2021-11-04T13:18:18.650Z,255365.36,1636031635,full,ni_sequenzen,NI_Sequenzen,,,,,,,,,,,,,,
,Sequence,flow.Sequence,0_4_11,,completion,12,255300,,,255300,,255302,2021-11-04T13:18:18.650Z,255365.36,1636031635,full,ni_sequenzen,NI_Sequenzen,,,,,,,,,,,,,,
,Screen_1,canvas.Screen,0_4_12_0,,skipped,13,255303,,,255303,,255303,2021-11-04T13:18:18.650Z,255365.36,1636031635,full,ni_sequenzen,NI_Sequenzen,,,,,,,,,,,,,,
,Screen_2,canvas.Screen,0_4_12_1,,skipped,13,255304,,,255303,,255304,2021-11-04T13:18:18.651Z,255365.36,1636031635,full,ni_sequenzen,NI_Sequenzen,,,,,,,,,,,,,,
,Screen_3,canvas.Screen,0_4_12_2,,skipped,13,255304,,,255303,,255304,2021-11-04T13:18:18.652Z,255365.36,1636031635,full,ni_sequenzen,NI_Sequenzen,,,,,,,,,,,,,,
,Sequence,flow.Sequence,0_4_12,,completion,13,255302,,,255303,,255304,2021-11-04T13:18:18.652Z,255365.36,1636031635,full,ni_sequenzen,NI_Sequenzen,,,,,,,,,,,,,,
,Screen_1,canvas.Screen,0_4_13_0,,skipped,14,255305,,,255305,,255305,2021-11-04T13:18:18.653Z,255365.36,1636031635,full,ni_sequenzen,NI_Sequenzen,,,,,,,,,,,,,,
,Screen_2,canvas.Screen,0_4_13_1,,skipped,14,255305,,,255305,,255305,2021-11-04T13:18:18.653Z,255365.36,1636031635,full,ni_sequenzen,NI_Sequenzen,,,,,,,,,,,,,,
,Screen_3,canvas.Screen,0_4_13_2,,skipped,14,255307,,,255305,,255307,2021-11-04T13:18:18.654Z,255365.36,1636031635,full,ni_sequenzen,NI_Sequenzen,,,,,,,,,,,,,,
,Sequence,flow.Sequence,0_4_13,,completion,14,255304,,,255305,,255307,2021-11-04T13:18:18.654Z,255365.36,1636031635,full,ni_sequenzen,NI_Sequenzen,,,,,,,,,,,,,,
,Screen_1,canvas.Screen,0_4_14_0,,skipped,15,255308,,,255308,,255308,2021-11-04T13:18:18.655Z,255365.36,1636031635,full,ni_sequenzen,NI_Sequenzen,,,,,,,,,,,,,,
,Screen_2,canvas.Screen,0_4_14_1,,skipped,15,255309,,,255308,,255309,2021-11-04T13:18:18.656Z,255365.36,1636031635,full,ni_sequenzen,NI_Sequenzen,,,,,,,,,,,,,,
,Screen_3,canvas.Screen,0_4_14_2,,skipped,15,255310,,,255308,,255310,2021-11-04T13:18:18.657Z,255365.36,1636031635,full,ni_sequenzen,NI_Sequenzen,,,,,,,,,,,,,,
,Sequence,flow.Sequence,0_4_14,,completion,15,255308,,,255308,,255310,2021-11-04T13:18:18.657Z,255365.36,1636031635,full,ni_sequenzen,NI_Sequenzen,,,,,,,,,,,,,,
,Screen_1,canvas.Screen,0_4_15_0,,skipped,16,255310,,,255310,,255310,2021-11-04T13:18:18.657Z,255365.36,1636031635,full,ni_sequenzen,NI_Sequenzen,,,,,,,,,,,,,,
,Screen_2,canvas.Screen,0_4_15_1,,skipped,16,255311,,,255310,,255311,2021-11-04T13:18:18.658Z,255365.36,1636031635,full,ni_sequenzen,NI_Sequenzen,,,,,,,,,,,,,,
,Screen_3,canvas.Screen,0_4_15_2,,skipped,16,255312,,,255310,,255312,2021-11-04T13:18:18.659Z,255365.36,1636031635,full,ni_sequenzen,NI_Sequenzen,,,,,,,,,,,,,,
,Sequence,flow.Sequence,0_4_15,,completion,16,255310,,,255310,,255312,2021-11-04T13:18:18.660Z,255365.36,1636031635,full,ni_sequenzen,NI_Sequenzen,,,,,,,,,,,,,,
,Screen_1,canvas.Screen,0_4_16_0,,skipped,17,255312,,,255312,,255312,2021-11-04T13:18:18.661Z,255365.36,1636031635,full,ni_sequenzen,NI_Sequenzen,,,,,,,,,,,,,,
,Screen_2,canvas.Screen,0_4_16_1,,skipped,17,255313,,,255312,,255313,2021-11-04T13:18:18.662Z,255365.36,1636031635,full,ni_sequenzen,NI_Sequenzen,,,,,,,,,,,,,,
,Screen_3,canvas.Screen,0_4_16_2,,skipped,17,255314,,,255312,,255314,2021-11-04T13:18:18.663Z,255365.36,1636031635,full,ni_sequenzen,NI_Sequenzen,,,,,,,,,,,,,,
,Sequence,flow.Sequence,0_4_16,,completion,17,255312,,,255312,,255315,2021-11-04T13:18:18.663Z,255365.36,1636031635,full,ni_sequenzen,NI_Sequenzen,,,,,,,,,,,,,,
